timestamp,gyro_x,gyro_y,gyro_z
1.7275275060691988e+18,0.0017446569399908185,-0.0013245985610410571,-0.0009095669374801219
1.727527506078199e+18,-0.00046760670375078917,0.0014112856006249785,-0.0020111463963985443
1.727527506081199e+18,0.0008755960734561086,0.0004345727211330086,0.0009526786743663251
1.7275275060871992e+18,0.0034970229025930166,0.0009926743805408478,0.0007451327983289957
1.7275275060931994e+18,-0.0031423044856637716,0.0007951875450089574,0.0009542866027913988
1.7275275060961994e+18,0.00011734510189853609,-0.00015012588119134307,-0.000358985154889524
1.7275275061021996e+18,0.0005575466202571988,0.0008321669884026051,0.0007446458912454545
1.7275275061081997e+18,0.0003380056004971266,-2.6374236767878756e-05,-0.0019549429416656494
1.7275275061141998e+18,0.0008028540760278702,-0.0013304991880431771,-0.0019351920345798135
1.7275275061172e+18,0.0002449814055580646,-0.0024606247898191214,-0.0037686459254473448
1.7275275061262e+18,-0.0015317292418330908,-0.00047471822472289205,-0.0007979007204994559
1.7275275061292e+18,-0.002942334860563278,0.0003628558770287782,-0.0012170529225841165
1.7275275061352003e+18,-0.00047245307359844446,0.004444907885044813,0.0016463996144011617
1.7275275061382003e+18,0.0007724369643256068,0.0005110888159833848,-0.0010828173253685236
1.7275275061442004e+18,0.0018686820985749364,0.001039117225445807,0.0003792400239035487
1.7275275061502006e+18,0.0023126450832933187,-0.001133964047767222,0.0005259330500848591
1.7275275061532006e+18,4.7970228479243815e-05,0.0006402890430763364,-0.00416972953826189
1.7275275061592008e+18,0.0006450178334489465,-0.0012852278305217624,-0.0035094907507300377
1.727527506165201e+18,0.0005124483723193407,-0.0010131691815331578,0.000303387496387586
1.727527506171201e+18,-0.0009784764843061566,0.0004413202404975891,0.0010096768382936716
1.727527506174201e+18,-0.0018468276830390096,-0.00037862014141865075,0.0010837457375600934
1.7275275061802012e+18,-0.00023108242021407932,-0.00013899327313993126,-0.0005417108768597245
1.7275275061862013e+18,-0.0021451013162732124,-0.0020210756920278072,-0.0039116330444812775
1.7275275061892014e+18,-0.0015502522001042962,0.00030367294675670564,0.000881596643012017
1.7275275061952015e+18,0.0006396654061973095,0.001929817721247673,-0.0013888227986171842
1.7275275062012017e+18,0.0015705456025898457,0.0004446968378033489,0.0017439364455640316
1.7275275062042017e+18,-0.0020476756617426872,0.00024091133673209697,0.0017811348661780357
1.7275275062102019e+18,-0.0031145336106419563,-0.00016879916074685752,-0.004704168997704983
1.727527506216202e+18,0.0020165906753391027,0.0006155960145406425,0.0004031539720017463
1.727527506219202e+18,0.004109634552150965,0.00044718990102410316,0.002773371059447527
1.7275275062252022e+18,-0.0005900669493712485,0.002730362815782428,-0.0003641624061856419
1.7275275062312023e+18,-0.0003639997448772192,0.0013025557855144143,0.001668806653469801
1.7275275062372024e+18,0.0009405198507010937,-0.0016677858075127006,-0.0013481131754815578
1.7275275062402025e+18,0.0009687357814982533,-0.00045269611291587353,-0.0016248616157099605
1.7275275062462026e+18,-0.001205534441396594,0.0026980082038789988,0.0024054560344666243
1.7275275062522028e+18,-0.0004727504274342209,0.000873105542268604,0.0015330512542277575
1.7275275062552028e+18,0.0010355634149163961,-0.001334250788204372,0.00042768975254148245
1.727527506261203e+18,0.00013103714445605874,-0.0011235267156735063,0.00044622397399507463
1.727527506267203e+18,-0.0009504334884695709,0.0039634970016777515,-0.0006421392899937928
1.7275275062702031e+18,-0.0007199377869255841,-0.0001622345735086128,-0.0003031908127013594
1.7275275062762033e+18,-0.0006184582016430795,9.436671098228544e-05,0.0005830342415720224
1.7275275062822034e+18,-0.0010524686658754945,-0.00031548889819532633,0.00043821579311043024
1.7275275062852035e+18,0.0010928406845778227,-0.0027874044608324766,0.0023357910104095936
1.7275275062912036e+18,-0.0017290808027610183,-0.004592313896864653,0.0009222606313414872
1.7275275062972037e+18,0.0010551854502409697,-0.0008400997030548751,-0.0002106652973452583
1.7275275063032038e+18,0.002833479316905141,0.0013733449159190059,-0.0010251757921651006
1.727527506309204e+18,-0.000859190768096596,-0.0004584502603393048,0.0008799198549240828
1.727527506312204e+18,-0.0015931845409795642,-0.0009495876729488373,-0.00011338116746628657
1.7275275063182042e+18,-0.0002447361475788057,-0.0032867605332285166,-0.0025191179011017084
1.7275275063242043e+18,-0.0022252833005040884,0.0035292741376906633,-0.0017152907093986869
1.7275275063302044e+18,0.0011814723256975412,0.0007369061349891126,-0.0027547464706003666
1.7275275063362045e+18,0.0004521805967669934,-0.0015052070375531912,-0.00228590308688581
1.7275275063392046e+18,0.0038809406105428934,0.00016939044871833175,0.0009065753547474742
1.7275275063452047e+18,-1.839671858760994e-05,0.002682792255654931,-0.0013183561386540532
1.7275275063512049e+18,0.0016189302550628781,-0.0011366211110725999,0.0004127137362957001
1.727527506354205e+18,-0.002110277069732547,-0.0007025440572760999,-0.0007847234373912215
1.727527506360205e+18,0.0007610762258991599,-0.0015512780519202352,-0.00025610392913222313
1.7275275063662052e+18,0.00025647543952800333,-0.0002088597830152139,0.001029420061968267
1.7275275063722053e+18,0.001733406214043498,0.0004602108965627849,-0.0026994245126843452
1.7275275063752054e+18,-0.0008431957685388625,0.0013206575531512499,-0.0009488852228969336
1.7275275063812055e+18,-0.00016547988343518227,-0.00168308534193784,-0.0010729291243478656
1.7275275063872056e+18,-3.410596400499344e-05,-0.000777913723140955,0.002057461068034172
1.7275275063932058e+18,-0.0007385532953776419,0.0010350171942263842,0.0010062907822430134
1.7275275063962058e+18,-0.0008407090208493173,0.0007965460536070168,-0.0003203702799510211
1.727527506402206e+18,0.0003022684541065246,0.0016043144278228283,0.000722940603736788
1.727527506408206e+18,-0.0006396949174813926,-0.0003081885806750506,-0.0008538460242561996
1.7275275064112061e+18,0.0023204339668154716,-0.0002489270700607449,-0.0016330910148099065
1.7275275064172063e+18,0.0019996047485619783,0.0006652401061728597,-0.0010812062537297606
1.7275275064232064e+18,-0.001070600119419396,0.0007030586712062359,-0.001833948539569974
1.7275275064262065e+18,-0.0005038175731897354,0.0003144458751194179,-0.00325219938531518
1.7275275064322066e+18,-0.0004191831685602665,0.0015762678813189268,0.001594914821907878
1.7275275064382067e+18,0.002089383080601692,0.0016237194649875164,0.0028207467403262854
1.7275275064442068e+18,-0.002045955741778016,0.0007097120396792889,0.0008783371304161847
1.727527506447207e+18,0.0009312015026807785,-0.0009339085081592202,0.0024752288591116667
1.727527506453207e+18,0.0018081561429426074,-0.0007764981128275394,-0.002851045224815607
1.7275275064592072e+18,0.0026556241791695356,-0.0035791872069239616,-0.0023277162108570337
1.7275275064652073e+18,0.000564024958293885,-0.0021447031758725643,-0.0018769333837553859
1.7275275064712074e+18,-0.0038884151726961136,0.0005891287000849843,-0.002534107305109501
1.7275275064742075e+18,0.0010116379708051682,-0.001515882438980043,0.0021360069513320923
1.7275275064802076e+18,0.0003799046389758587,-0.0006342013366520405,0.0035638059489428997
1.7275275064862077e+18,0.0003064134216401726,-0.0014014974003657699,0.0005995211540721357
1.7275275064922079e+18,0.0004763722245115787,0.0002561915316618979,0.0033996272832155228
1.727527506495208e+18,0.0007731883088126779,0.0015927022323012352,-0.0016212750924751163
1.727527506501208e+18,0.0030510241631418467,0.00018319454102311283,0.002243048045784235
1.7275275065072082e+18,0.00214375089854002,0.00013600198144558817,0.002119143959134817
1.7275275065132083e+18,2.0843899619649164e-06,0.00018340010137762874,-0.001853180699981749
1.7275275065192084e+18,0.001433436875231564,0.000627014203928411,-0.0026676903944462538
1.7275275065222085e+18,-0.001748045440763235,-0.00035869659041054547,-0.0012561616022139788
1.7275275065282086e+18,-0.001954411854967475,-0.0011935245711356401,-0.0007683162111788988
1.7275275065342088e+18,-0.00013669164036400616,-0.0005877873627468944,-0.0013670041225850582
1.727527506540209e+18,-0.0006804039585404098,0.0005577977863140404,0.002992570400238037
1.727527506543209e+18,-0.0006587858661077917,-0.002050818409770727,-0.0020857141353189945
1.727527506549209e+18,0.0011936200316995382,-5.100720954942517e-06,0.00022240787802729756
1.7275275065552092e+18,-0.0008793763699941337,-0.0033339178189635277,0.003453790210187435
1.7275275065582093e+18,-0.00028837061836384237,0.00021115419804118574,-0.000929132744204253
1.7275275065642094e+18,-0.00013114641478750855,0.001691825338639319,0.0002495034714229405
1.7275275065702095e+18,-0.0001097220228984952,0.0011393307941034436,0.001228195265866816
1.7275275065732096e+18,0.001034641289152205,-0.0019484207732602954,0.00035410220152698457
1.7275275065792097e+18,0.003061700612306595,-0.0010328341741114855,-0.0013305684551596642
1.7275275065852099e+18,0.004323627799749374,0.0001841527846409008,-0.0021414703223854303
1.72752750659121e+18,-0.001733147888444364,0.000594465876929462,0.0005689849494956434
1.72752750659421e+18,-0.0006078649312257767,-0.0006436948897317052,-0.002461373107507825
1.7275275066002102e+18,0.002615364035591483,4.483459997572936e-05,0.0005396006745286286
1.7275275066062103e+18,-0.0002553290396463126,0.000871836906298995,0.0015148858074098825
1.7275275066122104e+18,-0.0011716316221281886,0.001862596021965146,0.00030336109921336174
1.7275275066152105e+18,0.0005890537286177278,0.0016836243448778987,0.0012480189325287938
1.7275275066212106e+18,-0.0019705421291291714,-0.0021383005660027266,0.0003724627022165805
1.7275275066272108e+18,0.003507194109261036,-0.0006401531863957644,0.0008598121930845082
1.727527506633211e+18,-0.0022064929362386465,-0.00042531968210823834,-0.0010027724783867598
1.727527506636211e+18,-0.0011929048923775554,0.0008509018225595355,-0.0003163923684041947
1.727527506642211e+18,-0.0006228182464838028,0.002206953475251794,-0.0009257183410227299
1.7275275066482112e+18,-0.002001008950173855,0.003307588631287217,0.001164599903859198
1.7275275066512113e+18,-0.0009481822489760816,8.27192488941364e-05,0.004963037092238665
1.7275275066572114e+18,0.0006347674643620849,0.001258475356735289,0.00012172981223557144
1.7275275066632115e+18,0.001563384081237018,0.002515734639018774,-0.002053267788141966
1.7275275066692116e+18,0.0018508965149521828,0.0016654768260195851,0.002150037093088031
1.7275275066722117e+18,-0.0008334704907611012,-0.00028695628861896694,-0.0022688889876008034
1.7275275066782118e+18,-0.0009909801883623004,-0.001362411305308342,0.00023750553373247385
1.727527506684212e+18,0.0026831270661205053,0.0008238260634243488,0.0009162285132333636
1.727527506687212e+18,-0.002415113151073456,-0.0020471708849072456,-0.0007885464001446962
1.7275275066932122e+18,-0.0015697100898250937,-0.0005758394254371524,-0.0013769161887466908
1.7275275066992123e+18,-0.0007113259052857757,-0.0012650216231122613,-0.0008205358171835542
1.7275275067052124e+18,0.0009065247722901404,-0.00025398319121450186,-0.000307191425235942
1.7275275067082125e+18,0.0023191217333078384,-0.001527257147245109,0.0015429271152243018
1.7275275067142126e+18,0.0027540153823792934,-0.00020021967065986246,0.0012659912463277578
1.7275275067202127e+18,-0.0020138162653893232,0.001390493125654757,-0.0030548861250281334
1.7275275067232128e+18,0.00017086189473047853,0.0025238750968128443,0.0023351076524704695
1.727527506729213e+18,0.0029520136304199696,0.0011436959030106664,0.0014559548581019044
1.727527506735213e+18,-0.0006690663285553455,0.00030237075407058,0.00023088751186151057
1.7275275067412132e+18,-0.0015338714001700282,-0.0007694076630286872,0.0013156526256352663
1.7275275067442132e+18,-0.0006270328303799033,0.000995925161987543,-0.00019091388094238937
1.7275275067502134e+18,0.00039040521369315684,0.002260567620396614,0.002154120709747076
1.7275275067562135e+18,-0.0027512083761394024,0.000496009539347142,-0.0010377492289990187
1.7275275067622136e+18,0.0001234313240274787,-0.0008840829832479358,-0.00036660124897025526
1.7275275067652137e+18,-0.00032824251684360206,-0.0018524585757404566,-0.0011908354936167598
1.7275275067712138e+18,0.0002544834278523922,-0.00025023662601597607,-0.0012513247784227133
1.727527506777214e+18,-0.002624916611239314,0.005421631969511509,-0.00023200918803922832
1.727527506783214e+18,-0.0033118242863565683,-0.0016351131489500403,0.0009486767230555415
1.7275275067862141e+18,-0.0004667025350499898,-0.0009461244917474687,0.0014354164013639092
1.7275275067922143e+18,-0.0003148592950310558,0.0006227121921256185,0.004197821486741304
1.7275275067982144e+18,-0.0031472716946154833,-0.0019303696462884545,0.0018879394046962261
1.7275275068042145e+18,0.0018550463719293475,-0.0014054287457838655,0.0015567624941468239
1.7275275068102147e+18,-0.0007964973920024931,-0.002331434516236186,0.0017623259918764234
1.7275275068132147e+18,-0.0019392897374927998,0.0006772750639356673,-0.0003760339168366045
1.7275275068192148e+18,0.00015562250337097794,-0.0015269070863723755,-0.002380307298153639
1.727527506825215e+18,-0.0024116276763379574,8.851989696267992e-05,-0.000758111011236906
1.727527506828215e+18,-0.0012820417759940028,0.00017282691260334104,-0.002294729230925441
1.7275275068342152e+18,-0.001409747637808323,0.0005226883222348988,-0.0012837074464187026
1.7275275068402153e+18,7.637750240974128e-05,-0.0020916310604661703,-0.001497914781793952
1.7275275068462154e+18,-0.00016492039139848202,-0.0001368910016026348,-0.0009102936019189656
1.7275275068492155e+18,-0.0014338719192892313,0.0006517845904454589,-0.000562479835934937
1.7275275068552156e+18,0.001170970732346177,-0.000531044730450958,0.00209317565895617
1.7275275068612157e+18,-0.0017567789182066917,-0.0014904720010235906,0.00015337913646362722
1.727527506867216e+18,-0.0018953634425997734,-0.001891580643132329,0.0010454992298036814
1.727527506870216e+18,0.0008918000967241824,-0.001716485945507884,0.002034545876085758
1.727527506876216e+18,0.0012040665606036782,0.002593951765447855,-0.001008065533824265
1.7275275068822162e+18,-0.0004224737349431962,-0.000843551941215992,0.0009165811352431774
1.7275275068882163e+18,-0.0024454272352159023,0.0028503541834652424,-0.0031281523406505585
1.7275275068942164e+18,-0.002221787581220269,0.002191785490140319,0.001168565358966589
1.7275275068972165e+18,0.0010606914293020964,-1.761743533279514e-06,0.0008504629950039089
1.7275275069032166e+18,0.0007732684025540948,0.000957190350163728,0.0023963770363479853
1.7275275069092168e+18,-0.00214749644510448,0.003895438276231289,0.0017672927351668477
1.727527506915217e+18,-0.0009852140210568905,0.0012022234732285142,0.0003522174956742674
1.727527506918217e+18,5.8523340840110905e-08,0.0009164558723568916,-0.0008808969869278371
1.727527506924217e+18,0.0003595766029320657,-0.0008293124847114086,0.0009487067582085729
1.7275275069302172e+18,0.001109433826059103,0.001096497057005763,-0.0015809383476153016
1.7275275069332173e+18,0.001190070528537035,0.001110892160795629,0.002243685768917203
1.7275275069392174e+18,1.4292410014604684e-05,-0.0011728234821930528,-2.0807410692214034e-05
1.7275275069452175e+18,0.000536289531737566,-0.002886005211621523,5.51557750441134e-05
1.7275275069482176e+18,0.00024439848493784666,0.0018754348857328296,-0.002132648602128029
1.7275275069542177e+18,-0.0022140899673104286,-0.0006240156362764537,0.001101021422073245
1.7275275069602179e+18,-0.0006212691660039127,-0.0008301026537083089,0.00030229255207814276
1.727527506966218e+18,0.003725365735590458,-0.0014301204355433583,-0.002591149415820837
1.727527506972218e+18,-0.0002346291730646044,-0.0029124023858457804,0.0014681617030873895
1.7275275069752182e+18,0.0019065276719629765,-0.000950604910030961,-0.0003719220112543553
1.7275275069812183e+18,0.0004923644592054188,0.001472965464927256,0.0011959894327446818
1.7275275069872184e+18,0.0008402398671023548,-0.0020516570657491684,0.0010600013192743063
1.7275275069932186e+18,-0.002500644652172923,-0.000167984573636204,-0.0020559746772050858
1.7275275069992187e+18,-0.0008167442865669727,0.00312791857868433,-0.004510118160396814
1.7275275070022188e+18,0.00023631524527445436,-0.00034194611362181604,0.0016403801273554564
1.727527507008219e+18,-0.0005260059842839837,0.001984957605600357,-0.0014221896417438984
1.727527507014219e+18,-0.0015877612167969346,-0.0018068650970235467,0.0009783855639398098
1.727527507017219e+18,-0.0013643525307998061,0.0020120188128203154,-0.0007794952252879739
1.7275275070232192e+18,0.0007227750029414892,0.00250229868106544,-0.00024054126697592437
1.7275275070292193e+18,-0.004091585986316204,0.0018049072241410613,0.0028141557704657316
1.7275275070352195e+18,0.002145338337868452,0.0011271254625171423,-0.0002135270624421537
1.7275275070382195e+18,-0.0021727299317717552,0.0006533618434332311,0.0011841080849990249
1.7275275070442196e+18,-0.0024122949689626694,-0.0017360763158649206,0.004038022365421057
1.7275275070502198e+18,4.7400066250702366e-05,-0.0010985423577949405,-0.0011892506154254079
1.72752750705622e+18,0.0019484520889818668,-0.00010312033555237576,-0.0019303160952404141
1.72752750706222e+18,-0.0012680721702054143,0.000610058254096657,-0.0004295522521715611
1.7275275070682202e+18,0.00016055686865001917,0.002400475088506937,-0.00028774188831448555
1.7275275070712202e+18,-0.0014828854473307729,-0.0009219266939908266,-0.0007774155819788575
1.7275275070772204e+18,-0.000562732748221606,-0.0023111626505851746,-0.0023662003222852945
1.7275275070832205e+18,0.00015448160411324352,0.0015355005161836743,0.0014120745472609997
1.7275275070892206e+18,-0.00046010222285985947,0.0015299782389774919,-0.0010999722871929407
1.7275275070952207e+18,-0.00047844700748100877,0.0014821531949564815,0.0003611907013691962
1.7275275071012209e+18,-0.0003264096158090979,0.0012638474581763148,0.00164099782705307
1.727527507104221e+18,-0.00015815591905266047,0.00032611461938358843,0.00027576484717428684
1.727527507110221e+18,0.0015663962112739682,0.001360114081762731,0.0015942620811983943
1.7275275071162212e+18,-0.00019602243264671415,0.004091761074960232,-0.0007057799375616014
1.7275275071222213e+18,0.0022245426662266254,0.0003715545462910086,-0.0013040470657870173
1.7275275071282214e+18,-0.0015389948384836316,-0.0008491523331031203,-0.0005874725175090134
1.7275275071342216e+18,0.00010864222713280469,-0.001484108972363174,-0.0010162278776988387
1.7275275071372216e+18,0.0020454921759665012,-0.0007900555501691997,-0.0006764092249795794
1.7275275071432218e+18,0.0008072715136222541,5.357569898478687e-05,-0.0018137871520593762
1.727527507149222e+18,-9.799926192499697e-05,-0.0009492090321145952,0.0015531079843640327
1.727527507155222e+18,-0.0005784890381619334,-0.0002629409427754581,0.004370951093733311
1.7275275071612221e+18,0.0003000518772751093,-0.0018283159006386995,0.0006797536043450236
1.7275275071672223e+18,-0.001608379534445703,9.374758519697934e-05,-0.00219351751729846
1.7275275071732224e+18,0.00014997614198364317,-0.0016767357010394335,0.000821649853605777
1.7275275071762225e+18,-0.002078243298456073,0.0009073809487745166,0.00025257313973270357
1.7275275071822226e+18,3.2897460187086836e-05,-0.00019166406127624214,-0.0010843633208423853
1.7275275071882227e+18,0.00014435085176955909,-0.0006826050812378526,1.754007644194644e-05
1.7275275071942228e+18,0.0008256047731265426,-0.001035208348184824,-0.0016998955979943275
1.727527507200223e+18,0.0011644007172435522,-0.0006656105979345739,-0.0005021531833335757
1.727527507206223e+18,0.0003530952089931816,0.000897768943104893,0.0013855526922270656
1.7275275072092232e+18,-0.0016460117185488343,0.0004427213571034372,-0.0011747386306524277
1.7275275072152233e+18,0.0012330722529441118,0.0006680346559733152,0.0017984264995902777
1.7275275072212234e+18,0.0004463006043806672,0.0032374251168221235,0.0009258745121769607
1.7275275072272236e+18,-0.00042474904330447316,-0.001872714958153665,0.0009759569074958563
1.7275275072332237e+18,-0.0002434401831123978,-0.0015130589017644525,0.0024720849469304085
1.7275275072362237e+18,-0.00042447663145139813,-0.00043547790846787393,0.0005668341182172298
1.7275275072422239e+18,0.001281795441173017,0.00010857998859137297,0.0037106936797499657
1.727527507248224e+18,0.0016901842318475246,0.0004105576081201434,-0.0010342677123844624
1.7275275072542241e+18,-0.004801626782864332,-0.0014013751642778516,-0.001636820612475276
1.7275275072602243e+18,-0.00030970131047070026,0.0010431051487103105,0.0020110418554395437
1.7275275072662244e+18,-0.00198168377391994,0.0016111963195726275,0.002766915364190936
1.7275275072722245e+18,-0.0007595060160383582,0.0013411518884822726,-0.00015779811656102538
1.7275275072752246e+18,0.0007017228635959327,-0.0020114874932914972,-0.0023542067501693964
1.7275275072812247e+18,0.0015025935135781765,0.00018763776461128145,-0.0008527819300070405
1.7275275072872248e+18,0.002609378658235073,0.0018920089351013303,-0.00019607435388024896
1.727527507293225e+18,0.0013390225358307362,0.0012294281041249633,0.0012967464281246066
1.727527507296225e+18,0.0014280207687988877,0.0004450631677173078,0.0008893851772882044
1.7275275073022252e+18,0.00095525779761374,-0.0008592001395300031,0.0010281055001541972
1.7275275073052252e+18,0.0026114750653505325,0.00043669689330272377,0.0004244393203407526
1.7275275073112253e+18,0.0014382367953658104,-0.003542656544595957,0.0009619724005460739
1.7275275073172255e+18,0.0008088696049526334,-0.01681649498641491,0.004053427837789059
1.7275275073232256e+18,-0.0013219313696026802,-0.02295527420938015,0.003982086665928364
1.7275275073262257e+18,-0.0004425296210683882,-0.03194481506943703,0.00682873884215951
1.7275275073322258e+18,-0.0005484214052557945,-0.0411328449845314,0.011299606412649155
1.727527507338226e+18,-0.0004013864090666175,-0.050647564232349396,0.013240650296211243
1.727527507344226e+18,-0.0014868560247123241,-0.056472793221473694,0.015984168276190758
1.727527507347226e+18,0.00048642122419551015,-0.054498180747032166,0.015772735700011253
1.7275275073532262e+18,0.0014888434670865536,-0.05690127611160278,0.018770983442664146
1.7275275073592264e+18,0.0016840274911373854,-0.05204800143837929,0.02630748599767685
1.7275275073652265e+18,0.0007260015700012445,-0.047807373106479645,0.025661960244178772
1.7275275073682266e+18,-0.0012568109668791294,-0.04809655249118805,0.03045474737882614
1.7275275073742267e+18,0.002408454427495599,-0.042460646480321884,0.031001921743154526
1.7275275073802268e+18,0.0013252913486212492,-0.04422007501125336,0.03303327411413193
1.727527507383227e+18,-0.005507125519216061,-0.043985478579998016,0.036015160381793976
1.727527507389227e+18,-0.004033079370856285,-0.04442133754491806,0.03575696796178818
1.7275275073952271e+18,-0.008167801424860954,-0.04636739194393158,0.04234550893306732
1.7275275074012273e+18,-0.00990978255867958,-0.04896095022559166,0.0439884252846241
1.7275275074042273e+18,-0.005640772636979818,-0.047356508672237396,0.042202483862638474
1.7275275074102275e+18,-0.004591071512550116,-0.04993947222828865,0.04596473649144173
1.7275275074162276e+18,-0.003875468857586384,-0.04990781843662262,0.04798610880970955
1.7275275074192276e+18,-0.0022992752492427826,-0.04962402954697609,0.04765380173921585
1.7275275074252278e+18,0.0005213863914832473,-0.0470137856900692,0.04904092848300934
1.727527507431228e+18,0.001128903590142727,-0.04151054844260216,0.05497350916266441
1.727527507437228e+18,0.0012005941243842244,-0.03865194693207741,0.05655267834663391
1.727527507440228e+18,0.0012868252815678716,-0.03694259375333786,0.05727130547165871
1.7275275074462282e+18,-0.001822103513404727,-0.032441943883895874,0.05844876542687416
1.7275275074522284e+18,0.0005441253306344151,-0.028737353160977364,0.059503283351659775
1.7275275074582285e+18,-0.0016912558348849416,-0.02957134135067463,0.06649579107761383
1.7275275074612285e+18,-0.0036092197988182306,-0.025827033445239067,0.06577140837907791
1.7275275074672287e+18,-0.003604514291509986,-0.02601245790719986,0.06741531193256378
1.7275275074732288e+18,-0.0033376242499798536,-0.024387836456298828,0.06712617725133896
1.727527507479229e+18,-0.00302708987146616,-0.025013869628310204,0.07119259238243103
1.727527507482229e+18,-0.001172263640910387,-0.02475552260875702,0.07085384428501129
1.727527507488229e+18,-0.001855707261711359,-0.024480557069182396,0.07026277482509613
1.7275275074942292e+18,0.0008005480631254613,-0.016374818980693817,0.0749557688832283
1.7275275075002294e+18,0.0025232979096472263,-0.015501360408961773,0.07422280311584473
1.7275275075032294e+18,0.004083715379238129,-0.010690306313335896,0.07791612297296524
1.7275275075092296e+18,0.0020697563886642456,-0.009365337900817394,0.07941390573978424
1.7275275075152297e+18,-0.0028660639654845,-0.004298530053347349,0.08108381181955338
1.7275275075182298e+18,0.003457753686234355,-0.002857854589819908,0.08123183995485306
1.72752750752423e+18,-0.0021197698079049587,-0.0002634358825162053,0.08138547092676163
1.72752750753023e+18,-0.004574609454721212,0.0024545094929635525,0.08564254641532898
1.7275275075362301e+18,-0.001357104629278183,-0.002452357206493616,0.08572429418563843
1.7275275075392302e+18,-0.0033512823283672333,-0.00011204343172721565,0.08917482942342758
1.7275275075452303e+18,-0.002683627652004361,0.0009106697980314493,0.087982676923275
1.7275275075512305e+18,0.0008688252419233322,0.00029462261591106653,0.08979974687099457
1.7275275075572306e+18,0.002609367948025465,0.003293375251814723,0.0917661190032959
1.7275275075632307e+18,0.0040276930667459965,0.006134158931672573,0.09387092292308807
1.7275275075692308e+18,0.004566739313304424,0.00912872888147831,0.09522265195846558
1.727527507575231e+18,0.005360960960388184,0.009838800877332687,0.09616221487522125
1.727527507581231e+18,0.0026198364794254303,0.014148328453302383,0.09365174174308777
1.7275275075872312e+18,0.004436805844306946,0.015421614050865173,0.0988943874835968
1.7275275075932314e+18,0.0013931789435446262,0.016920818015933037,0.09887822717428207
1.7275275075992315e+18,-0.0015988117083907127,0.016452722251415253,0.09974291175603867
1.7275275076052316e+18,0.001752276555635035,0.015959639102220535,0.10123700648546219
1.7275275076112317e+18,-0.0014383082743734121,0.014035088010132313,0.10413426905870438
1.727527507617232e+18,0.0013221867848187685,0.016379840672016144,0.101853147149086
1.727527507623232e+18,0.002577835228294134,0.01672668568789959,0.10355618596076965
1.727527507626232e+18,0.0021141935139894485,0.017539793625473976,0.1069205179810524
1.7275275076322322e+18,0.00207419041544199,0.01759718731045723,0.10458424687385559
1.7275275076382323e+18,0.0008259587921202183,0.018237920477986336,0.10525480657815933
1.7275275076442324e+18,0.0038922212552279234,0.02055014669895172,0.1057586520910263
1.7275275076502326e+18,0.003661765018478036,0.020268088206648827,0.10708604753017426
1.7275275076562327e+18,-0.00036975229158997536,0.02091102860867977,0.1096252053976059
1.7275275076622328e+18,0.0027643879875540733,0.019130876287817955,0.10740987211465836
1.727527507668233e+18,0.0032430398277938366,0.018420062959194183,0.10932482033967972
1.727527507674233e+18,0.001171138253994286,0.017560826614499092,0.10842924565076828
1.7275275076802332e+18,0.0018719983054324985,0.01905789040029049,0.1102420911192894
1.7275275076862333e+18,0.005317767150700092,0.019418174400925636,0.11274272948503494
1.7275275076922335e+18,0.0025692800991237164,0.019829513505101204,0.1090364158153534
1.7275275076982336e+18,0.0072890822775661945,0.02413446269929409,0.11173557490110397
1.7275275077042337e+18,0.002642628736793995,0.02297249622642994,0.1129770427942276
1.7275275077102339e+18,0.003433310892432928,0.02127893641591072,0.1103699579834938
1.727527507716234e+18,0.004410859663039446,0.02488141506910324,0.11391375213861465
1.727527507722234e+18,0.005852573551237583,0.01886952482163906,0.11517607420682907
1.7275275077282342e+18,0.0022364070173352957,0.02165231667459011,0.11236763745546341
1.7275275077342344e+18,0.002248691162094474,0.01898805797100067,0.11388397216796875
1.7275275077372344e+18,0.0024712823797017336,0.019536392763257027,0.11120893806219101
1.7275275077432346e+18,0.002999061718583107,0.01751585491001606,0.11199498921632767
1.7275275077492347e+18,0.002360344398766756,0.018482042476534843,0.11304637044668198
1.7275275077552348e+18,-0.000492802239023149,0.016548166051506996,0.11164984107017517
1.727527507761235e+18,0.0017745313234627247,0.018039405345916748,0.11310666054487228
1.727527507767235e+18,0.0028236100915819407,0.017384368926286697,0.11384987086057663
1.7275275077732352e+18,0.007239742204546928,0.02003255859017372,0.11430517584085464
1.7275275077792353e+18,0.007072802633047104,0.019351840019226074,0.11170904338359833
1.7275275077852355e+18,0.0028213164769113064,0.020913638174533844,0.11392606049776077
1.7275275077912356e+18,0.0036114316899329424,0.015553764067590237,0.11127523332834244
1.7275275077972357e+18,-0.0015340732643380761,0.018561016768217087,0.10953058302402496
1.7275275078032358e+18,0.000829296768642962,0.01738475263118744,0.10887065529823303
1.727527507809236e+18,0.0013450579717755318,0.013515545055270195,0.1139540821313858
1.727527507812236e+18,-0.0029178126715123653,0.01104457676410675,0.11170520633459091
1.7275275078182362e+18,-0.002440443728119135,0.015051940456032753,0.11030074208974838
1.7275275078242363e+18,-0.0016892667626962066,0.013211328536272049,0.11015886068344116
1.7275275078302364e+18,0.0007074783788993955,0.012752877548336983,0.11025670170783997
1.7275275078362365e+18,-0.0011862121755257249,0.011568435467779636,0.11010220646858215
1.7275275078422367e+18,0.0007858958560973406,0.01414940319955349,0.10825322568416595
1.7275275078452367e+18,0.0004330844385549426,0.013611672446131706,0.11300218850374222
1.7275275078512369e+18,0.0005737676983699203,0.011317647062242031,0.10938522219657898
1.727527507857237e+18,0.000761581992264837,0.011044468730688095,0.11015545576810837
1.727527507860237e+18,0.0014181939186528325,0.016474150121212006,0.10995557904243469
1.7275275078662372e+18,-0.00019417062867432833,0.014805282466113567,0.10935787111520767
1.7275275078722373e+18,-0.00315511180087924,0.011135616339743137,0.10893452167510986
1.7275275078782374e+18,-0.0005132816731929779,0.010910752229392529,0.10700453817844391
1.7275275078842376e+18,-0.005341921932995319,0.011106163263320923,0.10871270298957825
1.7275275078872376e+18,-0.005273778922855854,0.009295487776398659,0.10670886188745499
1.7275275078932378e+18,-0.0037975930608808994,0.008426818065345287,0.1039913073182106
1.727527507899238e+18,-0.004225843586027622,0.00797700509428978,0.1049615740776062
1.727527507905238e+18,0.0003529920941218734,0.010187188163399696,0.10276757925748825
1.7275275079112381e+18,-0.00028656539507210255,0.010911180637776852,0.10294274985790253
1.7275275079172383e+18,0.0024037521798163652,0.011158156208693981,0.10358662158250809
1.7275275079232384e+18,0.0038127556908875704,0.009148476645350456,0.10136909037828445
1.7275275079262385e+18,0.0010784461628645658,0.009976266883313656,0.10301079601049423
1.7275275079352387e+18,0.0036271773278713226,0.012772525660693645,0.10236543416976929
1.7275275079412388e+18,-0.0001357035944238305,0.011287087574601173,0.10155654698610306
1.7275275079442388e+18,-0.001070497091859579,0.0068380702286958694,0.09868983179330826
1.727527507950239e+18,-0.002338462509214878,0.010798838920891285,0.09595068544149399
1.727527507956239e+18,-0.004594195634126663,0.012198206968605518,0.09804507344961166
1.7275275079622392e+18,-0.0017984481528401375,0.009736456908285618,0.09668575972318649
1.7275275079682394e+18,-0.0006963148480281234,0.01214657537639141,0.09683529287576675
1.7275275079742395e+18,-0.0012525783386081457,0.010877251625061035,0.09497098624706268
1.7275275079802396e+18,0.0013825532514601946,0.01178622618317604,0.09630142152309418
1.7275275079832397e+18,0.003935805056244135,0.008060295134782791,0.09338971227407455
1.7275275079892398e+18,0.003423278219997883,0.009229694493114948,0.091264508664608
1.72752750799524e+18,0.002663159742951393,0.008447962813079357,0.09337105602025986
1.72752750800124e+18,-0.001947746961377561,0.011870146729052067,0.09025097638368607
1.7275275080072402e+18,0.004410561174154282,0.009958173148334026,0.09100226312875748
1.7275275080102403e+18,0.002686586230993271,0.01101984828710556,0.08915609866380692
1.7275275080162404e+18,0.0009632328292354941,0.010336373932659626,0.0860341489315033
1.7275275080222405e+18,-0.0013056369498372078,0.010545596480369568,0.08940976113080978
1.7275275080282406e+18,0.0008691108669154346,0.010492575354874134,0.0853208377957344
1.7275275080342408e+18,0.0001785974600352347,0.01066475547850132,0.08405128121376038
1.727527508040241e+18,0.0032835984602570534,0.005250195972621441,0.08258874714374542
1.727527508046241e+18,0.006063736975193024,0.003973144106566906,0.08325894922018051
1.727527508049241e+18,0.006916543003171682,0.005250326823443174,0.08088979125022888
1.7275275080582413e+18,0.005264599341899157,0.002627374604344368,0.08098922669887543
1.7275275080612413e+18,0.001805134816095233,0.0022599047515541315,0.07980731129646301
1.7275275080672415e+18,0.004078956786543131,0.0037434459663927555,0.07841440290212631
1.7275275080732416e+18,4.544755211099982e-05,0.0052294302731752396,0.0797242522239685
1.7275275080792417e+18,-0.00042408303124830127,0.007257682271301746,0.07292789965867996
1.7275275080852419e+18,-0.0001860207412391901,0.008157934993505478,0.07608471065759659
1.727527508091242e+18,-0.0012912604724988341,0.008777553215622902,0.07614156603813171
1.727527508097242e+18,-6.872671656310558e-05,0.006855480372905731,0.06997739523649216
1.7275275081032422e+18,-0.005862264893949032,0.006534046493470669,0.07226049900054932
1.7275275081062423e+18,0.0004994497285224497,0.00593847269192338,0.07009736448526382
1.7275275081122424e+18,0.0011108964681625366,0.006602255627512932,0.06990782916545868
1.7275275081182426e+18,0.0016155224293470383,0.004221058450639248,0.06913504749536514
1.7275275081242427e+18,0.0002489181933924556,0.0026531023904681206,0.06655406206846237
1.7275275081302428e+18,0.0016682639252394438,0.0068036350421607494,0.06055809184908867
1.727527508136243e+18,0.0019518622430041432,0.006639569532126188,0.06306061148643494
1.727527508142243e+18,0.0008522947318851948,0.0041925241239368916,0.06483960151672363
1.7275275081452431e+18,-0.0018285887781530619,0.005036148242652416,0.06260649859905243
1.7275275081512433e+18,0.003497377736493945,0.005477839149534702,0.06154141575098038
1.7275275081572434e+18,-0.0007843936909921467,0.0040381308645009995,0.058003220707178116
1.7275275081602435e+18,-0.002126361709088087,0.0028952001594007015,0.058348629623651505
1.7275275081662436e+18,-0.001826228341087699,0.00556426914408803,0.05553659424185753
1.7275275081722437e+18,0.0007280700374394655,0.0019663115963339806,0.057410500943660736
1.7275275081782438e+18,-0.00044109951704740524,0.004868286661803722,0.056556880474090576
1.727527508181244e+18,0.003829916240647435,0.006174297537654638,0.053108349442481995
1.727527508187244e+18,0.0017706380458548665,0.004441107157617807,0.05212346836924553
1.7275275081932442e+18,0.006258904002606869,0.004324188455939293,0.05364808067679405
1.7275275081992443e+18,0.005365670658648014,0.005516686476767063,0.05252445116639137
1.7275275082052444e+18,0.003224449697881937,0.002650671638548374,0.049731574952602386
1.7275275082082445e+18,0.004319481551647186,0.004286301322281361,0.046306971460580826
1.7275275082142446e+18,0.005281365010887384,0.003575557377189398,0.046784546226263046
1.7275275082202447e+18,0.006343923043459654,0.005234675947576761,0.0458768829703331
1.7275275082262449e+18,0.005207938142120838,0.002303185872733593,0.04746469855308533
1.727527508232245e+18,0.003282540012151003,0.0010563023388385773,0.04428007826209068
1.727527508235245e+18,0.002010843250900507,0.0037466553039848804,0.04075933247804642
1.7275275082412452e+18,-0.0005632954998873174,0.0008641598979011178,0.041787806898355484
1.7275275082472453e+18,0.0014533376088365912,0.002830102341249585,0.04035918414592743
1.7275275082532454e+18,-0.002772322855889797,0.002065249253064394,0.03917312249541283
1.7275275082562455e+18,-0.0007264724117703736,-6.685266271233559e-06,0.0355062261223793
1.7275275082622456e+18,-0.002340607577934861,0.0020638988353312016,0.03462447598576546
1.7275275082682458e+18,0.0020637535490095615,0.003855852410197258,0.03115430474281311
1.727527508274246e+18,0.0023072368931025267,0.002298798179253936,0.03379964455962181
1.727527508277246e+18,0.002747070975601673,0.0036664579529315233,0.03078407235443592
1.727527508283246e+18,0.0039519742131233215,0.004496896639466286,0.03024444170296192
1.7275275082892462e+18,0.0010917431209236383,0.003503098851069808,0.030334271490573883
1.7275275082952463e+18,0.0001226321328431368,0.003499888814985752,0.03051832504570484
1.7275275082982464e+18,0.0029510115273296833,0.002257583662867546,0.02699938789010048
1.7275275083042465e+18,-0.0006068563088774681,0.0030197417363524437,0.024923760443925858
1.7275275083102467e+18,-0.0005685220239683986,0.0023856242187321186,0.02232273481786251
1.7275275083132467e+18,-0.002411042805761099,0.004989102482795715,0.021630166098475456
1.7275275083192468e+18,-0.0019884887151420116,0.0024899328127503395,0.024048833176493645
1.727527508325247e+18,0.002079731086269021,0.003823724575340748,0.020385142415761948
1.727527508331247e+18,-0.0005567587213590741,0.004250915255397558,0.02295244112610817
1.7275275083342472e+18,-0.0022178594954311848,0.0018456496763974428,0.01853490248322487
1.7275275083402473e+18,-0.0017108202446252108,0.0007409579120576382,0.019938943907618523
1.7275275083462474e+18,-0.0010435874573886395,0.002207015873864293,0.019499480724334717
1.7275275083522476e+18,-0.0018639308400452137,-0.00031894631683826447,0.018780186772346497
1.7275275083552476e+18,-0.0025430209934711456,0.0014158536214381456,0.015936309471726418
1.7275275083612477e+18,-0.0011061759432777762,0.003190828487277031,0.01423600222915411
1.727527508367248e+18,-0.0019789310172200203,0.0006095250137150288,0.01535594742745161
1.727527508373248e+18,0.0013584938133135438,0.003221618477255106,0.015102342702448368
1.727527508376248e+18,-0.0013093606103211641,0.001598030561581254,0.011446064338088036
1.7275275083822482e+18,0.0017151194624602795,0.002833512146025896,0.011641895398497581
1.7275275083882483e+18,0.0011755634332075715,0.001772359129972756,0.012157749384641647
1.7275275083942484e+18,-0.0013323447201400995,0.003795168362557888,0.007517822086811066
1.7275275084002486e+18,0.0020825653336942196,0.0017625599866732955,0.0058830115012824535
1.7275275084032486e+18,0.0032309722155332565,0.0013266323367133737,0.007385138422250748
1.7275275084092488e+18,-0.0007046565297059715,9.700830560177565e-05,0.003944532945752144
1.727527508415249e+18,0.001978976419195533,-0.0007887687534093857,0.002482003066688776
1.727527508421249e+18,-0.0014209861401468515,-0.0014840745134279132,0.005663739051669836
1.727527508424249e+18,-0.0015336553333327174,0.004878195468336344,0.0036174131091684103
1.7275275084302492e+18,-0.0014366196701303124,0.0019528758712112904,0.0009692772291600704
1.7275275084362493e+18,0.00036585587076842785,0.004949451889842749,0.0013320185244083405
1.7275275084422495e+18,-0.0004284516326151788,0.008065597154200077,0.000380168785341084
1.7275275084482496e+18,0.0010293915402144194,0.0031586894765496254,-0.0021458417177200317
1.7275275084512497e+18,0.001521532074548304,0.0056175170466303825,-0.0009764151182025671
1.7275275084572498e+18,0.0023712259717285633,0.007001414895057678,-0.0011728804092854261
1.72752750846325e+18,0.0007517747581005096,0.004018467850983143,-0.0056943390518426895
1.72752750846925e+18,0.0017769524129107594,0.0025024814531207085,-0.0044699776917696
1.7275275084752502e+18,-0.0025792403612285852,0.0010523569071665406,-0.0064563811756670475
1.7275275084812503e+18,0.0009928119834512472,0.0021369196474552155,-0.007268073502928019
1.7275275084872504e+18,-0.003878365270793438,5.1986658945679665e-05,-0.008890507742762566
1.7275275084902505e+18,-0.0029241149313747883,0.003300148295238614,-0.00772480433806777
1.7275275084962506e+18,0.0012812841450795531,0.004135495983064175,-0.009886418469250202
1.7275275085022508e+18,-0.002665882697328925,0.0015537997242063284,-0.01014292985200882
1.727527508508251e+18,0.0011323017533868551,0.0049922047182917595,-0.012450250796973705
1.727527508511251e+18,-0.0004035120364278555,0.00417918898165226,-0.012545225210487843
1.727527508517251e+18,0.0045376489870250225,0.004953242838382721,-0.01357696857303381
1.7275275085232512e+18,0.0052635762840509415,0.002499266993254423,-0.014732824638485909
1.7275275085292513e+18,0.007197911385446787,0.0018592290580272675,-0.0195230171084404
1.7275275085322514e+18,0.0032464449759572744,0.006107199937105179,-0.016554437577724457
1.7275275085382515e+18,0.006006933748722076,0.004175248555839062,-0.018273871392011642
1.7275275085442516e+18,0.0050311097875237465,4.36191912740469e-05,-0.019226865842938423
1.7275275085502518e+18,0.0013744533061981201,0.0004959931247867644,-0.016758179292082787
1.727527508556252e+18,-3.130728146061301e-05,0.0020954147912561893,-0.019987700507044792
1.727527508562252e+18,-0.0037430510856211185,0.0005206330679357052,-0.023456793278455734
1.727527508565252e+18,-3.888842184096575e-05,0.00436070142313838,-0.020252691581845284
1.7275275085712522e+18,-0.001846848288550973,0.0005381369264796376,-0.02143651619553566
1.7275275085772524e+18,-0.0005527219036594033,0.0020151936914771795,-0.02019711583852768
1.7275275085832525e+18,0.0005087184254080057,0.003677323227748275,-0.024638492614030838
1.7275275085862525e+18,0.001872441964223981,0.0037827580235898495,-0.025108270347118378
1.7275275085922527e+18,0.007166309282183647,0.005772552918642759,-0.023279117420315742
1.7275275085982528e+18,0.008504336699843407,0.002938840538263321,-0.026424743235111237
1.727527508604253e+18,0.004124719649553299,0.003152532270178199,-0.027851086109876633
1.727527508610253e+18,0.003974656108766794,0.001715865102596581,-0.027580685913562775
1.727527508613253e+18,0.002980731427669525,-0.0002139955759048462,-0.026885349303483963
1.7275275086192532e+18,0.0032474256586283445,0.0012786593288183212,-0.026709700003266335
1.7275275086252534e+18,0.00014468032168224454,0.001193501171655953,-0.028048411011695862
1.7275275086312535e+18,-9.14684496819973e-05,0.0022465279325842857,-0.02793497033417225
1.7275275086342536e+18,-0.0019517018226906657,0.00024036283139139414,-0.028395554050803185
1.7275275086402537e+18,-0.001303239376284182,0.0012509323423728347,-0.02906212955713272
1.7275275086462538e+18,-0.0007321343873627484,0.002571239834651351,-0.030549000948667526
1.727527508652254e+18,0.0010154484771192074,0.0039337812922894955,-0.03300553187727928
1.727527508655254e+18,0.002328026108443737,0.0015366647858172655,-0.03327110782265663
1.7275275086612541e+18,0.0037961164489388466,0.0028007240034639835,-0.033687297254800797
1.7275275086672543e+18,0.004160766489803791,0.0031661991961300373,-0.0312286838889122
1.7275275086732544e+18,0.003900207346305251,0.0019168518483638763,-0.03326219692826271
1.7275275086792545e+18,0.005521029233932495,0.0007196421502158046,-0.033725954592227936
1.7275275086822546e+18,0.004041289910674095,0.003844864433631301,-0.037641674280166626
1.7275275086882547e+18,0.002769907470792532,0.0020136248786002398,-0.03210073336958885
1.7275275086942548e+18,0.002460417803376913,0.0011926927836611867,-0.03610168397426605
1.727527508700255e+18,-0.0021859873086214066,0.005902101285755634,-0.037769727408885956
1.727527508703255e+18,0.0010174594353884459,0.0007090996950864792,-0.03753775730729103
1.7275275087092552e+18,-0.0012869969941675663,0.0035972471814602613,-0.03666331619024277
1.7275275087152553e+18,-0.0041204215958714485,0.0063028233125805855,-0.03644215315580368
1.7275275087182554e+18,-0.0008414746262133121,0.005491035990417004,-0.038362450897693634
1.7275275087242555e+18,0.0018575049471110106,0.004059172235429287,-0.038496434688568115
1.7275275087302556e+18,-0.0017925400752574205,0.004033109173178673,-0.03924940153956413
1.7275275087362557e+18,-0.0020103908609598875,0.003576182294636965,-0.038707129657268524
1.7275275087392558e+18,0.00397831667214632,0.003090610494837165,-0.04081185162067413
1.727527508745256e+18,-0.0017018667422235012,0.0017871076706796885,-0.03832238167524338
1.727527508751256e+18,0.00023947404406499118,0.005943784955888987,-0.03925776109099388
1.7275275087572562e+18,4.321773303672671e-05,0.005340887233614922,-0.04213603213429451
1.7275275087632563e+18,-0.0012794557260349393,0.002725579310208559,-0.04221683740615845
1.7275275087662564e+18,-0.0008881609537638724,0.0047262259759008884,-0.04284663498401642
1.7275275087722565e+18,-0.0009662593947723508,0.003916725050657988,-0.04229425638914108
1.7275275087782566e+18,-0.001785223139449954,0.0012345424620434642,-0.03981756418943405
1.7275275087842568e+18,-0.0016358717111870646,0.0009397087269462645,-0.04358242079615593
1.727527508790257e+18,-0.004549655131995678,-2.6660520234145224e-05,-0.043317366391420364
1.727527508796257e+18,-0.0006316748913377523,-0.00028719031251966953,-0.04533069580793381
1.7275275088022572e+18,-0.0010967664420604706,-0.0017006866401061416,-0.04305315017700195
1.7275275088052572e+18,0.0005114108789712191,-0.0016881425399333239,-0.04492814838886261
1.7275275088112573e+18,-0.0017712824046611786,-0.0038856021128594875,-0.04151647537946701
1.7275275088172575e+18,-0.00514459703117609,-0.00435084942728281,-0.04075366631150246
1.7275275088232576e+18,-0.003310424741357565,-0.0006187180988490582,-0.04440067708492279
1.7275275088262577e+18,-0.005635515786707401,-0.0014375675236806273,-0.04279128089547157
1.7275275088322578e+18,-0.0036135271657258272,-0.0008172540692612529,-0.0417715460062027
1.727527508838258e+18,-0.0012162565253674984,-0.0012722742976620793,-0.044553566724061966
1.727527508844258e+18,-0.0016893470892682672,0.0019873674027621746,-0.04318248853087425
1.7275275088502582e+18,-8.570472709834576e-05,0.0033924542367458344,-0.04453970119357109
1.7275275088532582e+18,-0.0019243680872023106,0.0036446130834519863,-0.04749038442969322
1.7275275088592584e+18,-0.0005343457451090217,0.0037881224416196346,-0.044866692274808884
1.7275275088652585e+18,-0.001465865527279675,0.0002800118236336857,-0.042982835322618484
1.7275275088712586e+18,-0.002423772821202874,-0.002782229334115982,-0.044502999633550644
1.7275275088742587e+18,0.0001442336943000555,-0.0005138077540323138,-0.04579976573586464
1.7275275088802588e+18,-0.0035864461679011583,-0.002156080910935998,-0.0453157052397728
1.727527508886259e+18,-0.004320507403463125,0.00011072633787989616,-0.043764933943748474
1.727527508889259e+18,-0.0032557270023971796,-0.001517299097031355,-0.0443870835006237
1.7275275088952591e+18,-0.004659521393477917,-0.004590537399053574,-0.04617127403616905
1.7275275089012593e+18,-0.0015734490007162094,-0.0018203547224402428,-0.04322586581110954
1.7275275089072594e+18,-0.0015577672747895122,-0.00020352331921458244,-0.0476110465824604
1.7275275089132595e+18,-0.0006678333738818765,0.0020161629654467106,-0.04715631529688835
1.7275275089162596e+18,-0.0015562348999083042,0.000364756298949942,-0.04709194228053093
1.7275275089222597e+18,0.0010330227669328451,0.001262631849385798,-0.04470372200012207
1.7275275089282598e+18,0.0035108509473502636,-0.0016047838144004345,-0.04708561673760414
1.72752750893426e+18,-0.0014024927513673902,0.002714666537940502,-0.0444168746471405
1.72752750893726e+18,-0.0018577984301373363,-0.0011757363099604845,-0.04814356192946434
1.7275275089432602e+18,0.0008562862640246749,0.0007989894365891814,-0.045801132917404175
1.7275275089492603e+18,-7.899070624262094e-06,0.0022563054226338863,-0.04845365136861801
1.7275275089522604e+18,-0.0027280678041279316,-0.0006034757243469357,-0.0433068722486496
1.7275275089582605e+18,-0.001495141419582069,-0.0007010246627032757,-0.045423246920108795
1.7275275089642606e+18,-0.0013736628461629152,-0.002252552192658186,-0.04296233877539635
1.7275275089702607e+18,-0.002474018605425954,0.001058446941897273,-0.04425954446196556
1.7275275089732608e+18,0.00022476943559013307,0.001705884700641036,-0.04503027722239494
1.727527508979261e+18,0.0021042744629085064,0.0002623854379635304,-0.045730553567409515
1.727527508985261e+18,0.0005929272156208754,0.0018634696025401354,-0.04557684808969498
1.7275275089912612e+18,0.0038595334626734257,-0.00042116385884582996,-0.04416133463382721
1.7275275089942612e+18,0.00247875414788723,0.0026479330845177174,-0.04675309732556343
1.7275275090002614e+18,0.0008052158518694341,0.0009470464428886771,-0.042661599814891815
1.7275275090062615e+18,0.0010719001293182373,0.00012023746967315674,-0.04885619506239891
1.7275275090122616e+18,0.0010408618254587054,0.0037588905543088913,-0.04750954359769821
1.7275275090152617e+18,0.0006830471102148294,0.003919858951121569,-0.0453813374042511
1.7275275090212618e+18,0.0016134290490299463,0.002843844937160611,-0.04219689592719078
1.727527509027262e+18,0.00022886227816343307,0.0032316925935447216,-0.04897791147232056
1.727527509033262e+18,-0.00024076621048152447,0.0023150756023824215,-0.04571533203125
1.7275275090362621e+18,0.0009160919580608606,0.002416749717667699,-0.04480312392115593
1.7275275090422623e+18,-0.002712440676987171,0.0019598882645368576,-0.043709896504879
1.7275275090482624e+18,-8.961977437138557e-05,0.00040377466939389706,-0.04503513127565384
1.7275275090542625e+18,0.00015775684732943773,0.0021152757108211517,-0.04339907318353653
1.7275275090602627e+18,-0.001494258875027299,0.0039114924147725105,-0.0443226657807827
1.7275275090662628e+18,0.00043667620047926903,0.004435291048139334,-0.04739860072731972
1.7275275090692628e+18,0.00044835684821009636,0.006876080296933651,-0.045443542301654816
1.727527509075263e+18,0.0013305043103173375,0.005941674578934908,-0.04278482869267464
1.727527509081263e+18,0.0022641930263489485,0.006389435846358538,-0.04411770775914192
1.7275275090872632e+18,0.0010860721813514829,0.007249259389936924,-0.04214201495051384
1.7275275090932634e+18,-0.0016172884497791529,0.006538884714245796,-0.04481471702456474
1.7275275090962634e+18,0.000785553827881813,0.005072216968983412,-0.04505306854844093
1.7275275091022636e+18,-0.005081218667328358,0.008198050782084465,-0.0419340617954731
1.7275275091082637e+18,-0.0013918252661824226,0.00572832440957427,-0.04129147157073021
1.7275275091142638e+18,-0.005023358389735222,0.009411404840648174,-0.04357049614191055
1.727527509120264e+18,-0.003418587613850832,0.007821575738489628,-0.04078982397913933
1.727527509126264e+18,-0.0002522226423025131,0.005748839117586613,-0.03751279413700104
1.727527509129264e+18,-0.0005081990966573358,0.006942573934793472,-0.04116470366716385
1.7275275091352643e+18,-0.0011939376126974821,0.0068082502111792564,-0.03911047801375389
1.7275275091412644e+18,-0.0022960903588682413,0.0034470283426344395,-0.038406774401664734
1.7275275091472645e+18,-0.001679886830970645,0.003997398540377617,-0.03891446813941002
1.7275275091502646e+18,0.0005033952766098082,0.0028961803764104843,-0.04092348366975784
1.7275275091562647e+18,0.0007046654354780912,0.0029122508130967617,-0.03913649916648865
1.7275275091622648e+18,-0.0015358615200966597,0.0035391971468925476,-0.04180087149143219
1.727527509168265e+18,-0.0018082130700349808,0.00013481988571584225,-0.03671589493751526
1.727527509174265e+18,-0.0021509858779609203,0.004991186782717705,-0.041289422661066055
1.7275275091772652e+18,-0.002435026690363884,0.0019119721837341785,-0.03622962534427643
1.7275275091832653e+18,-0.0009193312143906951,0.005734587088227272,-0.04063120484352112
1.7275275091892654e+18,-0.003325528698042035,0.003330146661028266,-0.038765184581279755
1.7275275091952655e+18,-6.041023880243301e-06,0.0034984666854143143,-0.03978890925645828
1.7275275092012657e+18,0.000161321135237813,0.003938543610274792,-0.03809846565127373
1.7275275092042657e+18,-0.002012875396758318,0.0027917088009417057,-0.035156626254320145
1.7275275092102659e+18,0.005007743835449219,0.0035008303821086884,-0.03575409576296806
1.727527509216266e+18,0.0002593934768810868,0.0011078587267547846,-0.036988504230976105
1.727527509222266e+18,0.001445110305212438,0.00039291713619604707,-0.038174573332071304
1.7275275092252662e+18,0.0018168555106967688,0.002825296949595213,-0.03626485913991928
1.7275275092312663e+18,0.0017733225831761956,0.0027962822932749987,-0.03659502789378166
1.7275275092372664e+18,0.002049068920314312,0.004283039830625057,-0.03360210731625557
1.7275275092432666e+18,0.00033973754034377635,0.0018736007623374462,-0.03728310763835907
1.7275275092492667e+18,-0.001630659680813551,0.00020767084788531065,-0.03389182314276695
1.7275275092552668e+18,-0.002886822447180748,0.002491229912266135,-0.03457266837358475
1.727527509258267e+18,-0.00024807790759950876,0.0002561460714787245,-0.03316293656826019
1.727527509264267e+18,-0.002343066269531846,-0.0018140210304409266,-0.03484413027763367
1.7275275092702671e+18,-0.0022688317112624645,0.0005189982475712895,-0.03396215662360191
1.7275275092762673e+18,0.0009888566564768553,0.000519179564435035,-0.03276960179209709
1.7275275092822674e+18,0.0025230618193745613,0.0012532216496765614,-0.035893671214580536
1.7275275092852675e+18,0.004500987473875284,-0.0005155631806701422,-0.03521345183253288
1.7275275092912676e+18,0.0033341916278004646,0.004038692452013493,-0.032143063843250275
1.7275275092972677e+18,0.005574327893555164,0.0019357409328222275,-0.02965305745601654
1.7275275093032678e+18,0.0049592275172472,0.0018464485183358192,-0.03333648666739464
1.727527509309268e+18,0.002022255677729845,0.00330671900883317,-0.03120501898229122
1.727527509312268e+18,0.003381222253665328,-0.0007535932818427682,-0.03173284977674484
1.7275275093182682e+18,0.001569367479532957,0.0025891971308737993,-0.031933289021253586
1.7275275093242683e+18,0.0026307583320885897,-0.0004816023865714669,-0.029876502230763435
1.7275275093272684e+18,0.0020797019824385643,0.003936118446290493,-0.033026985824108124
1.7275275093332685e+18,0.006144136190414429,-0.001373987295664847,-0.03022143989801407
1.7275275093392686e+18,0.003441209439188242,-0.0004463507211767137,-0.02891375683248043
1.7275275093452687e+18,0.004681473597884178,0.0009406785247847438,-0.030333977192640305
1.7275275093512689e+18,0.002752714790403843,-0.0008875353378243744,-0.029233550652861595
1.727527509354269e+18,0.003066915087401867,-6.694038165733218e-05,-0.027055328711867332
1.727527509360269e+18,0.00013239937834441662,-0.0013823845656588674,-0.03030356578528881
1.7275275093662692e+18,0.0009635689202696085,-0.0014618776040151715,-0.02916640043258667
1.7275275093692692e+18,-0.002963536884635687,-0.0009510333766229451,-0.028690803796052933
1.7275275093752694e+18,-0.0004151090106461197,-0.002206688281148672,-0.024678591638803482
1.7275275093812695e+18,0.0015676892362535,0.00018263896345160902,-0.026503346860408783
1.7275275093872696e+18,-0.0018005232559517026,0.0009356727241538465,-0.027847595512866974
1.7275275093932698e+18,0.0015804041177034378,0.0007391523104161024,-0.028805959969758987
1.7275275093962698e+18,1.741305459290743e-05,-0.0009608097607269883,-0.0255769994109869
1.72752750940227e+18,0.001644263626076281,0.000723940902389586,-0.026895057410001755
1.72752750940827e+18,0.003386029042303562,-5.272252019494772e-05,-0.027056382969021797
1.7275275094142702e+18,0.0022652398329228163,-0.0007210489711724222,-0.025313857942819595
1.7275275094172703e+18,0.003555343020707369,0.002492746105417609,-0.02429370954632759
1.7275275094232704e+18,0.0036585202906280756,-0.0007784640183672309,-0.024251144379377365
1.7275275094292705e+18,-0.0023629406932741404,-0.0023776739835739136,-0.020799124613404274
1.7275275094352707e+18,-0.0023201897274702787,-0.0012546723010018468,-0.02439800277352333
1.7275275094412708e+18,-0.002147306688129902,-0.003518993966281414,-0.02567107044160366
1.7275275094442708e+18,-0.0035052080638706684,-0.0028150519356131554,-0.024395905435085297
1.727527509450271e+18,-0.003383997827768326,0.0024153757840394974,-0.02187967672944069
1.727527509456271e+18,-0.005969069432467222,0.0018381840782240033,-0.021959729492664337
1.7275275094622712e+18,-0.0014706030488014221,0.00020429982396308333,-0.023038793355226517
1.7275275094652713e+18,-0.0021245533134788275,0.0002487794845364988,-0.02064870484173298
1.7275275094712714e+18,-0.0018516089767217636,-0.0016550242435187101,-0.019483178853988647
1.7275275094772716e+18,-0.0012311042519286275,-0.0036271733697503805,-0.021545888856053352
1.7275275094832717e+18,-0.002074792981147766,-0.00044483947567641735,-0.019267352297902107
1.7275275094892718e+18,-0.005300659220665693,-0.00480317510664463,-0.019765907898545265
1.727527509495272e+18,-0.0005133541999384761,-0.002511820523068309,-0.01873922348022461
1.727527509498272e+18,-0.0016831494867801666,-0.0009566950611770153,-0.018443794921040535
1.7275275095042721e+18,-0.003829298773780465,-1.558731310069561e-05,-0.015812581405043602
1.7275275095102723e+18,-0.003485325491055846,0.0004708084452431649,-0.017416449263691902
1.7275275095162724e+18,-0.002885268535465002,0.00018494378309696913,-0.015348928049206734
1.7275275095222725e+18,-0.00621216744184494,0.0006516871508210897,-0.017209405079483986
1.7275275095252726e+18,-0.0023986753076314926,-0.0010858478490263224,-0.01832539215683937
1.7275275095312727e+18,-0.0025476557202637196,0.005523209925740957,-0.013886559754610062
1.7275275095372728e+18,-0.0025725546292960644,0.0009976935107260942,-0.01740841008722782
1.727527509543273e+18,-0.0021684085950255394,0.002775023691356182,-0.013268206268548965
1.727527509546273e+18,-0.006881251931190491,0.0011783509980887175,-0.014289697632193565
1.7275275095522732e+18,-0.0029536266811192036,0.0017106345621868968,-0.015078412368893623
1.7275275095582733e+18,-0.002920737024396658,0.0030718583147972822,-0.01377174723893404
1.7275275095642734e+18,-0.001313564833253622,0.0012643132358789444,-0.012892081402242184
1.7275275095702735e+18,-0.0015786774456501007,0.0006894221296533942,-0.015607409179210663
1.7275275095732736e+18,4.241243004798889e-05,0.0011651775566861033,-0.013392789289355278
1.7275275095792737e+18,9.494752157479525e-05,0.0034928019158542156,-0.01285503339022398
1.7275275095852739e+18,-0.0005554877570830286,0.0037186197005212307,-0.011587275192141533
1.727527509591274e+18,0.001003097859211266,0.0013021411141380668,-0.012094042263925076
1.727527509594274e+18,0.0003112668637186289,-0.00044384447392076254,-0.00863601267337799
1.7275275096002742e+18,-0.0031801369041204453,2.412503818050027e-05,-0.010746385902166367
1.7275275096062743e+18,-0.0037535252049565315,-0.0026054400950670242,-0.01277159620076418
1.7275275096122744e+18,-0.0021685780957341194,0.0011788506526499987,-0.007505154237151146
1.7275275096152745e+18,-9.605917148292065e-05,-0.001261464785784483,-0.011137166060507298
1.7275275096212746e+18,-0.0030287113040685654,0.0018527484498918056,-0.011807689443230629
1.7275275096272748e+18,0.002157502342015505,0.0007545396219938993,-0.013357105664908886
1.727527509633275e+18,0.0014931042678654194,-0.0034106082748621702,-0.02047096937894821
1.727527509639275e+18,-0.0002912732306867838,-0.002032437827438116,-0.024485312402248383
1.727527509642275e+18,0.001689615659415722,-0.0012568847741931677,-0.02864770032465458
1.7275275096482752e+18,0.002180613810196519,-0.00046476791612803936,-0.030236976221203804
1.7275275096542753e+18,0.000826026895083487,-0.0022418422158807516,-0.029085831716656685
1.7275275096602755e+18,-0.0009150998666882515,-0.0012250854633748531,-0.02998349256813526
1.7275275096632755e+18,-6.769073661416769e-05,-0.0032961941324174404,-0.030895864591002464
1.7275275096692756e+18,-0.0017218204447999597,-0.0022934689186513424,-0.027859531342983246
1.7275275096752758e+18,-0.003388647921383381,-0.0029419544152915478,-0.029005547985434532
1.7275275096782758e+18,-0.0010709284106269479,-0.002777257701382041,-0.02667846530675888
1.727527509684276e+18,0.0003251162124797702,-0.004031991586089134,-0.02935735322535038
1.727527509690276e+18,-0.0001754652475938201,-0.0009972945554181933,-0.030871687456965446
1.7275275096932762e+18,-0.002290246542543173,0.0003449609503149986,-0.02644788846373558
1.7275275096992763e+18,-0.0002454546047374606,-0.004340961575508118,-0.027360571548342705
1.7275275097052764e+18,-0.0017416190821677446,-0.0038706043269485235,-0.02398725226521492
1.7275275097112765e+18,0.0029923380352556705,-0.0037185517139732838,-0.023922527208924294
1.7275275097172767e+18,-0.00015372358029708266,-0.007276203483343124,-0.02472693845629692
1.7275275097202767e+18,0.0042679766193032265,-0.004274409264326096,-0.02582533471286297
1.7275275097262769e+18,-0.0004519192734733224,-0.00733100064098835,-0.02655596286058426
1.727527509732277e+18,-0.00155359273776412,-0.005255595780909061,-0.021544814109802246
1.727527509738277e+18,-0.0027777785435318947,-0.006001021713018417,-0.026376552879810333
1.7275275097412772e+18,-0.002039781305938959,-0.0032981110271066427,-0.022614626213908195
1.7275275097472773e+18,0.0010338807478547096,-0.0012676018523052335,-0.02191050723195076
1.7275275097532774e+18,-0.0009531347313895822,-0.0047590043395757675,-0.019636623561382294
1.7275275097562775e+18,0.0004990412853658199,-0.003809533081948757,-0.01942337490618229
1.7275275097622776e+18,-0.0005243315827101469,-0.0046687014400959015,-0.021359825506806374
1.7275275097682778e+18,0.004535233601927757,-0.0052915168926119804,-0.019806208088994026
1.727527509774278e+18,0.0013367849169299006,-0.00616218289360404,-0.017836259678006172
1.727527509780278e+18,0.001262700418010354,-0.006860935129225254,-0.016687868162989616
1.727527509783278e+18,0.0017989189364016056,-0.007648353464901447,-0.015338252298533916
1.7275275097892782e+18,0.0027428793255239725,-0.007024671882390976,-0.014126189053058624
1.7275275097952783e+18,0.0038235026877373457,-0.008233493193984032,-0.014114717952907085
1.7275275098012785e+18,0.0014231917448341846,-0.0036916909739375114,-0.011829388327896595
1.7275275098042785e+18,7.421633927151561e-05,-0.005025581922382116,-0.013580751605331898
1.7275275098102787e+18,0.0010219246614724398,-0.005052146501839161,-0.012400764971971512
1.7275275098162788e+18,-0.0012901660520583391,-0.005052617285400629,-0.007132438942790031
1.7275275098192788e+18,-0.00067191943526268,-0.0038641805294901133,-0.00955212488770485
1.727527509825279e+18,-0.003075570333749056,-0.004804159514605999,-0.007622103206813335
1.727527509831279e+18,-0.00166787370108068,-0.0028639514930546284,-0.005707261152565479
1.7275275098372792e+18,-0.002424214268103242,-0.00528294499963522,-0.0036981834564357996
1.7275275098402793e+18,-0.0020447622518986464,-0.006212196778506041,-0.007517890073359013
1.7275275098462794e+18,-0.0005972699727863073,-0.0020645379554480314,-0.0044431183487176895
1.7275275098522796e+18,0.005001257173717022,-0.008523045107722282,0.0005795691395178437
1.7275275098582797e+18,0.0019083920633420348,-0.004703844897449017,-0.002106657950207591
1.7275275098612797e+18,0.00165081606246531,-0.0055064428597688675,-0.0026037367060780525
1.72752750986728e+18,0.006236721761524677,-0.005654920358210802,0.0038760360330343246
1.72752750987328e+18,0.005174708552658558,-0.006149446591734886,0.0016678733518347144
1.72752750987928e+18,0.003416930790990591,-0.002834973856806755,0.0048657669685781
1.7275275098822802e+18,-0.00015801051631569862,-0.002428051084280014,0.004982225131243467
1.7275275098882803e+18,0.0017718980088829994,-0.003397180000320077,0.007225042674690485
1.7275275098942804e+18,0.00460679130628705,-0.0006876513361930847,0.006729177199304104
1.7275275099002806e+18,0.003268992993980646,-0.004784649237990379,0.009522764943540096
1.7275275099032806e+18,0.0018233947921544313,-0.003169891657307744,0.008714433759450912
1.7275275099092808e+18,0.0012459412682801485,-0.003104069037362933,0.010345779359340668
1.727527509915281e+18,-0.0006216196343302727,-0.002741676988080144,0.012336844578385353
1.727527509918281e+18,0.004517426714301109,-0.002747162012383342,0.010282388888299465
1.727527509924281e+18,0.001294224290177226,-0.0019896267913281918,0.01348449382930994
1.7275275099302812e+18,-2.6160734705626965e-05,-0.00225124042481184,0.01464301161468029
1.7275275099332813e+18,0.0014588107587769628,-0.0020157196559011936,0.014606761746108532
1.7275275099392814e+18,0.0018483685562387109,-0.0034250938333570957,0.016503527760505676
1.7275275099452815e+18,0.0009997375309467316,0.0002547154435887933,0.017342371866106987
1.7275275099512817e+18,0.00012560171307995915,-0.0004903661902062595,0.017122941091656685
1.7275275099572818e+18,-0.0010077663464471698,0.0009013996459543705,0.021123256534337997
1.7275275099602819e+18,-0.002714651171118021,0.00026905781123787165,0.02069760486483574
1.727527509966282e+18,-0.0036265491507947445,0.0006365138106048107,0.01953546330332756
1.727527509972282e+18,-0.001758640632033348,-0.002200404880568385,0.020278390496969223
1.7275275099782822e+18,-0.0018622034694999456,0.00014137872494757175,0.022519277408719063
1.7275275099812823e+18,-0.0010413938434794545,-0.002139728283509612,0.02691655419766903
1.7275275099872824e+18,-0.0034826898481696844,0.00022583839017897844,0.023848339915275574
1.7275275099932826e+18,-0.00012105325004085898,-0.004172665998339653,0.025989031419157982
1.7275275099992827e+18,0.001444464549422264,-0.0010796717833727598,0.025573592633008957
1.7275275100052828e+18,0.0020890021696686745,-0.003964305855333805,0.027656253427267075
1.727527510008283e+18,0.002998300362378359,-0.004216390661895275,0.030607623979449272
1.727527510014283e+18,-0.00016526761464774609,-0.0014321872731670737,0.02943084016442299
1.7275275100202831e+18,0.0029970225878059864,0.0005798133788630366,0.03177543729543686
1.7275275100262833e+18,0.00022355554392561316,0.0006378954858519137,0.028371218591928482
1.7275275100292833e+18,-0.00017597409896552563,0.0007529358845204115,0.031666163355112076
1.7275275100352835e+18,-0.0008225557394325733,0.002565511502325535,0.030775198712944984
1.7275275100412836e+18,-0.0014713592827320099,0.002893083728849888,0.033690355718135834
1.7275275100442836e+18,-0.002190935891121626,0.0017509874887764454,0.030805468559265137
1.7275275100502838e+18,-0.0028649885207414627,0.002022671280428767,0.0345267727971077
1.727527510056284e+18,0.0010026585077866912,0.0015832192730158567,0.032870814204216
1.727527510062284e+18,0.0023033050820231438,-0.0006372954230755568,0.035793352872133255
1.7275275100682842e+18,0.0010826155776157975,-0.0009028681088238955,0.036450520157814026
1.7275275100712842e+18,0.0037144243251532316,-0.00016148865688592196,0.03496503457427025
1.7275275100772844e+18,0.001972600817680359,-0.0020537972450256348,0.038781147450208664
1.7275275100832845e+18,0.00504352618008852,-0.0019913646392524242,0.03477872535586357
1.7275275100892846e+18,0.002404038095846772,0.0006046422058716416,0.03728405758738518
1.7275275100952847e+18,-0.0010279046837240458,0.0006843691226094961,0.03750137612223625
1.7275275100982848e+18,-0.000246844399953261,0.0006662827217951417,0.04262903332710266
1.727527510104285e+18,-0.0029110421892255545,0.00023112143389880657,0.04092095419764519
1.727527510110285e+18,-0.001071293605491519,0.0034084138460457325,0.041388463228940964
1.7275275101162852e+18,-0.004717506002634764,0.0021956448908895254,0.04294357821345329
1.7275275101222853e+18,-0.004980428144335747,0.0010478218318894506,0.044226355850696564
1.7275275101252854e+18,-0.0043317717500030994,0.0034646354615688324,0.04179242625832558
1.7275275101312855e+18,-0.0008844212861731648,-0.0004226996679790318,0.04222971200942993
1.7275275101372856e+18,7.818988524377346e-05,0.0005628010258078575,0.04585384577512741
1.7275275101402857e+18,0.00018825632287189364,0.002043357351794839,0.0425172857940197
1.7275275101462858e+18,-0.001027946826070547,-0.0007406259537674487,0.045969411730766296
1.727527510152286e+18,-0.00034252332989126444,-0.004099686164408922,0.046185873448848724
1.727527510158286e+18,0.002372956369072199,-0.0036743171513080597,0.048806510865688324
1.7275275101612861e+18,0.0040984260849654675,-0.004549206234514713,0.048220809549093246
1.7275275101672863e+18,0.0013864373322576284,-0.00305735832080245,0.04783794283866882
1.7275275101732864e+18,-0.0011002834653481841,-0.001908605103380978,0.04593241959810257
1.7275275101792865e+18,-0.0016957016196101904,-0.0015306537970900536,0.05011928081512451
1.7275275101852867e+18,2.436223439872265e-05,-0.0017859955551102757,0.047419119626283646
1.7275275101882867e+18,-0.004127060528844595,-0.00025275559164583683,0.05070706084370613
1.7275275101942868e+18,-0.0008034485508687794,-0.001457496196962893,0.050696007907390594
1.727527510200287e+18,-0.0007894272566772997,-0.0037215901538729668,0.04962775483727455
1.727527510203287e+18,0.002665033098310232,-0.0031585427932441235,0.04964011162519455
1.7275275102092872e+18,0.0015681316144764423,-0.005451650358736515,0.04898212477564812
1.7275275102152873e+18,-0.0015054154209792614,-0.0012915319530293345,0.05168268084526062
1.7275275102212874e+18,0.0032466878183186054,-0.0018152480479329824,0.053378261625766754
1.7275275102272876e+18,0.004263491835445166,-0.005933315493166447,0.05444434657692909
1.7275275102302876e+18,0.00532197393476963,-0.0024364099372178316,0.05147853493690491
1.7275275102362877e+18,0.0018907245248556137,-0.0020973188802599907,0.0554487481713295
1.7275275102422879e+18,0.004061995539814234,-0.0042242445051670074,0.054290201514959335
1.727527510248288e+18,0.002751121064648032,-0.00587890762835741,0.056640636175870895
1.727527510251288e+18,-3.7669669836759567e-06,-0.006016789935529232,0.05876047909259796
1.7275275102572882e+18,0.0007029137341305614,-0.006773599423468113,0.055689021944999695
1.7275275102632883e+18,0.0011227718787267804,-0.004620085004717112,0.057488199323415756
1.7275275102662884e+18,0.00408959062770009,-0.002372105373069644,0.0577845424413681
1.7275275102722885e+18,0.0004645385779440403,-0.0035146602895110846,0.059853192418813705
1.7275275102782886e+18,0.0018602712079882622,-0.00024259951896965504,0.056797727942466736
1.7275275102842888e+18,0.0029055457562208176,-0.003452652134001255,0.06013578176498413
1.7275275102872888e+18,0.0031261031981557608,-0.006598667241632938,0.060292404145002365
1.727527510293289e+18,0.0041799964383244514,-0.0030323308892548084,0.05868653953075409
1.727527510299289e+18,0.007013539783656597,-0.0010783751495182514,0.052981872111558914
1.7275275103052892e+18,0.0006751692853868008,-0.002698231255635619,0.04594998061656952
1.7275275103082893e+18,0.0053090909495949745,-0.003233041614294052,0.04282589629292488
1.7275275103142894e+18,0.0024586599320173264,-0.0038567539304494858,0.02870175614953041
1.7275275103202895e+18,0.0022347948979586363,-0.0016052867285907269,0.019928067922592163
1.7275275103262897e+18,0.003922849427908659,-0.005195198580622673,0.015327630564570427
1.7275275103292897e+18,0.003372693434357643,-0.0053503927774727345,0.014417982660233974
1.7275275103352899e+18,0.004199436400085688,-0.004183872137218714,0.01558673195540905
1.72752751034129e+18,0.004471347201615572,-0.005273572634905577,0.017010651528835297
1.72752751034729e+18,0.0028520231135189533,-0.0031544771045446396,0.01534080971032381
1.7275275103532902e+18,0.005049498751759529,-0.0015772647457197309,0.015827463939785957
1.7275275103562903e+18,0.004433684051036835,-0.0037985420785844326,0.018718179315328598
1.7275275103622904e+18,0.003252309048548341,0.0003439018037170172,0.019015751779079437
1.7275275103682906e+18,-0.0011177086271345615,-0.0007522515952587128,0.01969103515148163
1.7275275103742907e+18,0.0033602393232285976,0.003197471611201763,0.019763773307204247
1.7275275103772908e+18,0.0008612574893049896,-0.0006761491531506181,0.018446050584316254
1.727527510383291e+18,0.0022055460140109062,0.0003533820854499936,0.017441781237721443
1.727527510389291e+18,-0.001752887386828661,-0.00019911013077944517,0.01699179969727993
1.7275275103952911e+18,-0.001766199478879571,-0.0038567823357880116,0.021048590540885925
1.7275275103982912e+18,-0.0005160982254892588,-0.00485793873667717,0.020540490746498108
1.7275275104042913e+18,-0.006173333618789911,-0.0029965860303491354,0.02284030243754387
1.7275275104102915e+18,-0.004399441182613373,-0.004050149582326412,0.0210932195186615
1.7275275104162916e+18,-0.004435705486685038,-0.002375463955104351,0.018410449847579002
1.7275275104192916e+18,-0.0009078739676624537,-0.002455596812069416,0.020611081272363663
1.7275275104252918e+18,-0.0017763965297490358,0.0028042583726346493,0.02087082527577877
1.727527510431292e+18,0.0003271489404141903,-0.0005701066693291068,0.020183026790618896
1.727527510437292e+18,0.0015514284605160356,-0.0005008840234950185,0.02391529455780983
1.727527510440292e+18,0.0007563110557384789,0.0009824925800785422,0.023909468203783035
1.7275275104462922e+18,-0.0030860919505357742,0.0006112571572884917,0.024934373795986176
1.7275275104522924e+18,-0.0003573540598154068,0.0012408061884343624,0.023304035887122154
1.7275275104582925e+18,-0.0036507362965494394,-0.00016264303121715784,0.02313302457332611
1.7275275104642926e+18,-0.005444603972136974,0.00043610669672489166,0.020498722791671753
1.7275275104702927e+18,-0.0060432543978095055,-0.0015630481066182256,0.025169210508465767
1.7275275104762929e+18,-0.0034940484911203384,0.0016583475517109036,0.023365864530205727
1.727527510482293e+18,-0.002624092623591423,0.0007442539790645242,0.024743199348449707
1.727527510485293e+18,-0.0036108079366385937,0.001166652888059616,0.026305656880140305
1.7275275104912932e+18,-0.0020287237130105495,0.00014543707948178053,0.02606043592095375
1.7275275104972933e+18,-0.0008868207223713398,-0.0007467816467396915,0.024157574400305748
1.7275275105032934e+18,-0.0009509316296316683,-0.0038263793103396893,0.024556301534175873
1.7275275105062935e+18,0.00046965223737061024,-0.0008887953590601683,0.025387302041053772
1.7275275105122936e+18,-0.0010297198314219713,-0.0017199661815539002,0.026543330401182175
1.7275275105182938e+18,-0.002208189107477665,-0.002492347965016961,0.026422131806612015
1.727527510524294e+18,-0.002521705348044634,-0.001719089807011187,0.026183918118476868
1.727527510527294e+18,-0.0008350445423275232,-0.0019317679107189178,0.024212809279561043
1.727527510533294e+18,-0.005832605995237827,-0.002532274927943945,0.027950530871748924
1.7275275105392942e+18,-0.0006311321631073952,-0.002189480932429433,0.023940736427903175
1.7275275105452943e+18,-0.001816438976675272,-0.002394673880189657,0.025034809485077858
1.7275275105482944e+18,-0.0017192900413647294,-0.001788449939340353,0.02807149849832058
1.7275275105542945e+18,-0.0008202941389754415,-0.005531052593141794,0.026694605126976967
1.7275275105602947e+18,-0.0012195117305964231,-0.0015005238819867373,0.027981922030448914
1.7275275105662948e+18,0.0012718961806967854,-0.0005968181067146361,0.0227153729647398
1.7275275105692948e+18,-0.004591253120452166,-0.0015099270967766643,0.02722768299281597
1.727527510575295e+18,-0.0028741236310452223,-0.0016767142806202173,0.027665914967656136
1.727527510581295e+18,-0.003800653386861086,0.003820293117314577,0.024983659386634827
1.7275275105872952e+18,-0.006379424594342709,0.0003028665960300714,0.026273127645254135
1.7275275105932954e+18,-0.0025440584868192673,-0.0005998309934511781,0.027262667194008827
1.7275275105962954e+18,-0.0029088989831507206,0.0027080026920884848,0.024829020723700523
1.7275275106022956e+18,-0.00016593432519584894,0.003392660990357399,0.027231354266405106
1.7275275106082957e+18,-0.0005185875343158841,-0.004190011415630579,0.02605334110558033
1.7275275106142958e+18,0.0014522495912387967,-0.002690402790904045,0.026161421090364456
1.727527510617296e+18,0.00207528262399137,-0.0006594411097466946,0.027215920388698578
1.727527510623296e+18,0.00042764039244502783,-0.0064796144142746925,0.02742798626422882
1.727527510629296e+18,0.004599939100444317,-0.0022454005666077137,0.026364514604210854
1.7275275106352963e+18,0.001547360559925437,-0.001840306562371552,0.028227604925632477
1.7275275106382963e+18,-0.0007212038617581129,-0.0008259661844931543,0.02656685747206211
1.7275275106442964e+18,0.0004844372742809355,0.0011314908042550087,0.02536713518202305
1.7275275106502966e+18,-0.0014218328287824988,-0.0014565791934728622,0.028108758851885796
1.7275275106562967e+18,-0.0004189095925539732,-0.0021264059469103813,0.02661176770925522
1.7275275106592968e+18,-0.002831642981618643,-0.0016558823408558965,0.025641772896051407
1.727527510665297e+18,-0.0012593596475198865,-0.004198234528303146,0.023652276024222374
1.727527510671297e+18,-0.0024370544124394655,-0.0032367827370762825,0.025140488520264626
1.7275275106772972e+18,6.66543492116034e-05,-0.002606836147606373,0.02389935962855816
1.7275275106832973e+18,0.0016898717731237411,-0.0008202302269637585,0.02385992370545864
1.7275275106862973e+18,0.00034084104117937386,0.0010289272759109735,0.023598823696374893
1.7275275106922975e+18,0.0005400367081165314,-0.002361604943871498,0.025088416412472725
1.7275275106982976e+18,0.0008903869311325252,0.0021874569356441498,0.02422884851694107
1.7275275107042977e+18,-0.0015077285934239626,-0.002546797739341855,0.02619965560734272
1.7275275107072978e+18,0.0014780925121158361,0.0010689047630876303,0.024288704618811607
1.727527510713298e+18,0.00013273756485432386,-0.0010640992550179362,0.026555882766842842
1.727527510719298e+18,-0.0030057509429752827,-0.0020101608242839575,0.027822764590382576
1.7275275107252982e+18,-0.0013890359550714493,-0.0037805032916367054,0.024881765246391296
1.7275275107282982e+18,0.00016853422857820988,-0.0023164693266153336,0.02690974809229374
1.7275275107342984e+18,-0.004696817137300968,-0.0010700963903218508,0.0239639263600111
1.7275275107402985e+18,-0.004465818405151367,-0.0021426272578537464,0.024345044046640396
1.7275275107432986e+18,-0.00335520482622087,0.0007344575133174658,0.026379475370049477
1.7275275107492987e+18,-0.0008821220835670829,-0.002563290763646364,0.02663595601916313
1.7275275107552988e+18,-0.0006451221415773034,-0.0034010736271739006,0.023823270574212074
1.727527510761299e+18,0.0014712767442688346,-0.00230910861864686,0.027398928999900818
1.727527510764299e+18,0.0010832021944224834,-0.002271503210067749,0.025036055594682693
1.7275275107702991e+18,0.001555542927235365,4.908163100481033e-05,0.023638421669602394
1.7275275107762993e+18,0.002999100601300597,-0.0003720729146152735,0.025084204971790314
1.7275275107822994e+18,-0.0010678482940420508,-0.002591176889836788,0.024615012109279633
1.7275275107882995e+18,0.0003211324801668525,-0.002536146203055978,0.02467781864106655
1.7275275107942996e+18,0.0009696749038994312,-0.002473317552357912,0.02299605868756771
1.7275275107972997e+18,-0.0007594042690470815,-0.007613791152834892,0.023942817002534866
1.7275275108032998e+18,-0.0035873751621693373,-0.005145633593201637,0.02494698390364647
1.7275275108093e+18,-0.0034850689116865396,-0.0035408460535109043,0.024458736181259155
1.7275275108153e+18,-0.0004898947663605213,-0.004361309111118317,0.02809487283229828
1.7275275108183002e+18,-0.0028332306537777185,-0.0062517342157661915,0.024112476035952568
1.7275275108243003e+18,-0.0017951915506273508,-0.003847765503451228,0.02637120708823204
1.7275275108303004e+18,-0.0011336636962369084,-0.0030952284578233957,0.025926800444722176
1.7275275108333005e+18,-0.0025744060985744,-0.001955446321517229,0.02617906592786312
1.7275275108393006e+18,-0.00066484569106251,-0.004135461524128914,0.02232358604669571
1.7275275108453007e+18,0.0019298580009490252,-0.005698014050722122,0.021700529381632805
1.7275275108513009e+18,-0.0020836093463003635,-0.0038392841815948486,0.020308859646320343
1.727527510857301e+18,-0.003068594727665186,-0.003077769884839654,0.023094037547707558
1.727527510860301e+18,-0.0006923863547854125,-0.003618963062763214,0.023066170513629913
1.7275275108663012e+18,-0.0014547945465892553,-0.005108250305056572,0.021535616368055344
1.7275275108723013e+18,-0.0021603815257549286,-0.011559465900063515,0.022614145651459694
1.7275275108783014e+18,-0.0044724647887051105,-0.010317769832909107,0.024928655475378036
1.7275275108813015e+18,-0.00557938264682889,-0.012827691622078419,0.024213485419750214
1.7275275108873016e+18,-0.002977140946313739,-0.017733708024024963,0.02298552170395851
1.7275275108933018e+18,-0.007596263661980629,-0.01817087084054947,0.01985427364706993
1.727527510899302e+18,-0.003532813396304846,-0.02333097904920578,0.023928014561533928
1.727527510905302e+18,-0.004713346250355244,-0.024413753300905228,0.02297181822359562
1.727527510908302e+18,-0.0047890059649944305,-0.025095539167523384,0.02225371263921261
1.7275275109143022e+18,-0.005695701111108065,-0.023813024163246155,0.02272951230406761
1.7275275109203023e+18,-0.0021898075938224792,-0.022881848737597466,0.025906674563884735
1.7275275109233024e+18,-0.004238969646394253,-0.023661332204937935,0.021066302433609962
1.7275275109293025e+18,-0.002957928227260709,-0.021981829777359962,0.018061628565192223
1.7275275109353027e+18,-0.004098362289369106,-0.022101229056715965,0.019257215782999992
1.7275275109413028e+18,-0.00163813098333776,-0.022114118561148643,0.02297889068722725
1.7275275109443028e+18,0.0020036078058183193,-0.02449081465601921,0.019829047843813896
1.727527510950303e+18,0.0009875489631667733,-0.02762950211763382,0.020608793944120407
1.727527510956303e+18,-0.0009117599693126976,-0.027019333094358444,0.017868148162961006
1.7275275109623032e+18,-0.002564118942245841,-0.028279615566134453,0.019697483628988266
1.7275275109683034e+18,0.0003348203026689589,-0.02537725679576397,0.024521470069885254
1.7275275109713034e+18,-0.0013462526258081198,-0.027195220813155174,0.021539056673645973
1.7275275109773036e+18,-0.003184092463925481,-0.025258079171180725,0.021514790132641792
1.7275275109833037e+18,-0.0030788530129939318,-0.026881856843829155,0.019596485421061516
1.7275275109863037e+18,-0.0024531912058591843,-0.0223217960447073,0.02408927120268345
1.7275275109923039e+18,-0.0030594500713050365,-0.01982172578573227,0.021836813539266586
1.727527510998304e+18,-0.004434249829500914,-0.0192650705575943,0.02239139936864376
1.727527511001304e+18,-0.0016198717057704926,-0.019668126478791237,0.02294907346367836
1.7275275110073042e+18,-0.0037063099443912506,-0.019150929525494576,0.0198063887655735
1.7275275110133043e+18,0.0017850997392088175,-0.017118118703365326,0.02148147113621235
1.7275275110193044e+18,-0.0016128156566992402,-0.01686595007777214,0.0203919168561697
1.7275275110223045e+18,1.2970442185178399e-05,-0.018435092642903328,0.022024542093276978
1.7275275110283046e+18,0.0010359208099544048,-0.016078051179647446,0.020057713612914085
1.7275275110343048e+18,0.0011491572950035334,-0.017739661037921906,0.02179272659122944
1.727527511040305e+18,-0.0002942620776593685,-0.015942726284265518,0.022169629111886024
1.727527511043305e+18,-0.0005111356149427593,-0.017174290493130684,0.01742849126458168
1.727527511049305e+18,-0.006640820298343897,-0.017238829284906387,0.01778799295425415
1.7275275110553052e+18,-0.0019882863853126764,-0.012763716280460358,0.020766299217939377
1.7275275110613053e+18,-0.0028600513469427824,-0.00955880992114544,0.019862448796629906
1.7275275110673055e+18,-0.0012580667389556766,-0.009922794997692108,0.022086085751652718
1.7275275110703055e+18,-0.002060558646917343,-0.011811397038400173,0.01908455789089203
1.7275275110763057e+18,-0.0011660486925393343,-0.010633113794028759,0.020477406680583954
1.7275275110823058e+18,0.0024986565113067627,-0.01293787732720375,0.019268568605184555
1.7275275110853059e+18,0.0008210945525206625,-0.012274646200239658,0.019198307767510414
1.727527511091306e+18,-0.0009893471142277122,-0.010949843563139439,0.01925782673060894
1.727527511097306e+18,-0.0005915915826335549,-0.011786367744207382,0.018597252666950226
1.7275275111033062e+18,-0.0028665359131991863,-0.010015103965997696,0.01697463169693947
1.7275275111063063e+18,-0.0002330559364054352,-0.006244975607842207,0.018308797851204872
1.7275275111123064e+18,-0.001166470698080957,-0.0069666109047830105,0.018047871068120003
1.7275275111183066e+18,-0.0014871328603476286,-0.0033646216616034508,0.018189745023846626
1.7275275111243067e+18,0.004170399624854326,-0.00501678790897131,0.02169020287692547
1.7275275111303068e+18,0.002908470807597041,-0.003034594003111124,0.017992664128541946
1.727527511133307e+18,0.0020229124929755926,-0.0030725267715752125,0.019145971164107323
1.727527511139307e+18,0.0033172788098454475,-0.0038496186025440693,0.018649375066161156
1.7275275111453071e+18,0.0028504650108516216,-0.0033641441259533167,0.020424531772732735
1.7275275111513073e+18,-2.6338384486734867e-05,-0.0003253034665249288,0.01718592271208763
1.7275275111573074e+18,-0.0007919184863567352,-0.0017722237389534712,0.01950325258076191
1.7275275111603075e+18,-3.0953786335885525e-05,0.0007225402514450252,0.018242117017507553
1.7275275111663076e+18,0.0013467891840264201,0.001378483953885734,0.01759987697005272
1.7275275111723077e+18,-0.0008572505321353674,0.0028909507673233747,0.017208553850650787
1.7275275111783078e+18,-0.0024449911434203386,0.004498755559325218,0.01822248287498951
1.727527511181308e+18,-0.000161618459969759,-0.001481832703575492,0.018407221883535385
1.727527511187308e+18,-8.865201380103827e-05,0.0010020154295489192,0.01844891346991062
1.7275275111933082e+18,-0.0038279129657894373,0.0011212859535589814,0.019426729530096054
1.7275275111993083e+18,0.0008082123240455985,0.00035016934270970523,0.015579850412905216
1.7275275112053084e+18,-0.0008444234845228493,-0.0007228957256302238,0.018214870244264603
1.7275275112083085e+18,0.001566337188705802,0.002561746397987008,0.019015761092305183
1.7275275112143086e+18,-0.00015613040886819363,0.0005770885618403554,0.02023380436003208
1.7275275112203087e+18,-0.0011158251436427236,0.0017757960595190525,0.01855565793812275
1.7275275112263089e+18,-0.0022298169787973166,0.002964143408462405,0.017580440267920494
1.727527511229309e+18,0.0030718964990228415,0.0008787387050688267,0.018860936164855957
1.727527511235309e+18,0.0016637637745589018,0.005876044277101755,0.01685432717204094
1.7275275112413092e+18,-0.0024926350452005863,0.0038876354228705168,0.016579560935497284
1.7275275112473093e+18,-0.004580368287861347,0.0025792510714381933,0.016306836158037186
1.7275275112533094e+18,-0.0012729568406939507,0.0067635877057909966,0.017801083624362946
1.7275275112563095e+18,-0.0015380731783807278,0.005330374464392662,0.02024322934448719
1.7275275112623096e+18,0.0010423697531223297,0.005540067330002785,0.01592528261244297
1.7275275112683098e+18,-0.001952175167389214,0.0052877189591526985,0.017705997452139854
1.72752751127431e+18,0.0003249549772590399,0.005616777576506138,0.017947178333997726
1.72752751128031e+18,0.0013835534919053316,0.005367996636778116,0.013938700780272484
1.72752751128331e+18,0.0004676305688917637,0.0053989458829164505,0.015265337191522121
1.7275275112893102e+18,0.003276713192462921,0.0016049440018832684,0.013867426663637161
1.7275275112953103e+18,0.0031520563643425703,0.001420304412022233,0.014162332750856876
1.7275275113013105e+18,0.003324786201119423,0.0024686912074685097,0.017046241089701653
1.7275275113043105e+18,0.0011826829286292195,0.0019631232134997845,0.0157515499740839
1.7275275113103107e+18,0.0018687477568164468,0.00501602329313755,0.016125120222568512
1.7275275113163108e+18,-0.0012232185108587146,0.0033062694128602743,0.018008479848504066
1.727527511322311e+18,0.0035430279094725847,0.005900404881685972,0.013576367869973183
1.727527511328311e+18,-0.00012294400949031115,0.005520821548998356,0.019282525405287743
1.727527511331311e+18,-0.002423170953989029,0.0052526406943798065,0.01689058169722557
1.7275275113373112e+18,0.0024719606153666973,0.0056674424558877945,0.019014645367860794
1.7275275113433114e+18,-4.699453711509705e-06,0.0006699564401060343,0.018276987597346306
1.7275275113493115e+18,0.0017753493739292026,0.002213402884081006,0.017599768936634064
1.7275275113523116e+18,0.004141767974942923,0.0016984749818220735,0.019930817186832428
1.7275275113583117e+18,0.00151793472468853,0.002743291202932596,0.016649065539240837
1.7275275113643118e+18,6.424612365663052e-06,0.002754175802692771,0.013018656522035599
1.727527511370312e+18,-0.0017600510036572814,-0.002863600617274642,0.017645206302404404
1.727527511376312e+18,-0.0003755986108444631,-0.0017808388220146298,0.015426144935190678
1.727527511379312e+18,-0.00030629668617621064,0.0020844934042543173,0.01716022752225399
1.7275275113853123e+18,-0.003009716048836708,0.00151337799616158,0.016362939029932022
1.7275275113913124e+18,0.0009850887581706047,-0.0016501453937962651,0.015550266019999981
1.7275275113973125e+18,0.0037583005614578724,-0.000987508799880743,0.015232848934829235
1.7275275114033126e+18,0.00405636802315712,-0.0008842891547828913,0.014894479885697365
1.7275275114093128e+18,0.0022985548712313175,0.0025059690233319998,0.012737957760691643
1.7275275114123128e+18,0.0045336270704865456,0.002148409839719534,0.015994925051927567
1.727527511418313e+18,0.003559557255357504,0.003770155133679509,0.013141614384949207
1.727527511424313e+18,-0.0009260827791877091,0.005625105928629637,0.013171391561627388
1.7275275114303132e+18,-0.0005028136074542999,0.003283002646639943,0.01333734579384327
1.7275275114363133e+18,-0.0012998947640880942,0.002332358853891492,0.014762475155293941
1.7275275114393134e+18,-0.002907894551753998,0.0023266745265573263,0.011793594807386398
1.7275275114453135e+18,-0.0009176966268569231,0.0023396748583763838,0.015113155357539654
1.7275275114513137e+18,-0.003620447590947151,0.0018658628687262535,0.01575588807463646
1.7275275114573138e+18,-0.0001970460289157927,0.0015921362210065126,0.012478135526180267
1.727527511463314e+18,-1.9185506971552968e-05,-0.0004710503853857517,0.01414470560848713
1.727527511466314e+18,-0.0016429871320724487,0.0016592851607128978,0.013257675804197788
1.727527511472314e+18,-0.0007000509649515152,0.002715424168854952,0.015577759593725204
1.7275275114783142e+18,0.002142118290066719,-0.00028991210274398327,0.014147813431918621
1.7275275114843144e+18,-0.0011638272553682327,0.003358819056302309,0.015320936217904091
1.7275275114903145e+18,-0.0013147668214514852,0.003504656720906496,0.013934502378106117
1.7275275114963146e+18,-0.0016735326498746872,0.0026961229741573334,0.014652889221906662
1.7275275115023148e+18,0.0010281007271260023,0.001972989644855261,0.016341300681233406
1.7275275115053148e+18,0.0011510828044265509,0.004248099867254496,0.016527904197573662
1.727527511511315e+18,-0.0028618297073990107,0.0017470072489231825,0.016501441597938538
1.727527511517315e+18,-0.005233180709183216,0.0026148073375225067,0.014186738058924675
1.7275275115233152e+18,-0.0007031253771856427,0.0017714811256155372,0.014200961217284203
1.7275275115263153e+18,-0.00025713664945214987,0.0014039111556485295,0.01425820030272007
1.7275275115323154e+18,0.0006357392994686961,0.0006230652797967196,0.015054875984787941
1.7275275115383155e+18,0.0011108943726867437,-0.0020225534681230783,0.015458655543625355
1.7275275115443156e+18,-0.001480150269344449,-0.0036667953245341778,0.012186318635940552
1.7275275115503158e+18,0.0013188772136345506,-0.0005108636687509716,0.013329674489796162
1.727527511556316e+18,0.00034368736669421196,-0.0005654937704093754,0.0127304308116436
1.727527511559316e+18,0.001047794590704143,-0.0006966078653931618,0.013506021350622177
1.727527511565316e+18,-8.863105904310942e-05,0.001145215006545186,0.014916399493813515
1.7275275115713162e+18,0.0010165125131607056,0.0027672986034303904,0.012679964303970337
1.7275275115773164e+18,0.0010996817145496607,0.0012233046581968665,0.015698406845331192
1.7275275115833165e+18,-0.0015446811448782682,0.0015822661807760596,0.010372220538556576
1.7275275115893166e+18,0.001569512183777988,0.0012783326674252748,0.012236461043357849
1.7275275115923167e+18,0.0003345198929309845,0.0019517837790772319,0.012628227472305298
1.7275275115983168e+18,0.0008001999813131988,0.005370329134166241,0.010247588157653809
1.727527511604317e+18,0.00015895243268460035,0.0007676372770220041,0.013529296033084393
1.727527511607317e+18,0.003652829909697175,0.0030349912121891975,0.013156096450984478
1.727527511613317e+18,0.0010015435982495546,0.002862117253243923,0.013483389280736446
1.7275275116193172e+18,0.0012635892489925027,-0.0009191015269607306,0.014091016724705696
1.7275275116253174e+18,0.002202050993219018,-0.0019128993153572083,0.011738202534615993
1.7275275116313175e+18,0.0008993452647700906,0.0018375362269580364,0.011525318026542664
1.7275275116343176e+18,0.00028352547087706625,0.002684347564354539,0.012618242762982845
1.7275275116403177e+18,-0.0013687196187675,0.00014811649452894926,0.014944184571504593
1.7275275116463178e+18,0.0018507549539208412,-0.000245134811848402,0.012601367197930813
1.727527511652318e+18,-0.002437290269881487,0.002736579393967986,0.01313348114490509
1.727527511658318e+18,0.0001684491871856153,0.00444591511040926,0.01271209865808487
1.7275275116613181e+18,0.0014253573026508093,0.005904080346226692,0.011604647152125835
1.7275275116673183e+18,0.001429981435649097,0.005721240304410458,0.010224195197224617
1.7275275116733184e+18,0.003689251374453306,0.007975704036653042,0.012455069459974766
1.7275275116763185e+18,0.0033889771439135075,0.004248096141964197,0.011080087162554264
1.7275275116823186e+18,-0.0003503259504213929,0.006787048652768135,0.012478459626436234
1.7275275116883187e+18,-0.0008130237110890448,0.0018328530713915825,0.011284057050943375
1.7275275116943188e+18,-0.0015657480107620358,-2.4238135665655136e-05,0.011941621080040932
1.727527511697319e+18,-0.0018426766619086266,0.0010406005894765258,0.009357054717838764
1.727527511703319e+18,-0.0025860504247248173,0.0030386941507458687,0.0159896370023489
1.7275275117093192e+18,-0.0028245034627616405,-0.001462200772948563,0.0126961013302207
1.7275275117153193e+18,0.001428802264854312,0.001572742941789329,0.011775244027376175
1.7275275117213194e+18,-0.003648514160886407,0.002435400616377592,0.01139880996197462
1.7275275117243195e+18,-0.0022791395895183086,0.005481950007379055,0.011160884983837605
1.7275275117303196e+18,-0.0009690240840427577,0.005589401349425316,0.012093640863895416
1.7275275117363197e+18,0.00017827491683419794,0.0067413318902254105,0.01392759196460247
1.7275275117423199e+18,0.0006388133624568582,0.005625173915177584,0.010701218619942665
1.72752751174532e+18,0.0015695784240961075,0.006114555522799492,0.01233343593776226
1.72752751175132e+18,-0.0009782896377146244,0.006246426608413458,0.012296968139708042
1.7275275117573202e+18,-0.000861305627040565,0.006258018780499697,0.014108321629464626
1.7275275117633203e+18,-0.004625867586582899,0.005355087574571371,0.014089807868003845
1.7275275117663204e+18,-0.002125381724908948,0.004119471646845341,0.009922870434820652
1.7275275117723205e+18,0.0008925013244152069,0.006853536702692509,0.014002671465277672
1.7275275117783206e+18,-0.0048341527581214905,0.004467010032385588,0.012452554889023304
1.7275275117843208e+18,-0.0033043609000742435,0.005923660937696695,0.0127739692106843
1.727527511790321e+18,0.0008998808916658163,0.006961946841329336,0.012286640703678131
1.727527511793321e+18,-0.0016457682941108942,0.007612796034663916,0.012595540843904018
1.727527511799321e+18,0.00012493005488067865,0.005791636183857918,0.012447793036699295
1.7275275118053212e+18,-0.0005026276921853423,0.009053792804479599,0.013638013042509556
1.7275275118113213e+18,-0.00215968512929976,0.006775842513889074,0.0123528353869915
1.7275275118143214e+18,-0.0004481581854633987,0.006562976166605949,0.012904548086225986
1.7275275118203215e+18,0.0004937766352668405,0.006571386009454727,0.012347456067800522
1.7275275118263217e+18,-0.001905468525364995,0.0032269321382045746,0.014313975349068642
1.7275275118323218e+18,3.3730524592101574e-05,0.004180140793323517,0.014542520977556705
1.727527511838322e+18,-0.002414669841527939,0.0024135815910995007,0.010613569058477879
1.727527511844322e+18,-0.0015927471686154604,0.000951406080275774,0.013154101558029652
1.727527511847322e+18,0.0009710125159472227,0.004347092472016811,0.010992481373250484
1.7275275118533222e+18,-0.001463848864659667,0.0047403075732290745,0.01145532913506031
1.7275275118593224e+18,-7.985084084793925e-05,0.00479887193068862,0.012365198694169521
1.7275275118653225e+18,-0.0023709041997790337,0.00703808106482029,0.010085768066346645
1.7275275118683226e+18,-0.00016350872465409338,0.004050086252391338,0.009533719159662724
1.7275275118743227e+18,-0.0016325139440596104,0.0038495431654155254,0.01217869482934475
1.7275275118803228e+18,-0.0002882409025914967,0.005197110585868359,0.010531303472816944
1.727527511886323e+18,-0.001301265088841319,0.0005835394840687513,0.013297397643327713
1.727527511889323e+18,-0.00028541404753923416,0.003358360379934311,0.010833468288183212
1.7275275118953231e+18,0.00028244685381650925,0.002232379512861371,0.01419112179428339
1.7275275119013233e+18,-0.0011167936027050018,0.004521704278886318,0.009703656658530235
1.7275275119073234e+18,-0.0017020171508193016,0.0005597396520897746,0.011400233954191208
1.7275275119103235e+18,0.0005950896302238107,0.001390529447235167,0.008777369745075703
1.7275275119163236e+18,-0.0009338381933048368,0.0025601519737392664,0.009044465608894825
1.7275275119223237e+18,-0.0010728894267231226,-0.0002949034096673131,0.014957468025386333
1.7275275119283238e+18,-0.006405085790902376,-0.0010539296781644225,0.013518957421183586
1.727527511934324e+18,-0.0033359816297888756,0.0004127088177483529,0.011622684076428413
1.727527511940324e+18,-0.0034638927318155766,0.0010056300088763237,0.009909862652420998
1.7275275119463242e+18,-0.001621278002858162,-0.0010381585452705622,0.010668640024960041
1.7275275119523244e+18,-0.0012571149272844195,0.0019303980516269803,0.008428661152720451
1.7275275119553244e+18,-0.0012834342196583748,0.0019330140203237534,0.009791010990738869
1.7275275119613245e+18,0.0016272440552711487,0.0035550901666283607,0.012113092467188835
1.7275275119673247e+18,0.0013711147475987673,0.0036278176121413708,0.007660035043954849
1.7275275119703247e+18,0.00021468181512318552,0.004641672596335411,0.011639543808996677
1.7275275119763249e+18,-0.001611236366443336,0.004800676368176937,0.010521973483264446
1.727527511982325e+18,-0.004170509986579418,0.0011391278821974993,0.011987145990133286
1.727527511988325e+18,-0.0040822457522153854,0.0024496603291481733,0.010803970508277416
1.7275275119943252e+18,-0.0033168429508805275,0.003133208956569433,0.009491678327322006
1.7275275120003254e+18,-0.004125811159610748,-0.0012729045702144504,0.013033442199230194
1.7275275120033254e+18,0.0002660485915839672,0.002243038732558489,0.010967904701828957
1.7275275120093256e+18,-0.0015421437565237284,0.002220302587375045,0.01231236383318901
1.7275275120153257e+18,0.00046549277612939477,-0.0006322371191345155,0.00976211205124855
1.7275275120213258e+18,-0.0009885646868497133,0.0020736423321068287,0.010870122350752354
1.727527512027326e+18,-0.003013437381014228,0.00032661104341968894,0.011314141564071178
1.727527512033326e+18,-0.0009824237786233425,0.0010045749368146062,0.009056521579623222
1.7275275120393262e+18,0.0001886477693915367,-0.00011714035645127296,0.010583284310996532
1.7275275120423263e+18,-0.002122408477589488,0.0013358899159356952,0.009420606307685375
1.7275275120483264e+18,-0.005033127497881651,-0.0005198566359467804,0.009918754920363426
1.7275275120543265e+18,-0.003347799414768815,-0.0012645977549254894,0.011820041574537754
1.7275275120603267e+18,-0.004919872619211674,-0.0007570532616227865,0.009067999199032784
1.7275275120663268e+18,-0.002225303091108799,-0.0006234887987375259,0.010088501498103142
1.727527512072327e+18,-0.003686874872073531,1.6353471437469125e-05,0.009518339298665524
1.727527512075327e+18,-0.0031084949150681496,-0.0012295508058741689,0.010394296608865261
1.727527512081327e+18,-0.0032433574087917805,-0.0002996387192979455,0.009379272349178791
1.7275275120873272e+18,-0.001309349201619625,0.0012034195242449641,0.009813841432332993
1.7275275120933274e+18,-0.003294465597718954,0.002003247383981943,0.011467288248240948
1.7275275120993275e+18,-0.0010790105443447828,0.0007167585426941514,0.007983162999153137
1.7275275121053276e+18,-0.0012201000936329365,-0.0011833596508949995,0.008857181295752525
1.7275275121113277e+18,-0.0018814868526533246,-0.0013633318012580276,0.010291165672242641
1.7275275121143278e+18,0.00020921730902045965,-0.0006023428868502378,0.007617304567247629
1.727527512123328e+18,0.003394634462893009,-0.0019086359534412622,0.010626314207911491
1.727527512129328e+18,0.0007257420220412314,-0.0012790847104042768,0.009868396446108818
1.7275275121353283e+18,0.0010607170406728983,0.002592364326119423,0.008433008566498756
1.7275275121413284e+18,0.0009800278348848224,0.0032739005982875824,0.009710020385682583
1.7275275121443284e+18,0.0037771030329167843,0.0010538521455600858,0.010982736945152283
1.7275275121533286e+18,-0.0019217007793486118,0.0024370590690523386,0.012532531283795834
1.7275275121593288e+18,0.0031943584326654673,-0.0012446751352399588,0.00863735657185316
1.727527512165329e+18,-0.0018917303532361984,0.0011928031453862786,0.009893076494336128
1.727527512171329e+18,0.0004849606193602085,0.0008847148856148124,0.007405856624245644
1.7275275121773292e+18,0.0009296073112636805,-0.0027189243119210005,0.005822060629725456
1.7275275121833293e+18,-0.0013995484914630651,0.00285600614733994,0.010442990809679031
1.7275275121893294e+18,-0.0018205081578344107,0.0023534020874649286,0.00925945769995451
1.7275275121953295e+18,0.0023394771851599216,0.001898292452096939,0.01005479134619236
1.7275275122013297e+18,-0.0012467375490814447,0.0019430102547630668,0.007206720300018787
1.7275275122073298e+18,0.002651906106621027,-0.0002929987385869026,0.009593291208148003
1.7275275122103299e+18,0.0035943281836807728,0.002085229381918907,0.00914283562451601
1.72752751221633e+18,0.003957319539040327,-0.00024693948216736317,0.009533936157822609
1.72752751222233e+18,0.003063095035031438,0.003410809440538287,0.011724351905286312
1.7275275122283302e+18,0.003027745056897402,0.0012434255331754684,0.008009037002921104
1.7275275122343304e+18,0.003179270774126053,0.0048423949629068375,0.0102310162037611
1.7275275122403305e+18,0.0006952093681320548,0.005392943508923054,0.006766815669834614
1.7275275122433306e+18,-0.0022414561826735735,0.004043287131935358,0.013579089194536209
1.7275275122493307e+18,-0.0013092393055558205,0.005976727697998285,0.0064409393817186356
1.7275275122553308e+18,0.0014380889479070902,0.002804881427437067,0.01095016859471798
1.727527512261331e+18,0.002964450977742672,0.004072267562150955,0.008459852077066898
1.727527512267331e+18,0.0008673992124386132,0.0048753973096609116,0.008159284479916096
1.7275275122733312e+18,0.002702315803617239,0.007696791552007198,0.006784230004996061
1.7275275122793313e+18,0.0005891874898225069,0.008217920549213886,0.00858882162719965
1.7275275122853315e+18,0.0017505782889202237,0.005826528184115887,0.008017018437385559
1.7275275122913316e+18,-0.002214898820966482,0.0076355356723070145,0.007113602478057146
1.7275275122943316e+18,0.0011180257424712181,0.00946676917374134,0.009974089451134205
1.7275275123003318e+18,0.0014476487413048744,0.008441411890089512,0.009564296342432499
1.727527512306332e+18,0.0006369658512994647,0.0034671311732381582,0.009735055267810822
1.727527512312332e+18,0.0014613369712606072,0.0027198262978345156,0.009486859664320946
1.7275275123183322e+18,0.00022018048912286758,0.004016369115561247,0.00774932187050581
1.7275275123243323e+18,0.008248469792306423,0.002836554776877165,0.0074525936506688595
1.7275275123303324e+18,0.004037618171423674,0.0004751856904476881,0.008624400943517685
1.7275275123363325e+18,0.0016321083530783653,0.0030792797915637493,0.009130551479756832
1.7275275123393326e+18,0.0011345091043040156,0.005202882923185825,0.00791181530803442
1.7275275123453327e+18,0.002948637120425701,0.00691890949383378,0.008170156739652157
1.7275275123513329e+18,-0.000725282821804285,0.004797888919711113,0.006503921002149582
1.727527512357333e+18,-0.003112024161964655,0.004024033900350332,0.007807279005646706
1.727527512360333e+18,-0.0020687258802354336,0.0066652377136051655,0.00476373266428709
1.7275275123663332e+18,-0.0011090682819485664,1.2002186849713326e-05,0.009326651692390442
1.7275275123723333e+18,0.0011186667252331972,0.0016600785311311483,0.007185946684330702
1.7275275123753334e+18,-0.0004083818639628589,0.0012624054215848446,0.00951367150992155
1.7275275123813335e+18,0.002368451561778784,0.0016961176879703999,0.008837582543492317
1.7275275123873336e+18,0.0028173981700092554,0.0016191963804885745,0.008330638520419598
1.7275275123933338e+18,-0.00017669540829956532,0.001840935554355383,0.008313693106174469
1.727527512399334e+18,-0.0008433350594714284,0.004607751965522766,0.006854778155684471
1.727527512402334e+18,-8.764745143707842e-05,0.0013313129311427474,0.00961983297020197
1.727527512408334e+18,-0.0016466528177261353,0.004057667683809996,0.008849701844155788
1.7275275124143342e+18,-0.0035733142867684364,0.005296790506690741,0.0063801356591284275
1.7275275124203343e+18,-0.005510265007615089,0.0024353719782084227,0.010148223489522934
1.7275275124233344e+18,-0.007303242571651936,0.004625970497727394,0.0063349660485982895
1.7275275124293345e+18,-0.0068765683099627495,0.0034197096247226,0.008747095242142677
1.7275275124353347e+18,-0.006278437562286854,0.0029374705627560616,0.007610959932208061
1.7275275124413348e+18,-0.0011581557337194681,0.003379226429387927,0.005441028159111738
1.7275275124443348e+18,-0.001382029615342617,0.0033414503559470177,0.00779649056494236
1.727527512450335e+18,-0.0002883434353861958,0.0026178075931966305,0.008961273357272148
1.727527512456335e+18,0.0012020644498988986,-0.00044130790047347546,0.008137322962284088
1.7275275124623352e+18,0.0009517931612208486,0.0023479056544601917,0.007107920944690704
1.7275275124653353e+18,0.003095401218160987,0.0012311406899243593,0.007831844501197338
1.7275275124713354e+18,0.0023247364442795515,0.0008965046145021915,0.006968700792640448
1.7275275124773356e+18,-0.0009895260445773602,0.0011260050814598799,0.005573129281401634
1.7275275124833357e+18,-0.002165487501770258,0.005198066122829914,0.004249922931194305
1.7275275124893358e+18,-0.00482710637152195,0.0006797218229621649,0.006537657231092453
1.727527512495336e+18,-0.002584729576483369,0.0021619917824864388,0.0055809891782701015
1.727527512498336e+18,-0.004313301295042038,0.00136370409745723,0.004683342296630144
1.7275275125043361e+18,-0.0048358254134655,0.004833107814192772,0.00643099145963788
1.7275275125103363e+18,-0.004075529053807259,0.0041222600266337395,0.00587850296869874
1.7275275125163364e+18,-0.0020045076962560415,0.001859001349657774,0.009874410927295685
1.7275275125193364e+18,-0.004088826477527618,0.003234815550968051,0.006538885645568371
1.7275275125253366e+18,-0.002578010084107518,0.0007609480526298285,0.006249253172427416
1.7275275125313367e+18,-0.0030676289461553097,0.0010650259209796786,0.0059059555642306805
1.7275275125373368e+18,0.002194939646869898,0.001724820351228118,0.006588928401470184
1.727527512543337e+18,-0.000599193386733532,0.004190340638160706,0.005912105552852154
1.727527512546337e+18,0.0004078485071659088,0.0019010852556675673,0.007256137207150459
1.7275275125523372e+18,-0.00358336279168725,0.005003796424716711,0.003889073384925723
1.7275275125583373e+18,-0.0027839988470077515,0.01085257064551115,0.005384445656090975
1.7275275125643374e+18,-0.0054895635694265366,0.0037485414650291204,0.007101620547473431
1.7275275125673375e+18,-0.004923537839204073,0.006725357845425606,0.006211593747138977
1.7275275125733376e+18,-0.005010080058127642,0.007855807431042194,0.006652121432125568
1.7275275125793377e+18,-0.003719058819115162,0.0067550791427493095,0.005031799431890249
1.7275275125853379e+18,-0.004557705484330654,0.003914510831236839,0.008605964481830597
1.727527512591338e+18,0.0009592103306204081,0.00608809245750308,0.007110578007996082
1.727527512594338e+18,-0.0032416062895208597,0.004748028703033924,0.007185984402894974
1.7275275126003382e+18,-0.0013735827524214983,0.005710582714527845,0.008747626096010208
1.7275275126063383e+18,0.0019169949227944016,0.007306759245693684,0.005245598498731852
1.7275275126123384e+18,-0.002479557180777192,0.002584932604804635,0.008533322252333164
1.7275275126183386e+18,-0.00033071194775402546,0.006841997150331736,0.0075681209564208984
1.7275275126243387e+18,-0.007143487688153982,0.004118668381124735,0.0052311113104224205
1.7275275126273388e+18,-0.0022307424806058407,0.006164355669170618,0.0036965315230190754
1.727527512633339e+18,-0.007172069977968931,0.00615391880273819,0.006197819951921701
1.727527512639339e+18,-0.004493574611842632,0.004429696127772331,0.007900253869593143
1.7275275126453391e+18,-0.006276356987655163,0.008008589968085289,0.007362952455878258
1.7275275126513393e+18,-0.007547038607299328,0.005758280400186777,0.001545147504657507
1.7275275126543393e+18,-0.007289267610758543,0.004822848364710808,0.005050353240221739
1.7275275126603395e+18,-0.005545885767787695,0.006111554801464081,0.005521669052541256
1.7275275126663396e+18,-0.0034331833012402058,0.006392823066562414,0.01298003364354372
1.7275275126723397e+18,-0.0009031915105879307,0.005534063093364239,0.006785186938941479
1.7275275126783398e+18,0.00017427012789994478,0.005713274702429771,0.007034902460873127
1.72752751268434e+18,-0.001065406366251409,0.0007787591312080622,0.004737165756523609
1.72752751268734e+18,0.0007765588816255331,0.004922766704112291,0.004924913868308067
1.7275275126933402e+18,-0.0011276643490418792,0.002784744370728731,0.007064026780426502
1.7275275126993403e+18,-0.0029412927106022835,0.00586582301184535,0.005094846710562706
1.7275275127053404e+18,-0.004269476979970932,3.29816248267889e-05,0.0052660382352769375
1.7275275127083405e+18,-0.005390732083469629,0.002709457417950034,0.005289848893880844
1.7275275127143406e+18,-0.00688327569514513,0.0029184813611209393,0.005250076297670603
1.7275275127203407e+18,-0.008124448359012604,0.0028002860490232706,0.007276176009327173
1.7275275127263409e+18,-0.007243056315928698,0.002091985661536455,0.006285140290856361
1.727527512729341e+18,-0.006716144736856222,0.0006738479714840651,0.0027400022372603416
1.727527512735341e+18,-0.004928514827042818,-8.374516619369388e-05,0.007244333624839783
1.7275275127413412e+18,-0.0041393074207007885,0.0003449128125794232,0.0037425938062369823
1.7275275127443412e+18,-0.005861010402441025,0.00026364094810560346,0.006066456437110901
1.7275275127503414e+18,-0.0014410525327548385,0.0018082675524055958,0.008995667099952698
1.7275275127563415e+18,-0.0006614973535761237,-0.003532497677952051,0.006508943624794483
1.7275275127623416e+18,-0.0009219503263011575,-0.00027903279988095164,0.006009770557284355
1.7275275127683418e+18,-0.001493767835199833,0.0015745516866445541,0.006399024743586779
1.7275275127713418e+18,0.00022913399152457714,-0.0016850251704454422,0.0068181827664375305
1.727527512777342e+18,-0.0020009896252304316,-0.0012513056863099337,0.007939530536532402
1.727527512783342e+18,-0.0038287192583084106,-0.0018091873498633504,0.007293787784874439
1.7275275127893422e+18,0.0001473322045058012,-0.0002240235626231879,0.006140879355370998
1.7275275127953423e+18,-0.0015295571647584438,0.0008921563858166337,0.008704675361514091
1.7275275127983424e+18,1.0539079084992409e-05,-0.0005905042635276914,0.006023785565048456
1.7275275128043425e+18,-0.002512081526219845,-0.0037074522115290165,0.006107092369347811
1.7275275128103427e+18,-0.002990313107147813,0.0016185528365895152,0.007131881080567837
1.7275275128163428e+18,-0.0005506151355803013,-0.000356869277311489,0.0036178037989884615
1.727527512822343e+18,0.00168772810138762,-0.0024808391463011503,0.005679660476744175
1.727527512825343e+18,0.0017108549363911152,0.003465266665443778,0.01002492755651474
1.727527512831343e+18,0.0021911386866122484,-0.000989072723314166,0.00763247674331069
1.7275275128373432e+18,0.0034499859903007746,-0.002634506905451417,0.0040555112063884735
1.7275275128433434e+18,0.001697322353720665,0.0014440151862800121,0.006772550754249096
1.7275275128493435e+18,0.0017310642870143056,0.0009421667782589793,0.0046852827072143555
1.7275275128553436e+18,-0.003123374655842781,0.00069388811243698,0.004848531447350979
1.7275275128583437e+18,0.0020387042313814163,-0.0015809594187885523,0.00527773704379797
1.7275275128643438e+18,-0.0012584092328324914,0.0004571127938106656,0.004213160835206509
1.727527512870344e+18,-0.0017609682399779558,-0.0023416734766215086,0.00661263894289732
1.727527512876344e+18,-0.004786800127476454,-0.00014317815657705069,0.003980246372520924
1.7275275128823442e+18,0.0014095129445195198,-0.002507560420781374,0.009352212771773338
1.7275275128883443e+18,0.0011409472208470106,-0.0014338186010718346,0.004910189658403397
1.7275275128943444e+18,0.0014126668684184551,-0.0010496575850993395,0.006587069481611252
1.7275275128973445e+18,0.0030160979367792606,0.0015435477253049612,0.00500226765871048
1.7275275129033446e+18,0.0012573197018355131,-0.0004476450849324465,0.006041840184479952
1.7275275129093448e+18,0.001885183504782617,0.002645513042807579,0.0059874760918319225
1.727527512915345e+18,-0.00125392887275666,0.0014624084578827024,0.005988271441310644
1.727527512918345e+18,-0.002461237134411931,0.0041440376080572605,0.0059534176252782345
1.727527512924345e+18,-0.003987087868154049,0.0005768949631601572,0.008365634828805923
1.7275275129303452e+18,-0.0015703369863331318,0.0018605072982609272,0.005808219313621521
1.7275275129363453e+18,-0.0030739489011466503,0.001107312273234129,0.0056135645136237144
1.7275275129423455e+18,-0.0017969815526157618,-0.0015796271618455648,0.006696075201034546
1.7275275129453455e+18,-0.002147241262719035,-0.0003702301764860749,0.006825081538408995
1.7275275129513457e+18,-0.003179165069013834,-0.00523601146414876,0.005273913033306599
1.7275275129573458e+18,0.00026062532560899854,-0.0020434693433344364,0.006068883463740349
1.727527512963346e+18,-0.0006227833800949156,0.00019417027942836285,0.006315778940916061
1.727527512969346e+18,0.000820729648694396,0.002224239055067301,0.006272746715694666
1.727527512972346e+18,-0.0005522606079466641,0.0016931946156546474,0.005884646438062191
1.7275275129783462e+18,-0.0028664222918450832,0.004668818786740303,0.005241061560809612
1.7275275129843464e+18,-0.00426327483728528,0.004342313855886459,0.0068580335937440395
1.7275275129903465e+18,-0.0026304014027118683,0.003757893107831478,0.00765581801533699
1.7275275129933466e+18,-0.0015317603247240186,0.004467763006687164,0.004966065753251314
1.7275275129993467e+18,-0.0005265731597319245,0.004892848432064056,0.003115291940048337
1.7275275130053468e+18,-0.0009323007543571293,0.0025693681091070175,0.004297721665352583
1.727527513011347e+18,0.0027331500314176083,-0.0005335436435416341,0.0064285267144441605
1.727527513017347e+18,0.0029273643158376217,-0.00042903004214167595,0.006290648132562637
1.7275275130203471e+18,0.0019460859475657344,-0.00023777608294039965,0.0037128203548491
1.7275275130263473e+18,-0.0010069655254483223,0.0009711629245430231,0.0028092805296182632
1.7275275130323474e+18,-0.0015597889432683587,0.00024849153123795986,0.0038428097032010555
1.7275275130383475e+18,4.3804175220429897e-07,0.0009718786459416151,0.002843269379809499
1.7275275130413476e+18,0.0007227964233607054,0.0009675861801952124,0.004326573107391596
1.7275275130473477e+18,0.00016620877431705594,0.008205723017454147,0.00502374954521656
1.7275275130533478e+18,0.0018912196392193437,0.005373465362936258,0.005186970345675945
1.727527513059348e+18,0.0018790775211527944,0.008004894480109215,0.0026663383468985558
1.727527513065348e+18,0.004114985000342131,0.002854355610907078,0.0047030202113091946
1.7275275130713482e+18,0.0015304258558899164,-6.934255361557007e-05,0.005115075968205929
1.7275275130743483e+18,0.00399981252849102,4.5391847379505634e-05,0.007316221483051777
1.7275275130803484e+18,0.002750550862401724,-0.0011169130448251963,0.004640541039407253
1.7275275130863485e+18,0.001679826295003295,-0.001168423448689282,0.0033550031948834658
1.7275275130923487e+18,0.0010397419100627303,-0.0016154715558514,0.00617862306535244
1.7275275130983488e+18,-0.00011785898823291063,-0.0003737634979188442,0.0074950940907001495
1.727527513104349e+18,0.001560632255859673,1.603097189217806e-05,0.00279955449514091
1.727527513110349e+18,-9.897578274831176e-05,0.00019078212790191174,0.005477115046232939
1.727527513113349e+18,0.001716099795885384,0.0017293961718678474,0.005986260250210762
1.7275275131193492e+18,-0.0007095281034708023,0.000497244531288743,0.004522513598203659
1.7275275131253494e+18,-0.0015307057183235884,0.005429533310234547,0.0031966501846909523
1.7275275131313495e+18,0.0015038399724289775,0.004420826677232981,0.005875070113688707
1.7275275131373496e+18,0.002635273849591613,0.004360605962574482,0.004444874823093414
1.7275275131433498e+18,0.0014254964189603925,-3.234902396798134e-05,0.0039436183869838715
1.72752751314935e+18,0.0016642442205920815,0.0022504038643091917,0.003961459267884493
1.72752751315235e+18,0.0016110482392832637,0.001580436946824193,0.005190047901123762
1.72752751315835e+18,0.004541423637419939,0.0013575449120253325,0.006464685313403606
1.7275275131643502e+18,0.002446936210617423,0.0008694316493347287,0.005678117740899324
1.7275275131703503e+18,0.0023007707204669714,0.0021417690441012383,0.005218943580985069
1.7275275131733504e+18,-0.0003756362712010741,0.000663375947624445,0.00821218453347683
1.7275275131793505e+18,0.0012611820129677653,0.0013932965230196714,0.0030242488719522953
1.7275275131853507e+18,0.0011989556951448321,7.499230559915304e-05,0.005451751872897148
1.7275275131913508e+18,-0.000771368620917201,-0.0009972912957891822,0.002684785285964608
1.727527513197351e+18,-0.0030149156227707863,0.0007802402833476663,0.0017155304085463285
1.727527513200351e+18,0.0005213037366047502,0.0007905882084742188,0.005983557086437941
1.727527513206351e+18,0.001914466847665608,0.003163820831105113,0.002319758990779519
1.7275275132123512e+18,0.0007891355198808014,0.004548927303403616,0.0034029604867100716
1.7275275132183514e+18,0.001480713952332735,0.005591323599219322,0.0061776842921972275
1.7275275132243515e+18,0.005252602510154247,0.006133563816547394,0.005885593593120575
1.7275275132273516e+18,0.006859308108687401,0.006871553137898445,0.004635716788470745
1.7275275132333517e+18,0.0033902053255587816,0.0020786907989531755,0.004291365388780832
1.7275275132393518e+18,0.005178430117666721,0.004328752867877483,0.00388364028185606
1.727527513245352e+18,0.0024233476724475622,0.0016645188443362713,0.003750374773517251
1.727527513248352e+18,0.00394392479211092,0.0028638930525630713,0.005981830880045891
1.7275275132543521e+18,0.0032950243912637234,0.00290722050704062,0.0033592120744287968
1.7275275132603523e+18,0.0022271100897341967,0.000918008794542402,0.005292358808219433
1.7275275132663524e+18,0.001945539377629757,0.002833970356732607,0.004747532773762941
1.7275275132723525e+18,0.0033919482957571745,-0.0008479406824335456,0.004194573033601046
1.7275275132753526e+18,0.00010182149708271027,0.002356847282499075,0.00569886015728116
1.7275275132843528e+18,0.0018800431862473488,0.0015625387895852327,0.004925331100821495
1.7275275132873528e+18,0.003697050968185067,0.003993273712694645,0.004570260643959045
1.727527513293353e+18,0.005107272416353226,0.0007207067683339119,0.0032600315753370523
1.727527513299353e+18,0.003692068625241518,-7.865607040002942e-05,0.004976729862391949
1.7275275133053532e+18,0.004057053942233324,0.0014333329163491726,-9.572133421897888e-05
1.7275275133113533e+18,0.0014404978137463331,0.0021577225998044014,0.0010269859340041876
1.7275275133143534e+18,0.004701067693531513,-0.0012135785073041916,0.004104972817003727
1.7275275133203535e+18,0.0021398700773715973,0.002952763345092535,0.004107899032533169
1.7275275133263537e+18,0.002213605446740985,0.00037908280501142144,0.0050822170451283455
1.7275275133323538e+18,0.002108723158016801,0.0006716301431879401,0.005399337969720364
1.7275275133353539e+18,0.001732999226078391,0.0030288095586001873,0.005096924491226673
1.727527513341354e+18,0.002339051105082035,0.0033530541695654392,0.002092786133289337
1.727527513347354e+18,0.0042159343138337135,0.004976533818989992,0.006048914976418018
1.7275275133533542e+18,0.0020203678868710995,0.0033712959848344326,8.421018719673157e-05
1.7275275133593544e+18,0.0010492687579244375,0.0007519819773733616,0.0025603650137782097
1.7275275133623544e+18,0.0047426060773432255,0.0018774066120386124,0.004075359087437391
1.7275275133683546e+18,0.004224201198667288,0.0008195731788873672,0.004149702377617359
