timestamp,gyro_x,gyro_y,gyro_z
1.7294937223006559e+18,0.00010528395796427503,0.0003012604429386556,0.0007568895816802979
1.729493722309656e+18,0.001843682723119855,-0.00022403076582122594,-0.00025522822397761047
1.7294937223156562e+18,-0.0013549787690863013,-0.0007097094785422087,0.0009145427029579878
1.7294937223216563e+18,0.0006032188539393246,0.0003981943882536143,-0.0009493573452346027
1.7294937223276564e+18,-0.004574250429868698,-0.0015551577089354396,0.0003484513144940138
1.7294937223366566e+18,0.0003654700121842325,0.0035601546987891197,-0.001423711539246142
1.7294937223426568e+18,0.001821884885430336,0.0014264029450714588,-0.0010764349717646837
1.729493722348657e+18,-0.0010361196473240852,9.379092080052942e-05,0.0012233369052410126
1.729493722357657e+18,0.002381794387474656,0.0023529434110969305,0.003882938763126731
1.7294937223666573e+18,-0.0007570780580863357,0.0013198445085436106,-0.0002598919381853193
1.7294937223756575e+18,-0.0022812082897871733,-0.000510925892740488,0.0014114531222730875
1.7294937223816576e+18,4.092393646715209e-05,-0.003104875097051263,-0.0010748137719929218
1.7294937223876577e+18,0.0008422001264989376,0.0014169961214065552,-0.0004346816858742386
1.729493722396658e+18,0.0022898041643202305,-0.0007540087681263685,-0.0023339411709457636
1.729493722405658e+18,-0.0012138960883021355,-0.0010051778517663479,-0.0008068360039032996
1.7294937224116582e+18,0.0024828421883285046,-0.0014863443793728948,-0.0009697839850559831
1.7294937224176584e+18,-0.0003353638167027384,0.0010847168741747737,-0.0034795699175447226
1.7294937224266586e+18,-0.0025990114081650972,-0.0005686993827112019,-0.002675831550732255
1.7294937224326587e+18,-0.0005075957742519677,-0.004409962799400091,0.0009664155659265816
1.729493722441659e+18,0.0025523395743221045,0.00039296652539633214,-9.253320604329929e-05
1.729493722447659e+18,0.0006769948522560298,-0.0010894660372287035,0.00031127894180826843
1.729493722450659e+18,0.0006365736480802298,0.0005519585101865232,-0.00010420571197755635
1.7294937224566592e+18,0.0002693209098652005,0.0025871037505567074,0.0013471319107338786
1.7294937224626593e+18,0.0017001533415168524,-0.00010225840378552675,0.0007332452805712819
1.7294937224716595e+18,-0.0006420852150768042,0.00018255419854540378,-0.000385822233511135
1.7294937224776596e+18,-0.0020142407156527042,0.0012738220393657684,0.0010238400427624583
1.7294937224836598e+18,0.0016920948401093483,-0.0004393887356854975,-0.00047560030361637473
1.72949372248966e+18,0.0004524859832599759,0.0018431567586958408,-0.001210477203130722
1.72949372249566e+18,0.0024285560939460993,0.000991569715552032,0.0005761352949775755
1.7294937225016602e+18,-0.00012817785318475217,-0.0012756094802170992,-0.0010861714836210012
1.7294937225106604e+18,5.5156015150714666e-06,0.0007571732858195901,0.0021316835191100836
1.7294937225166605e+18,-0.0005889823078177869,0.0017839709762483835,-0.002096085110679269
1.7294937225226606e+18,-0.0035328820813447237,0.00041771275573410094,0.0008754014852456748
1.7294937225316608e+18,-5.7084540458163247e-05,-0.00011063253623433411,0.0015452061779797077
1.729493722540661e+18,0.0022143269889056683,0.0019881054759025574,0.0013940446078777313
1.729493722543661e+18,-0.0005330967251211405,-0.0007742329617030919,-0.001289663603529334
1.7294937225496612e+18,0.0021606532391160727,0.0024785844143480062,-0.0009857967961579561
1.7294937225586614e+18,-0.0005178028368391097,-0.0025359014980494976,0.0026778874453157187
1.7294937225646615e+18,0.00020724399655591697,-0.0025978204794228077,-0.0010124510154128075
1.7294937225736617e+18,-0.0013568559661507607,-0.001398437307216227,-0.00037544898805208504
1.7294937225796618e+18,0.00013432484411168844,0.0005522456485778093,0.0015452804509550333
1.729493722588662e+18,0.000618646910879761,-0.0012931299861520529,0.0006749214371666312
1.7294937225976622e+18,0.0006084198830649257,0.0011930669425055385,3.656338230939582e-05
1.7294937226036623e+18,0.001124190865084529,-0.0007551416638307273,0.00018589312094263732
1.7294937226096625e+18,0.0009302169200964272,0.0015358772361651063,0.00028409648803062737
1.7294937226156626e+18,0.0004925468238070607,0.0001290226064156741,0.0007505531539209187
1.7294937226216627e+18,-0.00028304714942350984,-0.0002763851371128112,0.0008557802066206932
1.729493722630663e+18,0.0012886767508462071,0.0016134849283844233,-0.00020964520808774978
1.729493722636663e+18,-0.00041989501914940774,-0.0013912813737988472,-0.0006605313392356038
1.7294937226426632e+18,0.0026355397421866655,0.0003223261155653745,-4.004642687505111e-05
1.7294937226516634e+18,0.0011593844974413514,-0.0012946518836542964,0.001276701339520514
1.7294937226576635e+18,-0.0011506086448207498,-0.0011214963160455227,0.0011159935966134071
1.7294937226666637e+18,-0.0014812444569543004,-0.0002064043510472402,-9.953803237294778e-05
1.729493722675664e+18,-2.6154562874580733e-05,-0.0011929343454539776,0.00379926641471684
1.729493722684664e+18,0.00159682915546,0.00045446259900927544,0.0010819353628903627
1.7294937226936643e+18,0.00012746924767270684,0.00029238362913019955,-0.0015500634908676147
1.7294937227026644e+18,-0.0012500133598223329,-4.98020053782966e-05,0.000631604460068047
1.7294937227116646e+18,0.001817856216803193,-0.00010673518409021199,0.0010537561029195786
1.7294937227206648e+18,-0.0006358291138894856,-0.0010112650925293565,0.0026104352436959743
1.729493722729665e+18,-0.000507853867020458,0.0015048655914142728,8.340382191818208e-05
1.7294937227386652e+18,-0.0017808099510148168,-0.0010155957425013185,0.0014136909740045667
1.7294937227476654e+18,0.00046535010915249586,-0.00038490185397677124,-0.001515867654234171
1.7294937227566656e+18,-0.0021322518587112427,0.0025397171266376972,-0.0005636431160382926
1.7294937227656658e+18,0.0002755021268967539,-0.002483310177922249,0.0014377020997926593
1.729493722774666e+18,-0.0019978841301053762,-0.0016250995686277747,0.001636640401557088
1.7294937227836662e+18,-9.684475662652403e-05,0.0006145493243820965,-0.0012015999527648091
1.7294937227926664e+18,0.0001191255942103453,-0.0007597183575853705,-0.0005270277033559978
1.7294937228016666e+18,-0.00024235561431851238,0.0028007293585687876,0.0011018647346645594
1.7294937228136668e+18,0.0030056701507419348,0.0019407497020438313,0.001163353445008397
1.729493722819667e+18,0.0020705722272396088,0.00164463568944484,0.0004321339074522257
1.7294937228286671e+18,-0.0027867357712239027,0.0006763949058949947,-0.0009760517277754843
1.7294937228376673e+18,0.002531681675463915,0.0006500561139546335,0.00010909217962762341
1.7294937228466675e+18,-0.001348442048765719,-0.0017038260120898485,0.00043673114851117134
1.7294937228556677e+18,0.00011359868221916258,-0.0008506078156642616,-0.0012731101596727967
1.729493722864668e+18,-0.0008768793195486069,-0.0009210860589519143,0.0009206047980114818
1.729493722870668e+18,-4.759670264320448e-05,-0.0005397521308623254,-0.0005112463259138167
1.7294937228796682e+18,0.0013389741070568562,-0.0026836306788027287,0.0002994628739543259
1.7294937228886684e+18,0.002119830111041665,-0.004231803584843874,-0.0005382115487009287
1.7294937228976686e+18,0.0031825292389839888,-0.00019438467279542238,0.0015244490932673216
1.7294937229036687e+18,-0.0029921261593699455,-0.0007983531104400754,0.0021920627914369106
1.729493722912669e+18,0.0004104353429283947,0.0033422112464904785,-0.0008617254206910729
1.729493722921669e+18,0.0010751974768936634,-0.002893222728744149,0.0005209172959439456
1.7294937229306693e+18,-0.0007490493590012193,-0.0011343254009261727,0.000714892172254622
1.7294937229396695e+18,-0.0007175774080678821,-0.0013444462092593312,-0.0018748462898656726
1.7294937229486697e+18,-0.00033940913272090256,0.000610136310569942,-0.00032877136254683137
1.7294937229546698e+18,-6.384951848303899e-05,-0.0003641904622782022,0.00016095636237878352
1.72949372296367e+18,-0.00319113302975893,-0.0015946516068652272,-0.0005653049447573721
1.7294937229726702e+18,-0.004176833666861057,4.4624794099945575e-05,0.0013259478146210313
1.7294937229816704e+18,-0.0006719300290569663,-0.0033772641327232122,0.0007026967359706759
1.7294937229906706e+18,0.0004839297034777701,-0.0002727943065110594,0.0009207550319842994
1.7294937229996708e+18,-0.0018111829413101077,-0.0007222075946629047,-0.0031501876655966043
1.729493723005671e+18,-0.001513816649094224,0.0010969395516440272,-0.0020251080859452486
1.729493723014671e+18,-0.00046813851804472506,-0.0012549071107059717,-0.00011395446927053854
1.7294937230206712e+18,0.0014518341049551964,0.0026101262774318457,-0.000979351345449686
1.7294937230296714e+18,0.0014150780625641346,0.0008423905237577856,0.0013215190265327692
1.7294937230356716e+18,-0.0014592098305001855,0.0003601110656745732,-0.00047706946497783065
1.7294937230416717e+18,-0.0006915865233168006,0.001799396239221096,-0.0012916956329718232
1.7294937230506719e+18,0.00178549496922642,-0.0023205524776130915,-0.0021155541762709618
1.729493723059672e+18,-0.000852786295581609,0.00033757727942429483,0.0006101117469370365
1.7294937230656722e+18,0.001809591893106699,0.0012838306138291955,-9.196151950163767e-05
1.7294937230746724e+18,0.0002718763134907931,0.001373210339806974,0.0008530181366950274
1.7294937230836726e+18,0.0022093348670750856,-0.0022896588779985905,0.000356212753104046
1.7294937230926728e+18,0.0003942686889786273,-0.002294752513989806,0.0012646493269130588
1.729493723101673e+18,0.0016967543633654714,0.0002306793467141688,0.0028147513512521982
1.729493723107673e+18,-0.0006173271685838699,-0.00022579751384910196,0.0004175868525635451
1.7294937231166733e+18,0.0013972364831715822,-2.628687616379466e-05,0.0008201304008252919
1.7294937231256735e+18,-3.942387775168754e-05,-0.0018616560846567154,0.003239264013245702
1.7294937231316736e+18,-0.0002622329629957676,-0.0033883352298289537,0.004064770415425301
1.7294937231406738e+18,-0.0019384626066312194,-0.0012767879525199533,-0.0034751964267343283
1.729493723149674e+18,0.0025953028816729784,-0.004919586703181267,0.0008865280542522669
1.7294937231586742e+18,0.0023238258436322212,-0.002035092329606414,-0.00281792925670743
1.7294937231676744e+18,-0.00023346938542090356,0.0002070889313472435,-0.0010192313930019736
1.7294937231766746e+18,-0.0011566848261281848,0.0023552875500172377,-0.0003013923123944551
1.7294937231826747e+18,-0.0012664098758250475,-0.0005285352817736566,-0.0001426929229637608
1.729493723191675e+18,8.973293006420135e-05,-0.0008704807260073721,0.0012010441860184073
1.729493723200675e+18,-0.0006291260942816734,-0.002191673032939434,-0.00018152901611756533
1.7294937232096753e+18,-0.002427684376016259,0.001695913029834628,0.0002787850680761039
1.7294937232186755e+18,0.001232993439771235,0.002550461795181036,0.0011812460143119097
1.7294937232276756e+18,-0.0021680938079953194,-0.00041548849549144506,-0.0013768175849691033
1.7294937232336758e+18,-0.0012818245450034738,0.0003012962988577783,0.0036961815785616636
1.729493723242676e+18,0.0004402922058943659,0.00017896703502628952,-0.001430210075341165
1.7294937232516762e+18,-0.00236246595159173,0.0003463818284217268,-0.00040222288225777447
1.7294937232606764e+18,-0.0017264637863263488,-2.3242344468599185e-05,-0.0007521540974266827
1.7294937232696765e+18,-0.002460787771269679,-0.00056250806665048,0.0014150153147056699
1.7294937232756767e+18,0.00024731113808229566,0.0006629458512179554,-0.0020649388898164034
1.7294937232846769e+18,0.0004974068142473698,-0.00202837772667408,-0.00099490478169173
1.729493723290677e+18,0.00048647751100361347,0.0005717353778891265,0.0015730364248156548
1.7294937232996772e+18,0.002978649688884616,0.0004288955242373049,-0.0009479569853283465
1.7294937233086774e+18,-0.003017633920535445,0.0009829545160755515,0.002636387012898922
1.7294937233176776e+18,-0.0011599905556067824,-0.0017381923971697688,0.0011005717096850276
1.7294937233266778e+18,0.002747594378888607,0.0009985604556277394,-0.0018484159372746944
1.729493723335678e+18,-0.00015389967302326113,-0.0012428591726347804,9.489010699326172e-05
1.7294937233446781e+18,-0.0009141392074525356,0.0010931481374427676,0.00043217954225838184
1.7294937233536783e+18,-0.0011659860610961914,-0.002599850995466113,0.0010081242071464658
1.7294937233596785e+18,-0.0008630088996142149,-0.0003000367432832718,0.0006452547386288643
1.7294937233686787e+18,0.0007117934292182326,-0.0035154966171830893,-0.00012282488751225173
1.7294937233776788e+18,-0.00035043348907493055,-0.001533814356662333,0.0020999473053961992
1.729493723386679e+18,-0.0016018092865124345,-0.0010196962393820286,-0.0005222008912824094
1.7294937233926792e+18,4.0009657823247835e-05,0.0013355046976357698,0.0003946081269532442
1.7294937234016794e+18,-0.0019498615292832255,-0.001535197370685637,-0.00031335122184827924
1.7294937234106796e+18,-0.0011232002871111035,0.001441068248823285,-0.0034508940298110247
1.7294937234196797e+18,-0.00039622533950023353,0.0005036686197854578,-0.00048793884343467653
1.72949372342868e+18,0.0011184713803231716,0.001581892604008317,-0.0018939985893666744
1.72949372343468e+18,0.00040573126170784235,0.00017555155500303954,-0.0006342903943732381
1.7294937234436803e+18,0.0013276353711262345,0.0012927844654768705,-0.0012105937348678708
1.7294937234526804e+18,-0.0004593084449879825,0.0005522627616301179,0.0033892046194523573
1.7294937234616806e+18,-0.00041534751653671265,0.0008570096106268466,0.0020439578220248222
1.7294937234706808e+18,-0.0024238387122750282,-0.0028769082855433226,0.00041116890497505665
1.729493723479681e+18,0.0005694131250493228,-0.0008489060564897954,0.000549639284145087
1.7294937234886812e+18,0.0018445166060701013,0.0001783751358743757,-0.0010666283778846264
1.7294937234946813e+18,-0.001345318742096424,0.000602839223574847,0.001474567223340273
1.7294937235036815e+18,0.002004199894145131,-0.0005985568859614432,-6.300435779849067e-05
1.7294937235126817e+18,0.0029666698537766933,-0.00013555663463193923,-0.0024916434194892645
1.729493723521682e+18,-0.0015408743638545275,0.001212366041727364,-0.003052620915696025
1.729493723527682e+18,-0.0022900886833667755,0.0025316847022622824,-0.001354301581159234
1.7294937235396823e+18,0.0003329566679894924,3.767040425373125e-06,-2.5946679670596495e-05
1.7294937235486825e+18,-0.0008832232560962439,-0.0046709636226296425,0.0005819052457809448
1.7294937235546826e+18,-0.0021671613212674856,0.00038597232196480036,-0.00220973277464509
1.7294937235606828e+18,0.001257456955499947,-0.0015360456891357899,-0.0016004092758521438
1.729493723569683e+18,-0.0001942530507221818,-0.0005773894372396171,0.00042189229861833155
1.729493723575683e+18,-0.0009877771371975541,0.001046988065354526,-0.0014137098332867026
1.7294937235846833e+18,-0.0008969301707111299,0.0007539581274613738,0.0016964594833552837
1.7294937235936835e+18,-6.749408839823445e-06,0.0010776036651805043,-0.0016597120556980371
1.7294937236026836e+18,-0.0021225083619356155,8.795774192549288e-05,-0.003123524598777294
1.7294937236116838e+18,0.0003326845180708915,-0.0018068357603624463,0.000742434523999691
1.729493723620684e+18,0.0005403668619692326,-0.0001320679730270058,-1.5751113096484914e-05
1.7294937236296842e+18,-0.0009538984741084278,1.0685852430469822e-05,-0.00047038422781042755
1.7294937236356844e+18,0.00045284652151167393,0.001608625054359436,0.004013626370579004
1.7294937236446845e+18,-0.0017849199939519167,0.0013843325432389975,-0.0017026009736582637
1.7294937236536847e+18,0.00024658505572006106,-0.0022092964500188828,0.0005694239516742527
1.729493723662685e+18,0.0001804049825295806,-0.0009098699083551764,0.00039927774923853576
1.729493723671685e+18,0.002366494620218873,0.0004001710331067443,-0.0007894999580457807
1.7294937236806853e+18,0.0011589195346459746,0.0019301758147776127,-0.0022174492478370667
1.7294937236896855e+18,-0.0004091261653229594,1.383279709443741e-06,0.0013237721286714077
1.7294937236986857e+18,0.0003269175358582288,0.0003991651756223291,-0.002612958662211895
1.729493723707686e+18,0.0011365532409399748,0.001782725565135479,-0.0009889465291053057
1.729493723716686e+18,-0.0005515568191185594,-0.0009400139679200947,0.0016763255698606372
1.7294937237256863e+18,-0.000977568095549941,-0.002343300962820649,3.882361124851741e-05
1.7294937237346865e+18,-0.0028843313921242952,0.0002442461845930666,-0.002377574797719717
1.7294937237466867e+18,0.0004691849753726274,-0.00017759767069946975,-0.0011443586554378271
1.729493723755687e+18,-0.002247466705739498,-0.0003684859548229724,0.0025385452900081873
1.729493723764687e+18,-0.002441511955112219,0.0014677507570013404,-0.001321073155850172
1.7294937237706872e+18,0.0009406983153894544,0.0003451711672823876,0.0016130042495205998
1.7294937237826875e+18,-0.000226151809329167,-0.0017148108454421163,0.0016275917878374457
1.7294937237916877e+18,0.0015537658473476768,0.0012207451509311795,0.0027975367847830057
1.7294937238006879e+18,0.002125691156834364,0.0014629386132583022,0.0024972036480903625
1.729493723806688e+18,-0.000543008150998503,-0.001329229911789298,-0.00045050171320326626
1.7294937238156882e+18,-0.0039242967031896114,0.0021427501924335957,9.092538675758988e-05
1.7294937238246884e+18,0.00039405361167155206,-0.0016071111895143986,-7.126100535970181e-05
1.7294937238336886e+18,0.00047093830653466284,0.002133769216015935,0.0017169021302834153
1.7294937238426888e+18,0.0014793160371482372,-0.0009437769767828286,0.0013836188009008765
1.729493723848689e+18,0.000262049405137077,0.0003092901024501771,0.00040880637243390083
1.729493723857689e+18,0.0026411977596580982,0.0003023847530130297,-0.0010723568266257644
1.7294937238636892e+18,-0.0005416902713477612,-0.001117086037993431,0.0028690367471426725
1.7294937238726894e+18,0.0014497082447633147,-0.00014302428462542593,-0.0022986799012869596
1.7294937238786895e+18,-0.0014888945734128356,0.0008642516913823783,-0.0029507032595574856
1.7294937238876897e+18,0.0015191977145150304,-0.0004587434232234955,-0.0013005533255636692
1.72949372389669e+18,-0.0013580777449533343,-0.003590293927118182,-0.002182306256145239
1.72949372390569e+18,0.0002728279505390674,-1.2375342521409038e-05,0.0021407604217529297
1.7294937239146903e+18,2.5169993023155257e-05,-7.144590927055106e-05,0.0011678438168019056
1.7294937239236905e+18,-0.00028654022025875747,-0.0012258787173777819,-0.0006682515959255397
1.7294937239326907e+18,0.0033076803665608168,-0.000700908713042736,-0.0012738294899463654
1.729493723941691e+18,-0.003051637439057231,0.0008459040545858443,-0.000271008990239352
1.729493723950691e+18,-0.0011200198205187917,-0.0013817783910781145,-0.0004450680280569941
1.7294937239566912e+18,0.0010900197084993124,-0.0002784977259580046,-0.000686268787831068
1.7294937239626913e+18,-0.0001726445771055296,0.0008386106346733868,0.0016796691343188286
1.7294937239716915e+18,0.0017137142131105065,0.0023087922018021345,0.0023034929763525724
1.7294937239806917e+18,-0.0012531124521046877,0.0014260500902310014,0.0005001965328119695
1.729493723989692e+18,0.0007410076796077192,-0.00044138875091448426,0.0031686900183558464
1.729493723998692e+18,0.0022381264716386795,0.00032420267234556377,0.004315605387091637
1.7294937240076923e+18,-0.0014591843355447054,0.00018641645146999508,-0.0007730197394266725
1.7294937240166925e+18,0.00031889922684058547,0.0012105789501219988,1.238355616806075e-05
1.7294937240256927e+18,0.0012985706562176347,0.0007078121998347342,-0.0001260464487131685
1.7294937240346929e+18,0.0007816844736225903,0.001582118566147983,-0.002102318685501814
1.729493724040693e+18,-0.00037351081846281886,-0.0006050190422683954,-0.001395129831507802
1.7294937240496932e+18,0.0024073037784546614,-0.0012178263859823346,0.0003733328776434064
1.7294937240586934e+18,6.756796938134357e-05,-0.00046480316086672246,-0.0005750276031903923
1.7294937240676936e+18,-0.0015775436768308282,0.003049761289730668,-0.0015023885061964393
1.7294937240766938e+18,-0.0007390297832898796,0.0015721068484708667,-0.0008314021397382021
1.729493724085694e+18,0.0006879324791952968,0.0006829428602941334,0.002065083244815469
1.7294937240946941e+18,-0.001498491270467639,-0.0022364661563187838,0.0029023613315075636
1.7294937241036943e+18,-0.0005349645507521927,0.0003421570872887969,0.0003055276465602219
1.7294937241126945e+18,-0.0027599844615906477,-0.0012708036229014397,0.0018939875299111009
1.7294937241186947e+18,-0.0008783508092164993,0.0002730704436544329,-0.0029087963048368692
1.7294937241276948e+18,0.0019913583528250456,0.0006417731638066471,-0.0018716433551162481
1.729493724136695e+18,-0.002161376876756549,-0.0009909810032695532,0.0005858262302353978
1.7294937241456952e+18,0.0001431367709301412,0.001469945884309709,0.0026557608507573605
1.7294937241546954e+18,0.00019605773559305817,-0.0025757846888154745,0.0010084178065881133
1.7294937241636956e+18,0.00013586778368335217,-0.0017690439708530903,0.0023999318946152925
1.7294937241726958e+18,0.00012844771845266223,-0.0019729093182832003,-0.0016936355968937278
1.729493724178696e+18,0.0006276037893258035,0.0003499084268696606,-0.000806961499620229
1.729493724187696e+18,0.0007807379006408155,-0.001323735574260354,-0.0010465215891599655
1.7294937241936963e+18,0.00159432680811733,0.0016023145290091634,0.0013429786777123809
1.7294937242026964e+18,-0.0005318956100381911,-0.00015895793330855668,-0.0005063725402578712
1.7294937242116966e+18,0.0008437236538156867,0.0012518040603026748,-0.0005370296421460807
1.7294937242206968e+18,0.0005068389582447708,0.00017496079090051353,0.0011387447593733668
1.729493724226697e+18,6.488216604338959e-05,-0.002690735273063183,-0.004457754082977772
1.7294937242356972e+18,-0.00228249398060143,0.002275081817060709,-5.036040238337591e-05
1.7294937242446973e+18,0.00028023472987115383,-0.002715423470363021,0.000385484891012311
1.7294937242536975e+18,-0.0010369622614234686,0.0007668182370252907,0.004352328833192587
1.7294937242596977e+18,0.0015659992350265384,0.0017045547720044851,0.0009162168717011809
1.7294937242686979e+18,-0.0012281205272302032,0.00014463214029092342,-0.000803793256636709
1.729493724277698e+18,0.0031211634632200003,-0.0005589538486674428,0.00012225053797010332
1.7294937242866982e+18,-0.0026421095244586468,0.001674851169809699,-4.070685099577531e-05
1.7294937242926984e+18,-0.0009263476822525263,0.0013325075851753354,-0.0002655629941727966
1.7294937242986985e+18,0.002147016581147909,-0.0015353420749306679,-0.0012713057221844792
1.7294937243076987e+18,-0.0004413222777657211,0.0004021422064397484,-0.0021610320545732975
1.7294937243136988e+18,0.0011329049011692405,-0.0014065790455788374,-0.0003730133466888219
1.729493724319699e+18,-0.002026377944275737,-0.0027448220644146204,0.0015947791980579495
1.729493724325699e+18,0.00033746680128388107,0.0019274076912552118,0.001615692162886262
1.7294937243316992e+18,2.289913027198054e-05,0.005043575540184975,7.275145617313683e-05
1.7294937243406994e+18,0.004017737694084644,-0.0011028702137991786,-0.0015587180387228727
1.7294937243466995e+18,0.0005518678808584809,0.0008717767195776105,0.0013808656949549913
1.7294937243526996e+18,-8.415912452619523e-05,-0.0004393212730064988,-0.0008695858414284885
1.7294937243616998e+18,0.0016002864576876163,-2.0658957510022447e-05,-0.0004948780406266451
1.7294937243707e+18,-0.0026647497434169054,-0.00021871419448871166,-0.0041063870303332806
1.7294937243767002e+18,-0.00018477962294127792,0.0003217967168893665,-0.0026255380362272263
1.7294937243857004e+18,0.0007656761445105076,0.001273648114874959,-0.0003646432887762785
1.7294937243917005e+18,-0.003331255167722702,0.0007568643195554614,0.003279584227129817
1.7294937243977006e+18,-0.0002627341018524021,0.000580383581109345,0.0007197483791969717
1.7294937244067008e+18,0.0003307218721602112,0.0026349397376179695,-0.0017802435904741287
1.729493724412701e+18,7.811689283698797e-05,0.0022143281530588865,0.0009909207001328468
1.729493724421701e+18,-0.00037699617678299546,-0.002646419918164611,0.0009457737905904651
1.7294937244277012e+18,0.0013168154982849956,0.004119958728551865,-0.0008164892205968499
1.7294937244367014e+18,-7.137218926800415e-05,0.00036833362537436187,0.0028812766540795565
1.7294937244427016e+18,0.00019962491933256388,0.0009467669297009706,-0.0007507486152462661
1.7294937244457016e+18,0.0019599394872784615,0.000589414150454104,-0.0015387622406706214
1.7294937244547018e+18,-1.566534956509713e-05,-0.0013244744623079896,0.0009700142545625567
1.729493724460702e+18,0.0023541131522506475,0.000953426759224385,0.0015129856765270233
1.729493724466702e+18,0.0006101866601966321,0.0004885850357823074,0.0010445244843140244
1.7294937244727022e+18,-0.00103003007825464,-0.00035737548023462296,-0.0004510973230935633
1.7294937244787023e+18,-0.0012674565659835935,-0.0022060335613787174,-0.0007591701578348875
1.7294937244847025e+18,0.0012055739061906934,0.0011688031954690814,-0.0008511753403581679
1.7294937244907026e+18,-0.0003320577088743448,-0.0012611394049599767,-0.0005259364261291921
1.7294937244967027e+18,-0.001496878918260336,0.0014568581245839596,0.0016260810662060976
1.7294937245027028e+18,-0.0012675687903538346,0.0013707700418308377,-0.0022322614677250385
1.729493724511703e+18,-0.00379559095017612,0.001012751366943121,0.0032254918478429317
1.7294937245207032e+18,0.00279084499925375,0.0014178046258166432,-0.0005722148925997317
1.7294937245297034e+18,0.0022279375698417425,0.002032573102042079,0.0009807144524529576
1.7294937245357036e+18,-0.00039273942820727825,-0.0004648827307391912,-0.0014307769015431404
1.7294937245447037e+18,-0.0004926566034555435,0.000999306095764041,-0.0012716323835775256
1.729493724553704e+18,0.0021092938259243965,-0.0003575083101168275,-0.0009655629983171821
1.7294937245627041e+18,0.001233970164321363,-0.0015417508548125625,0.0002466923324391246
1.7294937245687043e+18,0.0005366542027331889,0.0017544367583468556,-0.002120035234838724
1.7294937245777044e+18,0.002203842392191291,0.0009481157176196575,-0.0005303524667397141
1.7294937245867046e+18,0.0034882565960288048,-0.0008658402948640287,-0.0011999886482954025
1.7294937245957048e+18,0.001398655935190618,0.0009034080430865288,-0.001140195527113974
1.729493724601705e+18,-0.0005278850439935923,0.002071177354082465,0.0001238085824297741
1.7294937246107052e+18,-0.000716499169357121,0.0011264925124123693,0.0007366989739239216
1.7294937246137052e+18,0.0013136272318661213,-0.0007470913697034121,0.00026960507966578007
1.7294937246227054e+18,-0.001839316333644092,-0.0007318713469430804,-0.0003479139704722911
1.7294937246287055e+18,0.0009032707894220948,0.0001003602592390962,0.001386751071549952
1.7294937246377057e+18,0.0031944126822054386,-0.0005312394350767136,0.0006391009665094316
1.729493724646706e+18,0.0001968195865629241,-0.0004084458341822028,0.0007281978032551706
1.729493724652706e+18,0.00020448004943318665,0.0007799341692589223,0.0006774645880796015
1.7294937246617062e+18,-0.00040591051219962537,-0.0005926510784775019,-0.00048325571697205305
1.7294937246707064e+18,-0.0020322261843830347,-0.002904920605942607,2.547014992160257e-05
1.7294937246797066e+18,-0.001513351802714169,-0.0007537188357673585,0.000178010348463431
1.7294937246887068e+18,-0.000918383477255702,0.00010342769382987171,-0.002467954996973276
1.729493724697707e+18,-0.012570253573358059,-0.027851775288581848,0.0014933955390006304
1.7294937247097073e+18,-0.11469716578722,-0.24024704098701477,0.0019451994448900223
1.7294937247187075e+18,-0.19137181341648102,-0.3888498544692993,0.0010057648178189993
1.7294937247277076e+18,-0.2447824329137802,-0.5041680932044983,-0.00011795206228271127
1.7294937247367078e+18,-0.24505609273910522,-0.5375141501426697,0.0016767913475632668
1.729493724745708e+18,-0.2114182859659195,-0.5074587464332581,9.270611917600036e-05
1.7294937247547082e+18,-0.17245955765247345,-0.45594125986099243,0.002470799256116152
1.7294937247637084e+18,-0.14202262461185455,-0.4148605465888977,0.0015852644573897123
1.7294937247727086e+18,-0.14525897800922394,-0.40964603424072266,0.002681147772818804
1.7294937247817088e+18,-0.17029564082622528,-0.42765215039253235,0.0002726854872889817
1.729493724790709e+18,-0.19230429828166962,-0.4527520537376404,0.003472385462373495
1.7294937247997092e+18,-0.2017013430595398,-0.45683231949806213,0.001401110552251339
1.7294937248087094e+18,-0.1837722808122635,-0.4350087642669678,-0.0003489643568173051
1.7294937248177096e+18,-0.14896225929260254,-0.38817936182022095,0.0006801619892939925
1.7294937248267098e+18,-0.10625140368938446,-0.3296090066432953,0.001701166620478034
1.72949372483571e+18,-0.07580169290304184,-0.2516952157020569,-0.001186384935863316
1.7294937248447101e+18,-0.06522063165903091,-0.22233732044696808,0.0020975025836378336
1.7294937248537103e+18,-0.06758284568786621,-0.1885283887386322,0.00310349790379405
1.7294937248627105e+18,-0.06700190156698227,-0.16322466731071472,0.003782025072723627
1.7294937248717107e+18,-0.07065942883491516,-0.1636994481086731,0.0032570958137512207
1.7294937248777108e+18,-0.05805997923016548,-0.13780532777309418,0.002200968097895384
1.729493724889711e+18,-0.030472250655293465,-0.0969705879688263,0.004442110657691956
1.7294937248987113e+18,-0.01349866483360529,-0.07130467891693115,0.004017706029117107
1.7294937249047114e+18,-0.002146257320418954,-0.04939991235733032,0.005659241229295731
1.7294937249137116e+18,0.004362558946013451,-0.028272971510887146,0.004704348277300596
1.7294937249227118e+18,0.002657910343259573,-0.00931148324161768,0.0031685729045420885
1.729493724931712e+18,0.002358947182074189,0.0035342921037226915,0.004861705470830202
1.7294937249407122e+18,0.005729390773922205,0.01877530850470066,0.002860414795577526
1.7294937249497124e+18,0.013213267549872398,0.03859659656882286,0.0025354602839797735
1.7294937249557125e+18,0.022456195205450058,0.05272405222058296,0.0046888538636267185
1.7294937249647127e+18,0.03751828148961067,0.0706099271774292,0.0025625384878367186
1.729493724973713e+18,0.052614156156778336,0.09620273858308792,0.005314696114510298
1.729493724982713e+18,0.0577029213309288,0.1138063296675682,0.003460147650912404
1.7294937249917133e+18,0.06055356189608574,0.12362193316221237,0.00486953929066658
1.7294937250007135e+18,0.05805708095431328,0.14105333387851715,0.0011986286845058203
1.7294937250097137e+18,0.062425702810287476,0.1480049192905426,0.003057692665606737
1.7294937250157138e+18,0.06155197694897652,0.15162058174610138,0.0015886524925008416
1.729493725024714e+18,0.06789659708738327,0.1668938398361206,0.0005418811924755573
1.7294937250337142e+18,0.07293614000082016,0.17537885904312134,0.00032627349719405174
1.7294937250427144e+18,0.08044535666704178,0.17732080817222595,0.007186391390860081
1.7294937250517146e+18,0.08547904342412949,0.18890811502933502,0.004163391888141632
1.7294937250607148e+18,0.0805039182305336,0.19455987215042114,0.0040540071204304695
1.729493725066715e+18,0.08055023849010468,0.19509120285511017,0.0048557668924331665
1.729493725075715e+18,0.07560594379901886,0.1996939480304718,0.005812781862914562
1.7294937250847153e+18,0.07063264399766922,0.19810540974140167,-0.00019767344929277897
1.7294937250937155e+18,0.07375985383987427,0.20059964060783386,0.0028215155471116304
1.7294937251027156e+18,0.07372767478227615,0.19974659383296967,0.001997566083446145
1.7294937251087158e+18,0.08060727268457413,0.19913004338741302,0.0005367958219721913
1.729493725117716e+18,0.08473965525627136,0.202641561627388,0.002547343261539936
1.7294937251267162e+18,0.08270210027694702,0.19959329068660736,0.0030260980129241943
1.7294937251357164e+18,0.07867076992988586,0.1976921707391739,0.00048773706657812
1.7294937251447165e+18,0.06967443227767944,0.19400019943714142,0.0015944510232657194
1.7294937251507167e+18,0.06945972889661789,0.19240683317184448,0.003839992918074131
1.7294937251567168e+18,0.0688742995262146,0.18944311141967773,0.0016964406240731478
1.729493725165717e+18,0.0671069398522377,0.1856624186038971,0.001081913709640503
1.7294937251747172e+18,0.06914730370044708,0.17989368736743927,0.003982683643698692
1.7294937251837174e+18,0.07098972052335739,0.17694687843322754,-0.002117003547027707
1.7294937251927176e+18,0.0676620826125145,0.1741550862789154,-0.0025462585035711527
1.7294937252017178e+18,0.0672031119465828,0.1687316596508026,0.002449366729706526
1.729493725210718e+18,0.062392257153987885,0.16394878923892975,-0.0010046155657619238
1.7294937252197181e+18,0.05905134230852127,0.15890122950077057,-0.0015337171498686075
1.7294937252257183e+18,0.05706000700592995,0.1569216549396515,-0.0005305277300067246
1.7294937252347185e+18,0.056048016995191574,0.14922554790973663,0.0012302272953093052
1.7294937252437187e+18,0.05793130770325661,0.14699405431747437,-0.0009512377437204123
1.7294937252527188e+18,0.05492289364337921,0.14419640600681305,-0.004051120486110449
1.729493725261719e+18,0.05238869786262512,0.1373993158340454,-0.001577636692672968
1.7294937252707192e+18,0.05387593060731888,0.13336075842380524,-0.0001299369614571333
1.7294937252797194e+18,0.05317653715610504,0.12886205315589905,-0.0011306152446195483
1.7294937252887196e+18,0.04705560579895973,0.12433736771345139,-0.0027657500468194485
1.7294937252977198e+18,0.04418123885989189,0.12112236768007278,-0.002118339529260993
1.72949372530372e+18,0.04179667308926582,0.1187528520822525,-0.00257957074791193
1.7294937253127201e+18,0.04114824905991554,0.11228621751070023,-0.001617387868463993
1.7294937253217203e+18,0.03939429298043251,0.11281609535217285,-0.003030197462067008
1.7294937253307205e+18,0.04263576865196228,0.1054801195859909,0.00026344205252826214
1.7294937253367206e+18,0.04297066107392311,0.10458783060312271,-0.004116147756576538
1.7294937253457208e+18,0.039774999022483826,0.10137370228767395,-0.0037218977231532335
1.729493725354721e+18,0.04101564735174179,0.10054328292608261,-0.005524835083633661
1.7294937253607212e+18,0.038850851356983185,0.09623247385025024,-0.0027060729917138815
1.7294937253697213e+18,0.035137422382831573,0.09306792169809341,-0.003836775664240122
1.7294937253787215e+18,0.03430962935090065,0.09038082510232925,-0.003020630916580558
1.7294937253847217e+18,0.035530414432287216,0.08606137335300446,-0.0031108534894883633
1.7294937253937219e+18,0.03387189656496048,0.08479399979114532,-0.0030332363676279783
1.729493725402722e+18,0.03408407047390938,0.08242960274219513,-0.003523022634908557
1.7294937254087222e+18,0.03529876098036766,0.08100146055221558,-0.0033574288245290518
1.7294937254177224e+18,0.0363151952624321,0.08006202429533005,-0.0043634045869112015
1.7294937254267226e+18,0.035877201706171036,0.07831081002950668,-0.004889372270554304
1.7294937254327227e+18,0.03800413757562637,0.07742344588041306,-0.0019216621294617653
1.729493725441723e+18,0.0316610150039196,0.07687866687774658,-0.00238296901807189
1.729493725450723e+18,0.031993888318538666,0.0733346939086914,-0.005909871309995651
1.7294937254567232e+18,0.029440250247716904,0.06987321376800537,-0.0010190648026764393
1.7294937254657234e+18,0.028350669890642166,0.06993982195854187,-0.002897287253290415
1.7294937254747236e+18,0.025941133499145508,0.061541855335235596,-0.0053407372906804085
1.7294937254807237e+18,0.026444803923368454,0.06184712424874306,-0.004196793772280216
1.729493725489724e+18,0.02764306217432022,0.06126850098371506,-0.007604638580232859
1.729493725498724e+18,0.02840009517967701,0.06286957114934921,-0.004786006640642881
1.7294937255077243e+18,0.029814360663294792,0.06511308997869492,-0.004301233217120171
1.7294937255167245e+18,0.02504151687026024,0.0639583021402359,-0.008500136435031891
1.7294937255227246e+18,0.02251886948943138,0.059982411563396454,-0.006068347953259945
1.7294937255317248e+18,0.019385308027267456,0.06296028941869736,-0.007464764639735222
1.729493725540725e+18,0.019737444818019867,0.05646857991814613,-0.006411549635231495
1.7294937255497252e+18,0.0244459081441164,0.05727502703666687,-0.0072453320026397705
1.7294937255587254e+18,0.027021992951631546,0.05607667565345764,-0.006198258139193058
1.7294937255677256e+18,0.027593471109867096,0.05735734850168228,-0.002761895302683115
1.7294937255737257e+18,0.02598131261765957,0.05551262944936752,-0.004242423921823502
1.729493725582726e+18,0.025388887152075768,0.05795201286673546,-0.0036068083718419075
1.729493725591726e+18,0.020169487223029137,0.05580078437924385,-0.006800787523388863
1.7294937256007263e+18,0.020866720005869865,0.05326765030622482,-0.005136213731020689
1.7294937256097265e+18,0.021097248420119286,0.05305671691894531,-0.006833218969404697
1.7294937256187267e+18,0.022320350632071495,0.05228947475552559,-0.008455985225737095
1.7294937256277268e+18,0.021642839536070824,0.0515173077583313,-0.009890235960483551
1.729493725633727e+18,0.02050127647817135,0.05152387171983719,-0.009624571539461613
1.7294937256427272e+18,0.019439302384853363,0.05192827433347702,-0.00764466030523181
1.7294937256517274e+18,0.01746644824743271,0.05175548419356346,-0.00897165760397911
1.7294937256607276e+18,0.022581644356250763,0.04892495647072792,-0.007263036444783211
1.7294937256637276e+18,0.017000433057546616,0.05017615109682083,-0.008639894425868988
1.7294937256727278e+18,0.018903732299804688,0.047167275100946426,-0.009750330820679665
1.729493725681728e+18,0.016754357144236565,0.0418727807700634,-0.005742451176047325
1.7294937256907282e+18,0.01727323606610298,0.04404284060001373,-0.008689668029546738
1.7294937256997284e+18,0.017832959070801735,0.042148999869823456,-0.00785798579454422
1.7294937257087286e+18,0.01995849795639515,0.041321560740470886,-0.007760018575936556
1.7294937257177288e+18,0.015606392174959183,0.03786083683371544,-0.007422913797199726
1.729493725726729e+18,0.01427481509745121,0.04054655879735947,-0.0072290897369384766
1.729493725732729e+18,0.01784219965338707,0.03928471356630325,-0.008569061756134033
1.7294937257387292e+18,0.01055692695081234,0.03833835572004318,-0.004838216118514538
1.7294937257477294e+18,0.013552501797676086,0.0384504497051239,-0.008242885582149029
1.7294937257537295e+18,0.01852554827928543,0.03458485007286072,-0.005729197524487972
1.7294937257597297e+18,0.016033835709095,0.03172074630856514,-0.00629067700356245
1.7294937257657298e+18,0.015410393476486206,0.032635126262903214,-0.007890253327786922
1.72949372577173e+18,0.016447877511382103,0.031101616099476814,-0.008939267136156559
1.72949372578073e+18,0.013505475595593452,0.03080257959663868,-0.005304960533976555
1.7294937257867302e+18,0.015502534806728363,0.030537813901901245,-0.007246044930070639
1.7294937257927304e+18,0.01375914178788662,0.029865924268960953,-0.006774993613362312
1.7294937258017306e+18,0.014861298725008965,0.03019438125193119,-0.010418528690934181
1.7294937258077307e+18,0.011935926042497158,0.02938459999859333,-0.007544106338173151
1.7294937258137308e+18,0.014315568841993809,0.030332082882523537,-0.007933055981993675
1.729493725822731e+18,0.014705106616020203,0.02987869270145893,-0.005446083378046751
1.7294937258287311e+18,0.013327043503522873,0.028697295114398003,-0.011225196532905102
1.7294937258347313e+18,0.009797438979148865,0.03059014491736889,-0.009799959138035774
1.7294937258407314e+18,0.013710434548556805,0.02909022942185402,-0.011308535933494568
1.7294937258467315e+18,0.013911050744354725,0.028080491349101067,-0.0073656062595546246
1.7294937258527316e+18,0.00926973670721054,0.025137340649962425,-0.0076302578672766685
1.7294937258587318e+18,0.006420751102268696,0.02398659475147724,-0.00760508980602026
1.729493725864732e+18,0.008021241053938866,0.02228185348212719,-0.007468821480870247
1.729493725873732e+18,0.00946066714823246,0.023516755551099777,-0.0038201208226382732
1.7294937258827323e+18,0.012594742700457573,0.021047838032245636,-0.010262749157845974
1.7294937258887324e+18,0.012567858211696148,0.02369239740073681,-0.009100480005145073
1.7294937258977326e+18,0.011143841780722141,0.021973559632897377,-0.008516653440892696
1.7294937259067328e+18,0.013818289153277874,0.020840071141719818,-0.008649359457194805
1.7294937259097329e+18,0.012252319604158401,0.01832473836839199,-0.008336271159350872
1.729493725915733e+18,0.010187537409365177,0.01690714806318283,-0.007069914601743221
1.729493725921733e+18,0.010190040804445744,0.018666358664631844,-0.007260880433022976
1.7294937259307333e+18,0.004830231890082359,0.015119258314371109,-0.010608626529574394
1.7294937259367334e+18,0.008958904072642326,0.014676250517368317,-0.007024017162621021
1.7294937259427336e+18,0.00628154119476676,0.01799827441573143,-0.006919345818459988
1.7294937259517338e+18,0.008078929968178272,0.015213064849376678,-0.01063263975083828
1.7294937259547338e+18,0.012819288298487663,0.015946539118885994,-0.008641483262181282
1.729493725960734e+18,0.010848437435925007,0.01608043909072876,-0.006969149224460125
1.729493725966734e+18,0.013092203065752983,0.013537500984966755,-0.006773017812520266
1.7294937259727342e+18,0.014396300539374352,0.011353516951203346,-0.006668206304311752
1.7294937259787343e+18,0.014764477498829365,0.01227059680968523,-0.009946534410119057
1.7294937259817344e+18,0.010687983594834805,0.010095844976603985,-0.0062490710988640785
1.7294937259907346e+18,0.006595338229089975,0.01132149901241064,-0.00877680629491806
1.7294937259997348e+18,0.004685722291469574,0.009893869049847126,-0.010383454151451588
1.729493726005735e+18,0.0031991556752473116,0.015452076680958271,-0.004291641525924206
1.729493726011735e+18,-0.0004023737274110317,0.009473087266087532,-0.006300371140241623
1.7294937260177352e+18,0.0032286422792822123,0.010444395244121552,-0.006264893338084221
1.7294937260237353e+18,0.0036977925337851048,0.008878039196133614,-0.007075106259435415
1.7294937260267354e+18,0.005571340210735798,0.007196294143795967,-0.005295466631650925
1.7294937260357356e+18,0.00600065104663372,0.005105971358716488,-0.005415420047938824
1.7294937260417357e+18,0.006877007428556681,0.00610851775854826,-0.005032276269048452
1.7294937260477358e+18,0.007615383248776197,0.0029547850135713816,-0.006477728486061096
1.729493726056736e+18,0.002266984200105071,0.0053365156054496765,-0.004094457719475031
1.7294937260627361e+18,-0.001089336583390832,0.005998993292450905,-0.005129094701260328
1.7294937260687363e+18,-0.0016978433122858405,0.010335131548345089,-0.006236423272639513
1.7294937260747364e+18,-0.0015040396247059107,0.009594413451850414,-0.005995060782879591
1.7294937260807365e+18,-0.004360360559076071,0.00932382047176361,-0.0070090885274112225
1.7294937260867366e+18,-0.0010092474985867739,0.009899111464619637,-0.006588026415556669
1.7294937260927368e+18,-0.0012503443285822868,0.008232067339122295,-0.00399024598300457
1.729493726098737e+18,0.007536627817898989,0.0097281439229846,-0.005641347263008356
1.729493726104737e+18,0.005459784530103207,0.007599174045026302,-0.0054146102629601955
1.7294937261107372e+18,0.004379866644740105,0.004981912672519684,-0.004675530828535557
1.7294937261167373e+18,0.002903108485043049,0.004846580326557159,-0.0022361883893609047
1.7294937261227374e+18,0.0033806520514190197,0.0022218890953809023,-0.006437066476792097
1.7294937261287375e+18,-0.002583966124802828,0.0021042877342551947,-0.003813693765550852
1.7294937261347377e+18,-0.005213614087551832,0.0018530348315835,-0.006854319479316473
1.7294937261437379e+18,-0.005690121557563543,0.0029437835328280926,-0.008106868714094162
1.729493726146738e+18,-0.007226766552776098,0.0021776496432721615,-0.0022001140750944614
1.729493726152738e+18,-0.005317457020282745,-0.0006292428588494658,-0.0016236724331974983
1.7294937261587382e+18,-0.002162397839128971,0.0030881641432642937,-0.0036730743013322353
1.7294937261677384e+18,-0.00035841704811900854,0.0009529798408038914,-0.004173337481915951
1.7294937261737385e+18,0.004708633292466402,0.0014644560869783163,-0.004244539886713028
1.7294937261797386e+18,0.0028306490276008844,0.0010162745602428913,-0.007331619039177895
1.7294937261857388e+18,0.0036036348901689053,-0.0033730450086295605,-0.000323224114254117
1.729493726194739e+18,-0.0013461718335747719,-0.0028603768441826105,0.0013346585910767317
1.729493726197739e+18,-0.002102670958265662,-0.0026650610379874706,-0.0034725163131952286
1.7294937262067392e+18,-0.00529839051887393,-0.0031009328085929155,-0.006360129453241825
1.7294937262127393e+18,-0.004719920456409454,-0.0035100227687507868,-0.002859273226931691
1.7294937262187395e+18,-0.005446914583444595,-0.0033744776155799627,-0.00037653278559446335
1.7294937262247396e+18,-0.0016309772618114948,-0.00399206206202507,-0.0025879358872771263
1.7294937262307397e+18,-0.003067098092287779,-0.004048498813062906,0.000229227589443326
1.7294937262367398e+18,-0.002058597980067134,-0.004614513833075762,-0.0030960235744714737
1.72949372624574e+18,-0.00013382243923842907,-0.00755689712241292,-0.0010943952947854996
1.7294937262517402e+18,0.0019573259633034468,-0.0021812154445797205,-0.00019063451327383518
1.7294937262577403e+18,0.004415025934576988,-0.006268178578466177,-0.0014001296367496252
1.7294937262667405e+18,0.0010231966152787209,-0.007323445286601782,-0.0052611636929214
1.7294937262757407e+18,-0.00210513174533844,-0.006175295915454626,-0.003722183173522353
1.7294937262817408e+18,-0.004005940165370703,-0.00475708395242691,-0.0021266157273203135
1.729493726287741e+18,-0.004465340171009302,-0.006631054915487766,-0.001428775256499648
1.729493726293741e+18,-0.007868025451898575,-0.00597076490521431,-0.001964939758181572
1.7294937262997412e+18,-0.007690746337175369,-0.006678449455648661,-0.00010479451157152653
1.7294937263087414e+18,-0.004241086542606354,-0.007623317185789347,-0.0007262223516590893
1.7294937263147415e+18,-0.0009141865884885192,-0.006869879085570574,-0.002790194470435381
1.7294937263237417e+18,0.0015001832507550716,-0.006916197948157787,-0.003017596434801817
1.7294937263297418e+18,0.00264117238111794,-0.0032703718170523643,-0.00308782747015357
1.729493726338742e+18,0.0010099197970703244,-0.007772878743708134,0.002495324471965432
1.7294937263447421e+18,-0.0031026871874928474,-0.0034722157288342714,-0.0006538343150168657
1.7294937263477422e+18,-0.004496012814342976,-0.00874374620616436,-0.0012645935639739037
1.7294937263567424e+18,-0.005306531209498644,-0.00440237857401371,-0.001372913597151637
1.7294937263627425e+18,-0.0052011036314070225,-0.005397356115281582,-0.00014481370453722775
1.7294937263687427e+18,-0.002964402548968792,-0.008089669048786163,-0.0017227062489837408
1.7294937263777428e+18,-0.0017671112436801195,-0.0061803655698895454,-1.5643745427951217e-05
1.729493726386743e+18,-0.00047825684305280447,-0.008146798238158226,-0.0015230323188006878
1.7294937263927432e+18,7.181637920439243e-05,-0.009536786936223507,0.001673599355854094
1.7294937263987433e+18,-0.001977715641260147,-0.00673488387838006,0.0010670286137610674
1.7294937264047434e+18,-0.0015858272090554237,-0.011178425513207912,-0.0020649281796067953
1.7294937264137436e+18,-0.002487447112798691,-0.009860123507678509,-0.0010979908984154463
1.7294937264227438e+18,-0.0027543376199901104,-0.00984867475926876,0.004951715935021639
1.729493726428744e+18,-0.0029890681616961956,-0.008910052478313446,0.0011477028019726276
1.729493726437744e+18,-0.0011257812147960067,-0.009363706223666668,0.0009471307275816798
1.7294937264467443e+18,-0.0019542265217751265,-0.008601891808211803,0.002240218222141266
1.7294937264527444e+18,-0.0002206175122410059,-0.01272188313305378,0.0004043516528327018
1.7294937264617446e+18,-0.006131681613624096,-0.009069889783859253,4.806701326742768e-05
1.7294937264677448e+18,0.00042854808270931244,-0.012233535759150982,4.2395840864628553e-05
1.729493726476745e+18,-0.0017231032252311707,-0.009792226366698742,-0.001636774162761867
1.729493726482745e+18,-0.0037713865749537945,-0.00990055501461029,0.0007230294868350029
1.7294937264887452e+18,-0.0019772211089730263,-0.012011967599391937,-0.002289034426212311
1.7294937264947453e+18,-0.0013217634987086058,-0.010954618453979492,0.002250183839350939
1.7294937265007455e+18,-0.005502286832779646,-0.010349135845899582,0.0025826944038271904
1.7294937265067456e+18,-0.0020452660974115133,-0.012818709947168827,0.000506463460624218
1.7294937265127457e+18,-4.8134010285139084e-05,-0.014782547950744629,0.0002599862636998296
1.7294937265187459e+18,-0.0064635369926691055,-0.014873611740767956,-0.002586123999208212
1.729493726524746e+18,-0.004623737186193466,-0.013351008296012878,0.0018091053934767842
1.729493726530746e+18,-0.0032637144904583693,-0.01613948680460453,0.0031666767317801714
1.7294937265367462e+18,-0.0033821240067481995,-0.016938988119363785,0.0011041032848879695
1.7294937265457464e+18,-0.003591775894165039,-0.013778014108538628,0.002513676881790161
1.7294937265517466e+18,-0.004160454962402582,-0.01803482323884964,0.003558041760697961
1.7294937265577467e+18,-0.005206478759646416,-0.01985964924097061,0.0027449242770671844
1.7294937265637468e+18,-0.008108101785182953,-0.01536599826067686,0.0035203220322728157
1.729493726572747e+18,-0.0077398112043738365,-0.017225516960024834,0.0012709517031908035
1.7294937265787471e+18,-0.00435975193977356,-0.015157646499574184,0.0038289763033390045
1.7294937265877473e+18,-0.007196484133601189,-0.01706143468618393,0.002236417029052973
1.7294937265937475e+18,-0.001903765369206667,-0.020832568407058716,-0.0016438192687928677
1.7294937265997476e+18,-0.004430379718542099,-0.021481826901435852,0.0036151849199086428
1.7294937266057477e+18,-0.003693503560498357,-0.02282724156975746,-0.0011283289641141891
1.729493726614748e+18,-0.007401672191917896,-0.022905513644218445,0.0018465579487383366
1.729493726620748e+18,-0.0077720885165035725,-0.02282256819307804,0.0007954777684062719
1.7294937266267482e+18,-0.009896321222186089,-0.021918291226029396,0.0035300389863550663
1.7294937266327483e+18,-0.012773674912750721,-0.017970770597457886,0.005539458245038986
1.7294937266417485e+18,-0.012920287437736988,-0.020214784890413284,-0.0014311396516859531
1.7294937266447485e+18,-0.01024869829416275,-0.02031792886555195,0.004880700260400772
1.7294937266507487e+18,-0.013757348991930485,-0.02175714634358883,0.003248441033065319
1.7294937266567488e+18,-0.008987446315586567,-0.02008868381381035,0.004617277532815933
1.729493726662749e+18,-0.0054641710594296455,-0.021197613328695297,0.0009641911601647735
1.729493726671749e+18,-0.005857536103576422,-0.024393858388066292,0.00380399520508945
1.7294937266777492e+18,-0.009464412927627563,-0.02302016131579876,0.00048591173253953457
1.7294937266837494e+18,-0.008480239659547806,-0.022810058668255806,0.0030505491886287928
1.7294937266897495e+18,-0.009773711673915386,-0.020422691479325294,0.0025125714018940926
1.7294937266957496e+18,-0.010140543803572655,-0.0217521321028471,0.004844288341701031
1.7294937267047498e+18,-0.009814362972974777,-0.02136373147368431,-0.0007307075429707766
1.72949372670775e+18,-0.01230874378234148,-0.02255396358668804,0.005974881816655397
1.72949372671675e+18,-0.009802952408790588,-0.024065420031547546,0.0056015439331531525
1.7294937267227502e+18,-0.011927401646971703,-0.02397729828953743,0.0019881315529346466
1.7294937267287503e+18,-0.009534665383398533,-0.02239873632788658,0.005053691565990448
1.7294937267347505e+18,-0.004454620182514191,-0.02056146413087845,0.0026152078062295914
1.7294937267407506e+18,-0.009396311827003956,-0.024479251354932785,0.0020362038630992174
1.7294937267497508e+18,-0.009948544204235077,-0.02718447521328926,0.003907316364347935
1.729493726755751e+18,-0.010368287563323975,-0.0262740571051836,0.001255311886779964
1.729493726761751e+18,-0.009636558592319489,-0.024069219827651978,0.004132022149860859
1.7294937267677512e+18,-0.008249837905168533,-0.024887850508093834,0.0022524232044816017
1.7294937267737513e+18,-0.012839527800679207,-0.022005369886755943,-7.996452040970325e-05
1.7294937267827515e+18,-0.011469629593193531,-0.01973053067922592,0.003886085469275713
1.7294937267887516e+18,-0.010456851683557034,-0.020440364256501198,0.005193334072828293
1.7294937267947517e+18,-0.01131315715610981,-0.021035414189100266,0.004016424063593149
1.7294937268007519e+18,-0.011603236198425293,-0.021969225257635117,0.001973477890715003
1.729493726809752e+18,-0.00943528302013874,-0.023469669744372368,0.002842189045622945
1.7294937268157522e+18,-0.011096569709479809,-0.02453974075615406,0.006289978511631489
1.7294937268247524e+18,-0.010067086666822433,-0.02558266371488571,0.0025319866836071014
1.7294937268307525e+18,-0.013176800683140755,-0.026990026235580444,0.0028683445416390896
1.7294937268367526e+18,-0.0072515616193413734,-0.025430146604776382,0.0034127600956708193
1.7294937268427528e+18,-0.011657027527689934,-0.027734989300370216,0.0017627435736358166
1.729493726848753e+18,-0.011848236434161663,-0.026464128866791725,0.00421679113060236
1.729493726857753e+18,-0.010564672760665417,-0.02535850554704666,0.0032406002283096313
1.7294937268637532e+18,-0.011276200413703918,-0.023876626044511795,0.005303649231791496
1.7294937268727534e+18,-0.011791546829044819,-0.026890993118286133,0.0015044515021145344
1.7294937268817536e+18,-0.011837802827358246,-0.028014443814754486,0.004733885172754526
1.7294937268907538e+18,-0.009021230973303318,-0.028315965086221695,0.00702296756207943
1.729493726899754e+18,-0.0063875047490000725,-0.02755209617316723,0.003428224939852953
1.7294937269087542e+18,-0.0058836061507463455,-0.028145940974354744,0.0032816529273986816
1.7294937269207544e+18,-0.007098380941897631,-0.02913663722574711,0.004152192734181881
1.7294937269297546e+18,-0.0070314835757017136,-0.03028528019785881,0.004547050688415766
1.7294937269357548e+18,-0.007029366679489613,-0.029802413657307625,0.0024254191666841507
1.729493726944755e+18,-0.0069077033549547195,-0.025858838111162186,0.007263892330229282
1.7294937269537551e+18,-0.013378623872995377,-0.02752459980547428,0.003392899874597788
1.7294937269597553e+18,-0.012900266796350479,-0.026677994057536125,0.0015968619845807552
1.7294937269687555e+18,-0.011254745535552502,-0.027822449803352356,0.0020608119666576385
1.7294937269777556e+18,-0.008114791475236416,-0.025073768571019173,0.004012239631265402
1.7294937269867558e+18,-0.003616033587604761,-0.02699441649019718,0.004680105485022068
1.729493726995756e+18,-0.007659308612346649,-0.02816024422645569,0.0025567859411239624
1.7294937270047562e+18,-0.010900390334427357,-0.028824644163250923,0.004704747349023819
1.7294937270137564e+18,-0.011263214983046055,-0.029068462550640106,0.0033591603860259056
1.7294937270227566e+18,-0.0164310485124588,-0.028821006417274475,0.0035851560533046722
1.7294937270317568e+18,-0.013408849015831947,-0.028336286544799805,0.005152892787009478
1.729493727040757e+18,-0.010020555928349495,-0.02589123137295246,0.004576374311000109
1.7294937270497572e+18,-0.007169847376644611,-0.026832513511180878,0.003078178036957979
1.7294937270617574e+18,-0.009393109939992428,-0.025446036830544472,0.006004709750413895
1.7294937270707576e+18,-0.012341164983808994,-0.02343408204615116,0.006167914252728224
1.7294937270797578e+18,-0.01654343120753765,-0.02923562563955784,0.004735462833195925
1.729493727088758e+18,-0.015471024438738823,-0.028567936271429062,0.005485723726451397
1.7294937270977582e+18,-0.01415929663926363,-0.02870895341038704,0.004841221962124109
1.7294937271067584e+18,-0.012236539274454117,-0.027672600001096725,0.003227866953238845
1.7294937271157586e+18,-0.005323525983840227,-0.024402333423495293,-0.004194892011582851
1.7294937271277588e+18,0.00322683434933424,-0.02851257473230362,-0.021592900156974792
1.729493727136759e+18,0.003394676372408867,-0.032164834439754486,-0.02597654238343239
1.7294937271457592e+18,-0.0006601244676858187,-0.029424211010336876,-0.026680676266551018
1.7294937271547594e+18,-0.0020913016051054,-0.029619114473462105,-0.025983043015003204
1.7294937271637596e+18,-0.010624191723763943,-0.031886987388134,-0.02558893710374832
1.7294937271727598e+18,-0.013253804296255112,-0.02995469607412815,-0.024679139256477356
1.72949372718176e+18,-0.011769845150411129,-0.03191911801695824,-0.02887248434126377
1.7294937271907602e+18,-0.008060913532972336,-0.02784351259469986,-0.022877037525177002
1.7294937271997604e+18,-0.003326014382764697,-0.028769945725798607,-0.021517563611268997
1.7294937272117606e+18,-0.0035013086162507534,-0.024979954585433006,-0.023253479972481728
1.7294937272207608e+18,-0.00530717708170414,-0.028648288920521736,-0.02325659990310669
1.729493727229761e+18,-0.014814150519669056,-0.029298102483153343,-0.018220970407128334
1.7294937272387612e+18,-0.01769116520881653,-0.02870829775929451,-0.017185350880026817
1.7294937272477614e+18,-0.022006023675203323,-0.026691079139709473,-0.016950514167547226
1.7294937272567616e+18,-0.02003447711467743,-0.028352541849017143,-0.01240838784724474
1.7294937272657618e+18,-0.01732252910733223,-0.02476617880165577,-0.00998668558895588
1.729493727274762e+18,-0.014650221914052963,-0.023108066990971565,-0.008953177370131016
1.7294937272867622e+18,-0.013904877007007599,-0.02225441299378872,-0.006412682123482227
1.7294937272957624e+18,-0.01587475650012493,-0.025021424517035484,-0.0013220456894487143
1.7294937273017626e+18,-0.015192750841379166,-0.025743460282683372,0.0005149216740392148
1.7294937273107628e+18,-0.02196897752583027,-0.02626577764749527,0.0060051195323467255
1.729493727319763e+18,-0.023832770064473152,-0.023393677547574043,0.004644463304430246
1.7294937273287631e+18,-0.028393123298883438,-0.02304697409272194,0.011008677072823048
1.7294937273407634e+18,-0.024158084765076637,-0.02298724465072155,0.014924852177500725
1.7294937273497636e+18,-0.02206837572157383,-0.02465873956680298,0.016025198623538017
1.7294937273587638e+18,-0.018635228276252747,-0.021366428583860397,0.021153977140784264
1.729493727367764e+18,-0.013160867616534233,-0.023229559883475304,0.028792861849069595
1.7294937273767642e+18,-0.01969371922314167,-0.02526973932981491,0.029200132936239243
1.7294937273857644e+18,-0.021483179181814194,-0.022628052160143852,0.03291553258895874
1.7294937273917645e+18,-0.018508020788431168,-0.023632265627384186,0.036947183310985565
1.7294937274037647e+18,-0.021124189719557762,-0.02420535311102867,0.040957625955343246
1.729493727412765e+18,-0.021787278354167938,-0.0255912896245718,0.04702509939670563
1.729493727421765e+18,-0.017048966139554977,-0.024504652246832848,0.04604944586753845
1.7294937274337654e+18,-0.01540367677807808,-0.022216567769646645,0.052941471338272095
1.7294937274397655e+18,-0.0150018110871315,-0.02207668498158455,0.05649971961975098
1.7294937274487657e+18,-0.01762152835726738,-0.022495504468679428,0.058584220707416534
1.729493727460766e+18,-0.013243237510323524,-0.023641781881451607,0.06311273574829102
1.7294937274697661e+18,-0.0175878144800663,-0.023028291761875153,0.06800204515457153
1.7294937274787663e+18,-0.018715370446443558,-0.02142549678683281,0.07118217647075653
1.7294937274877665e+18,-0.01789124868810177,-0.021427197381854057,0.07398671656847
1.7294937274967667e+18,-0.014830510132014751,-0.022064320743083954,0.07466587424278259
1.729493727505767e+18,-0.013210651464760303,-0.025466732680797577,0.08007250726222992
1.729493727514767e+18,-0.014268571510910988,-0.025316178798675537,0.08129984140396118
1.7294937275237673e+18,-0.012449385598301888,-0.02656417340040207,0.08709447085857391
1.7294937275327675e+18,-0.012351430021226406,-0.02736721560359001,0.08778485655784607
1.7294937275417677e+18,-0.016015376895666122,-0.02540588565170765,0.08929808437824249
1.729493727553768e+18,-0.015208341181278229,-0.024946505203843117,0.09221913665533066
1.7294937275627681e+18,-0.010904785245656967,-0.027334021404385567,0.09667982906103134
1.7294937275717683e+18,-0.012516801245510578,-0.026586439460515976,0.10029709339141846
1.7294937275807685e+18,-0.010458593256771564,-0.030427761375904083,0.10014951974153519
1.7294937275897687e+18,-0.012172536924481392,-0.02854209393262863,0.1061209961771965
1.729493727601769e+18,-0.011167380027472973,-0.027913566678762436,0.10529156774282455
1.7294937276107692e+18,-0.009853913448750973,-0.029060829430818558,0.10949046909809113
1.7294937276197693e+18,-0.010638289153575897,-0.02458236552774906,0.10846729576587677
1.7294937276287695e+18,-0.008695724420249462,-0.0274673942476511,0.11077726632356644
1.7294937276377697e+18,-0.008634905330836773,-0.028483999893069267,0.11422014981508255
1.72949372764977e+18,-0.0065732961520552635,-0.026331523433327675,0.1127716451883316
1.7294937276587702e+18,-0.0062881349585950375,-0.024881379678845406,0.11249879747629166
1.7294937276677704e+18,-0.007768263574689627,-0.022940434515476227,0.11779079586267471
1.7294937276767706e+18,-0.005467670504003763,-0.01821100525557995,0.11774428933858871
1.7294937276857708e+18,-0.006379417143762112,-0.022611655294895172,0.1213979721069336
1.729493727694771e+18,-0.007190473843365908,-0.023939134553074837,0.11908561736345291
1.7294937277037711e+18,-0.008744919672608376,-0.023081079125404358,0.1195293664932251
1.7294937277127713e+18,-0.006760806310921907,-0.024826794862747192,0.12326771020889282
1.7294937277217715e+18,-0.007135553751140833,-0.025876691564917564,0.11904671043157578
1.7294937277307717e+18,-0.005219987127929926,-0.025371136143803596,0.12356849014759064
1.729493727739772e+18,-0.001618291949853301,-0.021096624433994293,0.12156569212675095
1.729493727748772e+18,-0.0035409522242844105,-0.023315751925110817,0.12303487956523895
1.7294937277577723e+18,-0.007410885766148567,-0.018634913489222527,0.12161988765001297
1.7294937277667725e+18,-0.00746253551915288,-0.02035433240234852,0.12445161491632462
1.7294937277757727e+18,-0.012005200609564781,-0.022891804575920105,0.12167937308549881
1.7294937277847729e+18,-0.010018651373684406,-0.022684350609779358,0.1258677989244461
1.729493727793773e+18,-0.011801090091466904,-0.020312326028943062,0.12207560241222382
1.7294937278027732e+18,-0.007622659672051668,-0.022344259545207024,0.12604661285877228
1.7294937278117734e+18,-0.00570974126458168,-0.017228256911039352,0.12208820134401321
1.7294937278207736e+18,-0.003387036267668009,-0.01733360067009926,0.1198011115193367
1.7294937278297738e+18,-0.005927959457039833,-0.019813302904367447,0.12213801592588425
1.729493727841774e+18,-0.008528918027877808,-0.021785296499729156,0.11997753381729126
1.7294937278507743e+18,-0.010301095433533192,-0.02049984037876129,0.12185459583997726
1.7294937278567744e+18,-0.010296523571014404,-0.02253158949315548,0.12196860462427139
1.7294937278657746e+18,-0.011443885043263435,-0.02309134416282177,0.11898110061883926
1.7294937278777748e+18,-0.008964180015027523,-0.022197341546416283,0.11749708652496338
1.729493727886775e+18,-0.006890994496643543,-0.01799994707107544,0.11626064777374268
1.7294937278957752e+18,-0.005211883224546909,-0.01955435238778591,0.1166883185505867
1.7294937279047754e+18,-0.007677546702325344,-0.019114557653665543,0.11614175885915756
1.7294937279137756e+18,-0.00988907553255558,-0.016406437382102013,0.11408179998397827
1.7294937279227758e+18,-0.008004261180758476,-0.015190578997135162,0.1127854511141777
1.729493727931776e+18,-0.007773460820317268,-0.016974609345197678,0.11005698144435883
1.7294937279437763e+18,-0.005767119582742453,-0.015609275549650192,0.11091738194227219
1.7294937279527764e+18,-0.0036508955527096987,-0.02059648185968399,0.11077182739973068
1.7294937279617766e+18,-0.00465491134673357,-0.01982111670076847,0.10841520130634308
1.7294937279707768e+18,-0.0021834871731698513,-0.019487867131829262,0.10538294166326523
1.729493727979777e+18,-0.008328476920723915,-0.015177655033767223,0.10324171930551529
1.7294937279887772e+18,-0.009023365564644337,-0.01702049933373928,0.10488679260015488
1.7294937280007775e+18,-0.005483102053403854,-0.014335010200738907,0.10369253158569336
1.7294937280097777e+18,-0.009498126804828644,-0.0128787811845541,0.10312064737081528
1.7294937280187779e+18,-0.006168526131659746,-0.015559208579361439,0.09859547019004822
1.729493728027778e+18,-0.0038900284562259912,-0.01647643744945526,0.09780062735080719
1.7294937280367782e+18,-0.002163165947422385,-0.013780494220554829,0.09586066007614136
1.7294937280457784e+18,-0.004628946539014578,-0.015128390863537788,0.09149719774723053
1.7294937280547786e+18,-0.006586767733097076,-0.01233113743364811,0.09135735780000687
1.729493728066779e+18,-0.0073872827924788,-0.01063974853605032,0.08920369297266006
1.729493728072779e+18,-0.009479312226176262,-0.01016830001026392,0.0883493423461914
1.7294937280847793e+18,-0.007011371664702892,-0.012498128227889538,0.08361846953630447
1.7294937280937795e+18,-0.005189866758882999,-0.01263971533626318,0.08606216311454773
1.7294937281027796e+18,-0.0064621372148394585,-0.012591436505317688,0.07931823283433914
1.7294937281117798e+18,-0.006202043499797583,-0.014746279455721378,0.08010654151439667
1.72949372812078e+18,-0.008453117683529854,-0.010303101502358913,0.0795770213007927
1.7294937281297802e+18,-0.009040873497724533,-0.013232151977717876,0.07612712681293488
1.7294937281387804e+18,-0.008602237328886986,-0.010296137072145939,0.07451178133487701
1.7294937281477806e+18,-0.008485845290124416,-0.009441928006708622,0.07770980894565582
1.7294937281567808e+18,-0.007732270285487175,-0.00835597887635231,0.07062452286481857
1.729493728165781e+18,-0.004597870633006096,-0.01203105878084898,0.07029271870851517
1.7294937281747812e+18,-0.0022860264871269464,-0.011998043395578861,0.06929048150777817
1.7294937281837814e+18,-0.007046845741569996,-0.01389966532588005,0.06814396381378174
1.7294937281927816e+18,-0.010034652426838875,-0.014412649907171726,0.06499089300632477
1.7294937282017818e+18,-0.010568071156740189,-0.010954823344945908,0.06278372555971146
1.729493728213782e+18,-0.008118903264403343,-0.008880216628313065,0.058364465832710266
1.7294937282227822e+18,-0.009041703306138515,-0.010869573801755905,0.05777633562684059
1.7294937282317824e+18,-0.008960791863501072,-0.01490387599915266,0.055390022695064545
1.7294937282377825e+18,-0.00508097093552351,-0.0186664629727602,0.05625737085938454
1.7294937282497828e+18,-0.008682869374752045,-0.01921014115214348,0.052804674953222275
1.729493728255783e+18,-0.01074402779340744,-0.02267278917133808,0.05231094732880592
1.729493728264783e+18,-0.012807668186724186,-0.022129861637949944,0.046685557812452316
1.7294937282737833e+18,-0.014978531748056412,-0.02350139431655407,0.05396195873618126
1.7294937282827835e+18,-0.012331110425293446,-0.024744082242250443,0.04900353029370308
1.7294937282917837e+18,-0.016255883499979973,-0.024700922891497612,0.04774342477321625
1.7294937283007839e+18,-0.014951870776712894,-0.024823486804962158,0.04963267222046852
1.729493728309784e+18,-0.013593917712569237,-0.0280346367508173,0.05123346298933029
1.7294937283187843e+18,-0.014179905876517296,-0.028401780873537064,0.04756197705864906
1.7294937283277844e+18,-0.015358283184468746,-0.029724959284067154,0.04519089683890343
1.7294937283367846e+18,-0.015355724841356277,-0.030566571280360222,0.042247265577316284
1.7294937283457848e+18,-0.011726409196853638,-0.03203357756137848,0.042313143610954285
1.729493728354785e+18,-0.013048000633716583,-0.03075612336397171,0.04154495149850845
1.7294937283637852e+18,-0.011747531592845917,-0.0328642763197422,0.040934909135103226
1.7294937283727854e+18,-0.01652895286679268,-0.034098681062459946,0.03861832246184349
1.7294937283817856e+18,-0.017141787335276604,-0.0334370955824852,0.04086992144584656
1.7294937283907858e+18,-0.01799667812883854,-0.0336184985935688,0.03572755679488182
1.729493728399786e+18,-0.012857623398303986,-0.03660029545426369,0.035870496183633804
1.7294937284087862e+18,-0.012890688143670559,-0.03004741482436657,0.034945983439683914
1.7294937284177864e+18,-0.013299226760864258,-0.03106202557682991,0.03519127145409584
1.7294937284267866e+18,-0.008100956678390503,-0.030141189694404602,0.0359535738825798
1.7294937284357868e+18,-0.01390821672976017,-0.028325261548161507,0.03155295550823212
1.729493728444787e+18,-0.014888862147927284,-0.030756795778870583,0.031395960599184036
1.7294937284537871e+18,-0.016271330416202545,-0.028121277689933777,0.03143756464123726
1.7294937284627873e+18,-0.013779491186141968,-0.02738095633685589,0.029184989631175995
1.7294937284717875e+18,-0.011201998218894005,-0.02799087204039097,0.03065516985952854
1.7294937284807877e+18,-0.014735912904143333,-0.027249913662672043,0.028754625469446182
1.729493728489788e+18,-0.013705715537071228,-0.026999223977327347,0.02926734648644924
1.729493728498788e+18,-0.011724108830094337,-0.02910836972296238,0.028281979262828827
1.7294937285077883e+18,-0.012646766379475594,-0.027954500168561935,0.02800334431231022
1.7294937285167885e+18,-0.01342998817563057,-0.026147793978452682,0.029428428038954735
1.7294937285257887e+18,-0.01631239429116249,-0.02652966044843197,0.029121190309524536
1.7294937285347889e+18,-0.017108455300331116,-0.02404443360865116,0.0269166249781847
1.729493728543789e+18,-0.01504405029118061,-0.02493995428085327,0.02709241770207882
1.7294937285527892e+18,-0.014527712017297745,-0.02082245983183384,0.025025881826877594
1.7294937285617894e+18,-0.011786124669015408,-0.02053673006594181,0.0230496134608984
1.7294937285707896e+18,-0.013399841263890266,-0.018738530576229095,0.02430693991482258
1.72949372858279e+18,-0.012058315798640251,-0.015996944159269333,0.022832678630948067
1.72949372858879e+18,-0.009491399861872196,-0.013625475578010082,0.02346281334757805
1.7294937285977902e+18,-0.010119989514350891,-0.012638112530112267,0.02242828905582428
1.7294937286067904e+18,-0.008631916716694832,-0.009007630869746208,0.020543619990348816
1.7294937286157906e+18,-0.009284895844757557,-0.010130590759217739,0.01857151836156845
1.7294937286247908e+18,-0.006933595519512892,-0.006340416613966227,0.020897021517157555
1.729493728633791e+18,-0.010597225278615952,-0.0064702886156737804,0.01808750443160534
1.7294937286427912e+18,-0.008596212603151798,-0.007252662908285856,0.015055007301270962
1.7294937286517914e+18,-0.009667550213634968,-0.006240795832127333,0.017941104248166084
1.7294937286607916e+18,-0.012987319380044937,-0.006094077136367559,0.021116379648447037
1.7294937286697917e+18,-0.004627014975994825,-0.0028273891657590866,0.014243032783269882
1.729493728678792e+18,-0.005830930545926094,-0.0044074892066419125,0.017494428902864456
1.729493728687792e+18,-0.0029394018929451704,-0.004424134269356728,0.016254104673862457
1.7294937286967923e+18,-0.0027574580162763596,-0.0028628441505134106,0.01490325853228569
1.7294937287057925e+18,-0.00044800201430916786,-0.0048044659197330475,0.015406694263219833
1.7294937287117926e+18,-0.0050738658756017685,-0.005404970608651638,0.015225710347294807
1.7294937287207928e+18,-0.004305610433220863,-0.003079081419855356,0.014187738299369812
1.729493728729793e+18,-0.00849586445838213,-0.0012657269835472107,0.008524967357516289
1.7294937287387932e+18,-0.005924475844949484,-0.0024423180148005486,0.016065429896116257
1.7294937287477934e+18,-0.0029458515346050262,0.0011738701723515987,0.01463094912469387
1.7294937287567936e+18,-0.002478312933817506,0.0005888586747460067,0.011529521085321903
1.7294937287657938e+18,-0.0023368103429675102,0.003651287639513612,0.01171391922980547
1.729493728774794e+18,-0.0024903551675379276,0.0009386176243424416,0.013270859606564045
1.7294937287837942e+18,-0.0022291920613497496,0.0033493912778794765,0.008878078311681747
1.7294937287957944e+18,0.0012789927423000336,0.0024954532273113728,0.012313593178987503
1.7294937288047946e+18,-0.0027483333833515644,0.004884997848421335,0.011184243485331535
1.7294937288137948e+18,0.0005642387550324202,0.007316999603062868,0.009687733836472034
1.729493728822795e+18,0.0018222256330773234,0.008182123303413391,0.009963350370526314
1.7294937288287951e+18,0.001980775035917759,0.006226311903446913,0.009861274622380733
1.7294937288407954e+18,0.0020496807992458344,0.006262095645070076,0.009778643026947975
1.7294937288467955e+18,0.004082097206264734,0.008495011366903782,0.005589350126683712
1.7294937288557957e+18,0.001992966514080763,0.00945446640253067,0.008898564614355564
1.7294937288617958e+18,0.0009017038973979652,0.006725802551954985,0.009248452261090279
1.729493728870796e+18,0.005126774311065674,0.007347553968429565,0.007811914663761854
1.7294937288797962e+18,0.0038948538713157177,0.006311518140137196,0.007192857563495636
1.7294937288887964e+18,0.0062886811792850494,0.004222447983920574,0.006855671759694815
1.7294937288977966e+18,0.0014151560608297586,0.006727396510541439,0.010517042130231857
1.7294937289037967e+18,0.001214262330904603,0.010149328038096428,0.00962844304740429
1.729493728915797e+18,0.0006504224147647619,0.008286342956125736,0.0035436549223959446
1.7294937289247972e+18,0.001647859113290906,0.010808108374476433,0.006203243974596262
1.7294937289307973e+18,0.003416334744542837,0.009870124980807304,0.0029452864546328783
1.7294937289397975e+18,0.0060399980284273624,0.006835331209003925,0.0031123559456318617
1.7294937289487977e+18,0.007985311560332775,0.005768211558461189,0.006852279417216778
1.7294937289547978e+18,0.007470749784260988,0.006382282357662916,0.005248328670859337
1.729493728963798e+18,0.003109096549451351,0.007733712904155254,0.006952621508389711
1.7294937289727982e+18,0.001132508972659707,0.014200259931385517,0.006238140631467104
1.7294937289787983e+18,0.003420446999371052,0.014950447715818882,0.005203425418585539
1.7294937289877985e+18,0.0016851958353072405,0.014166592620313168,0.006715883035212755
1.7294937289967987e+18,0.0008909699972718954,0.012061971239745617,0.005778461694717407
1.729493729005799e+18,0.0031744269654154778,0.01423680316656828,0.006110028363764286
1.729493729014799e+18,0.006579897366464138,0.011949229054152966,0.002508084289729595
1.7294937290237993e+18,0.006526516750454903,0.013494836166501045,0.0037241317331790924
1.7294937290327995e+18,0.0107414023950696,0.01232767105102539,0.0029121653642505407
1.7294937290387996e+18,0.011248765513300896,0.015149850398302078,0.0014123088913038373
1.7294937290477998e+18,0.01199887041002512,0.013981360010802746,0.0018637608736753464
1.7294937290538e+18,0.007338794879615307,0.012851213105022907,0.0045922244898974895
1.7294937290628001e+18,0.009956477209925652,0.014792097732424736,0.0014529979089275002
1.7294937290718003e+18,0.006855966988950968,0.01596834883093834,-0.0016554875764995813
1.7294937290808005e+18,0.00750413304194808,0.01671280525624752,0.005772770382463932
1.7294937290898007e+18,0.009828956797719002,0.01717384159564972,0.0011864202097058296
1.729493729098801e+18,0.009072168730199337,0.01717301271855831,-0.0007673298241570592
1.729493729107801e+18,0.010247265920042992,0.01656831055879593,0.0026687299832701683
1.7294937291138012e+18,0.009326599538326263,0.01572287455201149,0.0034477715380489826
1.7294937291228014e+18,0.009476211853325367,0.01916566491127014,0.0020524656865745783
1.7294937291318016e+18,0.009227151051163673,0.01738758757710457,0.0034651663154363632
1.7294937291408018e+18,0.010198560543358326,0.017530664801597595,0.0020463208202272654
1.729493729149802e+18,0.010384106077253819,0.01562637835741043,-0.00021513307001441717
1.7294937291588022e+18,0.005000388249754906,0.019216062501072884,0.0019077265169471502
1.7294937291678024e+18,0.007006184197962284,0.01894739829003811,0.0006408976623788476
1.7294937291768026e+18,0.010685325600206852,0.022278161719441414,-0.002012989716604352
1.7294937291858028e+18,0.011278638616204262,0.021743692457675934,0.001034883433021605
1.729493729194803e+18,0.010651838034391403,0.02435692399740219,0.000999522628262639
1.7294937292038031e+18,0.013813750818371773,0.022219767794013023,0.0031226433347910643
1.7294937292128033e+18,0.013374289497733116,0.021768834441900253,0.0013326790649443865
1.7294937292218035e+18,0.009947236627340317,0.022155091166496277,0.0013941775541752577
1.7294937292308037e+18,0.011680749244987965,0.022449245676398277,0.0008060347754508257
1.729493729239804e+18,0.013645563274621964,0.02411726862192154,0.002151049906387925
1.729493729248804e+18,0.011889798566699028,0.02333899773657322,-0.0014330693520605564
1.7294937292578043e+18,0.015256310813128948,0.024329669773578644,-0.0022300505079329014
1.7294937292668045e+18,0.01829831302165985,0.023653661832213402,0.0013314516982063651
1.7294937292758047e+18,0.02039097622036934,0.01869654469192028,0.001851987442933023
1.7294937292848049e+18,0.017654795199632645,0.01990479975938797,0.0008992069633677602
1.729493729293805e+18,0.015285380184650421,0.0215191338211298,-0.0025545943062752485
1.7294937293028052e+18,0.0162130706012249,0.024274146184325218,-0.0035992790944874287
1.7294937293118054e+18,0.012201627716422081,0.02498972974717617,-0.0014417017810046673
1.7294937293208056e+18,0.015497921966016293,0.025746142491698265,-0.002616066252812743
1.7294937293298058e+18,0.01680390164256096,0.025078104808926582,-0.0017343887593597174
1.729493729338806e+18,0.01757998578250408,0.025709837675094604,-0.0010104472748935223
1.7294937293478062e+18,0.01680021546781063,0.02568587101995945,-0.0010023657232522964
1.7294937293568064e+18,0.018056103959679604,0.023572398349642754,-0.00475678127259016
1.7294937293658066e+18,0.017468923702836037,0.02548644319176674,-0.0030496851541101933
1.7294937293748068e+18,0.01162853091955185,0.02221938781440258,-0.005088498815894127
1.729493729383807e+18,0.0173528790473938,0.022704197093844414,-0.004230794031172991
1.7294937293928072e+18,0.0164168793708086,0.02087426744401455,-0.002661891048774123
1.7294937294018074e+18,0.020064154639840126,0.021439433097839355,-0.003834070870652795
1.7294937294108076e+18,0.01361238956451416,0.020233213901519775,-0.005041858181357384
1.7294937294198077e+18,0.01884428784251213,0.01915338821709156,-0.0005279865581542253
1.729493729428808e+18,0.015065439976751804,0.02028839848935604,-0.0009758364176377654
1.729493729437808e+18,0.013644854538142681,0.021392149850726128,0.001358304638415575
1.7294937294468083e+18,0.010815108194947243,0.02427877113223076,-0.00515757966786623
1.7294937294558085e+18,0.011431599035859108,0.021561700850725174,-0.005328823812305927
1.7294937294648087e+18,0.013888012617826462,0.020054936408996582,-0.0014648493379354477
1.729493729473809e+18,0.015643130987882614,0.023785728961229324,-0.00038576405495405197
1.729493729482809e+18,0.019358623772859573,0.02280413545668125,-0.0032193309161812067
1.7294937294918093e+18,0.0212857723236084,0.024430371820926666,-0.004363994114100933
1.7294937295008095e+18,0.020795315504074097,0.022138528525829315,-0.005179328843951225
1.7294937295098097e+18,0.01884700171649456,0.02542109228670597,-0.0022598784416913986
1.7294937295188099e+18,0.017965588718652725,0.02592732198536396,-0.0051645152270793915
1.72949372952781e+18,0.01610778085887432,0.01952633075416088,-0.0023102848790585995
1.7294937295368102e+18,0.016983212903141975,0.022455422207713127,-0.0035611367784440517
1.7294937295458104e+18,0.018200553953647614,0.0258311927318573,-0.0024796072393655777
1.7294937295548106e+18,0.01659383811056614,0.027154751121997833,-0.003365702461451292
1.7294937295638108e+18,0.020351983606815338,0.02440846897661686,-0.004647760186344385
1.729493729572811e+18,0.01803622581064701,0.023201029747724533,-0.001702401670627296
1.7294937295818112e+18,0.014634168706834316,0.025524698197841644,0.0004508011043071747
1.7294937295908114e+18,0.016654079779982567,0.02632174640893936,-0.002453307621181011
1.7294937296028116e+18,0.014663836918771267,0.02179202251136303,-0.00513684656471014
1.7294937296088118e+18,0.0146853718906641,0.023427968844771385,-0.004585119895637035
1.729493729620812e+18,0.014416998252272606,0.024783393368124962,-0.0019263228168711066
1.7294937296268122e+18,0.015201819129288197,0.02511768974363804,-0.004438813775777817
1.7294937296358124e+18,0.01764923706650734,0.026420781388878822,-0.002776551293209195
1.7294937296448125e+18,0.018928762525320053,0.026173364371061325,-0.0033175915013998747
1.7294937296568128e+18,0.020012376829981804,0.027547433972358704,-0.002167276106774807
1.729493729665813e+18,0.015574761666357517,0.027623312547802925,-0.002633536234498024
1.7294937296748132e+18,0.01479625329375267,0.02481478452682495,-0.0038866535760462284
1.7294937296838134e+18,0.014842339791357517,0.024777954444289207,-0.002811979968100786
1.7294937296928136e+18,0.013882851228117943,0.025524508208036423,-0.003784074215218425
1.7294937297018138e+18,0.01373889297246933,0.02901887334883213,-0.005622455384582281
1.729493729710814e+18,0.013065267354249954,0.026525938883423805,-0.004660230129957199
1.7294937297198141e+18,0.01458793319761753,0.027490466833114624,-0.005459932144731283
1.7294937297288143e+18,0.015432577580213547,0.024689072743058205,-0.004982737824320793
1.7294937297378145e+18,0.01781444065272808,0.025714211165905,-0.005835064686834812
1.7294937297468147e+18,0.01483574602752924,0.02413013204932213,-0.004854531493037939
1.729493729755815e+18,0.016026904806494713,0.027004262432456017,-0.0034551220014691353
1.729493729764815e+18,0.01348414272069931,0.029381543397903442,-0.005685662850737572
1.7294937297738153e+18,0.01618035137653351,0.027496811002492905,-0.0028439152520149946
1.7294937297858156e+18,0.019311226904392242,0.028717413544654846,-0.002428285079076886
1.7294937297918157e+18,0.015833141282200813,0.026994453743100166,-0.0002790610305964947
1.729493729803816e+18,0.018938418477773666,0.02408001758158207,-0.003848107997328043
1.7294937298128161e+18,0.01680098846554756,0.024211758747696877,-0.003235575743019581
1.7294937298218163e+18,0.01935455948114395,0.027597779408097267,-0.005808656569570303
1.7294937298308165e+18,0.015729892998933792,0.02975466102361679,-0.005594928283244371
1.7294937298398167e+18,0.01526490319520235,0.029306210577487946,-0.0010265398304909468
1.729493729848817e+18,0.01556627918034792,0.02710403874516487,-0.004890525247901678
1.729493729857817e+18,0.017026960849761963,0.029513834044337273,-0.006178032141178846
1.7294937298668173e+18,0.020355507731437683,0.02984907105565071,-0.0040716188959777355
1.7294937298758175e+18,0.017438771203160286,0.026493843644857407,-0.004302386660128832
1.7294937298848177e+18,0.018821509554982185,0.029792403802275658,-0.0038387381937354803
1.7294937298938179e+18,0.019963571801781654,0.03149846941232681,-0.0007901969365775585
1.729493729902818e+18,0.017399925738573074,0.02980888821184635,-0.004886674229055643
1.7294937299118182e+18,0.019353682175278664,0.031050914898514748,-0.0040684714913368225
1.7294937299208184e+18,0.01824999786913395,0.0299666915088892,-0.00825257133692503
1.7294937299298186e+18,0.015957897529006004,0.02836085855960846,-0.004379365127533674
1.7294937299388188e+18,0.017137691378593445,0.027032623067498207,-0.004386092070490122
1.729493729947819e+18,0.014682912267744541,0.02725706808269024,-0.004302588291466236
1.7294937299568192e+18,0.01653744839131832,0.024062268435955048,-0.007789323106408119
1.7294937299658194e+18,0.013696535490453243,0.02594984695315361,-0.002886931411921978
1.7294937299748196e+18,0.01869400218129158,0.02592320367693901,-0.0031893067061901093
1.7294937299838198e+18,0.017758488655090332,0.028461288660764694,-0.005034458823502064
1.72949372999282e+18,0.01758112572133541,0.028607921674847603,-0.008061818778514862
1.7294937300048202e+18,0.017409874126315117,0.028272800147533417,-0.006347903050482273
1.7294937300138204e+18,0.018729954957962036,0.025423498824238777,-0.00432213069871068
1.7294937300198205e+18,0.01716565154492855,0.024184569716453552,-0.002260059118270874
1.7294937300288207e+18,0.015890127047896385,0.028134848922491074,-0.0047010392881929874
1.729493730037821e+18,0.018986765295267105,0.022576678544282913,-0.006821892224252224
1.729493730046821e+18,0.018465716391801834,0.025123445317149162,-0.0052871196530759335
1.7294937300558213e+18,0.018087495118379593,0.02954207733273506,-0.0030685076490044594
1.7294937300648215e+18,0.01475935522466898,0.02872157283127308,-0.003776559140533209
1.7294937300708216e+18,0.014682973735034466,0.030186407268047333,-0.0042731561698019505
1.7294937300798218e+18,0.01518082246184349,0.026681823655962944,-0.0049505983479321
1.729493730088822e+18,0.01397498045116663,0.026232045143842697,-0.0065106553956866264
1.7294937300978222e+18,0.013023688457906246,0.023151295259594917,-0.004166885744780302
1.7294937301068224e+18,0.012373258359730244,0.024237358942627907,-0.006934003904461861
1.7294937301188227e+18,0.010039943270385265,0.022688988596200943,-0.007424786686897278
1.7294937301278228e+18,0.01006310898810625,0.02223026193678379,-0.00378018943592906
1.729493730136823e+18,0.008816834539175034,0.021675050258636475,-0.004468054976314306
1.7294937301458232e+18,0.01013046782463789,0.024773862212896347,-0.003072308376431465
1.7294937301518234e+18,0.010844515636563301,0.021043792366981506,-0.0048553855158388615
1.7294937301608236e+18,0.012413933873176575,0.022327912971377373,-0.005143072921782732
1.7294937301728238e+18,0.011047488078474998,0.021052325144410133,-0.0032458514906466007
1.729493730181824e+18,0.008586849085986614,0.01842917501926422,-0.004077911376953125
1.7294937301908242e+18,0.009919770061969757,0.018861720338463783,-0.004241596907377243
1.7294937301998244e+18,0.00928000919520855,0.01710882969200611,-0.003320197109133005
1.7294937302088246e+18,0.00702663604170084,0.01732008159160614,-0.002559877000749111
1.7294937302178248e+18,0.006841861177235842,0.016587398946285248,-0.0036413094494491816
1.729493730229825e+18,0.01045639906078577,0.012457801029086113,-0.0039497059769928455
1.7294937302388252e+18,0.014684191904962063,0.012857197783887386,-0.0038441307842731476
1.7294937302448253e+18,0.014443038031458855,0.015121472999453545,-0.005447814706712961
1.7294937302568256e+18,0.013719312846660614,0.014872713945806026,-0.006282849237322807
1.7294937302628257e+18,0.012626012787222862,0.019096286967396736,-0.005384547635912895
1.729493730271826e+18,0.010049978271126747,0.017900971695780754,-0.005800829268991947
1.7294937302838262e+18,0.00927877239882946,0.017543723806738853,-0.004715328104794025
1.7294937302928264e+18,0.011010892689228058,0.017548693343997,-0.007871368899941444
1.7294937303018266e+18,0.012893344275653362,0.015911830589175224,-0.00017535104416310787
1.7294937303108268e+18,0.013390704989433289,0.016878144815564156,-0.00557306595146656
1.729493730319827e+18,0.016767948865890503,0.016875961795449257,-0.006478092633187771
1.7294937303318272e+18,0.01577332243323326,0.01518742274492979,-0.004056497476994991
1.7294937303408274e+18,0.014450517483055592,0.014834673143923283,-0.009029943495988846
1.7294937303498276e+18,0.013981929048895836,0.012941352091729641,-0.003340973285958171
1.7294937303558277e+18,0.012083809822797775,0.012311151251196861,-0.006152553018182516
1.729493730364828e+18,0.011225469410419464,0.014095393940806389,-0.0044168042950332165
1.7294937303768282e+18,0.009611962363123894,0.008979467675089836,-0.007881040684878826
1.7294937303828283e+18,0.015539390966296196,0.014649983495473862,-0.005096268840134144
1.7294937303948285e+18,0.016338102519512177,0.012526010163128376,-0.0032988782040774822
1.7294937304038287e+18,0.016616374254226685,0.00950661487877369,-0.001948885153979063
1.729493730412829e+18,0.013021652586758137,0.01256528589874506,-0.0044480375945568085
1.729493730421829e+18,0.01142107229679823,0.011705359444022179,-0.0025189141742885113
1.7294937304308293e+18,0.01153616514056921,0.00779243279248476,-0.002116972114890814
1.7294937304398295e+18,0.009866053238511086,0.0083655109629035,-0.002303657354786992
1.7294937304488297e+18,0.01223171129822731,0.009752023965120316,-0.006707975175231695
1.72949373045783e+18,0.011699149385094643,0.011708092875778675,-0.004828504286706448
1.7294937304698301e+18,0.0137950349599123,0.014026030898094177,-0.005910870153456926
1.7294937304788303e+18,0.013628179207444191,0.010205666534602642,-0.004040365107357502
1.7294937304878305e+18,0.014054941944777966,0.009387764148414135,-0.004443824756890535
1.7294937304968307e+18,0.012764030136168003,0.006101257633417845,-0.0029179195407778025
1.729493730505831e+18,0.01048270519822836,0.006962370593100786,-0.003306301310658455
1.729493730514831e+18,0.010230131447315216,0.007494195830076933,-0.004606841132044792
1.7294937305268314e+18,0.011339684017002583,0.009735549800097942,-0.003752827411517501
1.7294937305358316e+18,0.008960003964602947,0.010810816660523415,-0.004477734677493572
1.7294937305448317e+18,0.007477178703993559,0.009566118009388447,-0.0033320654183626175
1.729493730553832e+18,0.011107065714895725,0.008256390690803528,-0.005582352168858051
1.7294937305628321e+18,0.009537111967802048,0.008363704197108746,-0.004366292618215084
1.7294937305718323e+18,0.011175050400197506,0.0037371707148849964,-0.00474147591739893
1.7294937305808325e+18,0.007451721001416445,0.005419332534074783,-0.002486483659595251
1.7294937305898327e+18,0.00782095082104206,0.0032943570986390114,-0.0046490952372550964
1.729493730598833e+18,0.006749151740223169,0.0017975294031202793,-0.005553991533815861
1.729493730607833e+18,0.004306508228182793,0.0022765975445508957,-0.0033299196511507034
1.7294937306198333e+18,0.00611523212864995,0.001392574398778379,-0.00511790718883276
1.7294937306288335e+18,0.006164420396089554,0.0030622687190771103,-0.00410477165132761
1.7294937306378337e+18,0.005058309528976679,0.002348051406443119,-0.0021373911295086145
1.729493730646834e+18,0.006359368562698364,0.003901926102116704,-0.0036190785467624664
1.729493730655834e+18,-0.00045432685874402523,0.00263089407235384,-0.0031522270292043686
1.7294937306648343e+18,0.0032448850106447935,0.001920277252793312,-0.002583486493676901
1.7294937306738345e+18,0.0024002708960324526,0.0018833957146853209,-0.004166198428720236
1.7294937306828347e+18,0.0017671153182163835,0.0031497369054704905,-0.004599046427756548
1.729493730691835e+18,0.00018110977543983608,0.004234221763908863,-0.006140735000371933
1.729493730700835e+18,0.0027411312330514193,0.0028653645422309637,-0.006263917312026024
1.7294937307098353e+18,0.0005335139576345682,0.0014097170205786824,-0.005654171574860811
1.7294937307158354e+18,-0.00013314234092831612,2.0071747712790966e-05,-0.005460354499518871
1.7294937307248356e+18,-0.001683828653767705,0.0034727142192423344,-0.0013837001752108335
1.7294937307338358e+18,-0.0012900348519906402,0.0020525117870420218,-0.0007453486323356628
1.729493730742836e+18,-0.000913956027943641,0.003725259331986308,-0.002124058548361063
1.7294937307518362e+18,7.477437611669302e-05,0.004717293195426464,-0.0037264602724462748
1.7294937307608364e+18,0.0016440204344689846,0.000833537895232439,-0.00043787830509245396
1.7294937307668365e+18,0.0026010344736278057,0.0022529338020831347,-0.0023975628428161144
1.7294937307758367e+18,0.0033872255589812994,-0.002376994350925088,-0.005979446694254875
1.7294937307848369e+18,9.736570063978434e-05,-0.002271801233291626,-0.0037186804693192244
1.729493730793837e+18,-0.0009220846695825458,0.0003002347657456994,-0.0035765725187957287
1.7294937308058373e+18,-0.005921872798353434,-0.0007536108605563641,-0.003254655981436372
1.7294937308148375e+18,-0.006367784924805164,-0.0005434437189251184,9.482470341026783e-05
1.7294937308238377e+18,-0.006168916821479797,0.0016851054970175028,-0.004114705603569746
1.729493730832838e+18,-0.001917629735544324,-0.006246815901249647,-0.0041033197194337845
1.729493730841838e+18,-0.002346603199839592,-0.0019526759861037135,-0.00033391593024134636
1.7294937308508383e+18,-0.0039398688822984695,-0.003257750067859888,-0.0033817675430327654
1.7294937308598385e+18,-0.003995920531451702,-0.000709382351487875,-0.006624415051192045
1.7294937308688387e+18,-0.007299401797354221,-0.0028468314558267593,-0.002631888259202242
1.7294937308778388e+18,-0.010124286636710167,-0.00519939512014389,-0.002861915621906519
1.729493730886839e+18,-0.008598580956459045,-0.00175260822288692,-0.004194266628473997
1.7294937308958392e+18,-0.005078022368252277,-0.003968514502048492,-0.002877399092540145
1.7294937309048394e+18,8.813268505036831e-05,-0.002662783721461892,-0.004806200973689556
1.7294937309138396e+18,-0.0003381912538316101,-0.0014030830934643745,-0.00024107401259243488
1.72949373092584e+18,-0.0017434352776035666,-0.003886556951329112,-0.003302811412140727
1.72949373093484e+18,-0.00580196175724268,-0.0037850155495107174,-0.0024328797589987516
1.7294937309438403e+18,-0.009218679741024971,-0.000250757671892643,-0.002840807195752859
1.7294937309528404e+18,-0.0109622273594141,-0.0027785729616880417,-0.005803490988910198
1.7294937309618406e+18,-0.007033905014395714,-0.0014661730965599418,-0.0025826110504567623
1.7294937309708408e+18,-0.007066900841891766,-0.00018097436986863613,-0.006285867188125849
1.729493730979841e+18,0.001069514313712716,-0.0042541297152638435,-0.0025703124701976776
1.7294937309888412e+18,-0.0030379099771380424,-0.007170978467911482,-0.003944318275898695
1.7294937309978414e+18,-0.0031975125893950462,-0.007033622357994318,-0.003782192012295127
1.7294937310068416e+18,-0.008845298551023006,-0.0036886469461023808,-0.003966076299548149
1.7294937310188419e+18,-0.009983518160879612,-0.002118706936016679,-0.00336909806355834
1.729493731027842e+18,-0.014557440765202045,-0.0015439747367054224,-0.0029257074929773808
1.7294937310368422e+18,-0.01015634648501873,-0.007601909339427948,-0.0010964133543893695
1.7294937310458424e+18,-0.005065424367785454,-0.006549200043082237,-0.003018847666680813
1.7294937310548426e+18,-0.002712213434278965,-0.011633163318037987,-0.004859273787587881
1.7294937310638428e+18,-0.002676338655874133,-0.008021285757422447,-0.005810583475977182
1.729493731069843e+18,-0.003618023358285427,-0.00991224404424429,-0.0026984240394085646
1.7294937310818432e+18,-0.00858229584991932,-0.00974002294242382,-0.001748049515299499
1.7294937310908434e+18,-0.011022311635315418,-0.006733832880854607,-0.0020350408740341663
1.7294937310998436e+18,-0.011625731363892555,-0.00427395012229681,-0.002864446258172393
1.7294937311058437e+18,-0.008162341080605984,-0.004453923553228378,-0.0019160283263772726
1.729493731114844e+18,-0.008656268939375877,-0.007237299345433712,-0.001912909559905529
1.729493731123844e+18,-0.003391481004655361,-0.00803419854491949,0.0003445507027208805
1.7294937311358444e+18,-0.004289028234779835,-0.007386389654129744,-0.001994132762774825
1.7294937311448445e+18,-0.002542477799579501,-0.008699417114257812,-0.0029071548487991095
1.7294937311538447e+18,-0.007968177087605,-0.006740309298038483,0.0014091695193201303
1.729493731162845e+18,-0.009473183192312717,-0.008329455740749836,-0.0032387806568294764
1.729493731171845e+18,-0.008986552245914936,-0.007351092994213104,-0.0053048329427838326
1.7294937311808453e+18,-0.005833674222230911,-0.010982932522892952,-0.00427002739161253
1.7294937311898455e+18,-0.003135780105367303,-0.011996368877589703,-0.006032882258296013
1.7294937311988457e+18,-0.0035320150200277567,-0.012026861310005188,-0.0022638135123997927
1.729493731207846e+18,-0.0031032452825456858,-0.015067948959767818,-0.0034627928398549557
1.7294937312198461e+18,-0.004603235516697168,-0.014884119853377342,-0.004105101339519024
1.7294937312288463e+18,-0.005729884374886751,-0.0130039993673563,-0.004768652375787497
1.7294937312378465e+18,-0.008363958448171616,-0.014243554323911667,-0.005111411213874817
1.7294937312468467e+18,-0.006199278403073549,-0.013610916212201118,-0.0009030809160321951
1.729493731255847e+18,-0.0030944813042879105,-0.017896100878715515,-0.0036355170886963606
1.729493731264847e+18,-0.0017006904818117619,-0.016928432509303093,-0.0015308338915929198
1.7294937312738473e+18,-0.0028594641480594873,-0.016650334000587463,-0.003651305567473173
1.7294937312828475e+18,-0.004732852336019278,-0.015008330345153809,-0.0011505786096677184
1.7294937312918477e+18,-0.007051670458167791,-0.011427966877818108,-0.0027873695362359285
1.7294937313008479e+18,-0.011480052955448627,-0.014322644099593163,-0.0028668588493019342
1.729493731309848e+18,-0.012750035151839256,-0.016090361401438713,-0.0010140130762010813
1.7294937313188483e+18,-0.011674582026898861,-0.01991366036236286,-0.0028590678703039885
1.7294937313278484e+18,-0.009432042017579079,-0.016568519175052643,-0.004798982758074999
1.7294937313368486e+18,-0.006780847441405058,-0.016484396532177925,-0.002552230842411518
1.729493731348849e+18,-0.006806587800383568,-0.016202036291360855,-0.004745274782180786
1.729493731357849e+18,-0.010681820102036,-0.016385609284043312,-0.0052490090020000935
1.7294937313638492e+18,-0.010099222883582115,-0.017561718821525574,-0.0021660877391695976
1.7294937313728494e+18,-0.0073991273529827595,-0.01563534140586853,-0.004193011671304703
1.7294937313848497e+18,-0.00788186863064766,-0.017410999163985252,-0.0032387622632086277
1.7294937313938499e+18,-0.0068597253412008286,-0.02064305916428566,-0.0029298102017492056
1.72949373140285e+18,-0.007272158749401569,-0.016117874532938004,-0.0049477010034024715
1.7294937314118502e+18,-0.00431055435910821,-0.020739419385790825,-0.002193944063037634
1.7294937314208504e+18,-0.005370990838855505,-0.016247441992163658,-0.003226008964702487
1.7294937314298506e+18,-0.007919088937342167,-0.015811866149306297,-0.003443557070568204
1.7294937314388508e+18,-0.008249792270362377,-0.012218669056892395,-0.0037958987522870302
1.729493731447851e+18,-0.009454028680920601,-0.01388580072671175,-0.00482617411762476
1.7294937314568512e+18,-0.008424422703683376,-0.01345539279282093,0.0009131799452006817
1.7294937314658514e+18,-0.007188258692622185,-0.014876983128488064,-0.001202419283799827
1.7294937314748516e+18,-0.003620643401518464,-0.015275399200618267,-0.00330531457439065
1.7294937314838518e+18,-0.007834824733436108,-0.01254661101847887,-0.0027515513356775045
1.729493731492852e+18,-0.011091253720223904,-0.013135271146893501,-0.004776259884238243
1.7294937315018522e+18,-0.010803744196891785,-0.010274396277964115,5.014147609472275e-05
1.7294937315108524e+18,-0.013682316057384014,-0.011956152506172657,-0.0009744217386469245
1.7294937315198525e+18,-0.014133205637335777,-0.012015039101243019,-0.003446168964728713
1.7294937315288527e+18,-0.013777609914541245,-0.014141530729830265,-0.0001430935226380825
1.729493731537853e+18,-0.011267559602856636,-0.017045868560671806,-0.0006889807991683483
1.729493731546853e+18,-0.0074172853492200375,-0.01405509002506733,-0.004954344592988491
1.7294937315558533e+18,-0.009114367887377739,-0.013821273110806942,-0.0003919114824384451
1.7294937315618534e+18,-0.00900578685104847,-0.012385859154164791,-0.0011477816151455045
1.7294937315738537e+18,-0.010598682798445225,-0.010762465186417103,-0.0024419869296252728
1.7294937315798538e+18,-0.01196010410785675,-0.01627906784415245,-0.0011992569779977202
1.729493731588854e+18,-0.015653057023882866,-0.01548386737704277,-0.0028688039164990187
1.7294937315978542e+18,-0.015000792220234871,-0.019860779866576195,-0.0035866480320692062
1.7294937316068544e+18,-0.01509178802371025,-0.022256169468164444,-0.002748203231021762
1.7294937316158546e+18,-0.01279947254806757,-0.019025471061468124,-0.0033448811154812574
1.7294937316248548e+18,-0.011442934162914753,-0.01766965724527836,-0.00271559483371675
1.729493731633855e+18,-0.006964401341974735,-0.016122931614518166,-0.004250711295753717
1.7294937316428552e+18,-0.006718276534229517,-0.013821142725646496,-0.0029105800203979015
1.7294937316518554e+18,-0.0060981689020991325,-0.014970185235142708,-0.0011186758056282997
1.7294937316608556e+18,-0.010369584895670414,-0.01892106980085373,-0.004192277789115906
1.7294937316698557e+18,-0.012145393528044224,-0.019022224470973015,-0.0035193939693272114
1.729493731678856e+18,-0.012260638177394867,-0.022980056703090668,-0.0001502202358096838
1.729493731687856e+18,-0.012411349453032017,-0.02154589258134365,-0.003802872495725751
1.7294937316968563e+18,-0.00899553019553423,-0.018774762749671936,-0.0022988831624388695
1.7294937317058565e+18,-0.008893745020031929,-0.018270591273903847,-0.0029033850878477097
1.7294937317178568e+18,-0.007610838860273361,-0.019698334857821465,-0.0010640396503731608
1.729493731723857e+18,-0.009911746717989445,-0.018619051203131676,-0.002646672073751688
1.729493731732857e+18,-0.011417548172175884,-0.01936880312860012,-0.00448280293494463
1.7294937317418573e+18,-0.01100577600300312,-0.02174196019768715,-0.003657270222902298
1.7294937317538575e+18,-0.012192347086966038,-0.017092380672693253,-0.0016522036166861653
1.7294937317628577e+18,-0.011019958183169365,-0.02022835612297058,-0.0031409747898578644
1.729493731771858e+18,-0.0091933598741889,-0.01700066216289997,-0.002544939983636141
1.7294937317838582e+18,-0.008115299977362156,-0.01753818243741989,-0.0039541455917060375
1.7294937317928584e+18,-0.009929572232067585,-0.017285186797380447,-0.0007131599122658372
1.7294937318018586e+18,-0.009841237217187881,-0.021783960983157158,-0.0021014169324189425
1.7294937318108588e+18,-0.011898134835064411,-0.018966883420944214,-0.002525643678382039
1.729493731819859e+18,-0.012777337804436684,-0.018591485917568207,-0.0059898653998970985
1.7294937318288591e+18,-0.013333724811673164,-0.019190683960914612,-0.0033079106360673904
1.7294937318378593e+18,-0.012776188552379608,-0.01858878880739212,-0.0028453138656914234
1.7294937318498596e+18,-0.009900941513478756,-0.016797874122858047,-0.0048943739384412766
1.7294937318588598e+18,-0.007417855318635702,-0.019842050969600677,-0.00034048547968268394
1.72949373186786e+18,-0.007996339350938797,-0.018994418904185295,-0.0028686393052339554
1.7294937318768602e+18,-0.006497582886368036,-0.019497212022542953,-0.0020797098986804485
1.7294937318858604e+18,-0.008803965523838997,-0.02083025686442852,3.736582584679127e-05
1.7294937318978606e+18,-0.010010816156864166,-0.017460381612181664,-0.0012255016481503844
1.7294937319068608e+18,-0.0076989722438156605,-0.01531226746737957,-0.004299337975680828
1.729493731915861e+18,-0.007049615494906902,-0.018042845651507378,-0.0038040978834033012
1.7294937319248612e+18,-0.005282259546220303,-0.017671238631010056,-0.003482155269011855
1.7294937319368614e+18,-0.007335527800023556,-0.02234753593802452,-0.002146112732589245
1.7294937319458616e+18,-0.009237760677933693,-0.016538333147764206,-0.00522101204842329
1.7294937319548618e+18,-0.004539502784609795,-0.015592631883919239,-0.003278091549873352
1.729493731963862e+18,-0.007043611258268356,-0.014869275502860546,-0.004416316747665405
1.7294937319728622e+18,-0.010098995640873909,-0.014144212007522583,-0.004295632243156433
1.7294937319818624e+18,-0.0065844058990478516,-0.014741585589945316,-0.0009988191304728389
1.7294937319908626e+18,-0.010456189513206482,-0.01470171008259058,4.7732144594192505e-05
1.7294937319998628e+18,-0.009464749135077,-0.017960859462618828,0.00023281690664589405
1.729493732008863e+18,-0.009851810522377491,-0.015283294022083282,-0.00021689652930945158
1.7294937320178632e+18,-0.008218318223953247,-0.014286577701568604,-0.002082291292026639
1.7294937320268634e+18,-0.008964003063738346,-0.01693039946258068,-0.003609629813581705
1.7294937320358636e+18,-0.008897785097360611,-0.01815677061676979,-0.001078070723451674
1.7294937320448637e+18,-0.006316883023828268,-0.0168448593467474,-0.0014805844984948635
1.729493732053864e+18,-0.009182457812130451,-0.01488931942731142,-0.00023754802532494068
1.7294937320628641e+18,-0.005030801519751549,-0.01414482668042183,-0.0009691935265436769
1.7294937320688643e+18,-0.0028221053071320057,-0.012586590833961964,-0.0015394333750009537
1.7294937320778644e+18,-0.004720701836049557,-0.015623072162270546,-0.0016141074011102319
1.7294937320838646e+18,-0.004440497141331434,-0.018895268440246582,-0.0017611815128475428
1.7294937320898647e+18,-0.007497439160943031,-0.01809801161289215,-0.005154576618224382
1.729493732101865e+18,-0.008793017826974392,-0.01742895133793354,-0.002764569129794836
1.7294937321108652e+18,-0.008060626685619354,-0.018686838448047638,-0.0027572517283260822
1.7294937321198653e+18,-0.01288897916674614,-0.017770996317267418,0.00017212494276463985
1.7294937321258655e+18,-0.009961570613086224,-0.01778409630060196,-0.005068791098892689
1.7294937321318656e+18,-0.011990679427981377,-0.012326463125646114,-0.004411905538290739
1.7294937321408658e+18,-0.013096099719405174,-0.013907579705119133,0.0003012123052030802
1.729493732149866e+18,-0.009892554022371769,-0.011810963973402977,-0.0021058267448097467
1.7294937321588662e+18,-0.009362424723803997,-0.01534650381654501,-0.0023043029941618443
1.7294937321678664e+18,-0.010261019691824913,-0.013861948624253273,-0.005376865155994892
1.7294937321768666e+18,-0.006048221606761217,-0.015486368909478188,-0.0006541582988575101
1.7294937321858668e+18,-0.008836011402308941,-0.0132307643070817,0.0011780806817114353
1.729493732197867e+18,-0.010788019746541977,-0.015240326523780823,7.662829011678696e-05
1.7294937322068672e+18,-0.014116667211055756,-0.01438860222697258,-0.002889020601287484
1.7294937322158674e+18,-0.012199035845696926,-0.009809697978198528,-0.003914647735655308
1.7294937322248676e+18,-0.011288357898592949,-0.013718384318053722,-0.003713394980877638
1.7294937322338678e+18,-0.01085435040295124,-0.013129148632287979,-0.0020256361458450556
1.729493732239868e+18,-0.0073875728994607925,-0.014374462887644768,-0.0021841267589479685
1.729493732248868e+18,-0.007810195907950401,-0.015393650159239769,-0.0014972706558182836
1.7294937322578683e+18,-0.013206053525209427,-0.01699952222406864,-0.003743626642972231
1.7294937322698685e+18,-0.012111030519008636,-0.015441364608705044,-0.0003482075408101082
1.7294937322788687e+18,-0.010938022285699844,-0.015375414863228798,-0.0016449219547212124
1.7294937322848689e+18,-0.009721139445900917,-0.014038517139852047,-0.0027376129291951656
1.729493732293869e+18,-0.007673453539609909,-0.01596038229763508,-0.005857324227690697
1.7294937322998692e+18,-0.005434487946331501,-0.017077768221497536,-0.002585490234196186
1.7294937323088694e+18,-0.007279127836227417,-0.01619553379714489,-0.001629768987186253
1.7294937323148695e+18,-0.009452825412154198,-0.01551109366118908,-0.0027834074571728706
1.7294937323238697e+18,-0.015189411118626595,-0.02010493166744709,-0.002158972667530179
1.7294937323298698e+18,-0.010238009504973888,-0.016936754807829857,-0.003681679256260395
1.72949373233887e+18,-0.017313020303845406,-0.015300503931939602,-0.002247102092951536
1.7294937323448701e+18,-0.012604902498424053,-0.012405237182974815,-0.00403706356883049
1.7294937323538703e+18,-0.00988227128982544,-0.01742253452539444,-3.9610546082258224e-05
1.7294937323628705e+18,-0.0076871272176504135,-0.013468909077346325,7.485866080969572e-05
1.7294937323718707e+18,-0.007032141089439392,-0.012229802086949348,-0.0017852187156677246
1.7294937323778708e+18,-0.007298426702618599,-0.01419519167393446,-0.002091254573315382
1.729493732386871e+18,-0.012240597978234291,-0.013691002503037453,0.00036952353548258543
1.7294937323958712e+18,-0.01644665189087391,-0.012746050022542477,0.0017801163485273719
1.7294937324018714e+18,-0.012610035017132759,-0.011942711658775806,0.0016264724545180798
1.7294937324078715e+18,-0.011874420568346977,-0.013738444074988365,-0.0023493992630392313
1.7294937324168717e+18,-0.00887021142989397,-0.00955879781395197,0.0014090162003412843
1.7294937324228718e+18,-0.005894665140658617,-0.010612964630126953,-0.003458793740719557
1.729493732431872e+18,-0.004059538245201111,-0.011230848729610443,-0.0013639245880767703
1.729493732437872e+18,-0.00607940461486578,-0.008555683307349682,-0.003852134570479393
1.7294937324438723e+18,-0.006868756841868162,-0.010124056600034237,-0.0014779153279960155
1.7294937324528724e+18,-0.008870982564985752,-0.008375615812838078,-0.0009647328988648951
1.7294937324588726e+18,-0.010130095295608044,-0.00946897268295288,0.0019659872632473707
1.7294937324678728e+18,-0.01154431514441967,-0.007968314923346043,-0.0008524255244992673
1.729493732473873e+18,-0.012779063545167446,-0.007577489595860243,4.03745798394084e-05
1.729493732479873e+18,-0.011483260430395603,-0.007690149359405041,-0.0018878687405958772
1.7294937324888732e+18,-0.006548010744154453,-0.009885624051094055,0.00016994168981909752
1.7294937324948733e+18,-0.005953232292085886,-0.005882179830223322,-0.0005916130030527711
1.7294937325008735e+18,-0.00825762003660202,-0.005795019678771496,-0.002700477372854948
1.7294937325098737e+18,-0.007135095074772835,-0.009645107202231884,-0.0018798969686031342
1.7294937325158738e+18,-0.006726592779159546,-0.00568735646083951,-0.003158454317599535
1.729493732524874e+18,-0.008695119991898537,-0.004588354844599962,-0.001939077046699822
1.7294937325338742e+18,-0.008937318809330463,-0.005032268352806568,-0.0038371942937374115
1.7294937325428744e+18,-0.00646110437810421,-0.005035817623138428,-0.001943129813298583
1.7294937325518746e+18,-0.00588768906891346,-0.0027101305313408375,-0.0016714584780856967
1.7294937325608748e+18,-0.008847900666296482,-0.005899025127291679,-0.0017171959625557065
1.729493732569875e+18,-0.007107078097760677,-0.003832437563687563,-0.0009110960527323186
1.7294937325788751e+18,-0.005715018138289452,-0.00011063273996114731,-0.003521890612319112
1.7294937325878753e+18,-0.010385241359472275,0.0014821782242506742,-0.00405172910541296
1.7294937325968755e+18,-0.00644299341365695,-0.0019074173178523779,-0.00359405972994864
1.7294937326028756e+18,-0.0050191981717944145,-0.0010977168567478657,-0.003192504169419408
1.7294937326088758e+18,-0.003460962325334549,-0.0026475880295038223,-0.00010489311534911394
1.729493732617876e+18,-0.004566139541566372,-0.0041879452764987946,0.00024201429914683104
1.729493732623876e+18,-0.006220105569809675,-0.003134018275886774,-0.004740703850984573
1.7294937326328763e+18,-0.006129990331828594,-0.0017767057288438082,-9.484286420047283e-05
1.7294937326448765e+18,-0.0075452919118106365,-0.0017195927212014794,-0.0019639241509139538
1.7294937326538767e+18,-0.008951371535658836,-0.001309986924752593,-0.0056363786570727825
1.729493732662877e+18,-0.010136370547115803,-0.0020494137424975634,-0.0013227378949522972
1.729493732668877e+18,-0.01012183167040348,-0.0026387472171336412,-0.003386783879250288
1.7294937326778772e+18,-0.005116566084325314,-0.0026321057230234146,-0.002735736547037959
1.7294937326868774e+18,-0.000825339462608099,-0.0008477402152493596,-0.0024945514742285013
1.7294937326958776e+18,-0.0023429812863469124,-9.991094702854753e-05,-0.00017472985200583935
1.7294937327048778e+18,-0.0018438920378684998,0.0010161333484575152,-0.0025115227326750755
1.729493732713878e+18,-0.005542157683521509,-0.0038731687236577272,-0.0009868632769212127
1.7294937327228782e+18,-0.009049677290022373,-0.0037074764259159565,-0.0008043423295021057
1.7294937327318784e+18,-0.00869175884872675,-0.0027689975686371326,-0.0037584565579891205
1.7294937327408786e+18,-0.00639622937887907,-0.002964613726362586,-0.00479577761143446
1.7294937327498788e+18,-0.0068146781995892525,-0.0016510534333065152,0.0004999107914045453
1.729493732758879e+18,-0.0017446125857532024,-0.004399323835968971,0.0007465785602107644
1.7294937327678792e+18,-0.0018829826731234789,0.00010304717579856515,-0.0008791463915258646
1.7294937327768794e+18,-0.004319449886679649,0.0002617286518216133,9.455322287976742e-05
1.7294937327858796e+18,-0.0022188175935298204,0.0005405540578067303,-0.00471087358891964
1.7294937327948797e+18,-0.008367287926375866,-0.00013911043060943484,-0.0017899933736771345
1.72949373280388e+18,-0.006850492209196091,0.0010094662429764867,-0.0012244702083989978
1.7294937328128801e+18,-0.002637255471199751,0.0013872700510546565,-0.0012850917410105467
1.7294937328218803e+18,-0.0024422165006399155,-0.003932204097509384,-0.003578780684620142
1.7294937328308805e+18,-0.0010838864836841822,-0.0010942077497020364,-0.003118116408586502
1.7294937328428808e+18,-0.003625068813562393,0.002211484592407942,-0.0008823317475616932
1.729493732851881e+18,-0.005444410257041454,0.0010056165046989918,0.0008228488732129335
1.7294937328608812e+18,-0.0033255654852837324,0.0040336293168365955,-0.0017254786798730493
1.7294937328698813e+18,-0.00743526965379715,0.0018488757777959108,-0.0002364528481848538
1.7294937328788815e+18,-0.0044135600328445435,-0.0003868923522531986,0.00039850070606917143
1.7294937328878817e+18,-0.0038517655339092016,-0.0056350622326135635,-4.265469033271074e-05
1.729493732896882e+18,-0.003828226588666439,-0.0013115517795085907,-0.0011747759999707341
1.7294937329088822e+18,-0.004112670198082924,-0.0022134929895401,-0.001620601280592382
1.7294937329178824e+18,0.000546993687748909,0.002896830439567566,0.0019210578175261617
1.7294937329268826e+18,-0.0060793193988502026,0.004743740428239107,-0.0004977541393600404
1.7294937329358828e+18,-0.0025366400368511677,0.004606578964740038,9.607675019651651e-05
1.729493732944883e+18,-0.005224081687629223,0.006023372523486614,-6.585835944861174e-05
1.7294937329538831e+18,-0.003678414737805724,0.006404968444257975,-0.0015125855570659041
1.7294937329628833e+18,-0.0034017744474112988,0.003774947952479124,-0.003355578053742647
1.7294937329718835e+18,-0.003122970461845398,-0.0008168916683644056,-0.0018677421612665057
1.7294937329808837e+18,-0.0014783793594688177,0.0007396549335680902,-0.002604020992293954
1.729493732992884e+18,-0.006555530242621899,0.003441138658672571,-0.00200989143922925
1.7294937330018842e+18,-0.0041104694828391075,0.004224427510052919,-0.0009374298970215023
1.7294937330108844e+18,-0.006724192760884762,0.0056690918281674385,-0.0018901240546256304
1.7294937330198845e+18,-0.009073127992451191,0.005305859725922346,-0.003375053871423006
1.7294937330288847e+18,-0.0036322041414678097,0.0035202421713620424,0.0007706215837970376
1.729493733037885e+18,-0.0033856763038784266,0.002982242964208126,-0.0020424386020749807
1.729493733046885e+18,0.0008723288774490356,-4.328822251409292e-05,3.658613422885537e-05
1.7294937330558853e+18,0.0015402579447254539,-0.0033797654323279858,-0.002942276420071721
1.7294937330648855e+18,0.002000235952436924,0.0011210652301087976,-0.003390995319932699
1.7294937330738857e+18,-0.0014612185768783092,0.001013678265735507,-0.001363636227324605
1.729493733082886e+18,-0.0030304265674203634,0.003436516970396042,0.0009501267340965569
1.729493733091886e+18,-0.002140873111784458,0.004529990255832672,-0.0031899355817586184
1.7294937331008863e+18,-0.0015093903057277203,0.0027987430803477764,0.0014809746062383056
1.7294937331098865e+18,-0.0011497921077534556,0.004736853763461113,0.0007968732388690114
1.7294937331188867e+18,-0.0004082507221028209,0.008294995874166489,-0.0008943442371673882
1.7294937331278868e+18,0.0033071800135076046,0.004119829274713993,-0.0010139343794435263
1.729493733139887e+18,0.0037867738865315914,0.005532499868422747,-0.0013170158490538597
1.7294937331488873e+18,0.0006958538433536887,0.0034250488970428705,-0.0002990007633343339
1.7294937331578875e+18,0.0017287114169448614,0.005062376148998737,-0.0015122847398743033
1.7294937331668877e+18,0.0014503661077469587,0.008090405724942684,-0.0010079023195430636
1.729493733175888e+18,-6.216111069079489e-05,0.006543685682117939,-0.00374095281586051
1.729493733184888e+18,0.0035618343390524387,0.007107780780643225,-0.0008176583796739578
1.7294937331938883e+18,0.0027020047418773174,0.0034866170026361942,0.0003964868956245482
1.7294937332028884e+18,-0.0006442202720791101,0.005208169110119343,8.805299876257777e-05
1.7294937332118886e+18,0.003021125216037035,0.0038300519809126854,0.003382895141839981
1.7294937332208888e+18,0.0006318410160019994,0.0041009788401424885,-0.0009620151249691844
1.729493733229889e+18,0.0004968591965734959,0.002213558880612254,0.0008055262151174247
1.7294937332388892e+18,0.0009615338640287519,0.005440510809421539,-0.0004440346674527973
1.7294937332478894e+18,0.003347225021570921,0.00671167578548193,-0.0034863492473959923
1.7294937332568896e+18,0.0038547085132449865,0.0028274371288716793,-0.003120432374998927
1.7294937332658898e+18,0.003056276123970747,0.002368975430727005,-0.004212477244436741
1.72949373327489e+18,0.0037341692950576544,0.003324546618387103,-0.0003310022293590009
1.7294937332838902e+18,0.000943906547036022,0.004463658668100834,-0.0025070393458008766
1.7294937332928904e+18,-0.0012725400738418102,0.004561718553304672,-0.0017207443015649915
1.7294937333018906e+18,0.001368028810247779,0.006674529984593391,0.0008659911109134555
1.7294937333108908e+18,0.001005019759759307,0.0062370868399739265,-0.0025649399030953646
1.729493733319891e+18,0.005268251523375511,0.002349072601646185,0.00018303899560123682
1.7294937333288911e+18,0.0065460363402962685,0.008513189852237701,0.0005597800482064486
1.7294937333378913e+18,0.005896736402064562,0.005552575923502445,-0.0010475562885403633
1.7294937333468915e+18,0.006469497457146645,0.003266306361183524,-0.002248836448416114
1.7294937333558917e+18,0.0019586661364883184,0.006432927679270506,0.0009041741723194718
1.729493733364892e+18,0.13996489346027374,0.5119225978851318,-0.004524907562881708
1.729493733373892e+18,0.38266298174858093,1.4011930227279663,-0.017095012590289116
1.7294937333828923e+18,0.6966452598571777,2.312352418899536,-0.026188306510448456
1.7294937333918925e+18,1.2005661725997925,3.042705535888672,-0.03623058646917343
1.7294937334008927e+18,1.7487151622772217,3.329660654067993,-0.051154907792806625
1.7294937334098929e+18,2.1622049808502197,3.210721492767334,-0.06927800178527832
1.729493733418893e+18,2.351968765258789,2.9094698429107666,-0.08155570924282074
1.7294937334278932e+18,2.3017051219940186,2.66438364982605,-0.0958554595708847
1.7294937334368934e+18,2.131967067718506,2.6195504665374756,-0.10824272036552429
1.7294937334458936e+18,1.975286602973938,2.7544336318969727,-0.12142656743526459
1.7294937334548938e+18,1.9401485919952393,2.932880401611328,-0.13207241892814636
1.729493733463894e+18,2.027738332748413,3.032200336456299,-0.14550818502902985
1.7294937334698941e+18,2.1202239990234375,2.994497537612915,-0.15476584434509277
1.7294937334818944e+18,2.2217447757720947,2.7043745517730713,-0.17022639513015747
1.7294937334908946e+18,2.156621217727661,2.4010298252105713,-0.18063776195049286
1.7294937334998948e+18,1.9599852561950684,2.1328682899475098,-0.18611876666545868
1.729493733508895e+18,1.6972373723983765,1.9514310359954834,-0.197712242603302
1.7294937335178952e+18,1.4757310152053833,1.8655098676681519,-0.20406126976013184
1.7294937335268954e+18,1.354375958442688,1.8108043670654297,-0.21085600554943085
1.7294937335358956e+18,1.328615665435791,1.7203738689422607,-0.21882472932338715
1.7294937335448957e+18,1.3368103504180908,1.571997046470642,-0.22102433443069458
1.729493733553896e+18,1.3146476745605469,1.3762675523757935,-0.22620965540409088
1.7294937335628961e+18,1.201316237449646,1.1536388397216797,-0.23071864247322083
1.7294937335748964e+18,0.9447712898254395,0.8985428810119629,-0.2396644800901413
1.7294937335838966e+18,0.7465634942054749,0.7726187705993652,-0.23962661623954773
1.7294937335928968e+18,0.5975779891014099,0.6790075302124023,-0.2406696081161499
1.729493733601897e+18,0.526146650314331,0.5990580320358276,-0.24121315777301788
1.7294937336108972e+18,0.5185070633888245,0.5110756754875183,-0.2464609295129776
1.7294937336198973e+18,0.512952983379364,0.40260154008865356,-0.24416792392730713
1.7294937336288975e+18,0.4684717059135437,0.2725200951099396,-0.24037350714206696
1.7294937336408978e+18,0.327411413192749,0.11776725202798843,-0.24488379061222076
1.729493733646898e+18,0.23835228383541107,0.05365360528230667,-0.24337752163410187
1.7294937336588982e+18,0.07604875415563583,-0.03616342693567276,-0.2437538206577301
1.7294937336678984e+18,0.014432230032980442,-0.07862427830696106,-0.2422187179327011
1.7294937336768986e+18,0.005203622858971357,-0.12019941955804825,-0.2417207956314087
1.7294937336858988e+18,0.01674512028694153,-0.16870439052581787,-0.24218353629112244
1.729493733694899e+18,0.020507173612713814,-0.22246316075325012,-0.23790350556373596
1.7294937337038991e+18,-0.012532876804471016,-0.2761632204055786,-0.23845168948173523
1.7294937337128993e+18,-0.07286693155765533,-0.3217601180076599,-0.23628295958042145
1.7294937337218995e+18,-0.14979323744773865,-0.3546921908855438,-0.23480156064033508
1.7294937337308997e+18,-0.2111445665359497,-0.37634459137916565,-0.2342081367969513
1.7294937337399e+18,-0.2380957454442978,-0.39263275265693665,-0.2280680239200592
1.7294937337489e+18,-0.2300674319267273,-0.40577250719070435,-0.22674816846847534
1.7294937337609004e+18,-0.19820354878902435,-0.42515191435813904,-0.2213188111782074
1.7294937337699005e+18,-0.19051000475883484,-0.4366980195045471,-0.2180483192205429
1.7294937337789007e+18,-0.20873591303825378,-0.45281219482421875,-0.21713554859161377
1.729493733787901e+18,-0.24385887384414673,-0.46561697125434875,-0.21244865655899048
1.729493733796901e+18,-0.2835385501384735,-0.4705226719379425,-0.2097521722316742
1.7294937338059013e+18,-0.30585774779319763,-0.47144532203674316,-0.2062566727399826
1.7294937338149015e+18,-0.30441588163375854,-0.469196617603302,-0.20221538841724396
1.7294937338239017e+18,-0.2881496548652649,-0.47119268774986267,-0.19776728749275208
1.729493733832902e+18,-0.2627929151058197,-0.46543192863464355,-0.19380182027816772
1.7294937338449021e+18,-0.2519124746322632,-0.4644865393638611,-0.18585556745529175
