timestamp,accel_x,accel_y,accel_z
1.7275263277003535e+18,-0.04502895474433899,0.034210581332445145,-9.812732696533203
1.7275263277093537e+18,-0.035489119589328766,-0.01201165933161974,-9.888275146484375
1.7275263277153539e+18,-0.04315340891480446,-0.02121937833726406,-9.851461410522461
1.727526327718354e+18,-0.012320362962782383,-0.016233142465353012,-9.811787605285645
1.727526327724354e+18,-0.0011130145285278559,-0.026197433471679688,-9.797161102294922
1.7275263277303542e+18,-0.04680633544921875,-0.03856351971626282,-9.72236156463623
1.7275263277363543e+18,-0.024740763008594513,0.006344753783196211,-9.807489395141602
1.7275263277423544e+18,0.0311716441065073,-0.061748214066028595,-9.819112777709961
1.7275263277453545e+18,0.007123988587409258,-0.0757739320397377,-9.825721740722656
1.7275263277543547e+18,0.031756579875946045,-0.04743145778775215,-9.747302055358887
1.7275263277603548e+18,-0.04156947508454323,0.006291965954005718,-9.765239715576172
1.727526327763355e+18,-0.08736132085323334,0.012910326011478901,-9.839438438415527
1.727526327772355e+18,-0.0410468652844429,-0.05991167575120926,-9.863275527954102
1.7275263277753551e+18,0.0015270431758835912,-0.016114000231027603,-9.798260688781738
1.7275263277813553e+18,-0.045298051089048386,0.007498647551983595,-9.802817344665527
1.7275263277873554e+18,0.021969925612211227,0.038917772471904755,-9.797722816467285
1.7275263277933555e+18,-0.008480154909193516,0.008995532058179379,-9.812304496765137
1.7275263277993556e+18,0.01809723861515522,0.002734436886385083,-9.884967803955078
1.7275263278053558e+18,-0.03500087186694145,0.022503038868308067,-9.855510711669922
1.727526327811356e+18,0.021670402958989143,0.0052229249849915504,-9.802242279052734
1.727526327817356e+18,0.06795432418584824,0.006662829779088497,-9.7667818069458
1.7275263278233562e+18,-0.005648583173751831,-0.011300253681838512,-9.824953079223633
1.7275263278263562e+18,-0.02543339878320694,-0.040805645287036896,-9.889077186584473
1.7275263278323564e+18,0.05976828932762146,-0.005602390971034765,-9.731908798217773
1.7275263278383565e+18,-0.031619857996702194,0.02044815570116043,-9.845837593078613
1.7275263278443566e+18,-0.0025601971428841352,0.013737661764025688,-9.728615760803223
1.7275263278503567e+18,0.05167822539806366,-0.019928928464651108,-9.809920310974121
1.7275263278533568e+18,-0.041233379393815994,0.055787473917007446,-9.749407768249512
1.727526327859357e+18,0.05214209109544754,0.06248021125793457,-9.786324501037598
1.727526327865357e+18,0.01717388443648815,0.05993758514523506,-9.800835609436035
1.7275263278713572e+18,-0.083739273250103,-0.051513995975255966,-9.808408737182617
1.7275263278773573e+18,-0.0006623813533224165,0.05359077826142311,-9.809697151184082
1.7275263278833574e+18,-0.014332144521176815,0.07678835839033127,-9.849739074707031
1.7275263278893576e+18,0.02633371576666832,0.021464888006448746,-9.839167594909668
1.7275263278923576e+18,-0.010671976022422314,-0.016349218785762787,-9.819486618041992
1.7275263278983578e+18,-0.027820821851491928,0.019365346059203148,-9.833419799804688
1.727526327904358e+18,-0.022173888981342316,-0.01144603081047535,-9.850114822387695
1.727526327910358e+18,0.03700780123472214,0.010722005739808083,-9.839516639709473
1.727526327913358e+18,0.10119477659463882,-0.07073000818490982,-9.849395751953125
1.7275263279193582e+18,-0.03778769075870514,-0.03564201295375824,-9.789139747619629
1.7275263279253583e+18,-0.06544912606477737,0.05065647512674332,-9.689112663269043
1.7275263279313585e+18,0.06498699635267258,-0.0035229132045060396,-9.800861358642578
1.7275263279343585e+18,0.00845009833574295,0.012055105529725552,-9.740211486816406
1.7275263279403587e+18,0.0016815811395645142,-0.03400755673646927,-9.819714546203613
1.7275263279463588e+18,0.058476850390434265,0.11496002972126007,-9.786334991455078
1.727526327952359e+18,-0.009615971706807613,0.0015824566362425685,-9.83523941040039
1.727526327958359e+18,0.07425256818532944,0.0019377045100554824,-9.824462890625
1.727526327961359e+18,-0.03932703658938408,0.01306124683469534,-9.805306434631348
1.7275263279673592e+18,0.006569718010723591,0.0062536089681088924,-9.80193042755127
1.7275263279733594e+18,-0.05288112908601761,-0.014479774981737137,-9.814949035644531
1.7275263279763594e+18,-0.04443784058094025,-0.031928613781929016,-9.815690994262695
1.7275263279823596e+18,0.05150042101740837,-0.04414756968617439,-9.83877182006836
1.7275263279883597e+18,-0.03141740337014198,0.06208967790007591,-9.77827262878418
1.7275263279943598e+18,0.04327532276511192,0.060645557940006256,-9.761452674865723
1.7275263279973599e+18,0.005987211596220732,-0.02416694164276123,-9.89209270477295
1.72752632800336e+18,-0.033716972917318344,0.003221111837774515,-9.757737159729004
1.7275263280093601e+18,-0.02856503054499626,-0.05537264421582222,-9.775812149047852
1.7275263280153603e+18,0.0008092648349702358,0.03933902457356453,-9.742457389831543
1.7275263280213604e+18,-0.011932754889130592,0.08421050012111664,-9.87442684173584
1.7275263280243604e+18,-0.00644422834739089,-0.007251708302646875,-9.782471656799316
1.7275263280303606e+18,0.05531753599643707,-0.011315498501062393,-9.804600715637207
1.7275263280363607e+18,-0.01136699691414833,0.008294905535876751,-9.733885765075684
1.7275263280423608e+18,-0.0730932205915451,0.033521201461553574,-9.802460670471191
1.727526328048361e+18,0.0014516657683998346,-0.011837651953101158,-9.73392105102539
1.727526328051361e+18,0.01664210669696331,-0.05662469565868378,-9.896645545959473
1.7275263280573612e+18,-0.038784388452768326,-0.02629055455327034,-9.767990112304688
1.7275263280633613e+18,0.02322276122868061,0.07611850649118423,-9.813901901245117
1.7275263280693614e+18,-0.027013642713427544,-0.01860414445400238,-9.806922912597656
1.7275263280753615e+18,-0.020062340423464775,0.009563431143760681,-9.90074634552002
1.7275263280783616e+18,0.11235705763101578,0.020012523978948593,-9.799715042114258
1.7275263280843617e+18,-0.04892604798078537,0.002077726647257805,-9.828118324279785
1.7275263280903619e+18,0.051542963832616806,-0.06351529061794281,-9.810425758361816
1.727526328096362e+18,0.018736565485596657,-0.004701739642769098,-9.80890941619873
1.727526328102362e+18,-0.040820181369781494,0.02639373019337654,-9.864086151123047
1.7275263281053622e+18,-0.009945742785930634,-0.025739332661032677,-9.739527702331543
1.7275263281113623e+18,-0.004043074790388346,-0.03478819131851196,-9.803496360778809
1.7275263281173624e+18,0.006871250458061695,0.020861241966485977,-9.712905883789062
1.7275263281233626e+18,-0.09840430319309235,-0.10501240193843842,-9.821365356445312
1.7275263281293627e+18,0.0054551949724555016,0.04092051833868027,-9.760327339172363
1.7275263281323628e+18,-0.033749308437108994,-0.022426802664995193,-9.838273048400879
1.727526328138363e+18,-0.02353854477405548,0.03612851724028587,-9.868977546691895
1.727526328144363e+18,0.022000430151820183,-0.0222922470420599,-9.771526336669922
1.7275263281503631e+18,7.343999186559813e-06,0.07174386829137802,-9.77993392944336
1.7275263281563633e+18,0.05108952149748802,0.01795770786702633,-9.80031681060791
1.7275263281623634e+18,-0.012482400052249432,-0.07811979204416275,-9.773109436035156
1.7275263281683635e+18,0.0016531954752281308,0.04280656948685646,-9.784341812133789
1.7275263281743636e+18,0.01977686956524849,-0.0361231304705143,-9.847892761230469
1.7275263281773637e+18,-0.06670188903808594,0.007078175432980061,-9.72116470336914
1.7275263281833638e+18,0.05714832618832588,-0.05049905553460121,-9.746012687683105
1.727526328189364e+18,-0.042996492236852646,0.007109025027602911,-9.824894905090332
1.727526328195364e+18,0.01801847666501999,0.04686283320188522,-9.82156753540039
1.7275263282013642e+18,-0.052032023668289185,-0.01728838123381138,-9.854767799377441
1.7275263282073644e+18,-0.03931765258312225,-0.10331158339977264,-9.811293601989746
1.7275263282133645e+18,-0.0019268231699243188,0.05129006505012512,-9.814567565917969
1.7275263282163645e+18,-0.04677959159016609,0.0069733732379972935,-9.760461807250977
1.7275263282223647e+18,-0.03810901567339897,0.04924190789461136,-9.799049377441406
1.7275263282283648e+18,0.0826655775308609,-0.03342396020889282,-9.83795166015625
1.727526328234365e+18,-0.05090638995170593,0.02055152878165245,-9.703529357910156
1.727526328237365e+18,-0.020407332107424736,0.05773000791668892,-9.799997329711914
1.727526328243365e+18,-0.0501035638153553,-0.03313741832971573,-9.84851360321045
1.7275263282493652e+18,-0.06391560286283493,-0.02690417319536209,-9.822837829589844
1.7275263282553654e+18,-0.033074162900447845,0.003453843528404832,-9.748923301696777
1.7275263282613655e+18,-0.00854282733052969,-0.002074484946206212,-9.884490966796875
1.7275263282673656e+18,-0.04459546133875847,0.005837916862219572,-9.841991424560547
1.7275263282733658e+18,0.05402369052171707,0.012997670099139214,-9.754838943481445
1.727526328279366e+18,0.013235855847597122,0.011476008221507072,-9.746294021606445
1.727526328285366e+18,0.03566956892609596,-0.050569914281368256,-9.856154441833496
1.7275263282913661e+18,0.038111209869384766,-0.0010128647554665804,-9.817442893981934
1.7275263282973663e+18,0.04075925424695015,0.06633967161178589,-9.887956619262695
1.7275263283003663e+18,-0.011353532783687115,-0.05454612523317337,-9.787461280822754
1.7275263283063665e+18,-0.026897192001342773,-0.010273289866745472,-9.727407455444336
1.7275263283123666e+18,-0.06622494757175446,-0.006054799538105726,-9.854066848754883
1.7275263283183667e+18,0.009360261261463165,0.012744027189910412,-9.825267791748047
1.7275263283243668e+18,0.004437746945768595,-0.05279207602143288,-9.868810653686523
1.727526328327367e+18,-0.08094736188650131,-0.06676319241523743,-9.820706367492676
1.727526328333367e+18,-0.004563695285469294,-0.005187313072383404,-9.800488471984863
1.7275263283393672e+18,-0.05056553706526756,-0.04913310334086418,-9.857392311096191
1.7275263283453673e+18,0.058444056659936905,-0.02044104039669037,-9.818060874938965
1.7275263283483674e+18,0.03434687852859497,-0.055081725120544434,-9.865635871887207
1.7275263283543675e+18,-0.011996850371360779,0.0334247462451458,-9.80245304107666
1.7275263283603676e+18,-0.011020548641681671,0.007300122175365686,-9.781967163085938
1.7275263283663677e+18,0.001602500444278121,-0.06601185351610184,-9.816353797912598
1.7275263283693678e+18,0.02245499938726425,0.0476343110203743,-9.811729431152344
1.727526328375368e+18,-0.006894891615957022,0.04834483563899994,-9.871133804321289
1.727526328381368e+18,0.03655429556965828,-0.006176106631755829,-9.842637062072754
1.7275263283873682e+18,0.04701303690671921,-0.01530328206717968,-9.795195579528809
1.7275263283933683e+18,-0.04613984748721123,0.013119866140186787,-9.847427368164062
1.7275263283993684e+18,0.017625296488404274,-0.0036168911028653383,-9.821576118469238
1.7275263284023685e+18,0.05230405181646347,0.03732989728450775,-9.826456069946289
1.7275263284083686e+18,-0.005980674643069506,-0.07797566801309586,-9.779234886169434
1.7275263284143688e+18,0.0416250042617321,-0.01611085794866085,-9.872888565063477
1.727526328420369e+18,-0.022711655125021935,0.0481710359454155,-9.85710334777832
1.727526328426369e+18,-0.051926035434007645,-0.03318354859948158,-9.871376991271973
1.7275263284323692e+18,0.05712398514151573,0.004435839597135782,-9.791481971740723
1.7275263284383693e+18,0.03546905517578125,0.06488365679979324,-9.734763145446777
1.7275263284413693e+18,-0.03912514075636864,0.011987448669970036,-9.742974281311035
1.7275263284473695e+18,-0.02082473412156105,-0.013570155017077923,-9.889566421508789
1.7275263284533696e+18,0.05602399632334709,-0.006784758064895868,-9.769203186035156
1.7275263284593697e+18,-0.056430406868457794,0.09757300466299057,-9.861681938171387
1.7275263284653699e+18,-0.034490108489990234,0.012663347646594048,-9.848681449890137
1.72752632847137e+18,0.02201284095644951,-0.03581788390874863,-9.795058250427246
1.72752632847737e+18,-0.02469569258391857,-0.011157869361341,-9.803997993469238
1.7275263284833702e+18,-0.08442561328411102,0.03567570075392723,-9.771232604980469
1.7275263284893704e+18,0.012823620811104774,0.08242273330688477,-9.782613754272461
1.7275263284923704e+18,-0.04008714482188225,0.06584274023771286,-9.837968826293945
1.7275263284983706e+18,0.016262304037809372,-0.026194032281637192,-9.797835350036621
1.7275263285043707e+18,0.00832153670489788,-0.03607204556465149,-9.831603050231934
1.7275263285103708e+18,0.050235316157341,0.04464221000671387,-9.811676025390625
1.727526328516371e+18,0.06502751260995865,-0.03318775072693825,-9.798171997070312
1.727526328522371e+18,0.013966011814773083,-0.044654082506895065,-9.829268455505371
1.7275263285283712e+18,-0.029169956222176552,-0.012893784791231155,-9.80373764038086
1.7275263285313713e+18,-0.0003906971833202988,0.025197384878993034,-9.84066390991211
1.7275263285373714e+18,-0.03102589026093483,-0.00041793790296651423,-9.881013870239258
1.7275263285433715e+18,-0.029555434361100197,0.011680029332637787,-9.83774185180664
1.7275263285493716e+18,-0.06445205956697464,-0.05252374708652496,-9.82275104522705
1.7275263285553718e+18,-0.020222337916493416,-0.03595573455095291,-9.784313201904297
1.7275263285583718e+18,-0.04783834517002106,-0.06492213159799576,-9.83202838897705
1.727526328564372e+18,-0.014559509232640266,-0.009273029863834381,-9.822269439697266
1.727526328570372e+18,-0.015206161886453629,0.024654483422636986,-9.72254753112793
1.7275263285763722e+18,-0.03361168131232262,-0.015995170921087265,-9.896512985229492
1.7275263285823724e+18,0.05049458146095276,-0.08825243264436722,-9.830516815185547
1.7275263285853724e+18,0.0021886476315557957,-0.07550748437643051,-9.797999382019043
1.7275263285913725e+18,-0.06430495530366898,-0.006564822979271412,-9.811317443847656
1.7275263285973727e+18,0.048743836581707,0.006264790892601013,-9.842855453491211
1.7275263286033728e+18,-0.01360571663826704,-0.005364798009395599,-9.807281494140625
1.727526328609373e+18,0.03708704560995102,0.0709705650806427,-9.791491508483887
1.727526328615373e+18,-0.032735493034124374,0.01466382946819067,-9.819438934326172
1.727526328618373e+18,0.02607884630560875,-0.0026754532009363174,-9.882826805114746
1.7275263286243732e+18,-0.004249019082635641,-0.04918542876839638,-9.857933044433594
1.7275263286303734e+18,-0.07152416557073593,0.054545655846595764,-9.87671184539795
1.7275263286363735e+18,0.021969255059957504,-0.0338892787694931,-9.849247932434082
1.7275263286423736e+18,0.06263695657253265,-0.005767066963016987,-9.795324325561523
1.7275263286483738e+18,-0.03745296224951744,-0.033462878316640854,-9.811965942382812
1.7275263286513738e+18,0.04976634308695793,0.02722098119556904,-9.8004150390625
1.727526328657374e+18,0.05059915781021118,-0.010862510651350021,-9.836268424987793
1.727526328663374e+18,0.060754306614398956,0.03866700455546379,-9.787960052490234
1.7275263286693742e+18,-0.004476523492485285,0.008011779747903347,-9.801480293273926
1.7275263286753743e+18,-0.04738573729991913,-0.05256887525320053,-9.776687622070312
1.7275263286783744e+18,0.019255023449659348,-0.008428742177784443,-9.797646522521973
1.7275263286843745e+18,-0.07417288422584534,-0.04822951555252075,-9.750349998474121
1.7275263286903747e+18,0.015784820541739464,0.07173324376344681,-9.780186653137207
1.7275263286963748e+18,0.018758254125714302,-0.059638895094394684,-9.792296409606934
1.727526328702375e+18,-0.003402418689802289,-0.026263369247317314,-9.76111125946045
1.727526328705375e+18,-0.014353713020682335,-0.061978667974472046,-9.771476745605469
1.727526328711375e+18,-0.015610717236995697,0.014539305120706558,-9.81755256652832
1.7275263287173752e+18,0.03953931853175163,-0.03186255693435669,-9.841806411743164
1.7275263287233754e+18,0.02210237644612789,0.06563367694616318,-9.843124389648438
1.7275263287293755e+18,0.058781687170267105,0.03627349063754082,-9.789146423339844
1.7275263287353756e+18,0.044216565787792206,0.05751577764749527,-9.810857772827148
1.7275263287383757e+18,-0.05356590822339058,-0.013929096981883049,-9.823771476745605
1.7275263287443758e+18,0.016013680025935173,0.06103494390845299,-9.791144371032715
1.727526328750376e+18,-0.005916710011661053,-0.04689488932490349,-9.795598983764648
1.727526328756376e+18,-0.07226794958114624,0.049542125314474106,-9.834700584411621
1.7275263287623762e+18,0.030536022037267685,-0.0037191947922110558,-9.814891815185547
1.7275263287683763e+18,-0.030759867280721664,0.020684439688920975,-9.841531753540039
1.7275263287743764e+18,-0.04716203734278679,0.002375649055466056,-9.78399658203125
1.7275263287803766e+18,-0.017347147688269615,-0.016950298100709915,-9.706153869628906
1.7275263287833766e+18,-0.041500627994537354,-0.00048623752081766725,-9.8017578125
1.7275263287893768e+18,0.0030713281594216824,-0.0742170438170433,-9.750123023986816
1.727526328795377e+18,0.04548777639865875,-0.03320293128490448,-9.843647956848145
1.727526328801377e+18,0.00115028431173414,-0.052765484899282455,-9.846981048583984
1.727526328804377e+18,0.011857054196298122,0.07668324559926987,-9.804449081420898
1.7275263288103772e+18,-0.011452194303274155,-0.023489177227020264,-9.765057563781738
1.7275263288163773e+18,0.11432690173387527,0.04720773175358772,-9.880789756774902
1.7275263288223775e+18,-0.04778407886624336,0.059489741921424866,-9.797240257263184
1.7275263288253775e+18,-0.00101860286667943,-0.022333243861794472,-9.770125389099121
1.7275263288313777e+18,0.03445795550942421,-0.01707478053867817,-9.880112648010254
1.7275263288373778e+18,-0.00881271529942751,0.026316745206713676,-9.766860961914062
1.727526328843378e+18,-0.0045530302450060844,0.03846309334039688,-9.773876190185547
1.727526328849378e+18,0.023807628080248833,0.016170956194400787,-9.83395004272461
1.727526328852378e+18,-0.01493656076490879,0.05278802290558815,-9.772687911987305
1.7275263288583782e+18,-0.024198926985263824,0.0594199113547802,-9.828336715698242
1.7275263288643784e+18,-0.0030691956635564566,-0.007128646597266197,-9.744059562683105
1.7275263288703785e+18,0.0038298238068819046,0.019468728452920914,-9.755425453186035
1.7275263288733786e+18,-0.09337393939495087,0.012252163141965866,-9.820884704589844
1.7275263288793787e+18,-0.014667760580778122,0.0977385863661766,-9.789912223815918
1.7275263288853788e+18,-0.014886230230331421,-0.02434585802257061,-9.826764106750488
1.727526328888379e+18,0.02940221317112446,0.006676069926470518,-9.756277084350586
1.727526328894379e+18,0.022480743005871773,0.018014000728726387,-9.768943786621094
1.7275263289003791e+18,-0.018010718747973442,0.0563805028796196,-9.739211082458496
1.7275263289063793e+18,0.03220941126346588,0.05397677794098854,-9.819449424743652
1.7275263289123794e+18,-0.024899179115891457,0.017159271985292435,-9.823637962341309
1.7275263289153795e+18,-0.056454818695783615,0.0005669430247507989,-9.810320854187012
1.7275263289213796e+18,-0.042952269315719604,-0.004695191513746977,-9.868749618530273
1.7275263289273797e+18,0.0059269508346915245,-0.01937411166727543,-9.818678855895996
1.7275263289333798e+18,0.03978376090526581,0.028502581641077995,-9.887272834777832
1.72752632893938e+18,-0.017909973859786987,0.036713071167469025,-9.860188484191895
1.72752632894238e+18,-0.025034349411725998,0.028630154207348824,-9.68541145324707
1.7275263289483802e+18,0.0370200090110302,-0.013586558401584625,-9.823380470275879
1.7275263289543803e+18,0.07824116945266724,-0.015177324414253235,-9.809884071350098
1.7275263289573804e+18,-0.0754866674542427,-0.00969978142529726,-9.859864234924316
1.7275263289633805e+18,-0.01901453733444214,-0.012989280745387077,-9.830768585205078
1.7275263289693806e+18,0.0535222627222538,0.04514920711517334,-9.825138092041016
1.7275263289753807e+18,-0.05323620140552521,-0.08719592541456223,-9.807846069335938
1.7275263289783808e+18,0.028405820950865746,0.05169590562582016,-9.917179107666016
1.727526328984381e+18,0.013031849637627602,0.015053809620440006,-9.77247142791748
1.727526328990381e+18,0.027904052287340164,0.0207003615796566,-9.803095817565918
1.7275263289963812e+18,-0.010877593420445919,0.034897878766059875,-9.757414817810059
1.7275263289993812e+18,0.0027122010942548513,0.029802395030856133,-9.833250045776367
1.7275263290053814e+18,-0.004383739549666643,0.02250087447464466,-9.814160346984863
1.7275263290113815e+18,0.07689753919839859,0.10227828472852707,-9.911711692810059
1.7275263290173816e+18,0.07466696947813034,0.03495313599705696,-9.812313079833984
1.7275263290233818e+18,0.043197955936193466,0.03216099739074707,-9.780651092529297
1.727526329029382e+18,0.05371624976396561,-0.05744685232639313,-9.784677505493164
1.727526329032382e+18,0.06612196564674377,0.027604181319475174,-9.83390998840332
1.727526329038382e+18,0.09369881451129913,0.06530677527189255,-9.759263038635254
1.7275263290443822e+18,-0.04113953560590744,-0.06982474029064178,-9.785374641418457
1.7275263290503823e+18,-0.1621268093585968,-0.08792667090892792,-9.787384986877441
1.7275263290563825e+18,-0.02843478135764599,0.027839746326208115,-9.820069313049316
1.7275263290623826e+18,-0.005581357516348362,-0.03170196712017059,-9.815428733825684
1.7275263290653827e+18,-0.019681042060256004,-0.04790869727730751,-9.771627426147461
1.7275263290713828e+18,0.0023597879335284233,-0.03723277151584625,-9.813973426818848
1.727526329077383e+18,-0.004927779082208872,-0.032302383333444595,-9.793930053710938
1.727526329083383e+18,-0.026377128437161446,0.02599870041012764,-9.804500579833984
1.7275263290893832e+18,0.01747485250234604,0.0031998357735574245,-9.816547393798828
1.7275263290953833e+18,0.04138823226094246,-0.0019532160367816687,-9.782135963439941
1.7275263290983834e+18,-0.019572041928768158,0.06646371632814407,-9.841717720031738
1.7275263291043835e+18,0.048411689698696136,0.017356498166918755,-9.709369659423828
1.7275263291103836e+18,0.07041420042514801,0.0011638450669124722,-9.797297477722168
1.7275263291163837e+18,-0.06437239795923233,-0.10963567346334457,-9.734597206115723
1.727526329122384e+18,0.010667616501450539,-0.016419347375631332,-9.816122055053711
1.727526329128384e+18,0.030216919258236885,0.010560172609984875,-9.931926727294922
1.727526329131384e+18,-0.043427422642707825,-0.04664115235209465,-9.758604049682617
1.7275263291373842e+18,0.009040103293955326,-0.08983168751001358,-9.806512832641602
1.7275263291433843e+18,-0.020835325121879578,-0.019347315654158592,-9.727931022644043
1.7275263291493844e+18,0.030276259407401085,-0.0068595027551054955,-9.745931625366211
1.7275263291553846e+18,0.014498325996100903,0.003761270549148321,-9.856176376342773
1.7275263291613847e+18,0.006957532837986946,-0.01998698152601719,-9.76065731048584
1.7275263291643848e+18,-0.04363134503364563,0.03260780870914459,-9.857797622680664
1.727526329170385e+18,-0.019556816667318344,-0.01888537034392357,-9.7859525680542
1.727526329176385e+18,0.032225601375103,0.016520032659173012,-9.796675682067871
1.7275263291823852e+18,0.0111473947763443,0.05745945870876312,-9.767309188842773
1.7275263291883853e+18,0.009439220651984215,-0.03162781894207001,-9.797489166259766
1.7275263291943854e+18,-0.013212277553975582,0.056383166462183,-9.732373237609863
1.7275263291973855e+18,-0.013557312078773975,-0.03175165504217148,-9.779023170471191
1.7275263292033856e+18,-0.05451366677880287,0.05355337634682655,-9.798639297485352
1.7275263292093857e+18,0.04873494431376457,-0.018530720844864845,-9.790929794311523
1.7275263292153859e+18,0.026370448991656303,-0.017409905791282654,-9.806656837463379
1.727526329221386e+18,-0.010018754750490189,0.04095175117254257,-9.778897285461426
1.727526329224386e+18,0.0015790484612807631,0.0027629805263131857,-9.830059051513672
1.7275263292303862e+18,-0.022724222391843796,0.04607462137937546,-9.837550163269043
1.7275263292363863e+18,0.0009135014843195677,-0.018578901886940002,-9.85092830657959
1.7275263292423864e+18,0.00022483503562398255,-0.044529493898153305,-9.814349174499512
1.7275263292483866e+18,0.029885966330766678,-0.026455968618392944,-9.73155689239502
1.7275263292513866e+18,-0.008091680705547333,0.05922304838895798,-9.815306663513184
1.7275263292573868e+18,-0.08442692458629608,0.06596595048904419,-9.80623722076416
1.727526329263387e+18,-0.03884074091911316,-0.07321334630250931,-9.776416778564453
1.727526329269387e+18,-0.03925053030252457,-0.011255692690610886,-9.776535034179688
1.7275263292753871e+18,-0.06376931816339493,0.008516209200024605,-9.816657066345215
1.7275263292783872e+18,-0.026393409818410873,0.011083162389695644,-9.789300918579102
1.7275263292843873e+18,0.00908428430557251,0.021059855818748474,-9.769133567810059
1.7275263292903875e+18,0.006679754704236984,-0.0898715928196907,-9.781586647033691
1.7275263292963876e+18,0.02788429521024227,-0.016640925779938698,-9.84863567352295
1.7275263293023877e+18,5.019249874749221e-05,-0.07952377200126648,-9.805132865905762
1.7275263293053878e+18,0.02045034058392048,-0.06471428275108337,-9.807186126708984
1.727526329311388e+18,-0.03952190279960632,0.011848044581711292,-9.813006401062012
1.727526329317388e+18,0.0744311660528183,-0.02460932545363903,-9.787163734436035
1.7275263293233882e+18,0.039353590458631516,-0.028268661350011826,-9.746026992797852
1.7275263293293883e+18,0.04195868596434593,-0.014457091689109802,-9.78534984588623
1.7275263293323884e+18,0.04788319021463394,-0.009457478299736977,-9.741191864013672
1.7275263293383885e+18,0.037305817008018494,-0.02657683752477169,-9.834019660949707
1.7275263293443886e+18,0.016183501109480858,-0.048190854489803314,-9.782812118530273
1.7275263293503887e+18,0.06891418993473053,-0.06312884390354156,-9.822221755981445
1.7275263293533888e+18,0.04486711323261261,0.0049561625346541405,-9.817748069763184
1.727526329359389e+18,-0.09821778535842896,-0.06660275906324387,-9.844959259033203
1.727526329365389e+18,-0.08608321100473404,-0.06876876205205917,-9.782885551452637
1.7275263293713892e+18,-0.013076228089630604,0.0742756649851799,-9.743738174438477
1.7275263293773893e+18,-0.00759994238615036,-0.02407342940568924,-9.825908660888672
1.7275263293803894e+18,0.08393983542919159,0.05072285979986191,-9.825231552124023
1.7275263293863895e+18,-0.03954283148050308,-0.01696246676146984,-9.936217308044434
1.7275263293923896e+18,0.04184775799512863,-0.01099808793514967,-9.852478981018066
1.7275263293983898e+18,-0.05266094580292702,-0.0657406821846962,-9.838418006896973
1.7275263294013898e+18,0.05297740176320076,0.007669976446777582,-9.797893524169922
1.72752632940739e+18,-0.039508163928985596,0.11171494424343109,-9.820751190185547
1.72752632941339e+18,-0.013179934583604336,-0.05247258022427559,-9.789626121520996
1.7275263294193902e+18,-0.01875319518148899,0.08444706350564957,-9.8152494430542
1.7275263294253903e+18,-0.003238341771066189,-0.04998306185007095,-9.859818458557129
1.7275263294313905e+18,-0.06495150178670883,0.060373276472091675,-9.83578872680664
1.7275263294343905e+18,0.033319614827632904,-0.006380513776093721,-9.856558799743652
1.7275263294403907e+18,-0.015009943395853043,-0.03267065808176994,-9.823878288269043
1.7275263294463908e+18,-0.0027328617870807648,-0.01590336114168167,-9.82515811920166
1.727526329452391e+18,0.049874186515808105,-0.021979115903377533,-9.775141716003418
1.727526329458391e+18,0.024078410118818283,0.0727122351527214,-9.778511047363281
1.7275263294643912e+18,0.03695417195558548,0.0732637345790863,-9.833440780639648
1.7275263294673912e+18,0.15001831948757172,0.039115238934755325,-9.74320125579834
1.7275263294733914e+18,0.027194149792194366,0.03827345371246338,-9.7653226852417
1.7275263294793915e+18,-0.024303091689944267,-0.003962368704378605,-9.824562072753906
1.7275263294853916e+18,0.026621289551258087,-0.009271472692489624,-9.86044692993164
1.7275263294913917e+18,-0.07347233593463898,-0.007303006947040558,-9.838123321533203
1.7275263294943918e+18,-0.08214514702558517,0.09815584868192673,-9.811429977416992
1.727526329500392e+18,-0.027846330776810646,-0.0455259270966053,-9.752305030822754
1.727526329506392e+18,0.03439517319202423,0.03625383600592613,-9.820932388305664
1.7275263295123922e+18,-0.017009874805808067,-0.024896766990423203,-9.86911392211914
1.7275263295153923e+18,-0.013372988440096378,0.0006801282288506627,-9.752713203430176
1.7275263295213924e+18,-0.015277981758117676,0.025174373760819435,-9.774565696716309
1.7275263295273925e+18,0.05875711888074875,-0.05067897215485573,-9.752674102783203
1.7275263295333926e+18,-0.0007754377438686788,0.05516596883535385,-9.780146598815918
1.7275263295393928e+18,-0.054290249943733215,-0.06340034306049347,-9.79277229309082
1.727526329545393e+18,-0.05476062372326851,0.008567585609853268,-9.853803634643555
1.727526329551393e+18,0.0008671806426718831,-0.09559274464845657,-9.757046699523926
1.7275263295573932e+18,-0.10823235660791397,0.015131272375583649,-9.739978790283203
1.7275263295603932e+18,0.036084532737731934,-0.05461513251066208,-9.772250175476074
1.7275263295663933e+18,0.022068465128540993,-0.005581027362495661,-9.793481826782227
1.7275263295723935e+18,0.07956305146217346,0.05390109494328499,-9.79970645904541
1.7275263295783936e+18,-0.028896784409880638,-0.056332822889089584,-9.834198951721191
1.7275263295813937e+18,0.03205495327711105,0.03595742583274841,-9.793478012084961
1.7275263295873938e+18,-0.036789294332265854,0.03491232916712761,-9.83539867401123
1.727526329593394e+18,-0.03609507530927658,-0.02954229898750782,-9.765115737915039
1.727526329599394e+18,-0.029553771018981934,0.042771805077791214,-9.762619018554688
1.727526329602394e+18,-0.0011624684557318687,-0.010316163301467896,-9.766101837158203
1.7275263296083942e+18,-0.024299727752804756,-0.10947525501251221,-9.802567481994629
1.7275263296143944e+18,-0.024182716384530067,0.1033569872379303,-9.75275993347168
1.7275263296203945e+18,-0.03141582012176514,0.0526614673435688,-9.833932876586914
1.7275263296263946e+18,-0.07484181970357895,-0.013185306452214718,-9.895392417907715
1.7275263296323948e+18,0.06057838723063469,-0.032252661883831024,-9.779542922973633
1.7275263296353948e+18,0.03293180465698242,0.020630594342947006,-9.886934280395508
1.727526329641395e+18,0.03694271668791771,-0.00818559154868126,-9.811768531799316
1.727526329647395e+18,0.004101251717656851,-0.07274201512336731,-9.781590461730957
1.7275263296533952e+18,-0.016096480190753937,0.003167084651067853,-9.788185119628906
1.7275263296563953e+18,-0.008502176962792873,-0.021918276324868202,-9.780329704284668
1.7275263296623954e+18,-0.014632638543844223,0.0037085593212395906,-9.743172645568848
1.7275263296683955e+18,0.055265456438064575,0.04373545944690704,-9.792434692382812
1.7275263296743956e+18,-0.050775449723005295,-0.010400062426924706,-9.765645027160645
1.7275263296803958e+18,-0.019291995093226433,0.022325465455651283,-9.732708930969238
1.727526329686396e+18,0.028309842571616173,0.053703438490629196,-9.775668144226074
1.727526329689396e+18,0.0025483276695013046,-0.04814711585640907,-9.790160179138184
1.727526329695396e+18,0.01500493474304676,0.0010250359773635864,-9.817933082580566
1.7275263297013962e+18,0.03717702254652977,-0.05582612007856369,-9.812333106994629
1.7275263297073964e+18,0.01796276867389679,0.003295720787718892,-9.78863525390625
1.7275263297133965e+18,0.06713086366653442,0.08227430284023285,-9.776082038879395
1.7275263297193966e+18,0.01936570182442665,-0.0070184096693992615,-9.879842758178711
1.7275263297223967e+18,-0.02282603643834591,0.07287438213825226,-9.8329439163208
1.7275263297283968e+18,-0.030962442979216576,-0.019459186121821404,-9.840141296386719
1.727526329734397e+18,0.10171439498662949,0.014713715761899948,-9.816736221313477
1.727526329740397e+18,-0.029358895495533943,0.043447937816381454,-9.85051155090332
1.7275263297463972e+18,-0.0021137131843715906,0.07480061054229736,-9.851790428161621
1.7275263297523973e+18,0.07148167490959167,-0.0093969302251935,-9.809381484985352
1.7275263297553974e+18,-0.021301571279764175,-0.061483465135097504,-9.815929412841797
1.7275263297613975e+18,-0.05174912139773369,-0.052581723779439926,-9.803033828735352
1.7275263297673976e+18,-0.016619227826595306,0.0019181701354682446,-9.75002384185791
1.7275263297703977e+18,0.02707105688750744,-0.049857247620821,-9.789003372192383
1.7275263297763978e+18,-0.0073381755501031876,-0.02146006189286709,-9.753687858581543
1.727526329782398e+18,0.0431315042078495,-0.0439847894012928,-9.80887222290039
1.727526329788398e+18,-0.007823837921023369,-0.03887404873967171,-9.828023910522461
1.7275263297943982e+18,0.04434969276189804,-0.021437209099531174,-9.780360221862793
1.7275263297973983e+18,-0.002254013903439045,-0.001523636281490326,-9.79203987121582
1.7275263298033984e+18,0.015728363767266273,0.021221671253442764,-9.84931468963623
1.7275263298093985e+18,0.05392702296376228,-0.01694917492568493,-9.780976295471191
1.7275263298153987e+18,0.052665598690509796,-0.022381668910384178,-9.862208366394043
1.7275263298213988e+18,0.02256632409989834,0.015861449763178825,-9.818371772766113
1.7275263298243988e+18,-0.04918652027845383,0.011781354434788227,-9.847393989562988
1.727526329830399e+18,0.035598643124103546,0.02627743035554886,-9.776688575744629
1.727526329836399e+18,-0.02374759316444397,0.05750541761517525,-9.859658241271973
1.7275263298423992e+18,-0.04907913878560066,0.02571420557796955,-9.773786544799805
1.7275263298453993e+18,0.026635967195034027,-0.06649825721979141,-9.77172565460205
1.7275263298513994e+18,0.04337199777364731,0.0791827067732811,-9.795220375061035
1.7275263298573996e+18,-0.007581728044897318,0.019027061760425568,-9.845281600952148
1.7275263298603996e+18,0.01296362467110157,-0.045478783547878265,-9.787784576416016
1.7275263298663997e+18,-0.034217171370983124,-0.004266948904842138,-9.794885635375977
1.7275263298724e+18,0.012874796986579895,-0.014009665697813034,-9.745189666748047
1.7275263298784e+18,-0.030485646799206734,0.053941842168569565,-9.825173377990723
1.7275263298844e+18,-0.029065560549497604,-0.02091735228896141,-9.826345443725586
1.7275263298874002e+18,0.017979759722948074,-0.04431803524494171,-9.853071212768555
1.7275263298934003e+18,-0.04859163612127304,0.0022967334371060133,-9.824368476867676
1.7275263298994004e+18,0.04206529259681702,-0.00011108053877251223,-9.828347206115723
1.7275263299054006e+18,0.06873562932014465,-0.0020866140257567167,-9.795735359191895
1.7275263299114007e+18,0.041857440024614334,-0.017356641590595245,-9.8499116897583
1.7275263299144008e+18,-0.02890447899699211,-0.010947470553219318,-9.764509201049805
1.727526329920401e+18,-0.0045302133075892925,-0.02532489225268364,-9.785222053527832
1.727526329926401e+18,-0.07236162573099136,-0.007334844674915075,-9.755319595336914
1.7275263299324012e+18,-0.021455928683280945,0.03073021024465561,-9.879401206970215
1.7275263299384013e+18,0.020764341577887535,0.00045255222357809544,-9.830077171325684
1.7275263299414013e+18,-0.027018127962946892,-0.14067025482654572,-9.797331809997559
1.7275263299474015e+18,0.0017027497524395585,0.009970463812351227,-9.929503440856934
1.7275263299534016e+18,0.08650720119476318,-0.03468421474099159,-9.797195434570312
1.7275263299594017e+18,-0.010492688044905663,-0.06134924665093422,-10.066058158874512
1.7275263299654019e+18,0.021016720682382584,-0.060302868485450745,-10.025001525878906
1.727526329968402e+18,-0.024248013272881508,-0.028109541162848473,-10.031490325927734
1.727526329974402e+18,-0.039931364357471466,-0.07559843361377716,-9.955280303955078
1.7275263299804022e+18,0.028490247204899788,0.038755450397729874,-10.239413261413574
1.7275263299864023e+18,0.05312017351388931,0.028714928776025772,-10.399263381958008
1.7275263299924024e+18,-0.004042322747409344,-0.024594666436314583,-10.37165355682373
1.7275263299984026e+18,0.017744356766343117,0.025918932631611824,-10.45972728729248
1.7275263300044027e+18,-0.02877940610051155,-0.034349843859672546,-10.508959770202637
1.7275263300104028e+18,0.0009833803633227944,-0.08586487174034119,-10.519369125366211
1.727526330016403e+18,0.034434255212545395,0.005330995656549931,-10.551238059997559
1.727526330019403e+18,-0.027720991522073746,-0.008126572705805302,-10.53745174407959
1.7275263300254031e+18,0.00910542719066143,-0.09655334055423737,-10.58877182006836
1.7275263300314033e+18,-0.06769215315580368,0.037432994693517685,-10.440752029418945
1.7275263300374034e+18,0.0756273940205574,0.01935816928744316,-10.548922538757324
1.7275263300434035e+18,-0.01938651315867901,0.01869761012494564,-10.53028392791748
1.7275263300494036e+18,-0.1476437747478485,-0.07349308580160141,-10.62059211730957
1.7275263300554038e+18,0.07225330173969269,0.02245529368519783,-10.612854957580566
1.7275263300584038e+18,-0.06543520092964172,-0.02688884362578392,-10.600846290588379
1.727526330064404e+18,0.00205339677631855,0.009145323187112808,-10.663283348083496
1.727526330070404e+18,-0.01207029540091753,0.03295964002609253,-10.485780715942383
1.7275263300764042e+18,0.03818317875266075,-0.01902047172188759,-10.548125267028809
1.7275263300824044e+18,-0.03846414387226105,0.03370862081646919,-10.562981605529785
1.7275263300854044e+18,-0.05619341880083084,0.07944700866937637,-10.510246276855469
1.7275263300914045e+18,-0.023851342499256134,0.0430639311671257,-10.5476655960083
1.7275263300974047e+18,-0.03901282697916031,0.02798624522984028,-10.53140640258789
1.7275263301034048e+18,0.05997535213828087,0.004752086941152811,-10.532075881958008
1.727526330109405e+18,-0.07425787299871445,-0.06501685827970505,-10.64641284942627
1.727526330112405e+18,0.014605588279664516,0.016652468591928482,-10.653678894042969
1.727526330118405e+18,0.03488088771700859,0.00998583436012268,-10.538124084472656
1.7275263301244052e+18,-0.004193086177110672,0.0360085591673851,-10.621011734008789
1.7275263301304054e+18,0.004878186620771885,0.034966107457876205,-10.642746925354004
1.7275263301334054e+18,-0.002193542430177331,-0.046325329691171646,-10.60275936126709
1.7275263301394056e+18,-0.03449811413884163,0.03441188484430313,-10.584144592285156
1.7275263301454057e+18,0.05176892876625061,0.028113752603530884,-10.524588584899902
1.7275263301484058e+18,0.03919051215052605,-0.02057802677154541,-10.744220733642578
1.727526330154406e+18,-0.0094748018309474,-0.05168010666966438,-10.80368709564209
1.727526330160406e+18,-0.05999436601996422,-0.013622759841382504,-10.92341423034668
1.7275263301664061e+18,-0.052135810256004333,-0.08331979066133499,-11.08395767211914
1.7275263301694062e+18,-0.005713424179702997,0.019143609330058098,-11.079395294189453
1.7275263301754063e+18,-0.038494862616062164,-0.0032358565367758274,-11.153564453125
1.7275263301814065e+18,0.019785482436418533,0.028427517041563988,-11.104022979736328
1.7275263301874066e+18,0.007029857486486435,0.045147258788347244,-11.232694625854492
1.7275263301904067e+18,-0.021448109298944473,0.021985238417983055,-11.299498558044434
1.7275263301964068e+18,-0.09585098177194595,0.02200247161090374,-11.241722106933594
1.727526330202407e+18,-0.0004965389962308109,-0.0546003021299839,-11.249719619750977
1.727526330208407e+18,0.012636937201023102,0.06563331186771393,-11.292144775390625
1.727526330211407e+18,-0.0456722155213356,0.0017916318029165268,-11.307887077331543
1.7275263302174072e+18,0.010063253343105316,-0.013566666282713413,-11.307564735412598
1.7275263302234074e+18,-0.0541464127600193,0.052335452288389206,-11.320244789123535
1.7275263302294075e+18,0.0022506394889205694,0.041168905794620514,-11.255290985107422
1.7275263302354076e+18,0.047805916517972946,0.07728274166584015,-11.270730018615723
1.7275263302384077e+18,0.0026318023446947336,-0.02812620997428894,-11.305619239807129
1.7275263302444078e+18,0.010555502958595753,0.0018406640738248825,-11.266551971435547
1.727526330250408e+18,0.080579474568367,0.012882908806204796,-11.348224639892578
1.727526330256408e+18,-0.03289950266480446,-0.0643419399857521,-11.321773529052734
1.7275263302594081e+18,-0.03900585696101189,-0.0319015271961689,-11.309372901916504
1.7275263302654083e+18,-0.017139486968517303,-0.056047335267066956,-11.273589134216309
1.7275263302714084e+18,-0.04516702890396118,-0.044519394636154175,-11.266862869262695
1.7275263302774085e+18,0.018565166741609573,0.03635677695274353,-11.300792694091797
1.7275263302834086e+18,0.059515006840229034,0.040285684168338776,-11.330066680908203
1.7275263302864087e+18,-0.06691661477088928,0.08089153468608856,-11.367866516113281
1.7275263302924088e+18,-0.05916351079940796,-0.035068247467279434,-11.248418807983398
1.727526330298409e+18,0.02213366888463497,0.07663299888372421,-11.313617706298828
1.727526330304409e+18,0.038715146481990814,0.00977746769785881,-11.294960975646973
1.7275263303074092e+18,-0.047489382326602936,-0.02529395930469036,-11.250640869140625
1.7275263303164093e+18,-0.018406886607408524,0.022040437906980515,-11.356639862060547
1.7275263303194094e+18,0.03629305586218834,0.03572142496705055,-11.358002662658691
1.7275263303254095e+18,0.03336594998836517,-0.017521772533655167,-11.309418678283691
1.7275263303314097e+18,0.07022460550069809,0.0046089524403214455,-11.438121795654297
1.7275263303374098e+18,-0.06152234226465225,-0.018161248415708542,-11.3694429397583
1.72752633034341e+18,0.08435487002134323,0.001151976059190929,-11.399323463439941
1.72752633034641e+18,-0.004367374815046787,0.03366892784833908,-11.428437232971191
1.72752633035241e+18,-0.0018053199164569378,-0.038545675575733185,-11.446415901184082
1.7275263303584102e+18,-0.01816043257713318,-0.03409488499164581,-11.454374313354492
1.7275263303644104e+18,0.006816295441240072,0.020724069327116013,-11.471243858337402
1.7275263303704105e+18,-0.028753798454999924,-0.03327697515487671,-11.4212646484375
1.7275263303764106e+18,-0.0027589770033955574,-0.05620177090167999,-11.468295097351074
1.7275263303824108e+18,-0.05917961150407791,-0.029113538563251495,-11.411015510559082
1.7275263303854108e+18,-0.0073149013333022594,0.06825954467058182,-11.289460182189941
1.727526330391411e+18,-0.02116963267326355,-0.044222645461559296,-11.3233060836792
1.727526330397411e+18,0.01008294615894556,-0.07780681550502777,-11.372756958007812
1.7275263304034112e+18,-0.0416480116546154,0.044323813170194626,-11.442371368408203
1.7275263304094113e+18,-0.023901890963315964,-0.05252602696418762,-11.410836219787598
1.7275263304124114e+18,0.015715083107352257,0.07059002667665482,-11.383798599243164
1.7275263304184115e+18,0.022355517372488976,0.005686918273568153,-11.438773155212402
1.7275263304244116e+18,-0.07301604002714157,-0.05837800353765488,-11.442792892456055
1.7275263304304118e+18,-0.0631757602095604,0.011826840229332447,-11.52892017364502
1.727526330436412e+18,0.048898473381996155,-0.035870783030986786,-11.474334716796875
1.727526330439412e+18,-0.05852280557155609,0.04099452123045921,-11.592313766479492
1.727526330445412e+18,-0.0028541921637952328,-0.04221322759985924,-11.602751731872559
1.7275263304514122e+18,-0.00785190798342228,-0.033625274896621704,-11.634491920471191
1.7275263304574124e+18,-0.043168291449546814,0.02767152152955532,-11.654478073120117
1.7275263304604124e+18,-0.024278003722429276,0.06813446432352066,-11.701930046081543
1.7275263304664125e+18,-0.011314230971038342,0.07827714085578918,-11.747869491577148
1.7275263304724127e+18,-0.05760468542575836,0.057635556906461716,-11.741790771484375
1.7275263304784128e+18,0.04291791468858719,0.08677499741315842,-11.744624137878418
1.727526330484413e+18,0.010181870311498642,1.8523554899729788e-05,-11.773747444152832
1.727526330487413e+18,-0.07583208382129669,-0.02576364204287529,-11.829471588134766
1.727526330493413e+18,0.0029961976688355207,0.04146585240960121,-11.784910202026367
1.7275263304994132e+18,0.014782911166548729,0.04085492342710495,-11.811395645141602
1.7275263305054134e+18,0.05566912144422531,0.002281890483573079,-11.715659141540527
1.7275263305114135e+18,0.02199689671397209,-0.036001089960336685,-11.749316215515137
1.7275263305174136e+18,-0.0022658160887658596,-0.028652558103203773,-11.70812702178955
1.7275263305234138e+18,0.021430782973766327,-0.04933040216565132,-11.698393821716309
1.727526330529414e+18,-0.09457981586456299,0.01863187551498413,-11.69664192199707
1.727526330532414e+18,0.02829943411052227,0.030386514961719513,-11.758277893066406
1.727526330538414e+18,-0.05406375601887703,0.03950204700231552,-11.693500518798828
1.7275263305444142e+18,-0.03719998896121979,0.05026630684733391,-11.709784507751465
1.7275263305504143e+18,-0.08447971940040588,0.040077049285173416,-11.747876167297363
1.7275263305564145e+18,-0.046400606632232666,0.02800917625427246,-11.642800331115723
1.7275263305624146e+18,0.08321241289377213,0.00457677710801363,-11.749969482421875
1.7275263305684147e+18,0.04325820878148079,0.0181462150067091,-11.676626205444336
1.7275263305714148e+18,-0.016749367117881775,0.05866456776857376,-11.783735275268555
1.727526330577415e+18,0.02867942862212658,0.027796894311904907,-11.68774127960205
1.727526330583415e+18,-0.008287575095891953,0.09516149014234543,-11.739659309387207
1.7275263305894152e+18,0.02352004311978817,-0.009325502440333366,-11.74038314819336
1.7275263305954153e+18,-0.0145916398614645,-0.007346907630562782,-11.6788911819458
1.7275263305984154e+18,0.006863791961222887,-0.010668382048606873,-11.665555953979492
1.7275263306044155e+18,-0.02617068774998188,0.0814119279384613,-11.781253814697266
1.7275263306104156e+18,0.0036646409425884485,0.024426069110631943,-11.713321685791016
1.7275263306164157e+18,0.004103567451238632,-0.039593640714883804,-11.826470375061035
1.7275263306194158e+18,0.02061450108885765,-0.011216103099286556,-11.693224906921387
1.727526330625416e+18,0.029929252341389656,0.025527527555823326,-11.708978652954102
1.727526330631416e+18,0.02624191716313362,0.06822186708450317,-11.644390106201172
1.7275263306374162e+18,-0.06605999171733856,0.03834901377558708,-11.64947509765625
1.7275263306434163e+18,-0.04160511493682861,0.0453321747481823,-11.713083267211914
1.7275263306464164e+18,-0.0357152558863163,-0.03235593065619469,-11.704893112182617
1.7275263306524165e+18,0.015168880112469196,0.06606253981590271,-11.705106735229492
1.7275263306584166e+18,0.03975062444806099,0.019672885537147522,-11.584418296813965
1.7275263306644168e+18,-0.010125311091542244,0.004936179146170616,-11.700681686401367
1.727526330670417e+18,0.02917470969259739,-0.011618034914135933,-11.67193603515625
1.727526330673417e+18,-0.10844027996063232,-0.016797365620732307,-11.726346015930176
1.727526330679417e+18,-0.05096603184938431,-0.04024125263094902,-11.619257926940918
1.7275263306854172e+18,0.018136262893676758,0.003792723873630166,-11.681626319885254
1.7275263306914173e+18,-0.02845938690006733,-0.023113012313842773,-11.601898193359375
1.7275263306974175e+18,0.05615486204624176,-0.0074038151651620865,-11.706209182739258
1.7275263307004175e+18,0.026877032592892647,0.012743661180138588,-11.660343170166016
1.7275263307064177e+18,0.03003336302936077,-0.028040273115038872,-11.678263664245605
1.7275263307124178e+18,0.02262241579592228,0.01941651850938797,-11.627534866333008
1.727526330718418e+18,0.002805630909278989,0.08057430386543274,-11.63225269317627
1.727526330721418e+18,-0.012464181520044804,-0.022763008251786232,-11.56306266784668
1.727526330727418e+18,0.0017647971399128437,-0.06946738064289093,-11.6068696975708
1.7275263307334182e+18,0.0028415655251592398,-0.013682814314961433,-11.703409194946289
1.7275263307394184e+18,-0.06244267523288727,0.014883682131767273,-11.618160247802734
1.7275263307454185e+18,-0.005350347608327866,-0.01147560402750969,-11.58980941772461
1.7275263307484186e+18,-0.113607257604599,-0.01328798197209835,-11.641889572143555
1.7275263307544187e+18,0.01955823041498661,0.01472437009215355,-11.497072219848633
1.7275263307604188e+18,-0.029902497306466103,-0.0026156639214605093,-11.689091682434082
1.727526330766419e+18,-0.08734020590782166,0.04645346850156784,-11.558624267578125
1.727526330772419e+18,-0.003529015462845564,-0.05640770494937897,-11.565079689025879
1.7275263307784192e+18,0.00827963836491108,0.013108382001519203,-11.632431030273438
1.7275263307814193e+18,0.016730908304452896,0.02740323357284069,-11.593143463134766
1.7275263307874194e+18,-0.016070151701569557,0.006966369692236185,-11.651612281799316
1.7275263307934195e+18,0.027496807277202606,0.07117410749197006,-11.617713928222656
1.7275263307994196e+18,-0.02828100137412548,0.02868187054991722,-11.64621639251709
1.7275263308024197e+18,0.011833783239126205,0.07480651140213013,-11.555133819580078
1.7275263308084198e+18,-0.0788244977593422,-0.016644110903143883,-11.557004928588867
1.72752633081442e+18,-0.09486787766218185,-0.029068544507026672,-11.544528007507324
1.72752633082042e+18,0.018795039504766464,0.06467918306589127,-11.646275520324707
1.7275263308264202e+18,0.050776612013578415,-0.007372375577688217,-11.61752700805664
1.7275263308294203e+18,0.05325690284371376,0.014541709795594215,-11.566802024841309
1.7275263308354204e+18,-0.07275709509849548,-0.08372955769300461,-11.551515579223633
1.7275263308414205e+18,0.0430944561958313,0.09543484449386597,-11.603338241577148
1.7275263308474207e+18,-0.06862351298332214,-0.016459940001368523,-11.553252220153809
1.7275263308534208e+18,0.030640071257948875,-0.01663235016167164,-11.604636192321777
1.7275263308564209e+18,0.004945253953337669,0.007298111449927092,-11.53023910522461
1.727526330862421e+18,0.009188993833959103,-0.03109867498278618,-11.563804626464844
1.727526330868421e+18,0.04171489551663399,0.0030998617876321077,-11.553658485412598
1.7275263308744212e+18,-0.0119978291913867,0.030767390504479408,-11.50894832611084
1.7275263308804214e+18,0.01601473055779934,-0.06712266802787781,-11.510736465454102
1.7275263308834214e+18,-0.04066189378499985,-0.012914510443806648,-11.482312202453613
1.7275263308894216e+18,0.0021512790117412806,-0.02029106393456459,-11.539962768554688
1.7275263308954217e+18,-0.02568349614739418,-0.0321858711540699,-11.546314239501953
1.7275263309014218e+18,0.0699085146188736,0.09723855555057526,-11.542612075805664
1.727526330907422e+18,0.009880520403385162,0.01423941645771265,-11.516157150268555
1.727526330913422e+18,0.05113688111305237,0.02275828644633293,-11.510562896728516
1.7275263309194222e+18,-0.022802654653787613,-0.05595985800027847,-11.514219284057617
1.7275263309254223e+18,0.037123266607522964,0.026852408424019814,-11.5162935256958
1.7275263309284224e+18,-0.02491334080696106,0.06990960240364075,-11.486505508422852
1.7275263309344225e+18,0.020025255158543587,-0.08171732723712921,-11.493081092834473
1.7275263309404227e+18,-0.023115865886211395,0.06416662782430649,-11.476903915405273
1.7275263309464228e+18,-0.012968450784683228,-0.01865609921514988,-11.463788032531738
1.727526330952423e+18,0.00763312354683876,-0.014154481701552868,-11.54508113861084
1.727526330955423e+18,0.04716729000210762,-0.06215086579322815,-11.470271110534668
1.727526330961423e+18,-0.01367114670574665,-0.044051527976989746,-11.419333457946777
1.7275263309674232e+18,-0.06449420005083084,0.00985732488334179,-11.538764953613281
1.7275263309734234e+18,-0.06314538419246674,0.12224219739437103,-11.454401016235352
1.7275263309794235e+18,0.04920688644051552,0.01717877760529518,-11.415131568908691
1.7275263309854236e+18,0.04206375777721405,-0.020363429561257362,-11.472427368164062
1.7275263309884237e+18,-0.043429285287857056,0.05344569683074951,-11.486104011535645
1.7275263309944238e+18,-0.003992884419858456,-0.06991906464099884,-11.436508178710938
1.727526331000424e+18,-0.051691193133592606,-0.050748102366924286,-11.478985786437988
1.727526331006424e+18,-0.018098078668117523,0.049214694648981094,-11.407527923583984
1.7275263310124242e+18,-0.07215586304664612,0.05067406967282295,-11.390380859375
1.7275263310184243e+18,-0.011511867865920067,0.05801573768258095,-11.451498031616211
1.7275263310244244e+18,-0.042357031255960464,0.005315551068633795,-11.404540061950684
1.7275263310304246e+18,-0.03738376125693321,-0.014988441951572895,-11.46054458618164
1.7275263310364247e+18,-0.006541172042489052,0.0003129399265162647,-11.423439979553223
1.7275263310424248e+18,-0.04413400590419769,-0.11335039138793945,-11.362200736999512
1.727526331045425e+18,0.11826594918966293,-0.03498080000281334,-11.35552978515625
1.727526331051425e+18,0.024727869778871536,0.014177588745951653,-11.4367094039917
1.7275263310574252e+18,0.015090418979525566,-0.023025188595056534,-11.403155326843262
1.7275263310634253e+18,0.08363820612430573,0.018028413876891136,-11.374982833862305
1.7275263310694254e+18,0.07847917824983597,0.01973802037537098,-11.39789867401123
1.7275263310754255e+18,-0.038904547691345215,0.06723415106534958,-11.45274829864502
1.7275263310784256e+18,0.05284612625837326,0.0015098563162609935,-11.392367362976074
1.7275263310844257e+18,-0.032915543764829636,0.09268246591091156,-11.436874389648438
1.7275263310904259e+18,-0.022963395342230797,0.012026074342429638,-11.375166893005371
1.727526331096426e+18,-0.045577291399240494,0.019887084141373634,-11.438997268676758
1.727526331102426e+18,-0.0207986980676651,-0.05271421745419502,-11.405271530151367
1.7275263311084262e+18,-0.028276581317186356,-0.008302049711346626,-11.351655006408691
1.7275263311144264e+18,-0.060684043914079666,0.048032503575086594,-11.392284393310547
1.7275263311204265e+18,-0.02975427359342575,-0.049497198313474655,-11.380949020385742
1.7275263311234266e+18,0.029611844569444656,0.06606736779212952,-11.351083755493164
1.7275263311294267e+18,0.023599639534950256,0.016187435016036034,-11.398303031921387
1.7275263311354268e+18,0.06702157109975815,0.03502258285880089,-11.34581470489502
1.727526331141427e+18,-0.016535436734557152,0.019089732319116592,-11.373754501342773
1.727526331147427e+18,0.02094181440770626,-0.013980371877551079,-11.317362785339355
1.7275263311534272e+18,0.03040522336959839,0.03808613121509552,-11.330449104309082
1.7275263311564273e+18,-0.00014712565462104976,-0.018842825666069984,-11.397130966186523
1.7275263311624274e+18,-0.0002580930886324495,0.030995206907391548,-11.322333335876465
1.7275263311684275e+18,-0.01484203152358532,0.05476232245564461,-11.260987281799316
1.7275263311744276e+18,-0.06298409402370453,0.09039390832185745,-11.334558486938477
1.7275263311804278e+18,0.01859307661652565,-0.057422492653131485,-11.359926223754883
1.727526331186428e+18,0.032520778477191925,-0.04059586673974991,-11.311419486999512
1.727526331192428e+18,0.0030251052230596542,-0.01968243345618248,-11.365687370300293
1.7275263311984282e+18,0.02240334264934063,0.0013694687513634562,-11.315607070922852
1.7275263312014282e+18,-0.05278138443827629,0.0017160539282485843,-11.335824966430664
1.7275263312074284e+18,-0.051544152200222015,-0.029333272948861122,-11.334147453308105
1.7275263312134285e+18,-0.01444157026708126,-0.05597245320677757,-11.376742362976074
1.7275263312194286e+18,0.017203303053975105,0.0021738698706030846,-11.254705429077148
1.7275263312254287e+18,5.5071279348339885e-05,-0.014043048024177551,-11.277240753173828
1.7275263312314289e+18,-0.003903657663613558,-0.0903099998831749,-11.27892780303955
1.727526331234429e+18,0.03920008987188339,-0.034514494240283966,-11.30094051361084
1.727526331240429e+18,0.03229542821645737,-0.07707920670509338,-11.308469772338867
1.7275263312464292e+18,0.02671481855213642,0.03885126858949661,-11.26762580871582
1.7275263312524293e+18,-0.006135676987469196,-0.04171648249030113,-11.294424057006836
1.7275263312584294e+18,-0.09908737987279892,0.02637304551899433,-11.290746688842773
1.7275263312614295e+18,0.13434180617332458,0.04512777552008629,-11.269553184509277
1.7275263312674296e+18,0.014076583087444305,0.03873489052057266,-11.222935676574707
1.7275263312734298e+18,-0.06370804458856583,0.022917170077562332,-11.269495010375977
1.72752633127943e+18,0.01019060518592596,0.01254328154027462,-11.339442253112793
1.72752633128543e+18,0.0005431079771369696,-0.03594474121928215,-11.315482139587402
1.72752633128843e+18,0.029833970591425896,0.05150052160024643,-11.222585678100586
1.7275263312944302e+18,0.07440313696861267,0.02997880056500435,-11.226954460144043
1.7275263313004303e+18,-0.07248303294181824,-0.02501089498400688,-11.259821891784668
1.7275263313064305e+18,0.041376106441020966,0.003806013148277998,-11.241833686828613
1.7275263313124306e+18,0.04708801954984665,0.02863667532801628,-11.233190536499023
1.7275263313154307e+18,0.017429949715733528,0.05265451967716217,-11.231081008911133
1.7275263313214308e+18,-0.09617362916469574,-0.06278101354837418,-11.319443702697754
1.727526331327431e+18,0.05968259274959564,-0.027127953246235847,-11.215357780456543
1.727526331333431e+18,-0.005660681985318661,-0.06133148819208145,-11.251776695251465
1.7275263313394312e+18,0.039992932230234146,0.05765731260180473,-11.255126953125
1.7275263313424312e+18,0.03959886357188225,0.0032950248569250107,-11.211856842041016
1.7275263313484314e+18,0.004326954483985901,-0.014963822439312935,-11.166614532470703
1.7275263313544315e+18,-0.018184006214141846,0.0663093626499176,-11.176468849182129
1.7275263313604316e+18,0.0030080226715654135,0.04994907230138779,-11.260672569274902
1.7275263313664317e+18,0.0026626945473253727,0.0796971321105957,-11.212960243225098
1.727526331372432e+18,-0.08719205111265182,-0.019708868116140366,-11.179244041442871
1.727526331378432e+18,-0.0863722637295723,0.009962939657270908,-11.223748207092285
1.727526331384432e+18,0.021436337381601334,-0.03653838485479355,-11.132542610168457
1.7275263313874322e+18,-0.02562701143324375,-0.01140313409268856,-11.23448371887207
1.7275263313934323e+18,0.00893483031541109,-0.02170148678123951,-11.175614356994629
1.7275263313994324e+18,-0.05257141962647438,0.02511490322649479,-11.161822319030762
1.7275263314054326e+18,-0.019301490858197212,-0.03507981076836586,-11.133511543273926
1.7275263314114327e+18,0.019514432176947594,0.08244554698467255,-11.16457462310791
1.7275263314144328e+18,0.0015578705351799726,-0.008057611994445324,-11.18657398223877
1.727526331420433e+18,0.10088840872049332,-0.055174872279167175,-11.08608341217041
1.727526331426433e+18,0.047995056957006454,0.015787344425916672,-11.174307823181152
1.7275263314324332e+18,-0.06524068117141724,-0.06532720476388931,-11.189339637756348
1.7275263314384333e+18,0.04272400215268135,-0.029176022857427597,-11.190688133239746
1.7275263314414333e+18,0.059797145426273346,-0.004543095361441374,-11.074485778808594
1.7275263314474335e+18,0.07695449888706207,0.04046923667192459,-11.133063316345215
1.7275263314534336e+18,0.04232187196612358,-0.031180493533611298,-11.074995994567871
1.7275263314594337e+18,0.002702713944017887,-0.11299468576908112,-11.161031723022461
1.7275263314654339e+18,0.018687043339014053,-0.01610497012734413,-11.09961223602295
1.727526331471434e+18,0.047515999525785446,-0.03323585167527199,-11.070548057556152
1.727526331474434e+18,-0.01602856069803238,-0.029461035504937172,-11.11569881439209
1.7275263314804342e+18,0.04245143383741379,-0.04737343639135361,-11.079161643981934
1.7275263314864343e+18,0.0361052080988884,0.008147059939801693,-11.12942123413086
1.7275263314924344e+18,0.008999495767056942,0.01437945943325758,-10.936038970947266
1.7275263314984346e+18,-0.019095847383141518,0.02424878627061844,-10.8800048828125
1.7275263315014346e+18,0.028052199631929398,-0.035180479288101196,-10.844045639038086
1.7275263315074348e+18,-0.06140245869755745,0.08673924207687378,-10.822707176208496
1.727526331513435e+18,-0.02475399523973465,0.04089175537228584,-10.683927536010742
1.727526331519435e+18,0.009621149860322475,-0.013042710721492767,-10.601189613342285
1.7275263315254351e+18,0.07850782573223114,-0.023753611370921135,-10.584061622619629
1.7275263315284352e+18,-0.059459272772073746,0.07334565371274948,-10.622841835021973
1.7275263315344353e+18,-0.02737296186387539,0.02633272483944893,-10.605834007263184
1.7275263315404355e+18,0.028471820056438446,0.05292914807796478,-10.562810897827148
1.7275263315464356e+18,-0.0013679389376193285,0.012953570112586021,-10.474451065063477
1.7275263315524357e+18,0.029178204014897346,0.0012486489722505212,-10.42894458770752
1.7275263315584358e+18,0.03686435893177986,-0.07649585604667664,-10.488807678222656
1.727526331561436e+18,0.017537621781229973,0.03959221392869949,-10.536423683166504
1.727526331567436e+18,-0.004842953756451607,-0.008030827157199383,-10.458452224731445
1.7275263315734362e+18,-0.039213668555021286,-0.05444077402353287,-10.4221773147583
1.7275263315794363e+18,0.047084856778383255,-0.0269550122320652,-10.43176555633545
1.7275263315854364e+18,0.0253425482660532,0.05873296037316322,-10.536629676818848
1.7275263315914365e+18,0.029331117868423462,0.04902846738696098,-10.37230110168457
1.7275263315974367e+18,-0.0068938336335122585,0.05401450768113136,-10.37392520904541
1.7275263316034368e+18,-0.01172365341335535,0.024278681725263596,-10.384309768676758
1.727526331609437e+18,-0.015423566102981567,-0.06140245869755745,-10.405025482177734
1.727526331615437e+18,-0.0834866315126419,-0.026762746274471283,-10.42398452758789
1.7275263316214372e+18,-0.05753790959715843,0.03137369453907013,-10.426786422729492
1.7275263316274373e+18,0.01375079620629549,-0.014538820832967758,-10.47724723815918
1.7275263316334374e+18,0.005663469899445772,0.06945130228996277,-10.421148300170898
1.7275263316394376e+18,0.009368359111249447,0.017155274748802185,-10.38044261932373
1.7275263316424376e+18,0.02595571056008339,-0.026877786964178085,-10.37044620513916
1.7275263316514378e+18,0.03848212957382202,0.002624144544824958,-10.390965461730957
1.727526331657438e+18,0.007336552254855633,0.0071723503060638905,-10.264867782592773
1.727526331663438e+18,0.03904031589627266,0.020545177161693573,-10.454886436462402
1.7275263316694382e+18,-0.009560059756040573,-0.008256603963673115,-10.432286262512207
1.7275263316754383e+18,0.031774040311574936,0.01690289005637169,-10.411636352539062
1.7275263316784384e+18,0.04005645588040352,0.003422702429816127,-10.387170791625977
1.7275263316844385e+18,0.04879497364163399,0.015685752034187317,-10.42163372039795
1.7275263316904387e+18,0.0075584775768220425,0.01842520758509636,-10.402999877929688
1.7275263316964388e+18,0.0023016445338726044,-0.06776133179664612,-10.399080276489258
1.727526331702439e+18,0.04267698898911476,-0.062154632061719894,-10.313051223754883
1.727526331708439e+18,0.01548477541655302,-0.015529559925198555,-10.402214050292969
1.7275263317144392e+18,0.009825860150158405,0.01565084233880043,-10.353018760681152
1.7275263317204393e+18,-0.012950395233929157,-0.028562050312757492,-10.403120040893555
1.7275263317264394e+18,0.019131982699036598,-0.07211185246706009,-10.379388809204102
1.7275263317324396e+18,-0.09316669404506683,0.039023932069540024,-10.398794174194336
1.7275263317384397e+18,0.009106278419494629,-0.030098943039774895,-10.314560890197754
1.7275263317444398e+18,0.026756538078188896,-0.0965307354927063,-10.453903198242188
1.72752633175044e+18,-0.017871100455522537,-0.008469026535749435,-10.417531967163086
1.72752633175644e+18,-0.023013245314359665,0.0139705128967762,-10.374334335327148
1.7275263317594401e+18,0.05908942595124245,-0.05359934642910957,-10.318815231323242
1.7275263317654403e+18,-0.004986960906535387,0.04425060376524925,-10.381083488464355
1.7275263317714404e+18,-0.054376933723688126,0.042609408497810364,-10.404054641723633
1.7275263317774405e+18,-0.08195888251066208,0.03602614626288414,-10.348129272460938
1.7275263317834406e+18,0.04993733763694763,-0.02910119667649269,-10.372583389282227
1.7275263317894408e+18,-0.0303330235183239,-0.007891365326941013,-10.390327453613281
1.727526331795441e+18,0.004254189785569906,-0.031970370560884476,-10.406920433044434
1.727526331801441e+18,-0.04570924490690231,-0.0650576576590538,-10.303146362304688
1.7275263318074412e+18,-0.00661381846293807,-0.024710018187761307,-10.355470657348633
1.7275263318134413e+18,-0.04414999485015869,-0.07127360254526138,-10.272340774536133
1.7275263318194414e+18,-0.07027557492256165,0.016676273196935654,-10.379006385803223
1.7275263318254415e+18,-0.003243113635107875,0.020707905292510986,-10.319123268127441
1.7275263318314417e+18,0.024434415623545647,-0.002967716194689274,-10.30811595916748
1.7275263318374418e+18,-0.03929005190730095,0.0240673515945673,-10.31680965423584
1.7275263318404419e+18,0.06097075343132019,-0.026582175865769386,-10.324006080627441
1.727526331846442e+18,-0.0076482947915792465,0.0023430539295077324,-10.415526390075684
1.727526331852442e+18,-0.06806502491235733,0.02618585154414177,-10.359034538269043
1.7275263318584422e+18,-0.01935185119509697,0.002856872044503689,-10.316292762756348
1.7275263318644424e+18,-0.05801549181342125,-0.013645247556269169,-10.306207656860352
1.7275263318704425e+18,0.054269708693027496,0.03664848953485489,-10.340958595275879
1.7275263318764426e+18,0.06306755542755127,0.06624254584312439,-10.391554832458496
1.7275263318824428e+18,-0.04490732401609421,-0.005952303763478994,-10.405149459838867
1.7275263318854428e+18,0.0011743266368284822,-0.05948096886277199,-10.31790542602539
1.727526331891443e+18,0.005024898797273636,-0.017673511058092117,-10.347622871398926
1.727526331897443e+18,-0.06558948755264282,0.07494872808456421,-10.312422752380371
1.7275263319034432e+18,-0.08083590865135193,0.007628422696143389,-10.276983261108398
1.7275263319094433e+18,-0.07974133640527725,-0.051599886268377304,-10.319968223571777
1.7275263319154435e+18,-0.0021854040678590536,0.012724488042294979,-10.309273719787598
1.7275263319214436e+18,-0.058646898716688156,0.002474374370649457,-10.357264518737793
1.7275263319244436e+18,0.006592181045562029,-0.0524529404938221,-10.307204246520996
1.7275263319304438e+18,0.030505454167723656,0.02644769847393036,-10.426953315734863
1.727526331936444e+18,0.037707194685935974,-0.016554348170757294,-10.331416130065918
1.727526331942444e+18,0.03378887102007866,0.020090050995349884,-10.264959335327148
1.7275263319484442e+18,-0.008661444298923016,-0.0458994023501873,-10.355795860290527
1.7275263319514442e+18,0.06256115436553955,0.00920945592224598,-10.265975952148438
1.7275263319574444e+18,-0.02714383229613304,0.0967998281121254,-10.30205249786377
1.7275263319634445e+18,0.040569648146629333,-0.07587768137454987,-10.381795883178711
1.7275263319724447e+18,-0.008025700226426125,0.056425247341394424,-10.260225296020508
1.7275263319754447e+18,-0.05451023578643799,-0.018939055502414703,-10.361681938171387
1.7275263319814449e+18,0.0024780177045613527,-0.06567379832267761,-10.2046480178833
1.727526331987445e+18,-0.05008853226900101,-0.002331314142793417,-10.288594245910645
1.727526331993445e+18,0.03809844329953194,0.01696053333580494,-10.205439567565918
1.7275263319994452e+18,-0.04377780482172966,-0.04157464578747749,-10.236870765686035
1.7275263320024453e+18,-0.01711740531027317,0.004949252586811781,-10.249281883239746
1.7275263320084454e+18,-0.000951977854128927,0.016596350818872452,-10.265795707702637
1.7275263320144456e+18,-0.0624210461974144,0.06186157464981079,-10.299905776977539
1.7275263320204457e+18,-0.032555513083934784,0.07090583443641663,-10.224020004272461
1.7275263320234458e+18,0.05960359424352646,-0.04353523254394531,-10.261608123779297
1.727526332032446e+18,-0.01914122886955738,0.032283980399370193,-10.265706062316895
1.727526332035446e+18,0.025290926918387413,-0.038467105478048325,-10.233315467834473
1.7275263320414461e+18,-0.03033766895532608,-0.009249772876501083,-10.256243705749512
1.7275263320474463e+18,0.035711392760276794,0.034920237958431244,-10.257861137390137
1.7275263320534464e+18,-0.019936678931117058,0.05267006531357765,-10.290520668029785
1.7275263320594465e+18,-0.015791194513440132,0.024452392011880875,-10.320680618286133
1.7275263320654467e+18,-0.04187963157892227,0.014677631668746471,-10.248936653137207
1.7275263320684467e+18,-0.03621934726834297,-0.01674720272421837,-10.29223918914795
1.7275263320744468e+18,-0.037488941103219986,0.034282222390174866,-10.24361801147461
1.727526332080447e+18,-0.060471516102552414,-0.00017381020006723702,-10.271875381469727
1.727526332086447e+18,-0.008729485794901848,-0.05317939817905426,-10.182761192321777
1.7275263320924472e+18,0.00038970960304141045,0.026873460039496422,-10.291131973266602
1.7275263320984474e+18,-0.026798518374562263,0.013614248484373093,-10.206182479858398
1.7275263321014474e+18,-0.0570085309445858,0.03418538719415665,-10.180845260620117
1.7275263321074476e+18,0.021961528807878494,0.09071864187717438,-10.287861824035645
1.7275263321134477e+18,-0.09486088901758194,-0.0821198970079422,-10.178080558776855
1.7275263321194478e+18,0.004640554077923298,0.011151041835546494,-10.143065452575684
1.727526332125448e+18,-0.018779419362545013,0.018813632428646088,-10.234537124633789
1.727526332128448e+18,-0.01812208816409111,0.0027299451176077127,-10.24238109588623
1.727526332134448e+18,-0.02012484520673752,0.014531574212014675,-10.233040809631348
1.7275263321404483e+18,-0.0299677811563015,0.006944992113858461,-10.22620964050293
1.7275263321464484e+18,0.023773349821567535,0.021509511396288872,-10.243030548095703
1.7275263321494484e+18,0.06886612623929977,-0.05614256113767624,-10.225998878479004
1.7275263321554486e+18,-0.001939509529620409,-0.04033595323562622,-10.199885368347168
1.7275263321614487e+18,0.056309014558792114,-0.002989266999065876,-10.222582817077637
1.7275263321674488e+18,0.012828223407268524,-0.083106130361557,-10.181192398071289
1.727526332173449e+18,0.02969309315085411,0.02780137024819851,-10.251229286193848
1.727526332179449e+18,0.061504680663347244,-0.013334449380636215,-10.260472297668457
1.7275263321824492e+18,0.01920626312494278,0.03940287604928017,-10.321858406066895
1.7275263321884493e+18,0.042496662586927414,-0.09477001428604126,-10.210323333740234
1.7275263321944494e+18,-0.03049965389072895,0.10278975963592529,-10.243062019348145
1.7275263322004495e+18,0.006729610729962587,0.02750210464000702,-10.209768295288086
1.7275263322064497e+18,0.012131433933973312,-0.006868232972919941,-10.188712120056152
1.7275263322094497e+18,0.08369627594947815,0.00021442639990709722,-10.231498718261719
1.7275263322154499e+18,-0.008146416395902634,-0.012032438069581985,-10.282224655151367
1.72752633222145e+18,-0.0537152998149395,-0.06048370152711868,-10.206307411193848
1.72752633222745e+18,-0.05202627182006836,0.019568810239434242,-10.2410888671875
1.7275263322334502e+18,-0.00010469043627381325,-0.009425807744264603,-10.20450210571289
1.7275263322364503e+18,-0.07608846575021744,0.03714540973305702,-10.163597106933594
1.7275263322424504e+18,-0.011084390804171562,0.03923456370830536,-10.268898963928223
1.7275263322484506e+18,-0.06859992444515228,0.05164110288023949,-10.238598823547363
1.7275263322544507e+18,0.03916098177433014,-0.0040245079435408115,-10.25784683227539
1.7275263322604508e+18,0.0202935803681612,0.0020025670528411865,-10.156591415405273
1.727526332263451e+18,0.06061214953660965,0.005211392417550087,-10.103936195373535
1.727526332269451e+18,-0.052703943103551865,0.014263410121202469,-10.100555419921875
1.7275263322754511e+18,-0.08960960805416107,-0.009376820176839828,-10.153983116149902
1.7275263322814513e+18,0.07880427688360214,0.032827384769916534,-10.264957427978516
1.7275263322874514e+18,0.009409449063241482,-0.08715984225273132,-10.243266105651855
1.7275263322934515e+18,0.0753549262881279,0.10082951933145523,-10.263187408447266
1.7275263322964516e+18,-0.059769559651613235,0.0172707661986351,-10.239360809326172
1.7275263323024517e+18,0.030095215886831284,0.06043028458952904,-10.222548484802246
1.7275263323084518e+18,0.0640086680650711,0.03331688791513443,-10.190903663635254
1.727526332314452e+18,0.10635634511709213,-0.05997205153107643,-10.179884910583496
1.727526332320452e+18,0.009540407918393612,-0.010747838765382767,-10.227415084838867
1.7275263323234522e+18,-0.05580023676156998,-0.0292438343167305,-10.175410270690918
1.7275263323294523e+18,-0.02527129463851452,-0.016151493415236473,-10.185783386230469
1.7275263323354524e+18,-0.039521344006061554,-0.03314424678683281,-10.179197311401367
1.7275263323414525e+18,-0.015050149522721767,0.030110511928796768,-10.169296264648438
1.7275263323474527e+18,0.06766174733638763,-0.04993318021297455,-10.223772048950195
1.7275263323534528e+18,-0.003680531168356538,0.07101831585168839,-10.128039360046387
1.7275263323564529e+18,0.016998810693621635,-0.02181849256157875,-10.168360710144043
1.727526332362453e+18,0.07182689756155014,-0.021945135667920113,-10.15113353729248
1.727526332368453e+18,-0.01719582825899124,0.00679459422826767,-10.124822616577148
1.7275263323744532e+18,-0.01848496124148369,0.06152622029185295,-10.099794387817383
1.7275263323804534e+18,-0.023937759920954704,0.06048109754920006,-10.163599014282227
1.7275263323864535e+18,-0.02200118824839592,-0.05352581664919853,-10.106412887573242
1.7275263323894536e+18,0.011603200808167458,-0.010556099936366081,-10.187650680541992
1.7275263323954537e+18,-0.01532813161611557,0.03849608823657036,-10.106178283691406
1.7275263324014538e+18,0.045472223311662674,-0.09551788121461868,-10.224824905395508
1.727526332407454e+18,0.03156980872154236,-0.055187664926052094,-10.15453815460205
1.727526332410454e+18,0.03739919513463974,-0.04022438824176788,-10.19018268585205
1.7275263324164541e+18,0.06929755955934525,-0.013294955715537071,-10.080304145812988
1.7275263324224543e+18,-0.009823767468333244,0.04934339597821236,-10.128813743591309
1.7275263324284544e+18,0.028664451092481613,0.011046991683542728,-10.141305923461914
1.7275263324314545e+18,0.04560055211186409,-0.06156468018889427,-10.129915237426758
1.7275263324374546e+18,0.010615009814500809,0.007964571937918663,-10.229175567626953
1.7275263324434547e+18,0.09392303228378296,-0.021792730316519737,-10.170692443847656
1.7275263324494548e+18,-0.044591836631298065,0.027070799842476845,-10.13775634765625
1.727526332455455e+18,-0.037852250039577484,-0.0038606757298111916,-10.149547576904297
1.727526332458455e+18,0.02832094579935074,-0.04000958427786827,-10.148433685302734
1.7275263324644552e+18,0.02642897143959999,0.04150785505771637,-10.123805046081543
1.7275263324704553e+18,0.05212542787194252,0.05726242437958717,-10.148188591003418
1.7275263324764554e+18,0.0066235847771167755,0.018630817532539368,-10.24499797821045
1.7275263324824556e+18,0.005562185775488615,0.017447184771299362,-10.14694881439209
1.7275263324854556e+18,-0.006714090704917908,0.0149539764970541,-10.100823402404785
1.7275263324914557e+18,0.05883599817752838,-0.028589092195034027,-10.180980682373047
1.7275263324974559e+18,-0.03856988996267319,-0.02687002345919609,-10.17410945892334
1.727526332503456e+18,0.04034369811415672,-0.032033681869506836,-10.079581260681152
1.7275263325094561e+18,0.07641228288412094,0.01556336134672165,-10.077367782592773
1.7275263325154563e+18,-0.02252849191427231,0.03888106718659401,-10.159436225891113
1.7275263325214564e+18,0.09042449295520782,0.05325479805469513,-10.030242919921875
1.7275263325244564e+18,0.06614479422569275,0.005514092743396759,-10.183609008789062
1.7275263325304566e+18,-0.04777064919471741,0.08341281116008759,-10.101895332336426
1.7275263325364567e+18,-0.05303773283958435,0.08817144483327866,-10.1232328414917
1.7275263325424568e+18,-0.04313293844461441,-0.0053293053060770035,-10.169878959655762
1.727526332548457e+18,0.016300903633236885,0.02655026502907276,-10.117253303527832
1.727526332554457e+18,0.06490126252174377,0.0037563617806881666,-10.16064739227295
1.7275263325604572e+18,0.031738243997097015,-0.0038796085864305496,-10.0966796875
1.7275263325634573e+18,0.02816985733807087,0.0042905500158667564,-10.128317832946777
1.7275263325694574e+18,0.0006624520756304264,-0.0044728536158800125,-10.152219772338867
1.7275263325754575e+18,0.0014019515365362167,-0.006849705707281828,-10.180864334106445
1.7275263325814577e+18,0.09424678981304169,0.028608568012714386,-10.135394096374512
1.7275263325844577e+18,0.07167449593544006,0.017149819061160088,-10.155614852905273
1.7275263325904579e+18,0.09658008068799973,0.042558252811431885,-10.090021133422852
1.727526332596458e+18,-0.02029951848089695,0.009005331434309483,-10.112680435180664
1.727526332602458e+18,0.023595741018652916,-0.015775328502058983,-10.06050968170166
1.7275263326084582e+18,-0.008749963715672493,0.06427709013223648,-10.08725643157959
1.7275263326114583e+18,-0.037728264927864075,0.010389246977865696,-10.024248123168945
1.7275263326174584e+18,-0.012728573754429817,0.022507891058921814,-10.061917304992676
1.7275263326234586e+18,0.007327613420784473,0.011772307567298412,-10.156676292419434
1.7275263326294587e+18,0.010904829949140549,0.00831491220742464,-10.135367393493652
1.7275263326354588e+18,-0.025653760880231857,-0.006434631999582052,-10.126111030578613
1.727526332638459e+18,0.007515172474086285,-0.005995122250169516,-10.080540657043457
1.727526332644459e+18,-0.009102067910134792,0.08509141951799393,-9.990534782409668
1.7275263326504591e+18,0.0540824756026268,0.05756227299571037,-10.074427604675293
1.7275263326564593e+18,-0.029754022136330605,0.0018568108789622784,-10.123494148254395
1.7275263326624594e+18,-0.05546487495303154,0.05506220832467079,-9.98651123046875
1.7275263326654595e+18,0.02092607319355011,0.13165855407714844,-10.120046615600586
1.7275263326714596e+18,0.028086496517062187,0.009927808307111263,-10.080338478088379
1.7275263326774597e+18,0.0936293676495552,0.0977812111377716,-10.135931968688965
1.7275263326834598e+18,-0.04791247099637985,0.0763474628329277,-10.09591293334961
1.72752633268946e+18,-0.0026179987471550703,0.004084429703652859,-10.059954643249512
1.72752633269546e+18,0.0423753559589386,-0.04944492504000664,-10.114917755126953
1.7275263326984602e+18,-0.021845107898116112,-0.01241934671998024,-10.143355369567871
1.7275263327044603e+18,-0.006001140456646681,0.03312774375081062,-10.126897811889648
1.7275263327104604e+18,0.021507056429982185,0.02349262498319149,-10.057908058166504
1.7275263327164605e+18,0.020444339141249657,-0.019332749769091606,-10.100512504577637
1.7275263327224607e+18,0.0335228405892849,-0.0063141025602817535,-10.112950325012207
1.7275263327284608e+18,-0.009479235857725143,-0.007092310115695,-10.074334144592285
1.7275263327314609e+18,-0.11964207142591476,0.08040574938058853,-10.068367958068848
1.727526332737461e+18,0.0684191882610321,-0.050336457788944244,-10.041484832763672
1.727526332743461e+18,0.08293717354536057,0.07241623103618622,-10.111577987670898
1.7275263327464612e+18,-0.04699727147817612,-0.03529653698205948,-10.094285011291504
1.7275263327524613e+18,0.06828413903713226,0.04783334583044052,-10.038606643676758
1.7275263327584614e+18,0.008063205517828465,0.06035638228058815,-10.126829147338867
1.7275263327644616e+18,-0.02976207435131073,-0.04889446124434471,-10.067513465881348
1.7275263327704617e+18,-0.039780858904123306,-0.034574031829833984,-10.023990631103516
1.7275263327734618e+18,0.048899877816438675,-0.07136102765798569,-10.09176254272461
1.727526332779462e+18,-0.014903652481734753,0.05410917475819588,-10.094671249389648
1.727526332785462e+18,0.002142149256542325,0.011574123986065388,-10.094024658203125
1.7275263327914621e+18,-0.0009291456663049757,-0.04661344364285469,-10.020236015319824
1.7275263327974623e+18,-0.026202019304037094,-0.0004598595842253417,-10.031102180480957
1.7275263328034624e+18,-0.05490666627883911,0.04093794524669647,-9.957571029663086
1.7275263328064625e+18,0.014443634077906609,-0.06257477402687073,-10.063250541687012
1.7275263328124626e+18,-0.04861089587211609,-0.03120424784719944,-10.066874504089355
1.7275263328184627e+18,0.027944549918174744,-0.040537141263484955,-10.06065845489502
1.7275263328244628e+18,-0.036894675344228745,0.07210434228181839,-10.061695098876953
1.727526332830463e+18,-0.030650978907942772,-0.005612379405647516,-10.08674430847168
1.727526332833463e+18,-0.0003592298598960042,0.02329803630709648,-10.063701629638672
1.7275263328394632e+18,0.036625031381845474,-0.05796441808342934,-10.02514934539795
1.7275263328454633e+18,0.046173565089702606,0.0056180995889008045,-10.042060852050781
1.7275263328514634e+18,0.04170467332005501,0.04231831058859825,-10.104170799255371
1.7275263328574636e+18,-0.0364467054605484,-0.004913227166980505,-10.01530647277832
1.7275263328604636e+18,-0.06807921081781387,0.026746176183223724,-10.087129592895508
1.7275263328664637e+18,0.0361844040453434,-0.061358384788036346,-10.10647964477539
1.727526332872464e+18,-0.026769142597913742,0.05694151669740677,-10.13050651550293
1.727526332878464e+18,-0.06263946741819382,-0.02245532162487507,-10.071393013000488
1.727526332884464e+18,0.0152213666588068,-0.006508864462375641,-10.0411958694458
1.7275263328904643e+18,0.008451885543763638,-0.007928130216896534,-10.007244110107422
1.7275263328964644e+18,0.009182614274322987,-0.05475488677620888,-10.09998893737793
1.7275263328994644e+18,0.047292016446590424,0.03280841186642647,-10.07550048828125
1.7275263329054646e+18,-0.020420555025339127,-0.0005113073857501149,-10.035235404968262
1.7275263329114647e+18,0.02865000069141388,0.0430854856967926,-10.075946807861328
1.7275263329174648e+18,-0.029066527262330055,-0.007303507067263126,-10.013533592224121
1.727526332923465e+18,-0.09352142363786697,-0.035467006266117096,-10.056654930114746
1.727526332929465e+18,-0.017877621576189995,-0.025827044621109962,-10.101524353027344
1.7275263329354652e+18,0.028049824759364128,0.04534636065363884,-10.045703887939453
1.7275263329414653e+18,0.012803353369235992,-0.04814082384109497,-10.03189468383789
1.7275263329474655e+18,-0.009684381075203419,-0.032004620879888535,-10.04952621459961
1.7275263329534656e+18,0.023685455322265625,0.06736888736486435,-10.001702308654785
1.7275263329594657e+18,-0.03949447721242905,0.04827585816383362,-9.957633972167969
1.7275263329624658e+18,-0.004548026714473963,-0.0026012142188847065,-10.048768043518066
1.727526332968466e+18,0.001630626618862152,-0.045216839760541916,-10.065315246582031
1.727526332974466e+18,0.010563652962446213,0.02748984470963478,-9.965352058410645
1.7275263329804662e+18,0.04680273309350014,-0.01714298315346241,-9.998878479003906
1.7275263329864663e+18,0.031209804117679596,0.04016907885670662,-10.044515609741211
1.7275263329924664e+18,0.028391854837536812,0.030469514429569244,-10.003673553466797
1.7275263329954665e+18,-0.03689390793442726,-0.020275767892599106,-10.00944709777832
1.7275263330014666e+18,0.018079154193401337,-0.06077403575181961,-10.000870704650879
1.7275263330074668e+18,-0.04914737492799759,0.008242303505539894,-9.953686714172363
1.727526333013467e+18,-0.05035771057009697,-0.02328762225806713,-9.960289001464844
1.727526333019467e+18,-0.016480451449751854,0.03201302886009216,-10.017462730407715
1.7275263330254671e+18,-0.07665052264928818,0.07074382156133652,-10.050848960876465
1.7275263330284672e+18,0.08694327622652054,-0.012375615537166595,-10.022775650024414
1.7275263330344673e+18,-0.041171979159116745,-0.023939302191138268,-10.030172348022461
1.7275263330404675e+18,-0.040052078664302826,-0.03990333154797554,-10.010710716247559
1.7275263330464676e+18,0.043027058243751526,0.03319752216339111,-10.02147388458252
1.7275263330524677e+18,0.018263399600982666,-0.014407346025109291,-9.939492225646973
1.7275263330584678e+18,0.06835685670375824,-0.02834065444767475,-9.981376647949219
1.727526333064468e+18,-0.011819840408861637,0.050281621515750885,-9.949580192565918
1.727526333070468e+18,-0.11147765070199966,-0.038285110145807266,-9.99789810180664
1.7275263330734682e+18,0.015523483976721764,0.01398754958063364,-9.975326538085938
1.7275263330794683e+18,0.0279240682721138,-0.09281995892524719,-9.988308906555176
1.7275263330854684e+18,0.06629118323326111,0.0068887765519320965,-10.017945289611816
1.7275263330914685e+18,-0.007907574996352196,-0.0022970326244831085,-9.945257186889648
1.7275263330974687e+18,-0.047259315848350525,0.04732849821448326,-10.007463455200195
1.7275263331034688e+18,0.02664073370397091,0.046006422489881516,-9.912293434143066
1.7275263331064689e+18,-0.0178904440253973,-0.0002930115151684731,-9.922091484069824
1.727526333112469e+18,-0.03942346200346947,-0.04955030232667923,-10.001472473144531
1.727526333118469e+18,-0.0057757142931222916,0.07722201198339462,-9.933853149414062
1.7275263331244692e+18,0.13622966408729553,-0.010085716843605042,-10.051970481872559
1.7275263331304694e+18,0.11008736491203308,0.07133711129426956,-9.951510429382324
1.7275263331364695e+18,0.15381257236003876,-0.010897762142121792,-9.986841201782227
1.7275263331424696e+18,-0.009471695870161057,0.013344066217541695,-10.013178825378418
1.7275263331454697e+18,0.016286451369524002,-0.01054790336638689,-10.018816947937012
1.7275263331514698e+18,0.026393748819828033,0.022427111864089966,-10.093624114990234
1.72752633315747e+18,-0.03141840919852257,0.024843545630574226,-10.006471633911133
1.72752633316347e+18,-0.06504826247692108,-0.05611121281981468,-9.9517183303833
1.7275263331694702e+18,-0.012475965544581413,0.014870945364236832,-10.010849952697754
1.7275263331754703e+18,-0.022902611643075943,0.03627406060695648,-10.038223266601562
1.7275263331784704e+18,0.06958269327878952,-0.018660608679056168,-10.017821311950684
1.7275263331844705e+18,-0.014030089601874352,0.025544026866555214,-9.911466598510742
1.7275263331904707e+18,0.016479860991239548,-0.006621394772082567,-9.991961479187012
1.7275263331964708e+18,-0.062139853835105896,-0.030542751774191856,-10.087237358093262
1.727526333202471e+18,-0.03717488422989845,0.052113719284534454,-9.999794006347656
1.727526333208471e+18,-0.07981333136558533,-0.04784209281206131,-10.04306411743164
1.727526333211471e+18,0.0051942127756774426,0.001049932325258851,-9.95747184753418
1.7275263332174712e+18,-0.011644909158349037,0.0840480774641037,-9.968901634216309
1.7275263332234714e+18,0.0234496109187603,-0.0207359716296196,-9.938619613647461
1.7275263332294715e+18,-0.016471540555357933,0.03239079937338829,-9.976639747619629
1.7275263332354716e+18,-0.00543819647282362,-0.0031494225841015577,-10.006013870239258
1.7275263332414717e+18,0.006067400332540274,-0.03941476345062256,-10.002398490905762
1.7275263332474719e+18,-0.01205312367528677,0.008774406276643276,-10.028203964233398
1.727526333250472e+18,0.027960164472460747,0.00034845457412302494,-10.052138328552246
1.727526333256472e+18,-0.0012073873076587915,-0.05576462298631668,-9.916184425354004
1.7275263332624722e+18,-0.06784634292125702,-0.04415532946586609,-9.966897010803223
1.7275263332684723e+18,-0.06934234499931335,-0.008284833282232285,-9.975895881652832
1.7275263332744724e+18,-0.08567830920219421,-0.007431965321302414,-10.029071807861328
1.7275263332774725e+18,-0.04335233196616173,-0.012505099177360535,-10.014500617980957
1.7275263332834726e+18,-0.01013591606169939,-0.02633066289126873,-9.976082801818848
1.7275263332894728e+18,-0.04095291346311569,0.09075108915567398,-9.960192680358887
1.727526333295473e+18,0.014571486972272396,0.04991510137915611,-9.996011734008789
1.727526333301473e+18,0.04862382635474205,0.08599711209535599,-9.998106002807617
1.7275263333074732e+18,0.013268365524709225,0.052307888865470886,-9.90027141571045
1.7275263333104732e+18,-0.05374227091670036,-0.005305544473230839,-9.968119621276855
1.7275263333164733e+18,-0.06562872231006622,-0.09075206518173218,-10.013958930969238
1.7275263333224735e+18,0.001973853213712573,-0.037344638258218765,-9.954434394836426
1.7275263333284736e+18,-0.03160734474658966,-0.007236124482005835,-9.937313079833984
1.7275263333344737e+18,0.04636617377400398,-0.02100718393921852,-10.041827201843262
1.7275263333404739e+18,0.037817612290382385,0.024909375235438347,-9.92536449432373
1.727526333343474e+18,0.044565349817276,-0.04093874618411064,-9.97817325592041
1.727526333349474e+18,0.05949447304010391,0.046676672995090485,-10.004109382629395
1.7275263333554742e+18,0.06454402208328247,-0.01561728771775961,-9.901575088500977
1.7275263333614743e+18,-0.013288315385580063,-0.05266580358147621,-9.962884902954102
1.7275263333674744e+18,-0.012538418173789978,0.05004935339093208,-9.934149742126465
1.7275263333734746e+18,-0.11535309255123138,0.025779591873288155,-9.981053352355957
1.7275263333794747e+18,-0.04175844043493271,0.014553006738424301,-9.970725059509277
1.7275263333824748e+18,0.016829626634716988,0.05204375460743904,-10.022805213928223
1.727526333388475e+18,-0.008263065479695797,0.08183693140745163,-9.983104705810547
1.727526333394475e+18,0.059951793402433395,-0.07639935612678528,-9.989856719970703
1.7275263334004751e+18,-0.0035645547322928905,-0.018699919804930687,-9.958629608154297
1.7275263334064753e+18,0.08036237210035324,0.10053244233131409,-10.040040016174316
1.7275263334124754e+18,-0.03896486759185791,0.0008074369980022311,-9.900845527648926
1.7275263334184755e+18,-0.03280186653137207,-0.029510274529457092,-9.916050910949707
1.7275263334244756e+18,-0.0003079062735196203,-0.0022291303612291813,-9.99181842803955
1.7275263334304758e+18,-0.008475398644804955,-0.02206631749868393,-9.963644027709961
1.727526333436476e+18,-0.02077990211546421,-0.01255083829164505,-9.923562049865723
1.727526333442476e+18,-0.01934691332280636,0.025056205689907074,-10.014205932617188
1.7275263334484762e+18,0.006367956288158894,-0.0546165332198143,-9.956197738647461
1.7275263334574764e+18,0.025483088567852974,0.017318466678261757,-10.015104293823242
1.7275263334604764e+18,-0.07461052387952805,0.019497670233249664,-9.922430038452148
1.7275263334664765e+18,-0.04230477288365364,-0.033577125519514084,-10.001944541931152
1.7275263334724767e+18,-0.01742468774318695,-0.047481946647167206,-9.914085388183594
1.7275263334784768e+18,0.04504280909895897,-0.048186834901571274,-9.973698616027832
1.7275263334814769e+18,-0.029701920226216316,-0.08083838224411011,-9.942120552062988
1.727526333487477e+18,0.025263428688049316,0.03391647711396217,-10.029585838317871
1.727526333493477e+18,0.029358377680182457,0.043827302753925323,-9.965874671936035
1.7275263334964772e+18,-0.009553056210279465,-0.052471160888671875,-9.973896980285645
1.7275263335024773e+18,0.0914817601442337,-0.010682078078389168,-9.987467765808105
1.7275263335084774e+18,-0.003344037802889943,-0.003768718568608165,-9.94934368133545
1.7275263335144776e+18,-0.017114827409386635,0.009344525635242462,-10.028097152709961
1.7275263335204777e+18,-0.026234567165374756,-0.01894082874059677,-9.903115272521973
1.7275263335264778e+18,0.010929948650300503,-0.031773634254932404,-10.07926082611084
1.727526333532478e+18,-0.018870217725634575,0.017798498272895813,-9.912151336669922
1.727526333538478e+18,0.04493037983775139,0.05888336896896362,-9.921966552734375
1.7275263335444782e+18,-0.004794423934072256,0.018971096724271774,-9.933399200439453
1.7275263335504783e+18,-0.0057069421745836735,0.05352863296866417,-9.997515678405762
1.7275263335564785e+18,-0.028023509308695793,0.01291357446461916,-10.014986038208008
1.7275263335624786e+18,-0.02090110071003437,0.0016810707747936249,-9.95681381225586
1.7275263335684787e+18,-0.02135956846177578,-0.035245947539806366,-9.994207382202148
1.7275263335744788e+18,0.0177737046033144,0.013028701767325401,-10.014049530029297
1.727526333580479e+18,0.030498472973704338,-0.03337661921977997,-9.86474609375
1.727526333583479e+18,-0.027420688420534134,-0.0810832753777504,-9.942724227905273
1.7275263335894792e+18,0.0027399021200835705,0.023779096081852913,-9.921415328979492
1.7275263335954793e+18,-0.02328578010201454,-0.05730289965867996,-9.913028717041016
1.7275263336014794e+18,0.028660506010055542,-0.1374421864748001,-9.917311668395996
1.7275263336044795e+18,-0.04203440994024277,0.018663685768842697,-9.949014663696289
1.7275263336104796e+18,-0.0026738133747130632,0.00306561216711998,-9.890093803405762
1.7275263336164797e+18,0.010336171835660934,0.03425566852092743,-9.959966659545898
1.72752633362248e+18,0.03355170041322708,0.032918743789196014,-9.888616561889648
1.72752633362848e+18,-0.03765302151441574,-0.012032199651002884,-9.922689437866211
1.72752633363448e+18,-0.05924645811319351,-0.00823370274156332,-9.8607816696167
1.7275263336404803e+18,0.0061881281435489655,-0.025399113073945045,-9.973134994506836
1.7275263336434803e+18,0.030689939856529236,-0.053179897367954254,-9.929218292236328
1.7275263336494804e+18,0.08170926570892334,-0.08071892708539963,-9.931194305419922
1.7275263336554806e+18,0.06193811446428299,-0.09017697721719742,-9.975214958190918
1.7275263336614807e+18,0.02733635902404785,-0.06479001045227051,-9.874184608459473
1.7275263336644808e+18,-0.04533420875668526,-0.009297257289290428,-9.981439590454102
1.727526333670481e+18,0.08331337571144104,0.032833170145750046,-10.01499080657959
1.727526333676481e+18,0.026591110974550247,0.0066261980682611465,-9.973541259765625
1.7275263336824812e+18,-0.059078529477119446,0.02810768410563469,-9.910501480102539
1.7275263336884813e+18,-0.04363689571619034,-0.060182079672813416,-9.958805084228516
1.7275263336914813e+18,0.010697891004383564,-0.12944060564041138,-9.942214012145996
1.7275263336974815e+18,0.06510776281356812,0.012914027087390423,-9.888216018676758
1.7275263337034816e+18,0.1164887323975563,0.008148622699081898,-9.921216011047363
1.7275263337094817e+18,0.07125891745090485,-0.03958435356616974,-9.99216365814209
1.7275263337154819e+18,0.02985680103302002,-0.03544715419411659,-10.001221656799316
1.727526333718482e+18,-0.012350983917713165,-0.08590725064277649,-9.917908668518066
1.727526333724482e+18,0.063829205930233,-0.07640710473060608,-9.934263229370117
1.7275263337304822e+18,-0.06023617833852768,-0.12444283068180084,-9.97989559173584
1.7275263337364823e+18,0.10444711893796921,-0.11196313798427582,-9.843003273010254
1.7275263337394824e+18,-0.037773989140987396,0.08740454912185669,-9.966889381408691
1.7275263337454825e+18,0.04625628888607025,-0.05705675110220909,-9.93913459777832
1.7275263337514826e+18,0.003291601547971368,-0.06481482088565826,-9.924437522888184
1.7275263337574828e+18,0.06477974355220795,-0.012281648814678192,-9.910518646240234
1.727526333763483e+18,-0.0508183054625988,-0.06776417791843414,-9.897997856140137
1.727526333769483e+18,-0.049147382378578186,0.013395411893725395,-10.001504898071289
1.7275263337754831e+18,0.12088316679000854,-0.029135389253497124,-9.96717357635498
1.7275263337784832e+18,-0.03156980127096176,0.020989298820495605,-9.911619186401367
1.7275263337844833e+18,-0.054131194949150085,0.02087315544486046,-9.864553451538086
1.7275263337904835e+18,-0.032833002507686615,-0.004644465632736683,-9.921931266784668
1.7275263337964836e+18,-0.03308172523975372,0.04393148422241211,-9.957597732543945
1.7275263338024837e+18,0.010788078419864178,-0.024584339931607246,-9.869805335998535
1.7275263338054838e+18,-0.04991897940635681,0.04008336365222931,-9.832223892211914
1.727526333811484e+18,0.02485351823270321,0.0029104286804795265,-9.931038856506348
1.727526333817484e+18,0.033050768077373505,-0.007716047577559948,-9.89627742767334
1.7275263338234842e+18,-0.011781124398112297,0.004293271340429783,-9.891130447387695
1.7275263338294843e+18,-0.014079825952649117,0.06729484349489212,-9.949772834777832
1.7275263338354844e+18,-0.06392057985067368,0.03823748230934143,-9.81976318359375
1.7275263338384845e+18,-0.06263542175292969,-0.005248473957180977,-9.865997314453125
1.7275263338444846e+18,0.054874107241630554,-0.06871604919433594,-9.996310234069824
1.7275263338504847e+18,0.007689763326197863,0.07101380825042725,-9.927645683288574
1.7275263338564849e+18,0.028732439503073692,0.0638590082526207,-9.91531753540039
1.727526333862485e+18,0.02182355336844921,0.04092439264059067,-9.943343162536621
1.727526333865485e+18,0.028544265776872635,-0.04007894918322563,-9.853137969970703
1.7275263338714852e+18,-0.03524085506796837,0.04837455973029137,-9.902405738830566
1.7275263338774853e+18,0.0057427179999649525,-0.07474077492952347,-9.918896675109863
1.7275263338834854e+18,-0.07287269085645676,0.055858902633190155,-9.88546085357666
1.7275263338894856e+18,-0.013994293287396431,0.013053908944129944,-9.911811828613281
1.7275263338954857e+18,-0.021639036014676094,-0.010874460451304913,-9.881170272827148
1.7275263339014858e+18,-0.04935625568032265,0.03390997648239136,-9.928770065307617
1.727526333904486e+18,-0.006384576205164194,0.041737865656614304,-9.9292573928833
1.727526333910486e+18,-0.05646027624607086,0.010937648825347424,-9.854053497314453
1.7275263339164861e+18,0.0006016244878992438,-0.01793290674686432,-9.960978507995605
1.7275263339224863e+18,-0.012079712934792042,-0.04055095091462135,-9.889347076416016
1.7275263339284864e+18,0.017654746770858765,0.07051006704568863,-9.867151260375977
1.7275263339344865e+18,-0.01761534996330738,0.06872933357954025,-10.01063346862793
1.7275263339374866e+18,0.013621029444038868,0.020768241956830025,-9.83198070526123
1.7275263339434867e+18,-0.10419689118862152,-0.06980078667402267,-9.915878295898438
1.7275263339494868e+18,-0.05162379518151283,0.042457979172468185,-9.950141906738281
1.727526333955487e+18,-0.011700562201440334,0.07097335904836655,-9.8571195602417
1.727526333961487e+18,0.06071576848626137,-0.0054130954667925835,-9.909839630126953
1.7275263339674872e+18,0.004997613839805126,-0.035643722862005234,-9.883132934570312
1.7275263339734874e+18,0.02362656593322754,0.030788540840148926,-9.914214134216309
1.7275263339794875e+18,0.024156993255019188,0.07019474357366562,-9.963775634765625
1.7275263339854876e+18,-0.09265976399183273,0.0004543820396065712,-9.874279022216797
1.7275263339884877e+18,-0.0016435162397101521,-0.0058788941241800785,-9.89795970916748
1.7275263339944878e+18,0.026752054691314697,0.03127641603350639,-9.910955429077148
1.727526334000488e+18,-0.05991268530488014,0.020128119736909866,-9.94688606262207
1.727526334006488e+18,-0.008475646376609802,0.12127377837896347,-9.870227813720703
1.7275263340124882e+18,-0.008034993894398212,-0.0027019809931516647,-9.92458438873291
1.7275263340184883e+18,-0.00654255598783493,-0.03370244801044464,-9.843618392944336
1.7275263340214884e+18,-0.10377224534749985,-0.010093343444168568,-9.804123878479004
1.7275263340274885e+18,-0.01286165788769722,0.10654045641422272,-9.913841247558594
1.7275263340334886e+18,-0.047913674265146255,-0.08397004753351212,-9.932822227478027
1.7275263340394888e+18,-0.01054764911532402,-0.07602635771036148,-9.930112838745117
1.727526334045489e+18,0.0306690726429224,0.0016830416861921549,-9.920459747314453
1.727526334051489e+18,0.10394111275672913,-0.010858973488211632,-9.927091598510742
1.7275263340574892e+18,0.017933404073119164,-0.06706006079912186,-9.95790958404541
1.7275263340604892e+18,-0.05243194103240967,-0.004630638286471367,-9.924015045166016
1.7275263340664893e+18,0.030582474544644356,-0.006905682384967804,-9.91978645324707
1.7275263340724895e+18,-0.007270668167620897,0.02456621453166008,-9.855955123901367
1.7275263340784896e+18,-0.07820726931095123,-0.04741951450705528,-9.843164443969727
1.7275263340844897e+18,0.06263883411884308,-0.006964036729186773,-9.85738468170166
1.7275263340904899e+18,0.024297354742884636,0.057477179914712906,-9.85783576965332
1.72752633409349e+18,-0.03332780301570892,-0.003783672582358122,-9.879364013671875
1.72752633409949e+18,-0.008363744243979454,-0.05949050188064575,-9.831530570983887
1.7275263341054902e+18,-0.044752337038517,0.01513360533863306,-9.902207374572754
1.7275263341114903e+18,-0.011637628078460693,-0.0011152294464409351,-9.91985034942627
1.7275263341174904e+18,0.03756849095225334,-0.00432012090459466,-9.856830596923828
1.7275263341234906e+18,-0.002608702052384615,-0.032282378524541855,-10.027093887329102
1.7275263341294907e+18,-0.010223444551229477,-0.018107345327734947,-9.95474910736084
1.7275263341324908e+18,0.010313072241842747,0.034819312393665314,-9.878708839416504
1.727526334138491e+18,0.031464774161577225,0.02509724535048008,-9.882436752319336
1.727526334144491e+18,-0.08045068383216858,-0.018969593569636345,-9.865171432495117
1.7275263341504911e+18,0.009699136950075626,0.04771542549133301,-9.943084716796875
1.7275263341564913e+18,0.009956970810890198,0.017362205311655998,-9.859247207641602
1.7275263341624914e+18,0.05083952844142914,-0.0416874960064888,-9.890395164489746
1.7275263341654915e+18,0.001704066526144743,0.026505636051297188,-9.867277145385742
1.7275263341714916e+18,0.05339737981557846,0.004976905882358551,-9.873435020446777
1.7275263341774917e+18,-0.05645141005516052,-0.024676701053977013,-9.952155113220215
1.7275263341834918e+18,0.009259781800210476,0.006455936934798956,-9.9683198928833
1.727526334189492e+18,0.13335198163986206,0.039729196578264236,-9.976140022277832
1.727526334192492e+18,-0.042533837258815765,-0.06061793491244316,-9.852578163146973
1.7275263341984922e+18,0.09401921927928925,-0.04869759827852249,-9.875925064086914
1.7275263342044923e+18,-0.08882265537977219,0.00712828803807497,-9.9254732131958
1.7275263342104924e+18,0.010792769491672516,-0.05920117720961571,-9.854312896728516
1.7275263342164925e+18,-0.03950699418783188,-0.029610350728034973,-9.906846046447754
1.7275263342194926e+18,-0.008185598999261856,0.01304085087031126,-9.851288795471191
1.7275263342254927e+18,-0.004853775259107351,0.036565251648426056,-9.896347999572754
1.7275263342314929e+18,-0.018166296184062958,-0.007063830271363258,-9.838520050048828
1.727526334237493e+18,0.0043984451331198215,0.03603184595704079,-9.906632423400879
1.727526334243493e+18,-0.01380904484540224,-0.04655609652400017,-9.865715026855469
1.7275263342464932e+18,0.017887184396386147,0.058998722583055496,-9.858720779418945
1.7275263342524933e+18,0.07492571324110031,-0.019309964030981064,-9.896509170532227
1.7275263342584934e+18,0.05277014523744583,0.02256903052330017,-9.8785982131958
1.7275263342644936e+18,0.08380325883626938,-0.007712718099355698,-9.93949031829834
1.7275263342704937e+18,0.02382335066795349,-0.04724004864692688,-9.878605842590332
1.7275263342734938e+18,-0.013382554054260254,-0.03224815055727959,-9.832123756408691
1.727526334279494e+18,0.016114044934511185,0.06421772390604019,-9.917424201965332
1.727526334285494e+18,-0.09196675568819046,0.0726914331316948,-9.940168380737305
1.7275263342914941e+18,-0.0356190986931324,-0.02875179424881935,-9.909390449523926
1.7275263342974943e+18,0.030479107052087784,-0.0682007446885109,-9.892901420593262
1.7275263343034944e+18,-0.024962862953543663,0.039688073098659515,-9.849030494689941
1.7275263343064945e+18,0.005249318666756153,-0.0718870460987091,-9.872821807861328
1.7275263343124946e+18,0.047428764402866364,0.03917289525270462,-9.867963790893555
1.7275263343184947e+18,-0.0244474858045578,-0.015278423205018044,-9.902538299560547
1.7275263343244948e+18,0.005190759431570768,0.02160409465432167,-9.871389389038086
1.727526334327495e+18,0.030826304107904434,-0.025191182270646095,-9.837716102600098
1.727526334333495e+18,0.008415414951741695,-0.05204244703054428,-9.842784881591797
1.7275263343394952e+18,-0.06337639689445496,0.049560341984033585,-10.034143447875977
1.7275263343454953e+18,-0.04689931869506836,-0.03923971578478813,-9.886727333068848
1.7275263343514954e+18,0.007064082659780979,0.07421258091926575,-9.808537483215332
1.7275263343574956e+18,-0.0310876052826643,0.053272731602191925,-9.935632705688477
1.7275263343604956e+18,-0.0030292088631540537,-0.003748182440176606,-9.904141426086426
1.7275263343664957e+18,0.053020820021629333,0.013219562359154224,-9.90756893157959
1.727526334372496e+18,-0.03385619819164276,-0.05186311900615692,-9.939671516418457
1.727526334378496e+18,0.04134025797247887,0.002901427447795868,-9.934826850891113
1.727526334384496e+18,0.04907463118433952,0.008019419386982918,-9.871859550476074
1.7275263343904963e+18,-0.009655694477260113,0.05777372792363167,-9.885065078735352
1.7275263343964964e+18,-0.010575767606496811,0.04811865836381912,-9.837650299072266
1.7275263343994964e+18,-0.02140575461089611,-0.018502434715628624,-9.939155578613281
1.7275263344054966e+18,0.02431049570441246,-0.07616951316595078,-9.89902114868164
1.7275263344114967e+18,0.07219675183296204,-0.09444747120141983,-9.84719467163086
1.7275263344174968e+18,-0.023935360834002495,-0.021519426256418228,-9.877124786376953
1.727526334423497e+18,0.02200871892273426,-0.029428012669086456,-9.90063762664795
1.727526334429497e+18,-0.010929256677627563,-0.08232911676168442,-9.950525283813477
1.7275263344324972e+18,-0.05083886533975601,0.010686461813747883,-9.913239479064941
1.7275263344384973e+18,-0.06758899241685867,0.022875381633639336,-9.882222175598145
1.7275263344444974e+18,-0.097333624958992,-0.05136209726333618,-9.89984130859375
1.7275263344504975e+18,-0.012298827059566975,0.0382431298494339,-9.834012031555176
1.7275263344564977e+18,-0.09232388436794281,0.061370398849248886,-9.816640853881836
1.7275263344624978e+18,0.0013905585510656238,-0.055149421095848083,-9.941420555114746
1.727526334468498e+18,0.013959434814751148,-0.06793616712093353,-9.854987144470215
1.727526334471498e+18,-0.04164840281009674,-0.04255261272192001,-9.89709758758545
1.727526334477498e+18,0.009576932527124882,-0.03306783363223076,-9.902134895324707
1.7275263344834982e+18,0.04958893358707428,-0.05714915692806244,-9.860038757324219
1.7275263344894984e+18,0.02839541621506214,0.002710738917812705,-9.914996147155762
1.7275263344924984e+18,0.000549211457837373,-0.07995842397212982,-9.870277404785156
1.7275263344984986e+18,-0.040568526834249496,0.012084255926311016,-9.842389106750488
1.7275263345044987e+18,0.023536736145615578,0.05752835422754288,-9.93501091003418
1.7275263345104988e+18,-0.024258429184556007,0.03723587468266487,-9.875910758972168
1.727526334513499e+18,0.011573568917810917,-0.0454840213060379,-9.849740028381348
1.727526334519499e+18,-0.006782084237784147,0.030121326446533203,-9.862339973449707
1.7275263345254991e+18,-0.04216207563877106,-0.04819222912192345,-9.894515037536621
1.7275263345314993e+18,-0.03209107369184494,-0.06577442586421967,-9.894131660461426
1.7275263345374994e+18,-0.0267704576253891,0.0005700779147446156,-9.890759468078613
1.7275263345404995e+18,-0.007145312149077654,0.07863613963127136,-9.869532585144043
1.7275263345464996e+18,0.034947626292705536,-0.08277443051338196,-9.883718490600586
1.7275263345524997e+18,-0.002506082411855459,-0.04888981208205223,-9.922419548034668
1.7275263345584998e+18,0.0459461435675621,-0.010367614217102528,-9.780525207519531
1.7275263345615e+18,0.05665232613682747,-0.0401812307536602,-9.857629776000977
1.7275263345675e+18,0.07948143780231476,-0.04392649605870247,-9.834668159484863
1.7275263345735002e+18,-0.030425990000367165,-0.06801923364400864,-9.958608627319336
1.7275263345795003e+18,0.05372607707977295,-0.06872139126062393,-9.83818531036377
1.7275263345855004e+18,0.03556988388299942,-0.008609368465840816,-9.859611511230469
1.7275263345915005e+18,-0.06658261269330978,-0.048617370426654816,-9.938667297363281
1.7275263345975007e+18,0.0013979040086269379,-0.008234936743974686,-9.901680946350098
1.7275263346035008e+18,0.0039056274108588696,0.14355404675006866,-9.918351173400879
1.7275263346065009e+18,0.041899435222148895,0.04351811856031418,-9.88398551940918
1.727526334612501e+18,0.009134911000728607,-0.04456469789147377,-9.908158302307129
1.727526334618501e+18,0.07368673384189606,-0.011318782344460487,-9.888978004455566
1.7275263346245012e+18,0.028669947758316994,-0.019216984510421753,-9.903780937194824
1.7275263346305014e+18,0.0040052360855042934,0.04798906296491623,-9.845382690429688
1.7275263346365015e+18,-0.022481491789221764,-0.023525670170783997,-9.86309814453125
1.7275263346425016e+18,-0.01706034690141678,0.007843469269573689,-9.882584571838379
1.7275263346485018e+18,0.03561295196413994,-0.022633947432041168,-9.91408920288086
1.727526334654502e+18,-0.0439109243452549,-0.06437985599040985,-9.865557670593262
1.727526334660502e+18,0.03984123468399048,-0.029876191169023514,-9.859932899475098
1.727526334663502e+18,0.02206904999911785,0.0255755465477705,-9.846858024597168
1.7275263346695022e+18,0.08474411815404892,0.042673639953136444,-9.821184158325195
1.7275263346755023e+18,-0.07207418978214264,-0.023964637890458107,-9.818020820617676
1.7275263346815025e+18,-0.0320037342607975,-0.04280422255396843,-9.84618091583252
1.7275263346875026e+18,-0.006977221462875605,0.0604914128780365,-9.848912239074707
1.7275263346935027e+18,0.036555737257003784,-0.02892511524260044,-9.874343872070312
1.7275263346965028e+18,0.04121393337845802,0.0031362823210656643,-9.823304176330566
1.727526334702503e+18,-0.07595362514257431,-0.033511217683553696,-9.92990493774414
1.727526334708503e+18,-0.06276151537895203,-0.010739699937403202,-9.889324188232422
1.7275263347145032e+18,-0.026522129774093628,0.07313872873783112,-9.811161994934082
1.7275263347175032e+18,-0.03663825988769531,0.04918050765991211,-9.850228309631348
1.7275263347235034e+18,0.04335635155439377,0.024050891399383545,-9.909939765930176
1.7275263347295035e+18,-0.008753577247262001,-0.005151284858584404,-9.81523323059082
1.7275263347355036e+18,0.06979256123304367,0.042325422167778015,-9.881093978881836
1.7275263347385037e+18,0.061675116419792175,-0.029402434825897217,-9.80949592590332
1.7275263347445038e+18,-0.062437038868665695,0.020486462861299515,-9.890424728393555
1.727526334750504e+18,0.020699050277471542,0.03180529922246933,-9.860276222229004
1.727526334756504e+18,-0.04035915434360504,0.018093762919306755,-9.86763858795166
1.7275263347625042e+18,0.024316860362887383,0.10807894170284271,-9.814190864562988
1.7275263347655043e+18,-0.0008426930289715528,-0.05576644465327263,-9.834815979003906
1.7275263347715044e+18,-0.028911540284752846,-0.0392712838947773,-9.799398422241211
1.7275263347775045e+18,0.0722506120800972,-0.01778412237763405,-9.86799144744873
1.7275263347835046e+18,0.005374611355364323,0.02885235659778118,-9.770296096801758
1.7275263347865047e+18,-0.017351191490888596,-0.06186483055353165,-9.823541641235352
1.7275263347925048e+18,-0.05465028062462807,0.0288784708827734,-9.88127326965332
1.727526334798505e+18,-0.0072554415091872215,0.07619435340166092,-9.771402359008789
1.727526334804505e+18,0.034625593572854996,0.08027780801057816,-9.84996223449707
1.7275263348105052e+18,0.0013171673053875566,0.02170652151107788,-9.87222957611084
1.7275263348165053e+18,0.03939320519566536,-0.025056252256035805,-9.801548957824707
1.7275263348195054e+18,-0.04611201584339142,0.09545750170946121,-9.892622947692871
1.7275263348255055e+18,0.00401675421744585,0.00893256813287735,-9.87533187866211
1.7275263348315057e+18,-0.0004362950858194381,-0.010860989801585674,-9.875170707702637
1.7275263348375058e+18,-0.01463019847869873,-0.017974574118852615,-9.874279975891113
1.727526334843506e+18,0.03866671398282051,0.06630159914493561,-9.918253898620605
1.727526334849506e+18,0.019430015236139297,-0.033536575734615326,-9.817252159118652
1.7275263348555062e+18,-0.03909442946314812,-0.034408751875162125,-9.8057861328125
1.7275263348585062e+18,0.08030062168836594,0.058005161583423615,-9.911750793457031
1.7275263348645064e+18,-0.07150973379611969,0.022316185757517815,-9.939848899841309
1.7275263348705065e+18,0.027444668114185333,-0.011990154162049294,-9.830401420593262
1.7275263348765066e+18,-0.01997331716120243,0.015993529930710793,-9.880345344543457
1.7275263348825068e+18,-0.0028076281305402517,-0.06616570800542831,-9.847721099853516
1.727526334888507e+18,0.0023375647142529488,-0.07537536323070526,-9.904943466186523
1.727526334891507e+18,0.054835159331560135,-0.04195330664515495,-9.848414421081543
1.727526334897507e+18,-0.006630611140280962,-0.07581630349159241,-9.812594413757324
1.7275263349035072e+18,0.01431121863424778,-0.024332212284207344,-9.903428077697754
1.7275263349095073e+18,0.12105045467615128,-0.02468116395175457,-9.941705703735352
1.7275263349155075e+18,-0.016030093654990196,-0.007247477304190397,-9.809483528137207
1.7275263349215076e+18,-0.01128418929874897,0.0404927097260952,-9.857970237731934
1.7275263349245076e+18,-0.005398978479206562,-0.014606868848204613,-9.924029350280762
1.7275263349305078e+18,-0.04276566207408905,0.03925641253590584,-9.907347679138184
1.727526334936508e+18,0.026908986270427704,0.0008551588980481029,-9.770610809326172
1.727526334942508e+18,0.0033383886329829693,-0.035373445600271225,-9.885299682617188
1.727526334945508e+18,-0.00594707578420639,0.022212449461221695,-9.910016059875488
1.7275263349515082e+18,-0.008774559013545513,-0.0019868642557412386,-9.887349128723145
1.7275263349575084e+18,0.03455168753862381,-0.015653731301426888,-9.819466590881348
1.7275263349635085e+18,-0.00011599209392443299,-0.02104903757572174,-9.82314682006836
1.7275263349695086e+18,0.05510545149445534,0.02434876188635826,-9.745984077453613
1.7275263349725087e+18,0.05090688169002533,-0.036047156900167465,-9.859490394592285
1.7275263349785088e+18,-0.013705885037779808,-0.06596969068050385,-9.81281566619873
1.727526334984509e+18,0.013720156624913216,0.00782626774162054,-9.934783935546875
1.727526334990509e+18,-0.018754402175545692,0.047100529074668884,-9.835904121398926
1.7275263349965092e+18,0.013565986417233944,-0.026767263188958168,-9.824953079223633
1.7275263350025093e+18,-0.04681125283241272,0.00979453232139349,-9.852455139160156
1.7275263350055094e+18,-0.07983708381652832,0.019457900896668434,-9.844231605529785
1.7275263350115095e+18,-0.020340899005532265,-0.029387706890702248,-9.865995407104492
1.7275263350175096e+18,0.06069115176796913,-0.01978468894958496,-9.875319480895996
1.7275263350235098e+18,-0.046676550060510635,-0.010009771212935448,-9.919623374938965
1.72752633502951e+18,0.022584257647395134,-0.03058594837784767,-9.923310279846191
1.72752633503551e+18,0.03496942296624184,-0.021243197843432426,-9.888883590698242
1.7275263350415101e+18,-0.007556218653917313,0.016821399331092834,-9.903865814208984
1.7275263350475103e+18,-0.07174386084079742,-0.01320843305438757,-9.840508460998535
1.7275263350535104e+18,0.04617584869265556,0.0706593468785286,-9.858942031860352
1.7275263350565105e+18,-0.05977282300591469,0.005525255110114813,-9.800078392028809
1.7275263350625106e+18,-0.02164044976234436,-0.11634285748004913,-9.877695083618164
1.7275263350685107e+18,0.002602345310151577,-0.04656722769141197,-9.842889785766602
1.7275263350745108e+18,-0.014261525124311447,0.03947918117046356,-9.839173316955566
1.727526335080511e+18,-0.011978285387158394,-0.0485926978290081,-9.781088829040527
1.727526335083511e+18,0.024272236973047256,-0.00980209931731224,-9.788420677185059
1.7275263350895112e+18,-0.03506436571478844,-0.019491247832775116,-9.954387664794922
1.7275263350955113e+18,-0.0026259208098053932,0.04581690579652786,-9.83234977722168
1.7275263351015114e+18,-0.02896890789270401,0.0034736471716314554,-9.784031867980957
1.7275263351075116e+18,-0.051105380058288574,0.02572638913989067,-9.834476470947266
1.7275263351105116e+18,-0.027837907895445824,0.034120239317417145,-9.79786491394043
1.7275263351165117e+18,-0.013824536465108395,-0.015365195460617542,-9.833999633789062
1.727526335122512e+18,0.08016864210367203,-0.023706382140517235,-9.84818172454834
1.727526335128512e+18,-0.05143851786851883,-0.07210804522037506,-9.865213394165039
1.727526335131512e+18,0.004515916109085083,-0.0073823267593979836,-9.884424209594727
1.7275263351375122e+18,0.048549309372901917,0.05286605283617973,-9.833842277526855
1.7275263351435123e+18,0.04046216234564781,-0.034513335675001144,-9.8825101852417
1.7275263351495124e+18,0.006575255189090967,-0.011077377945184708,-9.82690143585205
1.7275263351555126e+18,0.029370451346039772,-0.0366932675242424,-9.808477401733398
1.7275263351585126e+18,0.0669349730014801,0.07349813729524612,-9.807882308959961
1.7275263351645128e+18,-0.02336900681257248,-0.04360831156373024,-9.88077449798584
1.727526335170513e+18,0.011266186833381653,0.03269927576184273,-9.749665260314941
1.727526335176513e+18,0.013149844482541084,0.012677349150180817,-9.809768676757812
1.7275263351825132e+18,-0.011169325560331345,-0.09304080903530121,-9.76746940612793
1.7275263351855132e+18,-0.08419249951839447,0.0013721784343943,-9.825752258300781
1.7275263351915133e+18,0.023136572912335396,0.0022745695896446705,-9.814266204833984
1.7275263351975135e+18,-0.03161412850022316,-0.022491609677672386,-9.897832870483398
1.7275263352035136e+18,0.03307824209332466,-0.011852062307298183,-9.859092712402344
1.7275263352095137e+18,-0.019339673221111298,0.021589256823062897,-9.927142143249512
1.7275263352125138e+18,0.04537440091371536,0.0195623766630888,-9.798710823059082
1.727526335218514e+18,-0.011958436109125614,0.05013329163193703,-9.839932441711426
1.727526335224514e+18,-0.00284796510823071,-0.022396838292479515,-9.776239395141602
1.7275263352305142e+18,-0.01518002524971962,0.0025839998852461576,-9.846181869506836
1.7275263352365143e+18,-0.07991552352905273,0.03310088440775871,-9.693135261535645
1.7275263352425144e+18,0.015108625404536724,-0.026939382776618004,-9.748294830322266
1.7275263352455145e+18,0.010462978854775429,-0.01646912842988968,-9.772038459777832
1.7275263352515146e+18,-0.034398153424263,0.06412739306688309,-9.764866828918457
1.7275263352575148e+18,-0.007685922551900148,0.026226572692394257,-9.677738189697266
1.727526335263515e+18,0.0044565084390342236,0.05522942543029785,-9.741698265075684
1.727526335269515e+18,-0.019731726497411728,0.046155449002981186,-9.678285598754883
1.727526335272515e+18,0.10446782410144806,-0.06297796219587326,-9.650580406188965
1.7275263352785152e+18,-0.04488537833094597,0.02086068131029606,-9.699904441833496
1.7275263352845153e+18,-0.03005281649529934,0.028094591572880745,-9.705901145935059
1.7275263352905155e+18,-0.0401475764811039,0.051323842257261276,-9.721659660339355
1.7275263352965156e+18,-0.006874252576380968,-0.0006380565464496613,-9.686182022094727
1.7275263352995156e+18,0.04885421693325043,0.026079848408699036,-9.625935554504395
1.7275263353055158e+18,0.01836176961660385,0.038513798266649246,-9.674610137939453
1.727526335311516e+18,-0.0077386898919939995,-0.001218214863911271,-9.689263343811035
1.727526335317516e+18,0.014382627792656422,-0.0021768873557448387,-9.70921516418457
1.7275263353235162e+18,-0.04300541803240776,-0.01782510057091713,-9.637657165527344
1.7275263353265162e+18,-0.0009867938933894038,0.03819547966122627,-9.73785400390625
1.7275263353325164e+18,0.11720239371061325,-0.01793345808982849,-9.715086936950684
1.7275263353385165e+18,-0.05055471509695053,0.03755878657102585,-9.730204582214355
1.7275263353445166e+18,0.05725237354636192,0.042742129415273666,-9.608318328857422
1.7275263353475167e+18,0.007024215068668127,-0.04275989904999733,-9.653470039367676
1.7275263353535168e+18,0.013745754025876522,0.044441599398851395,-9.691965103149414
1.727526335359517e+18,-0.05266713723540306,-0.03967222943902016,-9.6896333694458
1.727526335365517e+18,0.028112269937992096,0.06025274470448494,-9.689315795898438
1.7275263353715172e+18,-0.041470691561698914,-0.05038173869252205,-9.65934944152832
1.7275263353745172e+18,-0.043372754007577896,0.01915215700864792,-9.629813194274902
1.7275263353805174e+18,-0.09286384284496307,0.0024048383347690105,-9.686652183532715
1.7275263353865175e+18,-0.024912672117352486,0.00292076263576746,-9.633983612060547
1.7275263353925176e+18,0.020213181152939796,0.05708358436822891,-9.673596382141113
1.7275263353985178e+18,-0.013299739919602871,-0.00876979436725378,-9.696734428405762
1.727526335404518e+18,0.035612255334854126,0.034942977130413055,-9.628291130065918
1.727526335407518e+18,0.025311309844255447,0.07236851751804352,-9.708026885986328
1.727526335413518e+18,0.011275815777480602,0.03649429976940155,-9.665465354919434
1.7275263354195182e+18,0.014492339454591274,0.02329588122665882,-9.615697860717773
1.7275263354255183e+18,0.09801089763641357,-0.026173388585448265,-9.652381896972656
1.7275263354315185e+18,0.010349334217607975,0.0461541973054409,-9.69283390045166
1.7275263354345185e+18,0.004327612463384867,0.07334474474191666,-9.642874717712402
1.7275263354405187e+18,-0.012747612781822681,-0.0645056664943695,-9.707268714904785
1.7275263354465188e+18,0.05000031366944313,-0.010524963960051537,-9.61831283569336
1.727526335452519e+18,-0.012620141729712486,0.0026344319339841604,-9.752714157104492
1.727526335458519e+18,0.04924158379435539,-0.001273000380024314,-9.689927101135254
1.727526335461519e+18,0.07543922960758209,0.061453044414520264,-9.653722763061523
1.7275263354675192e+18,0.032596323639154434,0.01327819749712944,-9.620819091796875
1.7275263354735194e+18,0.05458049103617668,-0.06919463723897934,-9.669612884521484
1.7275263354795195e+18,0.07201852649450302,-0.024446403607726097,-9.675484657287598
1.7275263354855196e+18,0.03322603553533554,-0.004575846251100302,-9.674949645996094
1.7275263354885197e+18,-0.08517778664827347,0.015111845917999744,-9.674664497375488
1.7275263354945198e+18,0.06617765873670578,-0.04160371422767639,-9.693370819091797
1.72752633550052e+18,-0.0114291338250041,-0.10415803641080856,-9.644329071044922
1.72752633550352e+18,0.004504490178078413,0.02937735617160797,-9.712446212768555
1.7275263355095201e+18,0.07648113369941711,-0.04114535450935364,-9.631141662597656
1.7275263355155203e+18,0.06202013045549393,-0.08105482906103134,-9.685976028442383
1.7275263355215204e+18,-0.06306999176740646,0.024075478315353394,-9.667628288269043
