timestamp,gyro_x,gyro_y,gyro_z
1.7275263277003535e+18,-0.0024498177226632833,-6.338994717225432e-05,0.0009906827472150326
1.7275263277093537e+18,-0.0008830447332002223,0.002414326649159193,0.0007315825787372887
1.7275263277153539e+18,-0.0021626423113048077,-0.0003540678590070456,-0.0031605297699570656
1.727526327718354e+18,0.0007248749607242644,-0.0016728591872379184,0.0028115040622651577
1.727526327724354e+18,0.0031717794481664896,0.004287889692932367,-0.0022712682839483023
1.7275263277303542e+18,-0.0028530878480523825,0.0007432852289639413,-0.002032690914347768
1.7275263277363543e+18,-0.0012868314515799284,-0.0002494415093678981,0.0018881272990256548
1.7275263277423544e+18,0.0030594479758292437,0.0004194395150989294,-0.0009134493302553892
1.7275263277453545e+18,-8.327632531290874e-05,0.0009297634824179113,-0.0004968608845956624
1.7275263277543547e+18,-0.0005911784246563911,-0.00031181174563243985,-1.1988017831754405e-05
1.7275263277603548e+18,0.0015389214968308806,0.0013177822111174464,0.0013993642060086131
1.727526327763355e+18,-0.004688621498644352,0.0022354323882609606,-0.000885347428265959
1.727526327772355e+18,0.000573586905375123,0.0015249777352437377,-0.0014461498940363526
1.7275263277753551e+18,-0.001320101204328239,-0.001270166365429759,-0.002104385755956173
1.7275263277813553e+18,0.0015950206434354186,0.0005599064752459526,0.003702647751197219
1.7275263277873554e+18,0.0008657067664898932,-0.0015845285961404443,0.0005868464941158891
1.7275263277933555e+18,0.003217055695131421,0.0018421009881421924,-0.0002393499162280932
1.7275263277993556e+18,-0.0006515264976769686,0.00036763784009963274,-0.00033194158459082246
1.7275263278053558e+18,-0.0008405245607718825,0.0004515614709816873,0.0027980790473520756
1.727526327811356e+18,0.00015606152010150254,0.0007787467911839485,-0.0006136595038697124
1.727526327817356e+18,-0.0022330977953970432,0.0023756353184580803,-0.0010238082613795996
1.7275263278233562e+18,-0.0018367073498666286,-0.0021302239038050175,-0.0005381842493079603
1.7275263278263562e+18,-0.001375562627799809,-0.0032959040254354477,0.00017760743503458798
1.7275263278323564e+18,-0.001515599200502038,-0.0010957765625789762,-0.0003689196310006082
1.7275263278383565e+18,-0.00043824565364047885,-0.0016443689819425344,0.0009605044033378363
1.7275263278443566e+18,-0.0004843256319873035,-0.0005004058475606143,-0.002124708378687501
1.7275263278503567e+18,-0.0018705817637965083,0.002212594263255596,0.0020175762474536896
1.7275263278533568e+18,4.5211978431325406e-05,0.00037565676029771566,-0.002440299140289426
1.727526327859357e+18,0.001515180803835392,-0.000268135336227715,0.003381221555173397
1.727526327865357e+18,0.0012350400211289525,-0.0003772827913053334,0.0001578912342665717
1.7275263278713572e+18,0.0014835675247013569,-0.00021401152480393648,-0.0005060917465016246
1.7275263278773573e+18,0.001315764500759542,0.0015034001553431153,0.0030564137268811464
1.7275263278833574e+18,-0.001681003370322287,0.0039003321435302496,-0.002340947277843952
1.7275263278893576e+18,-0.0023234370164573193,-0.003471754491329193,-0.0034735905937850475
1.7275263278923576e+18,0.00020701694302260876,0.0012480980949476361,0.001398433931171894
1.7275263278983578e+18,-0.0004215985827613622,-0.0005081238923594356,-0.0006360095576383173
1.727526327904358e+18,-0.000640951213426888,-0.0008821908850222826,0.0012524438789114356
1.727526327910358e+18,0.0006098718731664121,0.001416417770087719,-0.0017631283262744546
1.727526327913358e+18,0.004006738308817148,0.0006723247352056205,0.0010421290062367916
1.7275263279193582e+18,-0.0004360002058092505,0.000489815603941679,-0.0005354133318178356
1.7275263279253583e+18,0.00027424300787970424,0.00047741466551087797,-0.001909442711621523
1.7275263279313585e+18,-0.002679568948224187,-0.00017529231263324618,-0.0023446453269571066
1.7275263279343585e+18,0.0006887049530632794,-0.0007936766487546265,-0.001927044941112399
1.7275263279403587e+18,-0.0014689057134091854,-0.0016726204194128513,0.000537597865331918
1.7275263279463588e+18,-0.0018672398291528225,-0.0030930633656680584,-0.0006505431374534965
1.727526327952359e+18,0.0015119400341063738,-0.0008587156189605594,0.002308926545083523
1.727526327958359e+18,-0.0005513764335773885,-0.00045204165508039296,0.001542255049571395
1.727526327961359e+18,-0.001806370448321104,-0.0025103117804974318,0.001687512849457562
1.7275263279673592e+18,0.0005130427307449281,0.0016457759775221348,-1.6323851014021784e-05
1.7275263279733594e+18,0.0042687226086854935,0.00020005401165690273,0.004589456133544445
1.7275263279763594e+18,0.0018490557558834553,0.0005581896402873099,0.0007353032706305385
1.7275263279823596e+18,-0.001542758080177009,0.0012594315921887755,0.0011675609275698662
1.7275263279883597e+18,-7.700730202486739e-05,0.002125181257724762,-2.8892196496599354e-05
1.7275263279943598e+18,4.469717896427028e-05,0.0037219529040157795,-0.001580718089826405
1.7275263279973599e+18,-0.00011364018428139389,-0.0019487548852339387,-0.0009662262164056301
1.72752632800336e+18,-0.0035375680308789015,-0.0029179013799875975,0.001255988609045744
1.7275263280093601e+18,0.002122080186381936,-0.0008218668517656624,-0.0010960985673591495
1.7275263280153603e+18,-0.001108332071453333,-0.0003953571431338787,0.00043815193930640817
1.7275263280213604e+18,0.0008417681092396379,-0.0014406399568542838,0.0017123653087764978
1.7275263280243604e+18,0.0004751216038130224,-0.00020527142623905092,-0.0005968334735371172
1.7275263280303606e+18,-0.001433612429536879,-0.0001119783119065687,0.0016174224438145757
1.7275263280363607e+18,-0.0018359585665166378,-0.0015986253274604678,0.002761116484180093
1.7275263280423608e+18,0.0013068149564787745,-0.0035235334653407335,0.00014695092977490276
1.727526328048361e+18,-0.0005418238579295576,-0.00040151237044483423,0.0008867148426361382
1.727526328051361e+18,0.002301652915775776,0.0015391329070553184,0.0014066292205825448
1.7275263280573612e+18,0.001282692770473659,0.0007120861555449665,0.0007420828333124518
1.7275263280633613e+18,-0.003017656272277236,0.0017966405721381307,0.0014435877092182636
1.7275263280693614e+18,0.0012454589596018195,4.9836620746646076e-05,-0.0014856316847726703
1.7275263280753615e+18,-0.0010675614466890693,0.0002589322975836694,-0.00227017211727798
1.7275263280783616e+18,-0.0003869091160595417,-3.475696939858608e-05,-0.0006638618069700897
1.7275263280843617e+18,0.003016199916601181,-0.00018009745690505952,0.0027848430909216404
1.7275263280903619e+18,0.001844168291427195,-0.00038430807762779295,-0.0010392569238319993
1.727526328096362e+18,0.002665265230461955,0.0012219188502058387,0.0027120327576994896
1.727526328102362e+18,0.0009217544575221837,3.994622966274619e-05,0.0030417712405323982
1.7275263281053622e+18,0.0017297138692811131,-0.00013982481323182583,-0.002166606020182371
1.7275263281113623e+18,0.000924004998523742,0.0020315656438469887,-0.0018036337569355965
1.7275263281173624e+18,-0.0012169268447905779,0.0005006144638173282,-3.272367030149326e-05
1.7275263281233626e+18,0.0017923483392223716,-0.00027559054433368146,0.001169071183539927
1.7275263281293627e+18,0.0026760795153677464,0.0002715828886721283,0.00044389558024704456
1.7275263281323628e+18,0.0016499951016157866,-0.0011129624908789992,0.001024438883177936
1.727526328138363e+18,-0.00016692475765012205,0.000543006812222302,-0.0014234364498406649
1.727526328144363e+18,-0.0008500365074723959,0.0006155543378554285,-0.0005804988322779536
1.7275263281503631e+18,-0.002811990212649107,-0.0014323217328637838,-0.0008488562307320535
1.7275263281563633e+18,-0.0016355229308828712,-0.0013411856489256024,0.00036516322870738804
1.7275263281623634e+18,0.0010420279577374458,0.0007790865493007004,0.001322626369073987
1.7275263281683635e+18,0.0006387645262293518,0.00015276616613846272,0.0005857739015482366
1.7275263281743636e+18,0.0022342042066156864,-0.0021034181118011475,0.0005985117168165743
1.7275263281773637e+18,-0.0017759572947397828,-0.001428139628842473,0.0013960497453808784
1.7275263281833638e+18,0.0025209749583154917,-0.0014240889577195048,-8.057778904912993e-05
1.727526328189364e+18,0.001910340622998774,-0.0009768373565748334,-0.0032713443506509066
1.727526328195364e+18,-0.0016078301705420017,-0.0032233395613729954,-0.0020029658917337656
1.7275263282013642e+18,0.0037323033902794123,0.0012449241476133466,0.0007186910952441394
1.7275263282073644e+18,-0.0025906399823725224,0.0012927617644891143,-0.001902863965369761
1.7275263282133645e+18,-0.0023478269577026367,-0.00200828374363482,0.0031359647400677204
1.7275263282163645e+18,-0.0003054218541365117,-0.0006315683713182807,-0.0015142237534746528
1.7275263282223647e+18,0.0018138553714379668,0.000894556287676096,0.0019336484838277102
1.7275263282283648e+18,-0.0016260063275694847,-0.0001183770946227014,-0.000173766486113891
1.727526328234365e+18,0.00030015292577445507,-0.0011462236288934946,2.0360384951345623e-05
1.727526328237365e+18,-0.0005757237668149173,-0.001116538536734879,-1.2934985534229781e-05
1.727526328243365e+18,0.0001727863127598539,0.0008087970782071352,-0.0015689294086769223
1.7275263282493652e+18,0.0009272078750655055,9.689704165793955e-05,-0.0003542857593856752
1.7275263282553654e+18,0.0019416101276874542,-0.0004526952398009598,0.0025013950653374195
1.7275263282613655e+18,-0.0024256145115941763,-0.003975096624344587,-9.579435572959483e-05
1.7275263282673656e+18,-7.362170435953885e-05,0.0005551125505007803,-0.0019738159608095884
1.7275263282733658e+18,0.0011307867243885994,-0.004420354496687651,0.0027657609898597
1.727526328279366e+18,0.0016326925251632929,0.0004714682581834495,0.00028246393776498735
1.727526328285366e+18,0.003461499698460102,-0.001256739255040884,-0.0021189218387007713
1.7275263282913661e+18,-0.00341911893337965,0.0008195451810024679,0.00033114117104560137
1.7275263282973663e+18,0.0019328987691551447,0.001692857826128602,0.0019929222762584686
1.7275263283003663e+18,-0.0014429041184484959,-0.0016891611739993095,-0.0015301619423553348
1.7275263283063665e+18,0.00017693905101623386,-0.0007237332174554467,-0.0035510591696947813
1.7275263283123666e+18,-0.002981086727231741,-0.00033529638312757015,0.001151341712102294
1.7275263283183667e+18,-0.0002470407052896917,0.0029157535172998905,0.0006817371468059719
1.7275263283243668e+18,-0.0007325102924369276,-0.002177214017137885,0.001917700981721282
1.727526328327367e+18,-0.0025776384864002466,0.0008689389796927571,0.0003679716610349715
1.727526328333367e+18,-0.002020997693762183,0.0006613517180085182,-0.00044562845141626894
1.7275263283393672e+18,-0.00013194949133321643,0.0006352005293592811,0.0008486876613460481
1.7275263283453673e+18,0.0018284167163074017,0.001696819788776338,-0.0012380648404359818
1.7275263283483674e+18,-0.002854409394785762,0.0007898388430476189,0.0021466088946908712
1.7275263283543675e+18,-0.0012105073546990752,-0.0010512411827221513,-0.00025506154634058475
1.7275263283603676e+18,0.0012347656302154064,-0.0014084152644500136,-0.0017427270067855716
1.7275263283663677e+18,0.00045645804493688047,-0.003380715847015381,-0.000610262097325176
1.7275263283693678e+18,-0.0011489350581541657,0.00023603896261192858,0.001483638072386384
1.727526328375368e+18,0.0010039935586974025,0.0009150220430456102,-0.00022748469200450927
1.727526328381368e+18,0.00019106510444544256,0.0008395351469516754,-0.001381595735438168
1.7275263283873682e+18,0.0017792702419683337,0.0010470509296283126,-0.001276189461350441
1.7275263283933683e+18,-0.0009581925696693361,-0.0005601001321338117,0.0015908511122688651
1.7275263283993684e+18,0.0008507971069775522,0.0014383140951395035,-0.0015932265669107437
1.7275263284023685e+18,0.0013962738448753953,0.0020853213500231504,-0.0016618705121800303
1.7275263284083686e+18,0.0013690098421648145,0.0008128884364850819,0.0012537314323708415
1.7275263284143688e+18,0.0032455679029226303,-0.00044567242730408907,0.0021656863391399384
1.727526328420369e+18,0.001205609762109816,0.0010757290292531252,0.002215541433542967
1.727526328426369e+18,0.00013711754581891,0.0012983630876988173,0.00019062899809796363
1.7275263284323692e+18,0.0017718346789479256,-0.0003383623843546957,0.0038962906692177057
1.7275263284383693e+18,-0.003723586443811655,0.0004691584617830813,-0.0008417369681410491
1.7275263284413693e+18,0.000930296431761235,-0.0030426224693655968,-0.0010743570746853948
1.7275263284473695e+18,0.0028052234556525946,0.0018282359233126044,-0.000860821979586035
1.7275263284533696e+18,0.0016125509282574058,0.00030584578053094447,0.003144514048472047
1.7275263284593697e+18,-0.0012482082238420844,-0.000916584744118154,0.0014840366784483194
1.7275263284653699e+18,0.001475235796533525,-0.0038178141694515944,0.0003167765971738845
1.72752632847137e+18,-0.0003384453884791583,-0.0003147218085359782,0.004000414162874222
1.72752632847737e+18,0.00019289832562208176,0.001763853244483471,0.0012937098508700728
1.7275263284833702e+18,-0.00258711539208889,-0.003343519289046526,-0.001403697649948299
1.7275263284893704e+18,-0.003954191692173481,0.00020381738431751728,0.0009399521513842046
1.7275263284923704e+18,-0.00035082519752904773,-0.002094473922625184,-0.0010528588900342584
1.7275263284983706e+18,0.0006965534994378686,-8.53783858474344e-05,0.0017356635071337223
1.7275263285043707e+18,0.00043712573824450374,0.000721961201634258,0.0016288748010993004
1.7275263285103708e+18,0.0014429761795327067,-0.0019917951431125402,-0.0019121351651847363
1.727526328516371e+18,-0.0002445968275424093,-0.0003505825879983604,-0.0010813483968377113
1.727526328522371e+18,4.6881883463356644e-05,-0.0010402936022728682,-0.00038720076554454863
1.7275263285283712e+18,-0.00021772533364128321,-1.965563205885701e-05,-0.0013238165993243456
1.7275263285313713e+18,0.0015794159844517708,0.002911278512328863,0.00022747056209482253
1.7275263285373714e+18,-0.0007876805029809475,0.0004902879591099918,-0.0008685770444571972
1.7275263285433715e+18,-0.0007570382440462708,-0.0014128616312518716,0.0009632296278141439
1.7275263285493716e+18,0.0005081216804683208,-0.0030695367604494095,-0.0011766930110752583
1.7275263285553718e+18,0.0008129122434183955,-0.0005106526077724993,-0.0017254144186154008
1.7275263285583718e+18,-0.000613819807767868,-0.0013504413655027747,0.0014605083269998431
1.727526328564372e+18,0.0002166346093872562,-0.0022397146094590425,-0.0013300686841830611
1.727526328570372e+18,-0.0024297316558659077,-0.0009507336071692407,-0.001534566399641335
1.7275263285763722e+18,0.0009241850930266082,-0.003185845445841551,0.004525619093328714
1.7275263285823724e+18,-0.000676615396514535,0.0008475471986457705,-0.000485621189000085
1.7275263285853724e+18,-0.0009308665757998824,0.003146885894238949,-0.00025096393073908985
1.7275263285913725e+18,-0.0020051251631230116,0.0005025663995184004,-0.0003461883752606809
1.7275263285973727e+18,0.0010743312304839492,0.0012498126598075032,0.0018592884298413992
1.7275263286033728e+18,-0.0005944714648649096,-0.0014919854002073407,-0.004957039374858141
1.727526328609373e+18,0.0019350431393831968,0.0007368340739049017,0.0007268484914675355
1.727526328615373e+18,-0.0008043224806897342,0.0011605785693973303,0.0002746031968854368
1.727526328618373e+18,0.00011181808804394677,-0.0022079083137214184,-0.0014002237003296614
1.7275263286243732e+18,0.0022931857965886593,0.00023612497898284346,-0.0010838581947609782
1.7275263286303734e+18,-0.0008857158245518804,0.00028800865402445197,-0.0035265081096440554
1.7275263286363735e+18,0.0013586333952844143,-0.0009764331043697894,0.0007497977348975837
1.7275263286423736e+18,0.00017524378199595958,0.0014923670096322894,0.001941637834534049
1.7275263286483738e+18,-0.002160546137019992,-3.066073259105906e-05,-0.0014652779791504145
1.7275263286513738e+18,0.0014661193126812577,-0.0011220925953239202,-0.0009855866665020585
1.727526328657374e+18,-0.001114238053560257,0.0009331898763775826,-0.0030413824133574963
1.727526328663374e+18,-0.0006583486683666706,-0.0006678312784060836,-0.0007964213727973402
1.7275263286693742e+18,0.0009557096636854112,0.001536663854494691,-0.0013874152209609747
1.7275263286753743e+18,0.003914003726094961,0.002696230309084058,0.0007783115725032985
1.7275263286783744e+18,-0.0005485162837430835,-0.0020605374593287706,-0.0016536624170839787
1.7275263286843745e+18,0.0012220757780596614,-0.000607261317782104,-0.0003405610623303801
1.7275263286903747e+18,-0.0007949096034280956,-0.00027105066692456603,0.0009191782446578145
1.7275263286963748e+18,-0.0005777335027232766,0.0004602760018315166,0.0007039979682303965
1.727526328702375e+18,0.0015724077820777893,0.0006091967807151377,-0.0022851231042295694
1.727526328705375e+18,-0.0011280581820756197,-0.0011688759550452232,-0.0022859941236674786
1.727526328711375e+18,-0.002287002746015787,0.00012763803533744067,0.0012472049565985799
1.7275263287173752e+18,0.0011599970748648047,0.002196711488068104,0.0001314640394411981
1.7275263287233754e+18,-0.0005040529649704695,-0.0022673869971185923,-0.000767340010497719
1.7275263287293755e+18,0.001813796116039157,-0.0030809135641902685,0.0014543527504429221
1.7275263287353756e+18,0.0013278521364554763,0.0020315402653068304,5.1243782763776835e-06
1.7275263287383757e+18,0.002986198291182518,-0.0006525158532895148,0.0010686300229281187
1.7275263287443758e+18,0.00039232432027347386,-0.0026887624990195036,0.0021400158293545246
1.727526328750376e+18,0.0017479251837357879,-0.0012364810099825263,0.0004656171367969364
1.727526328756376e+18,-0.0020791369024664164,-5.578463969868608e-05,0.00016834841517265886
1.7275263287623762e+18,-0.00010429242684040219,0.0030149270314723253,0.0013574943877756596
1.7275263287683763e+18,-0.001290024840272963,0.0010703557636588812,-0.0015626107342541218
1.7275263287743764e+18,0.0009418152621947229,-0.00017998045950662345,-0.00045445593423210084
1.7275263287803766e+18,0.001263429643586278,0.0006627218681387603,0.00019222703122068197
1.7275263287833766e+18,-0.0013034094590693712,0.0007893360452726483,-0.0011500087566673756
1.7275263287893768e+18,0.002242899965494871,0.001371382037177682,-0.002286014147102833
1.727526328795377e+18,0.0005017622606828809,-0.0018188988324254751,-0.0024452076759189367
1.727526328801377e+18,-0.001227002590894699,-0.0004540224908851087,-0.00016214959032367915
1.727526328804377e+18,-0.0014999917475506663,2.2451058612205088e-05,2.3717846488580108e-05
1.7275263288103772e+18,-0.0009974291315302253,-0.0012837062822654843,0.001911507803015411
1.7275263288163773e+18,-0.0016740381252020597,0.0024649850092828274,-0.0013328007189556956
1.7275263288223775e+18,-0.0018504745094105601,0.000782753573730588,0.0004858520987909287
1.7275263288253775e+18,0.001756869489327073,-0.0008760999771766365,-0.0020405820105224848
1.7275263288313777e+18,-0.00020441327069420367,0.0007277036784216762,0.0014018947258591652
1.7275263288373778e+18,0.0010163545375689864,0.002644557738676667,0.0016345500480383635
1.727526328843378e+18,-0.0016799912555143237,-0.0010301282163709402,0.0004234962980262935
1.727526328849378e+18,-0.00014728654059581459,-0.000157914066221565,0.00025151585577987134
1.727526328852378e+18,-0.0010154254268854856,0.0011442623799666762,-0.0009881829610094428
1.7275263288583782e+18,0.0014512223424389958,-2.5156054107355885e-05,-0.0004650199261959642
1.7275263288643784e+18,0.0026613320223987103,-0.0021570404060184956,-0.0006987914093770087
1.7275263288703785e+18,-0.0023264852352440357,0.003530898131430149,-0.0006565270596183836
1.7275263288733786e+18,0.00028122481307946146,0.000973240879829973,-0.0004148012085352093
1.7275263288793787e+18,-0.0020190980285406113,-0.00045309143024496734,-0.0006786264129914343
1.7275263288853788e+18,0.0011662578908726573,0.00028699301765300333,0.002362586325034499
1.727526328888379e+18,-0.0013291327049955726,-0.0009593055001460016,0.0005167563795112073
1.727526328894379e+18,-0.0012535778805613518,0.0039174361154437065,-0.000723951670806855
1.7275263289003791e+18,-0.0015331583563238382,-0.0008530566701665521,-0.0022588942665606737
1.7275263289063793e+18,-0.0005780375795438886,-0.0016037838067859411,-0.0018937152344733477
1.7275263289123794e+18,-8.460841490887105e-05,-0.0019402470206841826,-0.0003892324457410723
1.7275263289153795e+18,-0.0006004229071550071,0.0011038448428735137,-0.0007675362867303193
1.7275263289213796e+18,0.0017012986354529858,-0.001675922772847116,0.0006700137164443731
1.7275263289273797e+18,-0.0026081993710249662,0.0019836840219795704,-0.0018126898212358356
1.7275263289333798e+18,-0.0005803824751637876,0.00251022563315928,-0.0020628597121685743
1.72752632893938e+18,0.0009255226468667388,-0.0008767415420152247,-0.0006849802448414266
1.72752632894238e+18,0.00017421269149053842,-0.00035081428359262645,-0.0018995628925040364
1.7275263289483802e+18,0.002031150506809354,-0.0021190776024013758,0.00030908084590919316
1.7275263289543803e+18,-0.0017488442827016115,0.0013475572923198342,-0.0019670177716761827
1.7275263289573804e+18,0.002645042259246111,0.002199040725827217,-0.004182752221822739
1.7275263289633805e+18,-0.0003056960122194141,0.0018754757475107908,-0.0022695816587656736
1.7275263289693806e+18,0.002338321413844824,0.0007858072640374303,0.003268128028139472
1.7275263289753807e+18,-0.00010258088877890259,0.0005101324059069157,-0.00017896627832669765
1.7275263289783808e+18,0.0008679169695824385,-8.372890442842618e-05,0.0014812406152486801
1.727526328984381e+18,0.0032498985528945923,-0.0016962734516710043,-0.0042327153496444225
1.727526328990381e+18,0.0005432180478237569,0.00033098450512625277,-0.0012987577356398106
1.7275263289963812e+18,0.002476900117471814,0.0026118657551705837,0.0006789318285882473
1.7275263289993812e+18,-0.0008322999929077923,0.0027432721108198166,0.0005278802127577364
1.7275263290053814e+18,-0.0016411880496889353,0.0007011923589743674,-0.00014532264322042465
1.7275263290113815e+18,0.0008322884677909315,-0.002322547836229205,-0.000348161265719682
1.7275263290173816e+18,0.0028205972630530596,0.0016176508506760001,0.0002930671616923064
1.7275263290233818e+18,0.0016446035588160157,0.0006088254740461707,0.0014009387232363224
1.727526329029382e+18,0.001291058724746108,0.00043371005449444056,0.0008972898940555751
1.727526329032382e+18,-0.0027573159895837307,0.0007418231689371169,0.0007446453673765063
1.727526329038382e+18,-0.0007059427443891764,-0.00027872459031641483,0.0002137968986062333
1.7275263290443822e+18,-0.0005195637349970639,0.0018823553109541535,0.0007177471416071057
1.7275263290503823e+18,-0.0012415163218975067,0.002476723399013281,0.0019471016712486744
1.7275263290563825e+18,-0.0007103304960764945,0.0029210636857897043,0.0009050851804204285
1.7275263290623826e+18,-0.0026596023235470057,-0.0006798827671445906,0.001877638977020979
1.7275263290653827e+18,-0.00021069578360766172,-0.00048412824980914593,-0.001873724046163261
1.7275263290713828e+18,0.000417563394876197,0.0033553154207766056,-0.00046913421829231083
1.727526329077383e+18,0.00026463076937943697,0.0005463908892124891,-0.0010605879360809922
1.727526329083383e+18,0.0007672177744098008,-0.002252914011478424,0.0020495366770774126
1.7275263290893832e+18,0.0004614766512531787,-3.314896457595751e-05,0.0002639381855260581
1.7275263290953833e+18,-0.00013000376929994673,-0.0032554036006331444,-0.0011341728968545794
1.7275263290983834e+18,-0.0012982746120542288,0.0015861087013036013,-0.000430665590101853
1.7275263291043835e+18,-0.001993028447031975,0.0007683042786084116,0.0007224052678793669
1.7275263291103836e+18,-0.0005903609562665224,0.00016868332750163972,-0.0010400254977867007
1.7275263291163837e+18,0.0027505590114742517,0.002592070959508419,-0.0017873236211016774
1.727526329122384e+18,-0.000472955871373415,0.0016275437083095312,0.0030661809723824263
1.727526329128384e+18,0.003211139002814889,-0.003766018198803067,0.0037450247909873724
1.727526329131384e+18,-0.0016992677701637149,0.0013756329426541924,0.0029762352351099253
1.7275263291373842e+18,-0.003187398659065366,0.00028383551398292184,-0.0010736760450527072
1.7275263291433843e+18,0.000895689008757472,-0.001670584548264742,0.0004840280453208834
1.7275263291493844e+18,0.0006838986300863326,0.00200405390933156,-0.00029269265360198915
1.7275263291553846e+18,0.002304679248481989,0.0012707654386758804,-0.00159144785720855
1.7275263291613847e+18,0.0008205579360947013,0.002364259446039796,0.0005673087434843183
1.7275263291643848e+18,-0.00145740807056427,0.0019089874112978578,-0.0029895538464188576
1.727526329170385e+18,-0.0009806477464735508,-0.00023632471857126802,0.0009649458224885166
1.727526329176385e+18,-0.0014605129836127162,-0.000918333069421351,0.00040402711601927876
1.7275263291823852e+18,0.0013575181365013123,-0.0018706348491832614,-0.0002866612048819661
1.7275263291883853e+18,0.00031360224238596857,0.0014416001504287124,0.002119479002431035
1.7275263291943854e+18,0.00030614828574471176,0.0016594728222116828,0.0031544766388833523
1.7275263291973855e+18,-0.0016576015623286366,0.001681063906289637,0.0012935088016092777
1.7275263292033856e+18,-0.0010148935252800584,0.002587422262877226,0.003393264953047037
1.7275263292093857e+18,0.0005852864123880863,-0.00017456087516620755,-0.0008577370899729431
1.7275263292153859e+18,0.002461608499288559,-0.0023438655771315098,-9.975682769436389e-05
1.727526329221386e+18,-0.002518512774258852,0.00087537377839908,-0.0017079644603654742
1.727526329224386e+18,0.0026452336460351944,0.0030481896828860044,-0.0012905049370601773
1.7275263292303862e+18,-0.0008422623504884541,-0.0015072969254106283,0.0005575238028541207
1.7275263292363863e+18,-0.000946874322835356,0.0034702301491051912,0.001595204696059227
1.7275263292423864e+18,-0.00201264931820333,-0.0026537328958511353,-0.000852852885145694
1.7275263292483866e+18,-0.0012531206011772156,0.0008313209982588887,-0.0020547397434711456
1.7275263292513866e+18,0.0006381803541444242,0.002355829579755664,-0.00017881517123896629
1.7275263292573868e+18,0.001880269730463624,0.0006155894952826202,0.0024079829454421997
1.727526329263387e+18,0.001487879198975861,0.00402479525655508,-0.0015609085094183683
1.727526329269387e+18,-0.00042522657895460725,0.0006473828689195216,0.0026120939292013645
1.7275263292753871e+18,0.0018607096280902624,0.00046239790390245616,-2.111570574925281e-05
1.7275263292783872e+18,9.880670404527336e-05,-0.00011427854769863188,-0.001886101090349257
1.7275263292843873e+18,-0.0004924848908558488,-0.0019443875644356012,0.0018857812974601984
1.7275263292903875e+18,-0.0028747529722750187,-0.0011100275442004204,0.0013840639730915427
1.7275263292963876e+18,-0.001047409139573574,0.0005508782924152911,-0.0008767659310251474
1.7275263293023877e+18,0.00025180447846651077,0.003235854906961322,0.002199315931648016
1.7275263293053878e+18,-5.5555730796186253e-05,-0.00040868797805160284,-0.00226969295181334
1.727526329311388e+18,-0.0004306381451897323,0.001805587438866496,0.0017492530168965459
1.727526329317388e+18,-0.0034740210976451635,-0.0005238133599050343,0.00019585916015785187
1.7275263293233882e+18,-0.0010494283633306623,-0.0005517119425348938,-0.002687498927116394
1.7275263293293883e+18,-0.0020879877265542746,0.003686018055304885,-0.00023677761782892048
1.7275263293323884e+18,-0.0009076828719116747,0.0009363425197079778,-0.0016911010025069118
1.7275263293383885e+18,-0.0020142653957009315,0.0013385586207732558,-0.0006116023869253695
1.7275263293443886e+18,0.00021476169058587402,0.0014506557490676641,0.0010704451706260443
1.7275263293503887e+18,0.0005980164278298616,-0.0023543350398540497,0.0008456942741759121
1.7275263293533888e+18,-7.812531111994758e-05,0.0007993819890543818,-5.7470897445455194e-05
1.727526329359389e+18,-0.0002472207124810666,0.0024463708978146315,0.0008123431471176445
1.727526329365389e+18,-0.0024323363322764635,-0.0003784368163906038,-0.0001182977284770459
1.7275263293713892e+18,0.0024874447844922543,-0.000577577156946063,-0.0011763336369767785
1.7275263293773893e+18,0.0027088543865829706,0.0012800341937690973,0.002329092938452959
1.7275263293803894e+18,-0.0027300692163407803,-0.0015036800177767873,0.0012401227140799165
1.7275263293863895e+18,-0.0001812998962122947,0.001509504159912467,-0.0003444399335421622
1.7275263293923896e+18,0.0031568543054163456,0.0007284803432412446,-0.0018781102262437344
1.7275263293983898e+18,0.0012347842566668987,0.0016543017700314522,-0.0012885511387139559
1.7275263294013898e+18,0.0006346198497340083,0.003644385375082493,-0.00042225763900205493
1.72752632940739e+18,-0.001072632265277207,0.001447346294298768,-0.003064240561798215
1.72752632941339e+18,0.0004400228790473193,-0.0019395402632653713,-0.00016868970124050975
1.7275263294193902e+18,-0.00034305427107028663,0.00011482678382890299,-0.0025702554266899824
1.7275263294253903e+18,-0.001721315085887909,-0.0014575999230146408,0.0012962823966518044
1.7275263294313905e+18,0.0022033965215086937,0.001958404667675495,0.0018122168257832527
1.7275263294343905e+18,0.0015377589734271169,-0.0010927740950137377,-0.002645145868882537
1.7275263294403907e+18,-3.535160067258403e-05,0.0004187912854831666,0.0018777134828269482
1.7275263294463908e+18,-0.0020176516845822334,0.0013841387117281556,0.0021760878153145313
1.727526329452391e+18,0.0021790340542793274,0.0005991380312480032,0.0027864344883710146
1.727526329458391e+18,-0.001922757481224835,-0.002891349606215954,-0.001826913096010685
1.7275263294643912e+18,0.0003845867177005857,-0.0011515951482579112,0.00028447681688703597
1.7275263294673912e+18,-0.0002665032516233623,0.0013423387426882982,0.001791987451724708
1.7275263294733914e+18,4.378141966299154e-06,0.0005377176566980779,0.0012030662037432194
1.7275263294793915e+18,-0.0015015116659924388,-0.0015673104207962751,-0.0027921267319470644
1.7275263294853916e+18,0.0011865164851769805,-0.001186202629469335,-0.0010243249125778675
1.7275263294913917e+18,0.00156235764734447,-0.001736119040288031,-0.0020004359539598227
1.7275263294943918e+18,0.00025315844686701894,0.003196912817656994,-0.0005930601619184017
1.727526329500392e+18,-0.00020253128604963422,-0.0019546528346836567,0.0007198527455329895
1.727526329506392e+18,-0.0011334671871736646,0.0033306493423879147,0.0016931353602558374
1.7275263295123922e+18,0.0010248717153444886,0.001507457927800715,0.0012508893851190805
1.7275263295153923e+18,0.0007881856290623546,0.0028050739783793688,-0.000794913328718394
1.7275263295213924e+18,0.0007619208190590143,-0.0011780037311837077,0.00033037777757272124
1.7275263295273925e+18,0.0014334836741909385,0.0021096074488013983,0.0008741405326873064
1.7275263295333926e+18,-0.0010302441660314798,0.0024771271273493767,-0.0007256991229951382
1.7275263295393928e+18,-0.0009154485887847841,-0.0013955420581623912,-0.0009550423128530383
1.727526329545393e+18,0.0005228152731433511,0.0018974391277879477,-0.001645627897232771
1.727526329551393e+18,-0.004400440491735935,0.000634403433650732,6.745925929863006e-05
1.7275263295573932e+18,0.0024191602133214474,0.0013558216160163283,0.001105366158299148
1.7275263295603932e+18,-0.0011751140700653195,0.002589678391814232,0.001510794390924275
1.7275263295663933e+18,0.0017009368166327477,0.002449772320687771,-0.0020632657688111067
1.7275263295723935e+18,0.000520362809766084,-0.00021195560111664236,-0.0007276023970916867
1.7275263295783936e+18,0.0005754207959398627,0.0018663420341908932,-0.0012972938129678369
1.7275263295813937e+18,-0.001560969976708293,-0.00023653679818380624,0.001271320623345673
1.7275263295873938e+18,0.0004952303133904934,-0.001896362635307014,-0.0009428815101273358
1.727526329593394e+18,-0.0016611189348623157,0.0013769479701295495,0.0014109511394053698
1.727526329599394e+18,-0.0013682057615369558,0.0002269983961014077,0.0004886038368567824
1.727526329602394e+18,-0.0007941214716993272,-0.0010822428157553077,-0.00032801716588437557
1.7275263296083942e+18,0.0021939296275377274,0.00016685442824382335,0.0026082866825163364
1.7275263296143944e+18,-0.00228936062194407,-0.001741228625178337,0.00017434445908293128
1.7275263296203945e+18,0.0025707350578159094,0.0011105526937171817,0.0029814960435032845
1.7275263296263946e+18,-0.0013713301159441471,0.0008402574458159506,0.0003926009521819651
1.7275263296323948e+18,0.0008263644995167851,-0.0007902432116679847,-0.003265982260927558
1.7275263296353948e+18,-0.0024882028810679913,0.0039048227481544018,-8.091279596555978e-05
1.727526329641395e+18,-0.002090211259201169,0.0013374711852520704,6.0657705034827814e-05
1.727526329647395e+18,0.0014845662517473102,-0.0002671443799044937,0.0011296572629362345
1.7275263296533952e+18,0.001436366350390017,-0.0006519452435895801,-0.00145224470179528
1.7275263296563953e+18,-4.573807927954476e-06,0.001546005834825337,-0.0006900636944919825
1.7275263296623954e+18,5.940146365901455e-05,0.0018676455365493894,0.00024070868676062673
1.7275263296683955e+18,0.002605574205517769,0.0001386513322358951,-0.0008401851519010961
1.7275263296743956e+18,0.00012563937343657017,0.001754638971760869,-8.041525143198669e-05
1.7275263296803958e+18,-0.0008048263844102621,0.000531890254933387,-0.0009172825375571847
1.727526329686396e+18,-0.0020773292053490877,-0.002058840822428465,0.00017136381939053535
1.727526329689396e+18,3.8200818380573764e-05,0.0006008235504850745,0.0006217345362529159
1.727526329695396e+18,0.0021186312660574913,-0.0026131756603717804,0.0008172408561222255
1.7275263297013962e+18,-0.0009272462339140475,0.001844335114583373,-0.003033773507922888
1.7275263297073964e+18,-0.0002069426263915375,0.001915143569931388,-0.00022882514167577028
1.7275263297133965e+18,-0.0014273034175857902,-0.00047298456775024533,-0.0003375185769982636
1.7275263297193966e+18,0.0010184645652770996,0.00018558789452072233,0.002520826645195484
1.7275263297223967e+18,-8.281929331133142e-05,0.002442236989736557,0.00014694150013383478
1.7275263297283968e+18,0.0009086542413569987,-0.0013993236934766173,-5.26519725099206e-05
1.727526329734397e+18,0.0003589003754314035,0.0017760617192834616,0.002189211081713438
1.727526329740397e+18,-0.0013383794575929642,-0.002083744155243039,-0.001157062710262835
1.7275263297463972e+18,-0.0017996563110500574,-0.0014382974477484822,-0.0041680908761918545
1.7275263297523973e+18,-0.0016212410992011428,0.0024473334196954966,0.00010193949128733948
1.7275263297553974e+18,-0.00020520665566436946,-0.001183427288196981,-0.00020107353338971734
1.7275263297613975e+18,9.062695608008653e-05,-0.00023421092191711068,-0.0004629465111065656
1.7275263297673976e+18,-2.040520303125959e-05,-0.0010922190267592669,0.0005482810083776712
1.7275263297703977e+18,-0.0008221249445341527,0.0021260404027998447,-0.001968306489288807
1.7275263297763978e+18,0.0022548565175384283,0.001828016946092248,0.001875544898211956
1.727526329782398e+18,-0.0002018240629695356,0.0016153965843841434,-0.0003494097327347845
1.727526329788398e+18,0.0013114074245095253,-0.000908592133782804,-0.0001953000173671171
1.7275263297943982e+18,0.0013620193349197507,0.0008876402862370014,-0.0015771029284223914
1.7275263297973983e+18,-0.0005927801830694079,-0.00012246514961589128,-0.0032271018717437983
1.7275263298033984e+18,0.0008923960267566144,0.0008956323144957423,0.002359206322580576
1.7275263298093985e+18,0.00010710173228289932,-0.0029415718745440245,-0.0011174475075677037
1.7275263298153987e+18,-0.0020108202006667852,0.0011225813068449497,0.0011977290268987417
1.7275263298213988e+18,0.0038111209869384766,-0.00025187962455675006,-0.002626442350447178
1.7275263298243988e+18,-0.0022873450070619583,-0.002705194288864732,-0.0012208236148580909
1.727526329830399e+18,-0.001543623860925436,0.0010435916483402252,-0.00116221874486655
1.727526329836399e+18,0.001006126869469881,-0.0016626657452434301,-0.0013745274627581239
1.7275263298423992e+18,0.00012314412742853165,-0.0005921302945353091,-0.0012620835332199931
1.7275263298453993e+18,0.0018102442845702171,0.001793006667867303,0.0018119796877726912
1.7275263298513994e+18,-0.001886854530312121,-0.0010122363455593586,-0.0010614540660753846
1.7275263298573996e+18,-0.00019910770060960203,-0.0011942671844735742,-0.002498844638466835
1.7275263298603996e+18,-2.4039727577473968e-05,0.001455974648706615,0.002747100777924061
1.7275263298663997e+18,-0.000877037295140326,-9.881998266791925e-05,-0.0006253933534026146
1.7275263298724e+18,-0.0009420417482033372,-0.0024193187709897757,0.0014341893838718534
1.7275263298784e+18,-0.0003498093574307859,-7.048426050459966e-05,-0.0003649468708317727
1.7275263298844e+18,0.00047523906687274575,-0.00028561169165186584,0.001183080836199224
1.7275263298874002e+18,0.0010916495230048895,0.001012332970276475,0.0026214111130684614
1.7275263298934003e+18,0.0006203961675055325,-0.0015689090359956026,6.480051524704322e-05
1.7275263298994004e+18,-0.0007250341004692018,-0.00250121857970953,0.0034286342561244965
1.7275263299054006e+18,-0.0006242066738195717,0.00036783929681405425,0.0016968934796750546
1.7275263299114007e+18,-0.002035920973867178,-0.00046229068539105356,0.0009315540664829314
1.7275263299144008e+18,0.0006948680384084582,-0.0018641743808984756,-0.00016917548782657832
1.727526329920401e+18,0.0015134279383346438,1.8453427401254885e-05,0.0017217608401551843
1.727526329926401e+18,0.00019031352712772787,0.0021795255597680807,0.0012530528474599123
1.7275263299324012e+18,-0.0015774796484038234,-0.0005448733572848141,-0.0001781047903932631
1.7275263299384013e+18,0.0004073729505762458,0.00024379159731324762,-0.0013761258451268077
1.7275263299414013e+18,-0.001382040441967547,-0.003265107050538063,0.0013225981965661049
1.7275263299474015e+18,0.011523214168846607,0.01413948554545641,-0.002600795589387417
1.7275263299534016e+18,0.02493095211684704,0.03278570994734764,-0.007287282031029463
1.7275263299594017e+18,0.039998676627874374,0.05015807971358299,-0.008239289745688438
1.7275263299654019e+18,0.05320541188120842,0.06505947560071945,-0.011966285295784473
1.727526329968402e+18,0.05975344404578209,0.07522846013307571,-0.012780929915606976
1.727526329974402e+18,0.07116237282752991,0.08621662855148315,-0.01557162869721651
1.7275263299804022e+18,0.07133763283491135,0.09132484346628189,-0.020245520398020744
1.7275263299864023e+18,0.06910491734743118,0.09452953189611435,-0.021451855078339577
1.7275263299924024e+18,0.06184152141213417,0.08906787633895874,-0.02203327789902687
1.7275263299984026e+18,0.05287611111998558,0.08207883685827255,-0.026817988604307175
1.7275263300044027e+18,0.04497038945555687,0.07695044577121735,-0.031118305400013924
1.7275263300104028e+18,0.0379820354282856,0.0688888356089592,-0.03511272370815277
1.727526330016403e+18,0.037734486162662506,0.07160120457410812,-0.039065536111593246
1.727526330019403e+18,0.03506636992096901,0.0693458691239357,-0.03853844851255417
1.7275263300254031e+18,0.043917980045080185,0.07172881066799164,-0.038619741797447205
1.7275263300314033e+18,0.048035185784101486,0.0734894871711731,-0.04414823278784752
1.7275263300374034e+18,0.05795685946941376,0.08048437535762787,-0.04780597984790802
1.7275263300434035e+18,0.06289602071046829,0.08280187845230103,-0.048056460916996
1.7275263300494036e+18,0.06343771517276764,0.08285229653120041,-0.049324121326208115
1.7275263300554038e+18,0.05969290807843208,0.0767151340842247,-0.05204862356185913
1.7275263300584038e+18,0.05528658628463745,0.0750916600227356,-0.05480741336941719
1.727526330064404e+18,0.049306854605674744,0.07010243833065033,-0.056739047169685364
1.727526330070404e+18,0.03943948820233345,0.06403792649507523,-0.06162993609905243
1.7275263300764042e+18,0.03317877650260925,0.05640393868088722,-0.06113480031490326
1.7275263300824044e+18,0.027205055579543114,0.053756408393383026,-0.06355784833431244
1.7275263300854044e+18,0.02581351064145565,0.05302375555038452,-0.06515105813741684
1.7275263300914045e+18,0.024582592770457268,0.04991808906197548,-0.06853800266981125
1.7275263300974047e+18,0.026517897844314575,0.046866800636053085,-0.07086122035980225
1.7275263301034048e+18,0.028136933222413063,0.049194760620594025,-0.07074129581451416
1.727526330109405e+18,0.030868584290146828,0.046267736703157425,-0.07429096102714539
1.727526330112405e+18,0.029422098770737648,0.048315539956092834,-0.07598374038934708
1.727526330118405e+18,0.030537037178874016,0.04525167867541313,-0.07595307379961014
1.7275263301244052e+18,0.032159991562366486,0.04267788678407669,-0.08015907555818558
1.7275263301304054e+18,0.028795327991247177,0.036853671073913574,-0.0789489895105362
1.7275263301334054e+18,0.028540166094899178,0.033052220940589905,-0.083065927028656
1.7275263301394056e+18,0.02056046947836876,0.03248399496078491,-0.0855870470404625
1.7275263301454057e+18,0.014455761760473251,0.025001002475619316,-0.08842060714960098
1.7275263301484058e+18,0.014779645018279552,0.025921212509274483,-0.08584797382354736
1.727526330154406e+18,0.010087345726788044,0.02274237759411335,-0.08821914345026016
1.727526330160406e+18,0.00925963744521141,0.019787104800343513,-0.08948815613985062
1.7275263301664061e+18,0.006549615412950516,0.01802314631640911,-0.09428688883781433
1.7275263301694062e+18,0.008049528114497662,0.02234208770096302,-0.09094076603651047
1.7275263301754063e+18,0.009391166269779205,0.0196697898209095,-0.09614250063896179
1.7275263301814065e+18,0.012836595997214317,0.012026049196720123,-0.09587052464485168
1.7275263301874066e+18,0.010223987512290478,0.014128855429589748,-0.0982779860496521
1.7275263301904067e+18,0.012502072378993034,0.012210681103169918,-0.09434401243925095
1.7275263301964068e+18,0.011735128238797188,0.011755639687180519,-0.09918632358312607
1.727526330202407e+18,0.010469070635735989,0.008726239204406738,-0.10105234384536743
1.727526330208407e+18,0.0057838112115859985,0.0048281364142894745,-0.10261854529380798
1.727526330211407e+18,0.004173592664301395,0.0036044828593730927,-0.10300683230161667
1.7275263302174072e+18,0.0026517463847994804,0.0025119853671640158,-0.10504674911499023
1.7275263302234074e+18,-0.0025287875905632973,0.00131270254496485,-0.10400724411010742
1.7275263302294075e+18,-0.001760888728313148,-0.0003704385308083147,-0.10573167353868484
1.7275263302354076e+18,-0.000761963427066803,-0.0027844207361340523,-0.10704363137483597
1.7275263302384077e+18,-0.0015866709873080254,0.0015040767611935735,-0.10959389060735703
1.7275263302444078e+18,0.0005563439335674047,0.00016195664647966623,-0.10628636926412582
1.727526330250408e+18,-0.0027721624355763197,-0.002297538798302412,-0.107652947306633
1.727526330256408e+18,0.002599989529699087,-0.005719220265746117,-0.10870402306318283
1.7275263302594081e+18,0.0009934799745678902,-0.006039263680577278,-0.10720118880271912
1.7275263302654083e+18,-0.0006451659137383103,-0.003645258489996195,-0.11245256662368774
1.7275263302714084e+18,-0.0008155053365044296,-0.0056401146575808525,-0.11113898456096649
1.7275263302774085e+18,-0.0033445642329752445,-0.009389564394950867,-0.11049928516149521
1.7275263302834086e+18,-0.002747217658907175,-0.008984105661511421,-0.11184880137443542
1.7275263302864087e+18,-0.0066072060726583,-0.008267590776085854,-0.11066196113824844
1.7275263302924088e+18,-0.006697538308799267,-0.009923525154590607,-0.1101764589548111
1.727526330298409e+18,-0.008624864742159843,-0.011493985541164875,-0.11586714535951614
1.727526330304409e+18,-0.006073776166886091,-0.010269942693412304,-0.11483650654554367
1.7275263303074092e+18,-0.0039192428812384605,-0.0066907042637467384,-0.11632735282182693
1.7275263303164093e+18,-0.004367319401353598,-0.008226399309933186,-0.11524316668510437
1.7275263303194094e+18,0.0007167570292949677,-0.00931483693420887,-0.11544942855834961
1.7275263303254095e+18,-0.003980190958827734,-0.009664666838943958,-0.11719942092895508
1.7275263303314097e+18,-0.0007045820821076632,-0.00961096677929163,-0.11779652535915375
1.7275263303374098e+18,-0.005605868063867092,-0.009810607880353928,-0.11615820229053497
1.72752633034341e+18,-0.0060859862715005875,-0.012543242424726486,-0.11685746163129807
1.72752633034641e+18,-0.007023075129836798,-0.013085552491247654,-0.11682697385549545
1.72752633035241e+18,-0.005724642891436815,-0.0115282591432333,-0.11890462040901184
1.7275263303584102e+18,-0.009396044537425041,-0.01263171061873436,-0.1198931559920311
1.7275263303644104e+18,-0.009135661646723747,-0.011702758260071278,-0.11515641957521439
1.7275263303704105e+18,-0.008625943213701248,-0.012351994402706623,-0.11726115643978119
1.7275263303764106e+18,-0.010018753819167614,-0.011514225043356419,-0.11677942425012589
1.7275263303824108e+18,-0.005305146798491478,-0.01160268485546112,-0.11614122986793518
1.7275263303854108e+18,-0.005137291736900806,-0.011484996415674686,-0.11877816915512085
1.727526330391411e+18,-0.004909462295472622,-0.01388925313949585,-0.1182633712887764
1.727526330397411e+18,-0.005692461505532265,-0.013313818722963333,-0.11809386312961578
1.7275263304034112e+18,-0.004861821886152029,-0.014580504037439823,-0.11843377351760864
1.7275263304094113e+18,-0.0069431415759027,-0.015693869441747665,-0.11308553069829941
1.7275263304124114e+18,-0.006217274349182844,-0.014178600162267685,-0.11699691414833069
1.7275263304184115e+18,-0.0068686408922076225,-0.014476384967565536,-0.11337564885616302
1.7275263304244116e+18,-0.006249458063393831,-0.009961938485503197,-0.11536625027656555
1.7275263304304118e+18,-0.006808812730014324,-0.011466368101537228,-0.11323115229606628
1.727526330436412e+18,-0.007991167716681957,-0.009460627101361752,-0.11256366968154907
1.727526330439412e+18,-0.00693668145686388,-0.009706422686576843,-0.11493925005197525
1.727526330445412e+18,-0.007070863153785467,-0.007378250826150179,-0.11504816263914108
1.7275263304514122e+18,-0.007553184870630503,-0.00804796814918518,-0.11388996243476868
1.7275263304574124e+18,-0.005897904746234417,-0.011225108057260513,-0.11660315841436386
1.7275263304604124e+18,-0.008948675356805325,-0.01349654421210289,-0.11068257689476013
1.7275263304664125e+18,-0.00527380034327507,-0.01157908234745264,-0.11045851558446884
1.7275263304724127e+18,-0.0038131731562316418,-0.01529131643474102,-0.11182793974876404
1.7275263304784128e+18,-0.006362698040902615,-0.016618873924016953,-0.11436991393566132
1.727526330484413e+18,-0.006666702218353748,-0.01515294797718525,-0.11238431185483932
1.727526330487413e+18,-0.005488094408065081,-0.01562413014471531,-0.11373452097177505
1.727526330493413e+18,-0.005248688161373138,-0.009844782762229443,-0.11385395377874374
1.7275263304994132e+18,-0.006494503002613783,-0.0130919823423028,-0.10963516682386398
1.7275263305054134e+18,-0.006456559989601374,-0.00877132173627615,-0.11170483380556107
1.7275263305114135e+18,-0.007530116010457277,-0.00875319354236126,-0.11071085929870605
1.7275263305174136e+18,-0.007487432099878788,-0.009330583736300468,-0.10628590732812881
1.7275263305234138e+18,-0.008559165522456169,-0.009540306404232979,-0.10644037276506424
1.727526330529414e+18,-0.0055796923115849495,-0.01103342603892088,-0.10597120970487595
1.727526330532414e+18,-0.007803597487509251,-0.010309378616511822,-0.108592189848423
1.727526330538414e+18,-0.004981332458555698,-0.010501807555556297,-0.10452612489461899
1.7275263305444142e+18,-0.004140789154917002,-0.011207426898181438,-0.10388053208589554
1.7275263305504143e+18,-0.00539803970605135,-0.010896646417677402,-0.10605048388242722
1.7275263305564145e+18,-0.004324602894484997,-0.010456440970301628,-0.10491669178009033
1.7275263305624146e+18,-0.0023934277705848217,-0.009521967731416225,-0.10284942388534546
1.7275263305684147e+18,-0.004611414857208729,-0.008509472012519836,-0.10214905440807343
1.7275263305714148e+18,-0.00467176828533411,-0.008959840051829815,-0.1000371128320694
1.727526330577415e+18,-0.003240815596655011,-0.007700781803578138,-0.10144586861133575
1.727526330583415e+18,-0.0036391436588019133,-0.009312720037996769,-0.09808012843132019
1.7275263305894152e+18,-0.006397320423275232,-0.011478114873170853,-0.09856363385915756
1.7275263305954153e+18,-0.005871072877198458,-0.007506202906370163,-0.09801267832517624
1.7275263305984154e+18,-0.006465572398155928,-0.006517812144011259,-0.09640202671289444
1.7275263306044155e+18,-0.005550311878323555,-0.00958275143057108,-0.09382691979408264
1.7275263306104156e+18,-0.0042366087436676025,-0.006526474840939045,-0.09131599962711334
1.7275263306164157e+18,-0.005856053903698921,-0.010919397696852684,-0.09111317992210388
1.7275263306194158e+18,-0.004096785560250282,-0.006926074158400297,-0.091140016913414
1.727526330625416e+18,-0.004644707776606083,-0.008430048823356628,-0.0897950753569603
1.727526330631416e+18,-0.001969581935554743,-0.00600138446316123,-0.09232275933027267
1.7275263306374162e+18,-0.0037290367763489485,-0.009431641548871994,-0.0935211181640625
1.7275263306434163e+18,-0.004358298145234585,-0.008598065003752708,-0.09038077294826508
1.7275263306464164e+18,-0.003260883502662182,-0.010390386916697025,-0.08613210171461105
1.7275263306524165e+18,-0.0065788766369223595,-0.009603861719369888,-0.0899662971496582
1.7275263306584166e+18,-0.0036862122360616922,-0.008324684575200081,-0.0832914188504219
1.7275263306644168e+18,-0.005525059532374144,-0.008571382611989975,-0.08496557921171188
1.727526330670417e+18,-0.004886960610747337,-0.006834812927991152,-0.08570239692926407
1.727526330673417e+18,-0.003005478298291564,-0.005406246520578861,-0.08264479786157608
1.727526330679417e+18,-0.009007678367197514,-0.005309915170073509,-0.08147221058607101
1.7275263306854172e+18,-0.004115410149097443,-0.006816426292061806,-0.08063027262687683
1.7275263306914173e+18,-0.004962804727256298,-0.00942963920533657,-0.07778822630643845
1.7275263306974175e+18,-0.006165890023112297,-0.003682612907141447,-0.07705944776535034
1.7275263307004175e+18,-0.003340305294841528,-0.007382428739219904,-0.0781167671084404
1.7275263307064177e+18,-0.004615693353116512,-0.008347911760210991,-0.07788923382759094
1.7275263307124178e+18,-0.0011207005009055138,-0.008921273052692413,-0.07246097922325134
1.727526330718418e+18,-0.004594803787767887,-0.005164576228708029,-0.07204071432352066
1.727526330721418e+18,-0.0004233908839523792,-0.005881283897906542,-0.07475341111421585
1.727526330727418e+18,-0.0032534082420170307,-0.006276787258684635,-0.0728721171617508
1.7275263307334182e+18,-0.0045033711940050125,-0.005624393932521343,-0.07077543437480927
1.7275263307394184e+18,-0.002898597391322255,-0.007527782581746578,-0.06822259724140167
1.7275263307454185e+18,-0.008033251389861107,-0.006495647598057985,-0.06776199489831924
1.7275263307484186e+18,-0.0031183469109237194,-0.00661126896739006,-0.06660488992929459
1.7275263307544187e+18,-0.010864692740142345,-0.005931147374212742,-0.06718916445970535
1.7275263307604188e+18,-0.0018531261011958122,-0.007868568412959576,-0.0652216225862503
1.727526330766419e+18,-0.007332431618124247,-0.006078705657273531,-0.06355288624763489
1.727526330772419e+18,-0.007263807114213705,-0.00861958134919405,-0.0610998198390007
1.7275263307784192e+18,-0.006688048131763935,-0.005642141215503216,-0.05908265337347984
1.7275263307814193e+18,-0.001295658526942134,-0.01000859122723341,-0.060768406838178635
1.7275263307874194e+18,-0.004541871137917042,-0.00474153459072113,-0.05816790834069252
1.7275263307934195e+18,-0.0011769449338316917,-0.006387715693563223,-0.0572994202375412
1.7275263307994196e+18,-0.001498146913945675,-0.003331749467179179,-0.05516665801405907
1.7275263308024197e+18,-0.0001593662891536951,-0.006739042699337006,-0.057424888014793396
1.7275263308084198e+18,-0.004085967782884836,-0.0019146930426359177,-0.05639293044805527
1.72752633081442e+18,-0.0014372562291100621,-0.00232772552408278,-0.054427437484264374
1.72752633082042e+18,-0.0038506004493683577,-0.004527360200881958,-0.051150329411029816
1.7275263308264202e+18,-0.0041578165255486965,-0.006121601909399033,-0.050256650894880295
1.7275263308294203e+18,-0.003948308061808348,-0.00822114571928978,-0.046662330627441406
1.7275263308354204e+18,-0.0038257972337305546,-0.008067070506513119,-0.05120695382356644
1.7275263308414205e+18,-0.0048837075009942055,-0.00590389221906662,-0.047468990087509155
1.7275263308474207e+18,-0.004274601582437754,-0.006722426973283291,-0.04390551522374153
1.7275263308534208e+18,-0.004059324506670237,-0.005255687050521374,-0.0427633561193943
1.7275263308564209e+18,-0.001376870321109891,-0.00685834651812911,-0.044226307421922684
1.727526330862421e+18,-0.0003824608866125345,-0.006229002494364977,-0.040978189557790756
1.727526330868421e+18,-0.00014781393110752106,-0.004549892619252205,-0.041847698390483856
1.7275263308744212e+18,-0.0004613117780536413,-0.004590583965182304,-0.0389166995882988
1.7275263308804214e+18,-0.0022833847906440496,-0.005379729438573122,-0.03865569457411766
1.7275263308834214e+18,-0.0017674920381978154,-0.00798233412206173,-0.03366723656654358
1.7275263308894216e+18,-0.004265209659934044,-0.008332457393407822,-0.032000988721847534
1.7275263308954217e+18,-0.004597517661750317,-0.009010332636535168,-0.03514166176319122
1.7275263309014218e+18,-0.004774963483214378,-0.008219350129365921,-0.03356677666306496
1.727526330907422e+18,-0.003036291804164648,-0.0046579656191170216,-0.029110576957464218
1.727526330913422e+18,-0.004287647549062967,-0.006894661113619804,-0.027383621782064438
1.7275263309194222e+18,-0.003911769948899746,-0.004662766121327877,-0.02578553929924965
1.7275263309254223e+18,-0.004202245734632015,-0.002132639056071639,-0.02910032868385315
1.7275263309284224e+18,-0.0010903419461101294,-0.0056760190054774284,-0.02498552016913891
1.7275263309344225e+18,-0.0017063021659851074,-0.00376648036763072,-0.022480817511677742
1.7275263309404227e+18,-0.005431652069091797,-0.00464204465970397,-0.02080918848514557
1.7275263309464228e+18,-0.005528096109628677,-0.008115864358842373,-0.02127848193049431
1.727526330952423e+18,-0.0031356941908597946,-0.009274455718696117,-0.02022060938179493
1.727526330955423e+18,-0.0019727759063243866,-0.006100344005972147,-0.01574927754700184
1.727526330961423e+18,-0.0020775198936462402,-0.007617071270942688,-0.017155511304736137
1.7275263309674232e+18,-0.0017612866358831525,-0.006208527367562056,-0.013422466814517975
1.7275263309734234e+18,-6.879097782075405e-05,-0.006565133575350046,-0.011689928360283375
1.7275263309794235e+18,-0.002844081725925207,-0.0028906711377203465,-0.010566923767328262
1.7275263309854236e+18,-0.0017910149181261659,-0.004961335565894842,-0.014562373980879784
1.7275263309884237e+18,4.769768565893173e-05,-0.003083548042923212,-0.012804453261196613
1.7275263309944238e+18,-0.0004373143892735243,-0.006042907014489174,-0.006325569935142994
1.727526331000424e+18,-0.002938648918643594,-0.004826096817851067,-0.009640226140618324
1.727526331006424e+18,-0.0014112305361777544,-0.006727535277605057,-0.00663891201838851
1.7275263310124242e+18,-0.004816959146410227,-0.004024929367005825,-0.004059264436364174
1.7275263310184243e+18,-0.004683371167629957,-0.005065063945949078,-0.0005578775890171528
1.7275263310244244e+18,-0.005381727125495672,-0.0022838048171252012,0.006508245598524809
1.7275263310304246e+18,-0.004240186419337988,-0.0037027359940111637,0.007342836819589138
1.7275263310364247e+18,-0.0018382561393082142,-0.0033831219188869,0.008711675181984901
1.7275263310424248e+18,-0.0068984488025307655,-0.0037703337147831917,0.014265039004385471
1.727526331045425e+18,-0.0034267278388142586,-0.0060420650988817215,0.01760542392730713
1.727526331051425e+18,-0.0009832559153437614,-0.002203342504799366,0.024667982012033463
1.7275263310574252e+18,-0.0018125365022569895,-0.001835319446399808,0.025848574936389923
1.7275263310634253e+18,0.003340109484270215,-0.0025227712467312813,0.0325196199119091
1.7275263310694254e+18,-0.0026481596287339926,-0.005109668243676424,0.037248291075229645
1.7275263310754255e+18,-0.0018102331086993217,-0.002846907591447234,0.043123506009578705
1.7275263310784256e+18,-0.0036185518838465214,-0.004736119881272316,0.04442794248461723
1.7275263310844257e+18,-0.004481079988181591,-0.0034751971252262592,0.05073031783103943
1.7275263310904259e+18,-0.002987191779538989,-0.003776862286031246,0.05549483373761177
1.727526331096426e+18,-0.0064917998388409615,-0.0026262085884809494,0.06398218125104904
1.727526331102426e+18,-0.006093794014304876,-0.005082599353045225,0.06881619244813919
1.7275263311084262e+18,-0.005733052734285593,-0.005015080329030752,0.07478219270706177
1.7275263311144264e+18,-0.004516017157584429,-0.005596824921667576,0.07942251861095428
1.7275263311204265e+18,-0.003935385961085558,-0.004422678612172604,0.08492841571569443
1.7275263311234266e+18,-0.0016194868367165327,-0.0022789640352129936,0.08627384901046753
1.7275263311294267e+18,-0.003655536100268364,-0.0021875016391277313,0.0948399230837822
1.7275263311354268e+18,-0.006079709157347679,-0.004569033160805702,0.10067949444055557
1.727526331141427e+18,-0.0020960229448974133,-0.0019164091208949685,0.10583566129207611
1.727526331147427e+18,-0.0017003815155476332,-0.0016124837566167116,0.11202803999185562
1.7275263311534272e+18,-0.003129183081910014,-0.002363400300964713,0.12036056071519852
1.7275263311564273e+18,-0.004839587956666946,-0.002086378401145339,0.12229210138320923
1.7275263311624274e+18,-0.00417876522988081,-0.002296853344887495,0.12683169543743134
1.7275263311684275e+18,-0.0036157765425741673,-0.002357569755986333,0.13304106891155243
1.7275263311744276e+18,-0.0030886176973581314,-0.005317104049026966,0.13619846105575562
1.7275263311804278e+18,-0.002840504515916109,-0.003821246325969696,0.1410798579454422
1.727526331186428e+18,-0.0017098704120144248,-0.003892721375450492,0.14582443237304688
1.727526331192428e+18,-0.004055798519402742,-0.005412462167441845,0.15240053832530975
1.7275263311984282e+18,-0.003182686399668455,-0.005407007411122322,0.1556033343076706
1.7275263312014282e+18,-0.003246953710913658,-0.00203216471709311,0.1568007469177246
1.7275263312074284e+18,-0.005441064015030861,-0.0042711906135082245,0.1590321958065033
1.7275263312134285e+18,-0.0037253815680742264,-0.004340783227235079,0.1651802808046341
1.7275263312194286e+18,-0.001653430750593543,-0.0032038004137575626,0.17026358842849731
1.7275263312254287e+18,-0.005631023086607456,-0.0022853449918329716,0.17454630136489868
1.7275263312314289e+18,-0.003794811200350523,-0.005894716829061508,0.1764058768749237
1.727526331234429e+18,-0.0030082741286605597,-0.003575493348762393,0.1795201450586319
1.727526331240429e+18,-0.0024072660598903894,-0.004284556023776531,0.1819695681333542
1.7275263312464292e+18,-0.001735134981572628,-0.00463860621675849,0.18679149448871613
1.7275263312524293e+18,-0.00016134441830217838,-0.005121000576764345,0.19112402200698853
1.7275263312584294e+18,-0.004510638769716024,-0.0041945576667785645,0.19114142656326294
1.7275263312614295e+18,-0.00014431355521082878,-0.0013064069207757711,0.19349825382232666
1.7275263312674296e+18,-0.00292965373955667,-0.005897268652915955,0.19372403621673584
1.7275263312734298e+18,-0.0006294810445979238,-0.005088915582746267,0.20085757970809937
1.72752633127943e+18,-0.002129113767296076,-0.0019869511015713215,0.20125164091587067
1.72752633128543e+18,-0.0017392542213201523,-0.0013730876380577683,0.20196594297885895
1.72752633128843e+18,-0.002061154693365097,-0.00455143116414547,0.207815021276474
1.7275263312944302e+18,-0.003551663365215063,-0.003972647711634636,0.20902231335639954
1.7275263313004303e+18,-0.0038846214301884174,-0.0028891656547784805,0.2096424698829651
1.7275263313064305e+18,-0.0055243936367332935,-0.004622736480087042,0.21362584829330444
1.7275263313124306e+18,0.0009941925527527928,0.00026402948424220085,0.21786737442016602
1.7275263313154307e+18,0.002814765088260174,-0.002729385392740369,0.21865348517894745
1.7275263313214308e+18,0.012990602292120457,-0.0035172896459698677,0.21871274709701538
1.727526331327431e+18,0.03442787751555443,-0.0007195360958576202,0.21924053132534027
1.727526331333431e+18,0.06036292389035225,-0.0013944017700850964,0.22122371196746826
1.7275263313394312e+18,0.08871930092573166,0.0008538450347259641,0.22057679295539856
1.7275263313424312e+18,0.10164997726678848,-0.0038585555739700794,0.22031815350055695
1.7275263313484314e+18,0.12314214557409286,0.0010338136926293373,0.2208692878484726
1.7275263313544315e+18,0.13286703824996948,0.003274223767220974,0.22278587520122528
1.7275263313604316e+18,0.13751128315925598,0.0036455122753977776,0.22425803542137146
1.7275263313664317e+18,0.12971225380897522,0.004775474779307842,0.22083213925361633
1.727526331372432e+18,0.12152305245399475,-0.001857721246778965,0.21709302067756653
1.727526331378432e+18,0.10802499949932098,0.0011089143808931112,0.21491767466068268
1.727526331384432e+18,0.09914088994264603,-0.0006731539033353329,0.2116551399230957
1.7275263313874322e+18,0.0989932119846344,2.927787136286497e-05,0.21056953072547913
1.7275263313934323e+18,0.09618193656206131,0.0011524790897965431,0.2055087387561798
1.7275263313994324e+18,0.0959836095571518,-0.00211520167067647,0.20940691232681274
1.7275263314054326e+18,0.10780713707208633,-0.0009674105094745755,0.20498904585838318
1.7275263314114327e+18,0.1178446114063263,0.0015541755128651857,0.19915062189102173
1.7275263314144328e+18,0.12260890752077103,0.0002472419582773,0.20142121613025665
1.727526331420433e+18,0.1275789737701416,-0.0005976699758321047,0.19892849028110504
1.727526331426433e+18,0.1279275268316269,0.00115565478336066,0.19465705752372742
1.7275263314324332e+18,0.11172983795404434,0.0009366480517201126,0.19284170866012573
1.7275263314384333e+18,0.09493664652109146,0.0011030319146811962,0.1877073347568512
1.7275263314414333e+18,0.0787208303809166,-0.0019075500313192606,0.18871204555034637
1.7275263314474335e+18,0.05472682788968086,-0.0026701530441641808,0.18678776919841766
1.7275263314534336e+18,0.02396431192755699,7.226481102406979e-06,0.18041808903217316
1.7275263314594337e+18,-0.014924040995538235,-0.002008006675168872,0.18014082312583923
1.7275263314654339e+18,-0.041247282177209854,-0.0027775010094046593,0.17602857947349548
1.727526331471434e+18,-0.05844785273075104,0.000462925061583519,0.17365598678588867
1.727526331474434e+18,-0.06128356605768204,-0.0014230790548026562,0.17157673835754395
1.7275263314804342e+18,-0.06570158153772354,-0.004604100715368986,0.16710016131401062
1.7275263314864343e+18,-0.05928311496973038,-0.002596859587356448,0.16303303837776184
1.7275263314924344e+18,-0.042618103325366974,-0.00377701036632061,0.16129596531391144
1.7275263314984346e+18,-0.03741474822163582,-0.0007027506362646818,0.16163161396980286
1.7275263315014346e+18,-0.032832302153110504,-0.001956596039235592,0.1602017730474472
1.7275263315074348e+18,-0.03134344145655632,-0.003999531269073486,0.15439757704734802
1.727526331513435e+18,-0.03516458719968796,-0.0030967090278863907,0.14957958459854126
1.727526331519435e+18,-0.04623429477214813,-0.0034050019457936287,0.15063762664794922
1.7275263315254351e+18,-0.06375662237405777,-0.003797693643718958,0.14673930406570435
1.7275263315284352e+18,-0.06881057471036911,-0.0016046268865466118,0.14515042304992676
1.7275263315344353e+18,-0.08206915855407715,-0.005848166532814503,0.14208540320396423
1.7275263315404355e+18,-0.09433931112289429,-0.004979803692549467,0.13629701733589172
1.7275263315464356e+18,-0.09358101338148117,-0.003042400348931551,0.1355052888393402
1.7275263315524357e+18,-0.08950389176607132,-0.005231272429227829,0.1335114687681198
1.7275263315584358e+18,-0.07930652797222137,-0.0035840850323438644,0.12983153760433197
1.727526331561436e+18,-0.07274522632360458,-0.0008292385609820485,0.12469372153282166
1.727526331567436e+18,-0.05954154208302498,0.0006813323125243187,0.12288158386945724
1.7275263315734362e+18,-0.04909415543079376,-0.002512304112315178,0.12249831855297089
1.7275263315794363e+18,-0.0463063083589077,-0.004058878403156996,0.11812681704759598
1.7275263315854364e+18,-0.04535209760069847,-0.0031833010725677013,0.1146865114569664
1.7275263315914365e+18,-0.04511983320116997,-0.0004362383624538779,0.11238552629947662
1.7275263315974367e+18,-0.05328051373362541,-0.002866829512640834,0.10704098641872406
1.7275263316034368e+18,-0.05836961790919304,0.00026516686193645,0.1078745424747467
1.727526331609437e+18,-0.06855397671461105,0.0009393482469022274,0.10224262624979019
1.727526331615437e+18,-0.06991975009441376,-0.003883529920130968,0.10069352388381958
1.7275263316214372e+18,-0.06889759004116058,-0.0031776109244674444,0.09532395005226135
1.7275263316274373e+18,-0.061768922954797745,-0.0033855033107101917,0.09398362040519714
1.7275263316334374e+18,-0.05137758329510689,-0.0031634927727282047,0.09074731916189194
1.7275263316394376e+18,-0.04419301822781563,-0.0035464284010231495,0.0860181599855423
1.7275263316424376e+18,-0.03701695799827576,-0.0015144010540097952,0.08949975669384003
1.7275263316514378e+18,-0.02669496275484562,0.002149976324290037,0.08184424042701721
1.727526331657438e+18,-0.023765765130519867,-0.0004096082993783057,0.07852070033550262
1.727526331663438e+18,-0.024396847933530807,-0.0018019943963736296,0.07807100564241409
1.7275263316694382e+18,-0.02688145451247692,0.00107650738209486,0.07402509450912476
1.7275263316754383e+18,-0.033196821808815,-0.0017701014876365662,0.0707717016339302
1.7275263316784384e+18,-0.03609945625066757,-0.001220616279169917,0.07187618315219879
1.7275263316844385e+18,-0.04151006415486336,-0.001253817928954959,0.06323018670082092
1.7275263316904387e+18,-0.04102078080177307,-0.003010171465575695,0.06499406695365906
1.7275263316964388e+18,-0.03609488159418106,-0.0003315787762403488,0.05971672013401985
1.727526331702439e+18,-0.03257068246603012,-0.0025386023335158825,0.05777766928076744
1.727526331708439e+18,-0.02851324900984764,-0.0012120431056246161,0.05841585993766785
1.7275263317144392e+18,-0.018145602196455002,0.0015194871230050921,0.05264319106936455
1.7275263317204393e+18,-0.007606495171785355,0.0002622022293508053,0.05201185122132301
1.7275263317264394e+18,-0.007398735731840134,-0.001155578182078898,0.0448027141392231
1.7275263317324396e+18,-0.006334265228360891,-0.0018881174037232995,0.04398505389690399
1.7275263317384397e+18,-0.005708926357328892,-0.0010816095164045691,0.04336221516132355
1.7275263317444398e+18,-0.009550800547003746,0.0017604529857635498,0.038102298974990845
1.72752633175044e+18,-0.014482352882623672,-0.0013247935567051172,0.03922770544886589
1.72752633175644e+18,-0.018442193046212196,-0.002604836830869317,0.03607764095067978
1.7275263317594401e+18,-0.021708762273192406,-0.0025917666498571634,0.032690487802028656
1.7275263317654403e+18,-0.02029857411980629,-0.0011891776230186224,0.02931254915893078
1.7275263317714404e+18,-0.01869029738008976,-3.2134237699210644e-05,0.029908224940299988
1.7275263317774405e+18,-0.01374337263405323,-0.004214600659906864,0.02622688189148903
1.7275263317834406e+18,-0.009175630286335945,-0.0035805136431008577,0.025177523493766785
1.7275263317894408e+18,-0.0041070012375712395,-0.0007288238848559558,0.02182302437722683
1.727526331795441e+18,-0.0023424960672855377,-0.0016504664672538638,0.018605226650834084
1.727526331801441e+18,-0.002418900839984417,-0.0022754836827516556,0.015563443303108215
1.7275263318074412e+18,0.0005931002087891102,-0.002231851452961564,0.013148976489901543
1.7275263318134413e+18,-0.0015683902893215418,-0.00021507919882424176,0.00917288102209568
1.7275263318194414e+18,-0.0034976848401129246,-0.00026905775303021073,0.013657665811479092
1.7275263318254415e+18,-0.008634926751255989,0.0005628627841360867,0.00795629620552063
1.7275263318314417e+18,-0.009491337463259697,0.002863091416656971,0.008516442030668259
1.7275263318374418e+18,-0.01153422612696886,0.0022270753979682922,0.0034189813304692507
1.7275263318404419e+18,-0.01187124289572239,0.0010112379677593708,0.0028007356449961662
1.727526331846442e+18,-0.010167504660785198,-0.0011693892301991582,-7.924390956759453e-05
1.727526331852442e+18,-0.008563130162656307,0.0009387735044583678,-0.0018817335367202759
1.7275263318584422e+18,-0.0022441563196480274,0.0011400565272197127,-0.003117995336651802
1.7275263318644424e+18,-0.00047299196012318134,-0.00224586995318532,-0.005200347863137722
1.7275263318704425e+18,0.001914036343805492,-0.004607715178281069,-0.008326586335897446
1.7275263318764426e+18,-0.0007596510695293546,-0.0031823234166949987,-0.009730379097163677
1.7275263318824428e+18,-0.0012925427872687578,-0.0037757395766675472,-0.01090699527412653
1.7275263318854428e+18,0.0022387970238924026,-0.0030314240138977766,-0.014518256299197674
1.727526331891443e+18,-3.126775845885277e-05,-0.0036764603573828936,-0.015899188816547394
1.727526331897443e+18,-0.006173211149871349,-0.002102788770571351,-0.015192820690572262
1.7275263319034432e+18,-0.007813393138349056,0.00012964056804776192,-0.018845589831471443
1.7275263319094433e+18,-0.007701454684138298,0.0012552323751151562,-0.02064354158937931
1.7275263319154435e+18,-0.005936115048825741,-0.0019959083292633295,-0.02329147607088089
1.7275263319214436e+18,-0.007464112713932991,-0.0012586729135364294,-0.024367323145270348
1.7275263319244436e+18,-0.005519845522940159,0.0012410967610776424,-0.022913627326488495
1.7275263319304438e+18,-0.004352814983576536,0.0006552068516612053,-0.02597990818321705
1.727526331936444e+18,0.0016027084784582257,-0.0005205731140449643,-0.027299074456095695
1.727526331942444e+18,-0.0004112443421036005,-0.0024467571638524532,-0.03036998212337494
1.7275263319484442e+18,0.0046546971425414085,-0.004880858119577169,-0.03120875544846058
1.7275263319514442e+18,0.0015262868255376816,-0.001735687255859375,-0.03343593329191208
1.7275263319574444e+18,0.0035806966479867697,-0.001908513717353344,-0.03289183974266052
1.7275263319634445e+18,0.002214293461292982,-0.0008087662281468511,-0.0355316586792469
1.7275263319724447e+18,-0.0025561461225152016,0.0011422164971008897,-0.03432220220565796
1.7275263319754447e+18,-1.4568795450031757e-05,0.0029716198332607746,-0.03633609414100647
1.7275263319814449e+18,-0.002807619981467724,-0.0002988755004480481,-0.041875846683979034
1.727526331987445e+18,-0.003585623577237129,0.001664632698521018,-0.04303307458758354
1.727526331993445e+18,-0.003757510334253311,0.0024356949143111706,-0.04449601098895073
1.7275263319994452e+18,-0.0032925528939813375,-0.006612584460526705,-0.04475558549165726
1.7275263320024453e+18,-0.0027192002162337303,-0.010404886677861214,-0.04410310089588165
1.7275263320084454e+18,-0.0007031254936009645,-0.021491430699825287,-0.0478467121720314
1.7275263320144456e+18,4.778803850058466e-05,-0.03903365135192871,-0.04562196135520935
1.7275263320204457e+18,0.0005138024571351707,-0.044944360852241516,-0.04872041568160057
1.7275263320234458e+18,0.002106146886944771,-0.05236660689115524,-0.049086667597293854
1.727526332032446e+18,0.001994643360376358,-0.08107826113700867,-0.05219664052128792
1.727526332035446e+18,0.0013417329173535109,-0.08895649015903473,-0.05152324214577675
1.7275263320414461e+18,-0.0023600587155669928,-0.09955655783414841,-0.054614000022411346
1.7275263320474463e+18,0.00023411260917782784,-0.11173726618289948,-0.05406464263796806
1.7275263320534464e+18,-0.0067394571378827095,-0.1145782321691513,-0.0572439506649971
1.7275263320594465e+18,-0.008786039426922798,-0.12418857216835022,-0.05875874310731888
1.7275263320654467e+18,-0.008165405131876469,-0.12896119058132172,-0.05640903487801552
1.7275263320684467e+18,-0.010257942602038383,-0.1371166855096817,-0.058274585753679276
1.7275263320744468e+18,-0.009453547187149525,-0.1478646993637085,-0.05950810760259628
1.727526332080447e+18,-0.007724277209490538,-0.1605658233165741,-0.05869921296834946
1.727526332086447e+18,-0.007019160781055689,-0.1793825477361679,-0.06394527852535248
1.7275263320924472e+18,-0.0019407434156164527,-0.20068714022636414,-0.062281981110572815
1.7275263320984474e+18,-0.0009010746143758297,-0.21638306975364685,-0.06056153401732445
1.7275263321014474e+18,-0.0012918293941766024,-0.22643333673477173,-0.06474891304969788
1.7275263321074476e+18,-0.0036321517545729876,-0.23945651948451996,-0.06387154012918472
1.7275263321134477e+18,0.0007335344562307,-0.24720628559589386,-0.06326739490032196
1.7275263321194478e+18,-0.0026600398123264313,-0.24540090560913086,-0.06717632710933685
1.727526332125448e+18,-0.004129421431571245,-0.23915332555770874,-0.06609027087688446
1.727526332128448e+18,-0.007226523477584124,-0.23851998150348663,-0.06831803172826767
1.727526332134448e+18,-0.009063776582479477,-0.22874967753887177,-0.06996092945337296
1.7275263321404483e+18,-0.01067562960088253,-0.2269241064786911,-0.06901887059211731
1.7275263321464484e+18,-0.010308271273970604,-0.22142140567302704,-0.06782304495573044
1.7275263321494484e+18,-0.0066783917136490345,-0.22946494817733765,-0.06664785742759705
1.7275263321554486e+18,-0.004959143232554197,-0.2405359148979187,-0.07137739658355713
1.7275263321614487e+18,-0.0062427520751953125,-0.2509223222732544,-0.07097873836755753
1.7275263321674488e+18,-0.004909786861389875,-0.2664893865585327,-0.07194465398788452
1.727526332173449e+18,-0.0014448040165007114,-0.27581116557121277,-0.0721682459115982
1.727526332179449e+18,0.00040119094774127007,-0.2763044834136963,-0.0736926943063736
1.7275263321824492e+18,-0.0034197848290205,-0.27618661522865295,-0.07338536530733109
1.7275263321884493e+18,-0.0032091718167066574,-0.27370184659957886,-0.073686882853508
1.7275263321944494e+18,-0.009189581498503685,-0.26103588938713074,-0.0735626369714737
1.7275263322004495e+18,-0.007805837318301201,-0.24544911086559296,-0.07162046432495117
1.7275263322064497e+18,-0.009989318437874317,-0.2331571727991104,-0.07236762344837189
1.7275263322094497e+18,-0.008671426214277744,-0.22730860114097595,-0.07308702170848846
1.7275263322154499e+18,-0.008334691636264324,-0.21273702383041382,-0.07252813130617142
1.72752633222145e+18,-0.009849236346781254,-0.20851974189281464,-0.07305251806974411
1.72752633222745e+18,-0.005758846178650856,-0.2033129632472992,-0.07464255392551422
1.7275263322334502e+18,-0.006331162061542273,-0.20238380134105682,-0.07443184405565262
1.7275263322364503e+18,-0.00502388272434473,-0.20196254551410675,-0.07799138128757477
1.7275263322424504e+18,-0.0005097361281514168,-0.19638888537883759,-0.07812336832284927
1.7275263322484506e+18,-0.001924832002259791,-0.19292832911014557,-0.07553837448358536
1.7275263322544507e+18,-0.000259037537034601,-0.1875329613685608,-0.07608549296855927
1.7275263322604508e+18,-0.0007352768443524837,-0.17748092114925385,-0.0775383785367012
1.727526332263451e+18,-0.0002260275650769472,-0.17169640958309174,-0.07570087909698486
1.727526332269451e+18,-0.002526460448279977,-0.16147156059741974,-0.07859011739492416
1.7275263322754511e+18,-0.0034471086692065,-0.15001431107521057,-0.07595449686050415
1.7275263322814513e+18,-0.006105666048824787,-0.14059534668922424,-0.07895828038454056
1.7275263322874514e+18,-0.008321786299347878,-0.1304250806570053,-0.07433265447616577
1.7275263322934515e+18,-0.004717452451586723,-0.12109777331352234,-0.0784054547548294
1.7275263322964516e+18,-0.0050453850999474525,-0.12084518373012543,-0.07563144713640213
1.7275263323024517e+18,-0.0042907423339784145,-0.10970659554004669,-0.07689820975065231
1.7275263323084518e+18,0.000562191242352128,-0.10345049202442169,-0.077358178794384
1.727526332314452e+18,-0.002193228807300329,-0.08974210172891617,-0.07758095115423203
1.727526332320452e+18,0.002224778989329934,-0.07332885265350342,-0.07574956864118576
1.7275263323234522e+18,8.123298175632954e-05,-0.06142381206154823,-0.08110075443983078
1.7275263323294523e+18,0.001675277017056942,-0.044585153460502625,-0.07652893662452698
1.7275263323354524e+18,0.004701248370110989,-0.025561166927218437,-0.07649791985750198
1.7275263323414525e+18,-0.0013490533456206322,-0.008056746795773506,-0.07602190226316452
1.7275263323474527e+18,-0.0016917727189138532,0.007043222896754742,-0.07493442296981812
1.7275263323534528e+18,-0.0002564876340329647,0.011803174391388893,-0.0745319128036499
1.7275263323564529e+18,-0.0019450478721410036,0.014982769265770912,-0.07363031059503555
1.727526332362453e+18,-0.0030307071283459663,0.02213725633919239,-0.07739601284265518
1.727526332368453e+18,-0.0029437553603202105,0.03718937933444977,-0.07546187192201614
1.7275263323744532e+18,-0.0041692545637488365,0.04583582282066345,-0.07458223402500153
1.7275263323804534e+18,-0.0005822067032568157,0.06566910445690155,-0.07285788655281067
1.7275263323864535e+18,0.0014921082183718681,0.09159468114376068,-0.07217569649219513
1.7275263323894536e+18,0.0010616052895784378,0.10664410889148712,-0.07347141951322556
1.7275263323954537e+18,0.003123215865343809,0.13253892958164215,-0.07534720748662949
1.7275263324014538e+18,0.005598397925496101,0.16850991547107697,-0.07529797405004501
1.727526332407454e+18,0.004685667809098959,0.19019576907157898,-0.07522404193878174
1.727526332410454e+18,0.0002738591283559799,0.20411108434200287,-0.07477369159460068
1.7275263324164541e+18,0.0030841403640806675,0.22226320207118988,-0.07415097951889038
1.7275263324224543e+18,-0.0036833856720477343,0.23816871643066406,-0.07403484731912613
1.7275263324284544e+18,-0.0019101505167782307,0.252002477645874,-0.07342808693647385
1.7275263324314545e+18,-0.0034538654144853354,0.25573036074638367,-0.07164250314235687
1.7275263324374546e+18,-0.0010289496276527643,0.26009365916252136,-0.07133655995130539
1.7275263324434547e+18,-0.0016741810832172632,0.2679309844970703,-0.07384081184864044
1.7275263324494548e+18,-0.0020543287973850965,0.2694079875946045,-0.06902293115854263
1.727526332455455e+18,-0.0031208558939397335,0.2758481204509735,-0.07087811827659607
1.727526332458455e+18,-0.00038699188735336065,0.2767212688922882,-0.07009778171777725
1.7275263324644552e+18,-0.0017643831670284271,0.2803155183792114,-0.06900095194578171
1.7275263324704553e+18,-0.0009928331710398197,0.2829294204711914,-0.06911101192235947
1.7275263324764554e+18,0.0009311728645116091,0.28683406114578247,-0.06816093623638153
1.7275263324824556e+18,-0.0038148141466081142,0.2832140028476715,-0.06956374645233154
1.7275263324854556e+18,0.0031711547635495663,0.2839975655078888,-0.06764189153909683
1.7275263324914557e+18,0.0010324243921786547,0.27691414952278137,-0.06935207545757294
1.7275263324974559e+18,0.0011204215697944164,0.27106836438179016,-0.06902268528938293
1.727526332503456e+18,-0.002055421471595764,0.26294729113578796,-0.06310241669416428
1.7275263325094561e+18,-0.0014506196603178978,0.25406843423843384,-0.06747293472290039
1.7275263325154563e+18,-0.0016418960876762867,0.2458149641752243,-0.06435766816139221
1.7275263325214564e+18,-0.0025984214153140783,0.23206625878810883,-0.06424165517091751
1.7275263325244564e+18,-0.0021697559859603643,0.2339571714401245,-0.06389947235584259
1.7275263325304566e+18,-0.00235174223780632,0.22775259613990784,-0.06158813089132309
1.7275263325364567e+18,-0.0012809240724891424,0.2229854017496109,-0.06075240671634674
1.7275263325424568e+18,-0.004780887626111507,0.21150808036327362,-0.06092775985598564
1.727526332548457e+18,-0.0038178940303623676,0.20900118350982666,-0.05948484688997269
1.727526332554457e+18,0.00036852993071079254,0.1977725774049759,-0.05899207293987274
1.7275263325604572e+18,-0.0027832326013594866,0.18489830195903778,-0.06007752940058708
1.7275263325634573e+18,-0.0029254972469061613,0.18277102708816528,-0.05982980877161026
1.7275263325694574e+18,-0.0021744542755186558,0.16976013779640198,-0.057319510728120804
1.7275263325754575e+18,-0.0033719995990395546,0.15944762527942657,-0.05683436244726181
1.7275263325814577e+18,-0.002703417092561722,0.15161092579364777,-0.05777039751410484
1.7275263325844577e+18,-0.0043996283784508705,0.14451049268245697,-0.056856878101825714
1.7275263325904579e+18,-0.004012013785541058,0.13684296607971191,-0.0544128380715847
1.727526332596458e+18,-0.004239693284034729,0.1293860226869583,-0.056774407625198364
1.727526332602458e+18,-0.00613417336717248,0.12320052087306976,-0.0509212352335453
1.7275263326084582e+18,-0.003372884588316083,0.11397311091423035,-0.054242853075265884
1.7275263326114583e+18,-0.003504959400743246,0.11507302522659302,-0.0529828704893589
1.7275263326174584e+18,-0.0079742930829525,0.10566964745521545,-0.05424736067652702
1.7275263326234586e+18,-0.0019411302637308836,0.09618422389030457,-0.051141396164894104
1.7275263326294587e+18,-0.0008026608265936375,0.08828965574502945,-0.052580028772354126
1.7275263326354588e+18,-0.0009305902058258653,0.08162053674459457,-0.04926946014165878
1.727526332638459e+18,0.00011839251965284348,0.08009792119264603,-0.048677459359169006
1.727526332644459e+18,-0.002133250003680587,0.07144137471914291,-0.047287680208683014
1.7275263326504591e+18,-0.0029078167863190174,0.06435637176036835,-0.04533838853240013
1.7275263326564593e+18,-0.00443474343046546,0.05786924809217453,-0.045865364372730255
1.7275263326624594e+18,-0.005979621782898903,0.053927935659885406,-0.04461337998509407
1.7275263326654595e+18,-0.005951800383627415,0.05042240768671036,-0.048888616263866425
1.7275263326714596e+18,-0.004815230146050453,0.045879364013671875,-0.045266423374414444
1.7275263326774597e+18,-0.005701226182281971,0.038754016160964966,-0.044021304696798325
1.7275263326834598e+18,-0.005490219220519066,0.038521911948919296,-0.043681010603904724
1.72752633268946e+18,-0.006651411764323711,0.03257938101887703,-0.04335707426071167
1.72752633269546e+18,-0.004296951927244663,0.03154962509870529,-0.04335399717092514
1.7275263326984602e+18,-0.002613932592794299,0.029856830835342407,-0.03916734829545021
1.7275263327044603e+18,-0.002491333521902561,0.0226182509213686,-0.040718480944633484
1.7275263327104604e+18,-0.002994497772306204,0.02254668064415455,-0.03831738233566284
1.7275263327164605e+18,0.0008735484443604946,0.017661601305007935,-0.038592543452978134
1.7275263327224607e+18,-0.0020684339106082916,0.012551172636449337,-0.03929176926612854
1.7275263327284608e+18,-0.0027159040328115225,0.008974461816251278,-0.0400734581053257
1.7275263327314609e+18,-0.00035827537067234516,0.007508814800530672,-0.036495428532361984
1.727526332737461e+18,-0.0044967359863221645,0.006995127070695162,-0.035686273127794266
1.727526332743461e+18,-0.0026036829221993685,0.005876932758837938,-0.03530082106590271
1.7275263327464612e+18,-0.0024531353265047073,0.0077033755369484425,-0.03458469361066818
1.7275263327524613e+18,-0.004269836470484734,0.004788887687027454,-0.03134826570749283
1.7275263327584614e+18,-0.0001648718025535345,0.005475299432873726,-0.032406628131866455
1.7275263327644616e+18,-0.004404904320836067,0.002038842998445034,-0.03171483054757118
1.7275263327704617e+18,-0.002822805428877473,-0.0010353779653087258,-0.02919607050716877
1.7275263327734618e+18,-0.002992965979501605,0.0001379090826958418,-0.030321160331368446
1.727526332779462e+18,-0.004449447151273489,-9.161210618913174e-05,-0.0310982558876276
1.727526332785462e+18,-0.003622814081609249,-0.0030234730802476406,-0.02915256656706333
1.7275263327914621e+18,-0.0024534612894058228,-0.0061934576369822025,-0.026140712201595306
1.7275263327974623e+18,-0.005283499136567116,-0.005004267208278179,-0.025843041017651558
1.7275263328034624e+18,0.00028540007770061493,-0.006533836014568806,-0.025051655247807503
1.7275263328064625e+18,0.0006560252513736486,-0.007784219458699226,-0.026268891990184784
1.7275263328124626e+18,0.0004419926553964615,-0.006443965248763561,-0.027607649564743042
1.7275263328184627e+18,-0.0016726714093238115,-0.008163748309016228,-0.025486154481768608
1.7275263328244628e+18,-0.001641646260395646,-0.008426363579928875,-0.02415129914879799
1.727526332830463e+18,-0.0007085604011081159,-0.00937019195407629,-0.02540688030421734
1.727526332833463e+18,0.00026220071595162153,-0.011299502104520798,-0.022104497998952866
1.7275263328394632e+18,0.002699687611311674,-0.0071944259107112885,-0.021711334586143494
1.7275263328454633e+18,-0.001940439804457128,-0.0070000216364860535,-0.021604478359222412
1.7275263328514634e+18,-0.0026566744782030582,-0.010072359815239906,-0.020920271053910255
1.7275263328574636e+18,-0.0018125844653695822,-0.007649736944586039,-0.020182788372039795
1.7275263328604636e+18,4.332466050982475e-05,-0.007670863531529903,-0.019099490717053413
1.7275263328664637e+18,-0.0014173458330333233,-0.010805434547364712,-0.0168535728007555
1.727526332872464e+18,-0.00016052252613008022,-0.008378907106816769,-0.017455432564020157
1.727526332878464e+18,-0.0014976152451708913,-0.0086921826004982,-0.015363023616373539
1.727526332884464e+18,-0.0014456631615757942,-0.010194562375545502,-0.015799475833773613
1.7275263328904643e+18,0.003049753373488784,-0.008854122832417488,-0.01399294100701809
1.7275263328964644e+18,-0.00018921817536465824,-0.01004925835877657,-0.010734102688729763
1.7275263328994644e+18,-0.00047046999679878354,-0.005764744244515896,-0.008649606257677078
1.7275263329054646e+18,0.00025483244098722935,-0.008426179178059101,-0.0109323151409626
1.7275263329114647e+18,-0.00041547976434230804,-0.00430707074701786,-0.011695759370923042
1.7275263329174648e+18,-0.0002507265890017152,-0.009739619679749012,-0.009356573224067688
1.727526332923465e+18,-0.0026033378671854734,-0.00535049382597208,-0.01234733872115612
1.727526332929465e+18,-0.003957661800086498,-0.007319294847548008,-0.011296014301478863
1.7275263329354652e+18,-0.0045798420906066895,-0.008433747105300426,-0.008108731359243393
1.7275263329414653e+18,-0.0021533884573727846,-0.005910011008381844,-0.005287695676088333
1.7275263329474655e+18,-0.00034990953281521797,-0.008791330270469189,-0.009488247334957123
1.7275263329534656e+18,0.000631948933005333,-0.00693512661382556,-0.008356624282896519
1.7275263329594657e+18,0.0031075472943484783,-0.0033047301694750786,-0.004570006858557463
1.7275263329624658e+18,-0.0005072097992524505,-0.007472231984138489,-0.006080298684537411
1.727526332968466e+18,-0.001062904135324061,-0.0065247667953372,-0.0038550677709281445
1.727526332974466e+18,0.001963693415746093,-0.006773920264095068,-0.003670142963528633
1.7275263329804662e+18,0.0009244446991942823,-0.003944018855690956,-0.0001850517001003027
1.7275263329864663e+18,-0.002075477968901396,-0.005018081050366163,-0.0016812366666272283
1.7275263329924664e+18,-0.0025103334337472916,-0.004245794378221035,-0.0015662303194403648
1.7275263329954665e+18,-0.0031315553933382034,-0.005770275369286537,0.0007300423458218575
1.7275263330014666e+18,-0.0036828494630753994,-0.004477425944060087,-0.004433420021086931
1.7275263330074668e+18,0.00048254639841616154,-0.004630019888281822,0.0006988325039856136
1.727526333013467e+18,-0.005216478835791349,-0.0023309297394007444,0.001420138287357986
1.727526333019467e+18,-0.0018368754535913467,-0.003325836965814233,0.0017091267509385943
1.7275263330254671e+18,-0.0006145124789327383,-0.0037986203096807003,0.001772257499396801
1.7275263330284672e+18,-0.0016013699350878596,-0.004830705933272839,0.004459190182387829
1.7275263330344673e+18,0.0036618339363485575,0.0001609299797564745,0.003732675453647971
1.7275263330404675e+18,0.003596156369894743,-0.004254829604178667,0.0013965754769742489
1.7275263330464676e+18,0.004498239606618881,-0.003318721428513527,0.0063875820487737656
1.7275263330524677e+18,-0.00040306709706783295,-0.0018373533384874463,0.006292748264968395
1.7275263330584678e+18,0.0003032791428267956,-0.004498965106904507,0.005916452966630459
1.727526333064468e+18,-0.0017781918868422508,-0.0016088332049548626,0.010220218449831009
1.727526333070468e+18,-0.0013315650867298245,0.0002821856178343296,0.006978652440011501
1.7275263330734682e+18,-0.004366789944469929,-0.0002422738471068442,0.006000918336212635
1.7275263330794683e+18,-0.004780811257660389,0.0007517856429331005,0.007475090678781271
1.7275263330854684e+18,-0.00130318698938936,-0.00509345717728138,0.007410659454762936
1.7275263330914685e+18,-0.001137741026468575,-1.3261334970593452e-05,0.007282727397978306
1.7275263330974687e+18,-0.004392717033624649,-0.0037444180343300104,0.011638847179710865
1.7275263331034688e+18,-0.0011632913956418633,-0.003281210083514452,0.008466670289635658
1.7275263331064689e+18,0.0012671452714130282,-0.0043349489569664,0.011329486966133118
1.727526333112469e+18,0.0024938504211604595,-0.001459688413888216,0.01035380270332098
1.727526333118469e+18,-0.0012520633172243834,-0.0013034995645284653,0.01212313212454319
1.7275263331244692e+18,-0.0003572995774447918,-0.0017757510067895055,0.0152056235820055
1.7275263331304694e+18,-0.002025843830779195,-0.004047864116728306,0.013880484737455845
1.7275263331364695e+18,-0.0018827443709596992,-0.0019261562265455723,0.01215268112719059
1.7275263331424696e+18,-0.0026012856978923082,0.0009075247216969728,0.017170749604701996
1.7275263331454697e+18,-0.0014334118459373713,0.0017125006997957826,0.014689658768475056
1.7275263331514698e+18,-0.0013173639308661222,-0.0004813669074792415,0.013567080721259117
1.72752633315747e+18,-0.0054854219779372215,0.0015234437305480242,0.013290608301758766
1.72752633316347e+18,-0.0013812007382512093,0.0019388666842132807,0.01637175679206848
1.7275263331694702e+18,-0.0028896485455334187,-0.0008590084034949541,0.017909174785017967
1.7275263331754703e+18,0.0023706918582320213,-0.0003461725718807429,0.014873583801090717
1.7275263331784704e+18,-0.0006496491841971874,-0.00045413378393277526,0.01748286746442318
1.7275263331844705e+18,-0.0008995858370326459,0.0011764002265408635,0.019218573346734047
1.7275263331904707e+18,-0.0012809231411665678,-0.00016814106493256986,0.016892818734049797
1.7275263331964708e+18,-0.001464653993025422,0.002436976181343198,0.020478254184126854
1.727526333202471e+18,-0.002948583336547017,-0.0017101330449804664,0.01818745769560337
1.727526333208471e+18,-0.000946495623793453,0.002156579867005348,0.020612146705389023
1.727526333211471e+18,-0.0018463038140907884,2.008792944252491e-05,0.020061537623405457
1.7275263332174712e+18,-0.0036071036010980606,0.0016820743912830949,0.016476444900035858
1.7275263332234714e+18,0.0014434355543926358,3.857491537928581e-05,0.01910112425684929
1.7275263332294715e+18,6.665007094852626e-05,0.00011540751438587904,0.01969534531235695
1.7275263332354716e+18,0.001411078730598092,0.0020600140560418367,0.02124021388590336
1.7275263332414717e+18,0.0007273278897628188,-0.0015797761734575033,0.022345444187521935
1.7275263332474719e+18,0.002803097479045391,0.0009566021035425365,0.02162073366343975
1.727526333250472e+18,0.00047728029312565923,9.968016092898324e-05,0.020808225497603416
1.727526333256472e+18,0.0019114137394353747,0.0004923447268083692,0.02286669984459877
1.7275263332624722e+18,0.0026381739880889654,-0.0005284718354232609,0.023009728640317917
1.7275263332684723e+18,-0.001036468893289566,-0.0015704024117439985,0.023883072659373283
1.7275263332744724e+18,-0.0030545375775545835,-0.0002003334229812026,0.02174336649477482
1.7275263332774725e+18,0.0008289141114801168,-0.0025646232534199953,0.02165931835770607
1.7275263332834726e+18,-0.0012042932212352753,0.0025679373648017645,0.020963456481695175
1.7275263332894728e+18,-0.0024865875020623207,0.004370610695332289,0.024764295667409897
1.727526333295473e+18,-0.0019999679643660784,0.0016928000841289759,0.023677924647927284
1.727526333301473e+18,-0.0011233773548156023,-0.0007378209847956896,0.025330260396003723
1.7275263333074732e+18,0.0018387415912002325,0.003480488434433937,0.0250866562128067
1.7275263333104732e+18,0.0029868693090975285,0.0009039038559421897,0.026185689494013786
1.7275263333164733e+18,0.0026391390711069107,-0.001737103215418756,0.024531422182917595
1.7275263333224735e+18,0.001613851636648178,-0.0016501062782481313,0.024673083797097206
1.7275263333284736e+18,0.0032932525500655174,-0.003584423568099737,0.027503078803420067
1.7275263333344737e+18,0.001996921142563224,-0.0016657409723848104,0.025693705305457115
1.7275263333404739e+18,0.0033955913968384266,-0.0017469599843025208,0.024357786402106285
1.727526333343474e+18,-0.003373677609488368,-0.0017153439112007618,0.02533525414764881
1.727526333349474e+18,1.0036979801952839e-05,0.001579319592565298,0.026834262534976006
1.7275263333554742e+18,-0.003839115845039487,-0.0005399635410867631,0.02637331560254097
1.7275263333614743e+18,-0.0047887214459478855,-1.7689133528620005e-05,0.02423666976392269
1.7275263333674744e+18,-0.003083215095102787,0.0032869824208319187,0.02815723605453968
1.7275263333734746e+18,-0.0009758961386978626,0.0008303940412588418,0.025142783299088478
1.7275263333794747e+18,-0.001290871761739254,0.0010413468116894364,0.022819582372903824
1.7275263333824748e+18,-0.000711377477273345,0.0024491341318935156,0.029300812631845474
1.727526333388475e+18,0.0012150828260928392,0.001594164757989347,0.026280861347913742
1.727526333394475e+18,0.004307793453335762,0.00028978174668736756,0.02771354466676712
1.7275263334004751e+18,0.003098817076534033,-0.0009696536581031978,0.025921441614627838
1.7275263334064753e+18,0.0005012169131077826,0.0001338428701274097,0.02961399406194687
1.7275263334124754e+18,0.004422143567353487,-0.0001817663141991943,0.02701512910425663
1.7275263334184755e+18,-0.005529362242668867,-0.0018983124755322933,0.029595237225294113
1.7275263334244756e+18,-0.0029631839133799076,-0.004167481791228056,0.024865295737981796
1.7275263334304758e+18,-0.007243816275149584,-0.0017263030167669058,0.027932344004511833
1.727526333436476e+18,-0.003097774228081107,-0.0006708184955641627,0.028206277638673782
1.727526333442476e+18,-0.002777683548629284,0.0009685467812232673,0.0281719621270895
1.7275263334484762e+18,-0.0008416705531999469,0.000395994633436203,0.02671481855213642
1.7275263334574764e+18,0.0034996038302779198,0.0022820481099188328,0.031118791550397873
1.7275263334604764e+18,0.000665239174850285,0.003526718821376562,0.02845948375761509
1.7275263334664765e+18,0.00340898591093719,0.0031163652893155813,0.028278036043047905
1.7275263334724767e+18,0.0019841932225972414,0.0020041298121213913,0.027580035850405693
1.7275263334784768e+18,0.0010763746686279774,-0.002106725936755538,0.02456130087375641
1.7275263334814769e+18,-0.0014266592916101217,0.001192797557450831,0.03027867153286934
1.727526333487477e+18,-0.001762908068485558,-0.00011144910240545869,0.02881031483411789
1.727526333493477e+18,0.0023736199364066124,-0.0028863688930869102,0.027530597522854805
1.7275263334964772e+18,0.010008503682911396,-0.000917318626306951,0.02860472910106182
1.7275263335024773e+18,0.023843061178922653,-0.0018574967980384827,0.02586280182003975
1.7275263335084774e+18,0.0388244166970253,-0.003632563864812255,0.028181400150060654
1.7275263335144776e+18,0.08566682785749435,0.00047751289093866944,0.027770433574914932
1.7275263335204777e+18,0.15561062097549438,-0.0007017555180937052,0.028510764241218567
1.7275263335264778e+18,0.23248355090618134,0.005477229133248329,0.03081422485411167
1.727526333532478e+18,0.301646888256073,0.006027775816619396,0.030592055991292
1.727526333538478e+18,0.3626551330089569,0.006698420271277428,0.02853182703256607
1.7275263335444782e+18,0.41863030195236206,0.004628284834325314,0.026480577886104584
1.7275263335504783e+18,0.467124342918396,0.008214514702558517,0.026433538645505905
1.7275263335564785e+18,0.502716064453125,0.0069578648544847965,0.029655352234840393
1.7275263335624786e+18,0.5293490886688232,0.006918998900800943,0.030613519251346588
1.7275263335684787e+18,0.5435255169868469,0.004541858099400997,0.029575832188129425
1.7275263335744788e+18,0.5522160530090332,0.0053285579197108746,0.03021365962922573
1.727526333580479e+18,0.5558167695999146,0.006030159071087837,0.029518935829401016
1.727526333583479e+18,0.5600585341453552,0.004240017384290695,0.02833222597837448
1.7275263335894792e+18,0.563313364982605,0.005751866847276688,0.02546434849500656
1.7275263335954793e+18,0.5747624039649963,0.00467867124825716,0.02771831676363945
1.7275263336014794e+18,0.5896142721176147,0.0061592417769134045,0.027553057298064232
1.7275263336044795e+18,0.5966688394546509,0.006432817783206701,0.027926499024033546
1.7275263336104796e+18,0.6050606369972229,0.006130070425570011,0.02576981671154499
1.7275263336164797e+18,0.6083620190620422,0.009416365064680576,0.029154058545827866
1.72752633362248e+18,0.6112727522850037,0.007917775772511959,0.02607128769159317
1.72752633362848e+18,0.5940144062042236,0.0067694298923015594,0.02987293154001236
1.72752633363448e+18,0.5791777968406677,0.006927222944796085,0.026778914034366608
1.7275263336404803e+18,0.5597739815711975,0.002942983992397785,0.027637135237455368
1.7275263336434803e+18,0.5556470155715942,0.0038560200482606888,0.029516704380512238
1.7275263336494804e+18,0.5348161458969116,0.006812663748860359,0.027679555118083954
1.7275263336554806e+18,0.5176430940628052,0.004126646555960178,0.02768937684595585
1.7275263336614807e+18,0.5032674670219421,0.005407924763858318,0.028320293873548508
1.7275263336644808e+18,0.4981936514377594,0.006315974518656731,0.02508373185992241
1.727526333670481e+18,0.4858666658401489,0.005007190629839897,0.027455387637019157
1.727526333676481e+18,0.4731730818748474,0.00425742706283927,0.02833518013358116
1.7275263336824812e+18,0.46512869000434875,0.003873127046972513,0.024715902283787727
1.7275263336884813e+18,0.4465056359767914,0.001798673765733838,0.02357449010014534
1.7275263336914813e+18,0.44028064608573914,0.002668894361704588,0.02490052580833435
1.7275263336974815e+18,0.4217018783092499,0.007114018313586712,0.02569269761443138
1.7275263337034816e+18,0.38977673649787903,0.0045341383665800095,0.022197827696800232
1.7275263337094817e+18,0.3426446318626404,0.00471457839012146,0.027461647987365723
1.7275263337154819e+18,0.2895737290382385,0.0035583428107202053,0.02575620822608471
1.727526333718482e+18,0.255587100982666,0.0057730600237846375,0.02458876185119152
1.727526333724482e+18,0.19405026733875275,0.001891351188533008,0.024973226711153984
1.7275263337304822e+18,0.13089212775230408,0.0009971312247216702,0.023612182587385178
1.7275263337364823e+18,0.08408966660499573,-0.0008245268254540861,0.024876000359654427
1.7275263337394824e+18,0.06521613895893097,-9.415757085662335e-05,0.025435470044612885
1.7275263337454825e+18,0.027090106159448624,0.0016313465312123299,0.025122622027993202
1.7275263337514826e+18,-0.007297135423868895,-0.002127660671249032,0.019722824916243553
1.7275263337574828e+18,-0.03385818749666214,0.0016287564067170024,0.024097539484500885
1.727526333763483e+18,-0.056234270334243774,-0.0019954617600888014,0.024356286972761154
1.727526333769483e+18,-0.08989911526441574,-0.003802340477705002,0.024996435269713402
1.7275263337754831e+18,-0.1419578343629837,-5.9505924582481384e-05,0.023670736700296402
1.7275263337784832e+18,-0.17025743424892426,-0.00018555938731878996,0.022252388298511505
1.7275263337844833e+18,-0.22485511004924774,-0.001486215041950345,0.020807651802897453
1.7275263337904835e+18,-0.28337207436561584,-0.001090445090085268,0.022603971883654594
1.7275263337964836e+18,-0.33674806356430054,-0.0018960764864459634,0.022290663793683052
1.7275263338024837e+18,-0.3806794583797455,-0.002876363694667816,0.022049151360988617
1.7275263338054838e+18,-0.39942872524261475,-0.0021593747660517693,0.020820433273911476
1.727526333811484e+18,-0.43496033549308777,0.000422521261498332,0.021783998236060143
1.727526333817484e+18,-0.4519991874694824,-0.0036899293772876263,0.022577039897441864
1.7275263338234842e+18,-0.46210354566574097,-2.713920548558235e-05,0.019168175756931305
1.7275263338294843e+18,-0.4640907645225525,-0.005588412284851074,0.018029477447271347
1.7275263338354844e+18,-0.47487208247184753,-0.0017619809368625283,0.018659334629774094
1.7275263338384845e+18,-0.47973451018333435,-0.004376485012471676,0.01508695911616087
1.7275263338444846e+18,-0.48913121223449707,-0.002231755293905735,0.01375516690313816
1.7275263338504847e+18,-0.4993785321712494,-0.0002005966380238533,0.01647218130528927
1.7275263338564849e+18,-0.5137300491333008,-0.001370872836560011,0.014457305893301964
1.727526333862485e+18,-0.5241571068763733,-0.0035132563207298517,0.013834667392075062
1.727526333865485e+18,-0.5239933133125305,-0.003835420124232769,0.015198435634374619
1.7275263338714852e+18,-0.5295826196670532,0.0005464821588248014,0.01796347089111805
1.7275263338774853e+18,-0.5206143856048584,-0.0008399779908359051,0.01086785364896059
1.7275263338834854e+18,-0.5087364315986633,-0.00379467336460948,0.013281136751174927
1.7275263338894856e+18,-0.4878011643886566,-0.0024336751084774733,0.014114130288362503
1.7275263338954857e+18,-0.4671247601509094,-0.004563659429550171,0.011227872222661972
1.7275263339014858e+18,-0.4416954517364502,-0.0034411477390676737,0.010834014043211937
1.727526333904486e+18,-0.4300568103790283,-0.005104104056954384,0.010510887950658798
1.727526333910486e+18,-0.4157806634902954,-0.003265927778556943,0.009041044861078262
1.7275263339164861e+18,-0.401420533657074,-0.004501164425164461,0.012105561792850494
1.7275263339224863e+18,-0.39364129304885864,-0.003590582637116313,0.009432163089513779
1.7275263339284864e+18,-0.3849080204963684,-0.005539068952202797,0.007069737650454044
1.7275263339344865e+18,-0.37696346640586853,-0.00532577745616436,0.007560106925666332
1.7275263339374866e+18,-0.37209588289260864,-0.003279707860201597,0.0075033362954854965
1.7275263339434867e+18,-0.3618086278438568,0.0003739275271072984,0.007049789186567068
1.7275263339494868e+18,-0.34804272651672363,-0.0008228326914831996,0.006453287322074175
1.727526333955487e+18,-0.3293333053588867,-0.0034882384352385998,0.0024842440616339445
1.727526333961487e+18,-0.30357980728149414,-0.00040459941374138,0.0018774443306028843
1.7275263339674872e+18,-0.2837315499782562,-0.00014205032493919134,0.003802161430940032
1.7275263339734874e+18,-0.25663912296295166,5.887629231438041e-05,0.002404324244707823
1.7275263339794875e+18,-0.2324836105108261,-0.002033960074186325,0.0026486553251743317
1.7275263339854876e+18,-0.22166256606578827,-0.0019598081707954407,0.0005524955922737718
1.7275263339884877e+18,-0.21439792215824127,-0.0011042631231248379,0.00226823752745986
1.7275263339944878e+18,-0.20788803696632385,-0.00035043060779571533,-0.0016487815883010626
1.727526334000488e+18,-0.19842562079429626,-0.0014812502777203918,-0.0011533701326698065
1.727526334006488e+18,-0.1964508295059204,-0.0007730099023319781,0.0016307870391756296
1.7275263340124882e+18,-0.18576832115650177,-0.0007054476300254464,-0.00230422243475914
1.7275263340184883e+18,-0.17668665945529938,-0.0007734930841252208,-0.002370139816775918
1.7275263340214884e+18,-0.17074662446975708,0.0005185120971873403,-0.004250769037753344
1.7275263340274885e+18,-0.1568179428577423,-0.00022024463396519423,0.00020471238531172276
1.7275263340334886e+18,-0.14460067451000214,-0.0010229210602119565,-0.00506407069042325
1.7275263340394888e+18,-0.12515981495380402,-0.000795023690443486,-0.004202697891741991
1.727526334045489e+18,-0.11412272602319717,-0.0008432695176452398,-0.003461527870967984
1.727526334051489e+18,-0.0983305498957634,-0.00227688648737967,-0.006340864580124617
1.7275263340574892e+18,-0.08949447423219681,-0.0009681204101070762,-0.005564830265939236
1.7275263340604892e+18,-0.0890602320432663,0.0007660777773708105,-0.006213339976966381
1.7275263340664893e+18,-0.08086802810430527,-0.0009110425598919392,-0.010717103257775307
1.7275263340724895e+18,-0.07450487464666367,-0.003445293754339218,-0.007346694357693195
1.7275263340784896e+18,-0.07233813405036926,-0.0007017220486886799,-0.011303041130304337
1.7275263340844897e+18,-0.070919930934906,0.001254609553143382,-0.009898480959236622
1.7275263340904899e+18,-0.0650550127029419,-0.00015397969400510192,-0.010517987422645092
1.72752633409349e+18,-0.06196992099285126,-0.0014745856169611216,-0.012295182794332504
1.72752633409949e+18,-0.05590914189815521,-0.003709824988618493,-0.009715747088193893
1.7275263341054902e+18,-0.04926786199212074,-0.00041843834333121777,-0.011900573037564754
1.7275263341114903e+18,-0.03991841897368431,1.0318588465452194e-05,-0.011061879806220531
1.7275263341174904e+18,-0.034269388765096664,-0.0016541561344638467,-0.015053892508149147
1.7275263341234906e+18,-0.02668985351920128,-0.003000409109517932,-0.014836127869784832
1.7275263341294907e+18,-0.024841977283358574,-0.0008790493593551219,-0.01661650463938713
1.7275263341324908e+18,-0.02075248397886753,-0.0016321875154972076,-0.016888514161109924
1.727526334138491e+18,-0.015612959861755371,-0.0014633297687396407,-0.01694824919104576
1.727526334144491e+18,-0.015516426414251328,0.0008313744910992682,-0.018131805583834648
1.7275263341504911e+18,-0.01503282692283392,0.00011704066128004342,-0.01600632816553116
1.7275263341564913e+18,-0.014609238132834435,0.0006819503614678979,-0.020078305155038834
1.7275263341624914e+18,-0.01366506889462471,0.0006794598884880543,-0.01890496164560318
1.7275263341654915e+18,-0.01308106817305088,-0.0008164391620084643,-0.017090294510126114
1.7275263341714916e+18,-0.012061855755746365,0.0015244302339851856,-0.02211977355182171
1.7275263341774917e+18,-0.010275625623762608,0.003610383253544569,-0.019055187702178955
1.7275263341834918e+18,-0.005298242904245853,-0.0015239352360367775,-0.021481482312083244
1.727526334189492e+18,-0.0018368648597970605,0.0002549311611801386,-0.024548323825001717
1.727526334192492e+18,0.0001920306822285056,-0.0029277377761900425,-0.022802580147981644
1.7275263341984922e+18,0.00225404417142272,-0.0011165982577949762,-0.025240998715162277
1.7275263342044923e+18,0.005356434732675552,0.0018278609495609999,-0.025454306975007057
1.7275263342104924e+18,0.0030644030775874853,-0.005455770064145327,-0.02733951434493065
1.7275263342164925e+18,0.00643398892134428,-0.00274086301214993,-0.025129249319434166
1.7275263342194926e+18,0.009639923460781574,-0.0004594134516082704,-0.029017236083745956
1.7275263342254927e+18,0.003541662124916911,0.00040431474917568266,-0.02775873988866806
1.7275263342314929e+18,0.003915175795555115,-0.0013821288011968136,-0.03276878967881203
1.727526334237493e+18,0.00169206818100065,0.0013204721035435796,-0.029717985540628433
1.727526334243493e+18,0.00138358015101403,0.002334598684683442,-0.031448520720005035
1.7275263342464932e+18,0.0017692040419206023,0.001645584125071764,-0.03349584713578224
1.7275263342524933e+18,0.004507760517299175,-0.0011318273609504104,-0.029858838766813278
1.7275263342584934e+18,0.0037022531032562256,-0.001253947033546865,-0.034071121364831924
1.7275263342644936e+18,0.005651144776493311,0.0018787258304655552,-0.03306073695421219
1.7275263342704937e+18,0.00618945574387908,-0.0008154427050612867,-0.03342396765947342
1.7275263342734938e+18,0.00872072484344244,0.001431657699868083,-0.0324888676404953
1.727526334279494e+18,0.009241110645234585,0.0013678305549547076,-0.03506775200366974
1.727526334285494e+18,0.01192832924425602,-0.0013807624345645308,-0.03618248552083969
1.7275263342914941e+18,0.010163264349102974,0.0010710495989769697,-0.03831462934613228
1.7275263342974943e+18,0.005329777020961046,0.0030780346132814884,-0.03682919219136238
1.7275263343034944e+18,0.007002788130193949,0.002536508720368147,-0.03767876699566841
1.7275263343064945e+18,0.003273006761446595,0.003322579665109515,-0.0391155369579792
1.7275263343124946e+18,0.004276401828974485,0.0022576055489480495,-0.04211027920246124
1.7275263343184947e+18,0.0027017078828066587,9.467708878219128e-05,-0.04036856070160866
1.7275263343244948e+18,0.004541138187050819,0.00355071690864861,-0.04593275859951973
1.727526334327495e+18,0.004235498607158661,0.003048788057640195,-0.04515179619193077
1.727526334333495e+18,0.005142926704138517,0.0030455973464995623,-0.04265196621417999
1.7275263343394952e+18,0.00795498862862587,0.0019122769590467215,-0.04683711379766464
1.7275263343454953e+18,0.006461674813181162,0.0009264203254133463,-0.047057006508111954
1.7275263343514954e+18,0.005318694747984409,0.0018036890542134643,-0.04736294969916344
1.7275263343574956e+18,0.009320031851530075,0.0017079960089176893,-0.05019387975335121
1.7275263343604956e+18,0.00447740126401186,0.001158087863586843,-0.04847364500164986
1.7275263343664957e+18,0.004672623239457607,0.0051420205272734165,-0.05068597570061684
1.727526334372496e+18,0.002752792090177536,0.0026873548049479723,-0.05126480758190155
1.727526334378496e+18,0.002986203646287322,0.005332533735781908,-0.05218386650085449
1.727526334384496e+18,0.002499243477359414,0.001811715541407466,-0.05321919173002243
1.7275263343904963e+18,0.0022189973387867212,0.001549111446365714,-0.05248407647013664
1.7275263343964964e+18,0.0027948596980422735,0.0036522659938782454,-0.0551438108086586
1.7275263343994964e+18,0.0012527911458164454,0.003400116693228483,-0.05356917530298233
1.7275263344054966e+18,0.0003436719998717308,0.004998506046831608,-0.055596187710762024
1.7275263344114967e+18,0.005129474215209484,0.0009520275052636862,-0.05785762518644333
1.7275263344174968e+18,0.0017037112265825272,0.003132446203380823,-0.05667771026492119
1.727526334423497e+18,0.0025188568979501724,-0.00127600715495646,-0.062017861753702164
1.727526334429497e+18,0.0021319608204066753,0.0041648028418421745,-0.06001530587673187
1.7275263344324972e+18,0.0050452230498194695,0.00319384946487844,-0.0606798380613327
1.7275263344384973e+18,0.004241762682795525,0.002741154283285141,-0.061951592564582825
1.7275263344444974e+18,0.0006484148325398564,-0.0012180006597191095,-0.06183407083153725
1.7275263344504975e+18,0.00467070285230875,0.003524476895108819,-0.06385526061058044
1.7275263344564977e+18,-0.0001624885480850935,0.004559555556625128,-0.0674467384815216
1.7275263344624978e+18,-0.000590198440477252,0.004428189247846603,-0.06527074426412582
1.727526334468498e+18,0.00022714096121490002,0.0031314340885728598,-0.06604812294244766
1.727526334471498e+18,0.002076472621411085,0.0039406754076480865,-0.0654059424996376
1.727526334477498e+18,-0.0023065453860908747,0.006335818208754063,-0.06756086647510529
1.7275263344834982e+18,0.0006998298922553658,0.003878823947161436,-0.06762440502643585
1.7275263344894984e+18,-0.0007888569962233305,-0.0016329067293554544,-0.07099995017051697
1.7275263344924984e+18,-0.0014370315475389361,0.004687311593443155,-0.06980835646390915
1.7275263344984986e+18,-0.0009145989315584302,0.005266616120934486,-0.07227517664432526
1.7275263345044987e+18,0.002841142937541008,0.002548667136579752,-0.07328319549560547
1.7275263345104988e+18,0.0026799687184393406,0.002997342497110367,-0.06982778012752533
1.727526334513499e+18,-0.0010120781371369958,0.00043984013609588146,-0.0727495476603508
1.727526334519499e+18,3.4711265470832586e-05,0.0019338803831487894,-0.07341034710407257
1.7275263345254991e+18,0.0023739030584692955,0.0024130314122885466,-0.07275059819221497
1.7275263345314993e+18,0.0018869622144848108,-0.001103920629248023,-0.07387421280145645
1.7275263345374994e+18,0.001600822200998664,0.0018807020969688892,-0.07448635995388031
1.7275263345404995e+18,-0.0022038547322154045,0.001675628824159503,-0.07615237683057785
1.7275263345464996e+18,-0.0020226144697517157,0.0030066734179854393,-0.0758744329214096
1.7275263345524997e+18,-0.001936078886501491,0.004129793029278517,-0.07605098187923431
1.7275263345584998e+18,-0.0035641780123114586,0.00278514064848423,-0.07779791951179504
1.7275263345615e+18,-0.0017554122023284435,0.004940540995448828,-0.07699603587388992
1.7275263345675e+18,-0.0034755330998450518,0.001967520220205188,-0.07583452761173248
1.7275263345735002e+18,-0.0009487819625064731,0.00235917791724205,-0.07926425337791443
1.7275263345795003e+18,-0.002448465907946229,0.004239290487021208,-0.07868490368127823
1.7275263345855004e+18,0.0009582751663401723,0.0032798796892166138,-0.07793065160512924
1.7275263345915005e+18,0.0009653419256210327,0.001748985960148275,-0.0804734081029892
1.7275263345975007e+18,0.0004278282285667956,0.003487412817776203,-0.07943693548440933
1.7275263346035008e+18,-0.0011571476934477687,0.002729440340772271,-0.07896082103252411
1.7275263346065009e+18,0.0009880190482363105,0.002616399899125099,-0.07946829497814178
1.727526334612501e+18,0.00014875695342198014,0.0040274616330862045,-0.07728374004364014
1.727526334618501e+18,-0.0014247524086385965,0.0023777971509844065,-0.07995261996984482
1.7275263346245012e+18,-0.0004378050798550248,0.0011625825427472591,-0.08034300804138184
1.7275263346305014e+18,-0.0031129487324506044,0.0028000527527183294,-0.0826764777302742
1.7275263346365015e+18,-0.000791467260569334,0.0021802792325615883,-0.07957326620817184
1.7275263346425016e+18,-0.0022331285290420055,0.0013824135530740023,-0.08031603693962097
1.7275263346485018e+18,-0.001305611222051084,0.0008549183839932084,-0.0815955176949501
1.727526334654502e+18,-0.0012780409306287766,0.0009100597817450762,-0.08172343671321869
1.727526334660502e+18,-0.00030054018134251237,0.000303101958706975,-0.08011440932750702
1.727526334663502e+18,-0.000448077917098999,0.0036089057102799416,-0.0805809497833252
1.7275263346695022e+18,0.0012058396823704243,0.001461166888475418,-0.0800568163394928
1.7275263346755023e+18,0.0029658651910722256,0.0017294561257585883,-0.076283298432827
1.7275263346815025e+18,-0.00017906413995660841,0.0031149806454777718,-0.07929341495037079
1.7275263346875026e+18,-0.0020507986191660166,0.004789133556187153,-0.08055828511714935
1.7275263346935027e+18,-0.0027412311173975468,0.002642473904415965,-0.07908160984516144
1.7275263346965028e+18,-0.0037838593125343323,0.002068934729322791,-0.07996921986341476
1.727526334702503e+18,-0.0010756496340036392,-8.538938709534705e-05,-0.0798872783780098
1.727526334708503e+18,-0.002069314708933234,0.0008985682507045567,-0.07728542387485504
1.7275263347145032e+18,-0.0036713562440127134,0.0011059625539928675,-0.07835932075977325
1.7275263347175032e+18,-0.0020443531684577465,-0.001073924358934164,-0.07645168900489807
1.7275263347235034e+18,-0.0025708330795168877,0.0004322518070694059,-0.078223817050457
1.7275263347295035e+18,-8.295544830616564e-05,0.0019567201379686594,-0.07788023352622986
1.7275263347355036e+18,4.950768197886646e-05,0.0019575520418584347,-0.07647483050823212
1.7275263347385037e+18,0.0028231926262378693,-8.817878551781178e-06,-0.07500595599412918
1.7275263347445038e+18,0.0011549461632966995,0.00305490056052804,-0.0769972950220108
1.727526334750504e+18,0.0006347661255858839,-4.9226684495806694e-05,-0.07734298706054688
1.727526334756504e+18,-0.0004671647329814732,-0.00043639272917062044,-0.07771652191877365
1.7275263347625042e+18,0.001108032651245594,-5.563744343817234e-05,-0.0766926109790802
1.7275263347655043e+18,0.0015471947845071554,0.0007256623357534409,-0.07614624500274658
1.7275263347715044e+18,-0.0034327812027186155,-6.523833144456148e-05,-0.0745798796415329
1.7275263347775045e+18,0.0019285022281110287,0.0006259480724111199,-0.07618586719036102
1.7275263347835046e+18,-0.002399938413873315,0.0011557249817997217,-0.07522255927324295
1.7275263347865047e+18,-0.0037107972893863916,-0.0011541175190359354,-0.0750485509634018
1.7275263347925048e+18,-0.004721266217529774,-0.003550969995558262,-0.07617341727018356
1.727526334798505e+18,-0.003936789929866791,0.00012381408305373043,-0.0775824785232544
1.727526334804505e+18,-0.0029429569840431213,-5.572324153035879e-05,-0.07533813267946243
1.7275263348105052e+18,0.003497389145195484,0.000793649407569319,-0.07569283246994019
1.7275263348165053e+18,0.0001930318831000477,0.0010987920686602592,-0.07387733459472656
1.7275263348195054e+18,0.000380407931515947,0.0014991877833381295,-0.0737711489200592
1.7275263348255055e+18,0.0008829751750454307,0.003615066409111023,-0.0742696076631546
1.7275263348315057e+18,0.001518638338893652,0.0027263928204774857,-0.07317431271076202
1.7275263348375058e+18,-0.0015055271796882153,-0.0005968836485408247,-0.06904526799917221
1.727526334843506e+18,-0.0039790356531739235,0.002741347998380661,-0.07313746213912964
1.727526334849506e+18,-0.0031821615993976593,-0.0005960302660241723,-0.06892665475606918
1.7275263348555062e+18,-0.005520286504179239,-0.0010299320565536618,-0.07044808566570282
1.7275263348585062e+18,-0.004034919198602438,-0.002658133627846837,-0.07046250253915787
1.7275263348645064e+18,-2.573244273662567e-06,0.001846670056693256,-0.06997599452733994
1.7275263348705065e+18,-0.0012313071638345718,-0.00262323091737926,-0.07430233061313629
1.7275263348765066e+18,-0.00041428377153351903,0.00040777295362204313,-0.06977120786905289
1.7275263348825068e+18,0.00036234682193025947,-0.0007572121685370803,-0.0660075768828392
1.727526334888507e+18,0.00284825311973691,0.0025448505766689777,-0.06874047964811325
1.727526334891507e+18,-0.0006797064561396837,-0.0008552060462534428,-0.06861105561256409
1.727526334897507e+18,-0.000930968439206481,0.0003607789403758943,-0.07092221081256866
1.7275263349035072e+18,-0.001572128850966692,-0.0018996712751686573,-0.0676700547337532
1.7275263349095073e+18,-0.0009834554512053728,0.0023762360215187073,-0.06719990074634552
1.7275263349155075e+18,-0.003854465903714299,0.0008611545781604946,-0.0660596564412117
1.7275263349215076e+18,-0.003076702356338501,0.00021767703583464026,-0.06615000218153
1.7275263349245076e+18,0.0002584580797702074,0.001641337526962161,-0.0653693750500679
1.7275263349305078e+18,-0.005061961244791746,0.0021713622845709324,-0.06140882149338722
1.727526334936508e+18,-0.0032133753411471844,0.0022041795309633017,-0.061051782220602036
1.727526334942508e+18,-0.0020929742604494095,0.0012186418753117323,-0.062499091029167175
1.727526334945508e+18,-0.002731500891968608,-0.0011718280147761106,-0.06483776867389679
1.7275263349515082e+18,0.0015986959915608168,0.0011108951875939965,-0.062056757509708405
1.7275263349575084e+18,-0.001762283151037991,0.0029662162996828556,-0.05974096432328224
1.7275263349635085e+18,0.0005080415867269039,0.0003500695456750691,-0.05812559649348259
1.7275263349695086e+18,-0.001262709149159491,0.0029491351451724768,-0.06164491921663284
1.7275263349725087e+18,0.0003158653271384537,0.0036454014480113983,-0.061928167939186096
1.7275263349785088e+18,-0.001830636290833354,0.0015649613924324512,-0.05776932090520859
1.727526334984509e+18,-0.002192701678723097,-0.00023873767349869013,-0.05755416676402092
1.727526334990509e+18,-0.002090984722599387,0.0008353565353900194,-0.055205006152391434
1.7275263349965092e+18,-0.0018106048228219151,0.0029763798229396343,-0.053649745881557465
1.7275263350025093e+18,-0.0015055463882163167,5.743627843912691e-05,-0.05426450073719025
1.7275263350055094e+18,-0.0005546154570765793,0.00033464073203504086,-0.05460439994931221
1.7275263350115095e+18,-0.00391804613173008,-0.0012559848837554455,-0.05150597542524338
1.7275263350175096e+18,-0.0002891152398660779,0.0006627910770475864,-0.05375971645116806
1.7275263350235098e+18,-0.0024912620428949594,-0.0007851036498323083,-0.05230052024126053
1.72752633502951e+18,-0.001035940833389759,-0.00130139896646142,-0.05323029309511185
1.72752633503551e+18,0.000324105320032686,-0.00011265475768595934,-0.0486517995595932
1.7275263350415101e+18,-0.002635420300066471,0.0050127943977713585,-0.05100977048277855
1.7275263350475103e+18,0.0008432812173850834,0.0030895788222551346,-0.04642548784613609
1.7275263350535104e+18,0.00021850326447747648,3.4390250220894814e-06,-0.04810725897550583
1.7275263350565105e+18,0.002872338518500328,0.0007493502926081419,-0.04897657409310341
1.7275263350625106e+18,-0.0014913794584572315,0.0006926847854629159,-0.04975505173206329
1.7275263350685107e+18,0.0001910724095068872,0.0009938445873558521,-0.045976534485816956
1.7275263350745108e+18,0.0005281915655359626,0.0039330897852778435,-0.045653436332941055
1.727526335080511e+18,-0.0014124190201982856,-0.0012112404219806194,-0.04012612625956535
1.727526335083511e+18,-0.003002393525093794,0.0016336232656612992,-0.04248665273189545
1.7275263350895112e+18,-0.004014480393379927,-0.0016019849572330713,-0.04260643944144249
1.7275263350955113e+18,-0.001682409318163991,0.0022744068410247564,-0.04193331301212311
1.7275263351015114e+18,-0.0038755275309085846,0.0016421914333477616,-0.03784133866429329
1.7275263351075116e+18,-0.0034198821522295475,0.0015254846075549722,-0.037734366953372955
1.7275263351105116e+18,-0.0012503496836870909,0.001122708898037672,-0.0392024926841259
1.7275263351165117e+18,-0.0007756386185064912,0.0007237739628180861,-0.039635248482227325
1.727526335122512e+18,-0.0010960111394524574,0.0010974972974509,-0.035976920276880264
1.727526335128512e+18,9.896096889860928e-05,-0.0010188964661210775,-0.035742610692977905
1.727526335131512e+18,-0.0027008182369172573,0.0010655034566298127,-0.03315350040793419
1.7275263351375122e+18,0.0014613864477723837,0.0004497275222092867,-0.032884709537029266
1.7275263351435123e+18,-0.0005034568603150547,0.0003540458856150508,-0.03268183767795563
1.7275263351495124e+18,-0.0018111856188625097,0.0003376620588824153,-0.029495498165488243
1.7275263351555126e+18,0.0007377305300906301,0.0001550494198454544,-0.028343748301267624
1.7275263351585126e+18,0.0006808044854551554,0.0010232374770566821,-0.02837374620139599
1.7275263351645128e+18,0.0008950700284913182,-0.004212027415633202,-0.029615625739097595
1.727526335170513e+18,-0.002274942584335804,0.0019388595828786492,-0.028859402984380722
