timestamp,accel_x,accel_y,accel_z
1.7215730801126364e+18,0.06856907159090042,0.0981265977025032,-9.818562507629395
1.7215730801216366e+18,-0.043828755617141724,0.00635233661159873,-9.818181037902832
1.7215730801306368e+18,-0.04820811748504639,0.01257302239537239,-9.760933876037598
1.721573080136637e+18,0.10904727131128311,0.06703700125217438,-9.848523139953613
1.721573080142637e+18,-0.0603497214615345,0.06931455433368683,-9.898632049560547
1.7215730801486372e+18,0.012990343384444714,-0.05842433497309685,-9.799819946289062
1.7215730801516372e+18,0.02953614480793476,-0.01316345389932394,-9.785868644714355
1.7215730801606374e+18,0.030888736248016357,0.11544811725616455,-9.79322624206543
1.7215730801666376e+18,-0.033430904150009155,0.005000344943255186,-9.841954231262207
1.7215730801726377e+18,0.009466704912483692,-0.023082546889781952,-9.801324844360352
1.7215730801786378e+18,0.03468408063054085,-0.002670711139217019,-9.80550479888916
1.721573080184638e+18,-0.01883099228143692,0.042116209864616394,-9.797284126281738
1.721573080190638e+18,-0.059986796230077744,0.010980607010424137,-9.888933181762695
1.7215730801966382e+18,-0.025603247806429863,-0.06597168743610382,-9.86924934387207
1.7215730802026383e+18,-0.014456741511821747,-0.04908013716340065,-9.844815254211426
1.7215730802086385e+18,0.049319129437208176,-0.024461396038532257,-9.805157661437988
1.7215730802146386e+18,0.011495317332446575,-0.034468892961740494,-9.824592590332031
1.7215730802236388e+18,-0.02696305513381958,0.018735548481345177,-9.863015174865723
1.721573080229639e+18,-0.029349928721785545,0.006970926187932491,-9.80528736114502
1.721573080238639e+18,-0.01694675348699093,0.024929145351052284,-9.84302806854248
1.7215730802446392e+18,0.04127611219882965,0.017779860645532608,-9.765119552612305
1.7215730802536394e+18,0.011978707276284695,-0.00644999323412776,-9.807390213012695
1.7215730802626396e+18,-0.0124626150354743,0.024275770410895348,-9.772638320922852
1.7215730802686397e+18,-0.02712070941925049,0.003934336360543966,-9.822698593139648
1.72157308027764e+18,0.052907757461071014,0.05779334902763367,-9.825030326843262
1.72157308028364e+18,0.05596134811639786,0.031635891646146774,-9.78049373626709
1.7215730802926403e+18,0.0017221358139067888,-0.022042682394385338,-9.822668075561523
1.7215730802986404e+18,0.03666699305176735,0.03195706009864807,-9.78365421295166
1.7215730803076406e+18,0.05300768464803696,0.05631720647215843,-9.817178726196289
1.7215730803136407e+18,-0.06150802969932556,-0.0007434911676682532,-9.7797269821167
1.7215730803196408e+18,0.0015630132984369993,0.041999880224466324,-9.774991989135742
1.721573080328641e+18,-0.04111491143703461,-0.012680969201028347,-9.752370834350586
1.7215730803346412e+18,0.0266433022916317,-0.021901370957493782,-9.794321060180664
1.7215730803406413e+18,0.03174561262130737,0.049330346286296844,-9.8407621383667
1.7215730803466414e+18,0.05289817228913307,-0.03613471984863281,-9.844019889831543
1.7215730803526415e+18,0.021849071606993675,-0.014684113673865795,-9.793174743652344
1.7215730803616417e+18,-0.060314930975437164,-0.02110247313976288,-9.866337776184082
1.7215730803646418e+18,-0.014670205302536488,-0.0010000152979046106,-9.84467601776123
1.721573080370642e+18,0.010060003027319908,0.030380312353372574,-9.83702278137207
1.721573080376642e+18,-0.029935088008642197,-0.007296823430806398,-9.758039474487305
1.7215730803856422e+18,-0.05137846618890762,-0.04748152196407318,-9.798583984375
1.7215730803886423e+18,-0.04178053140640259,0.057966042309999466,-9.833670616149902
1.7215730803976425e+18,-0.11604506522417068,-0.005975489504635334,-9.821178436279297
1.7215730804006426e+18,0.028583036735653877,-0.09739836305379868,-9.811321258544922
1.7215730804096428e+18,0.045138243585824966,0.0018106522038578987,-9.77137279510498
1.721573080415643e+18,0.038255564868450165,-0.030250098556280136,-9.817892074584961
1.721573080424643e+18,0.033968739211559296,0.03378663957118988,-9.805910110473633
1.7215730804276431e+18,-0.012533335015177727,0.031717363744974136,-9.825481414794922
1.7215730804366433e+18,-0.029864922165870667,-0.059036608785390854,-9.782137870788574
1.7215730804426435e+18,-0.037418559193611145,0.057528190314769745,-9.76953411102295
1.7215730804486436e+18,-0.02166709676384926,0.04967782273888588,-9.855813980102539
1.7215730804546437e+18,-0.013423936441540718,0.0241901446133852,-9.763677597045898
1.721573080463644e+18,0.06966745108366013,0.017314085736870766,-9.848268508911133
1.721573080466644e+18,-0.00977968331426382,0.029728716239333153,-9.884880065917969
1.721573080472644e+18,0.0006088356021791697,-0.01871376484632492,-9.836097717285156
1.7215730804816443e+18,0.08387798070907593,0.001475961646065116,-9.783194541931152
1.7215730804876444e+18,0.03983372077345848,0.02710527740418911,-9.867846488952637
1.7215730804936445e+18,0.07554253190755844,0.01813639886677265,-9.721847534179688
1.7215730805026447e+18,0.04284384474158287,0.0135493827983737,-9.791828155517578
1.7215730805086449e+18,0.006436514668166637,-0.016029411926865578,-9.756246566772461
1.721573080514645e+18,-0.0054571256041526794,0.05990798398852348,-9.805011749267578
1.721573080520645e+18,0.03725535050034523,0.0585147924721241,-9.886290550231934
1.7215730805296453e+18,-0.04021298512816429,0.07090672105550766,-9.815184593200684
1.7215730805356454e+18,-0.0506710484623909,0.05590669810771942,-9.761384010314941
1.7215730805416456e+18,-0.023479346185922623,0.00027494708774611354,-9.783146858215332
1.7215730805476457e+18,0.05640503764152527,0.028816701844334602,-9.76257610321045
1.7215730805536458e+18,-0.09414247423410416,-0.054707154631614685,-9.766593933105469
1.721573080559646e+18,0.06007543206214905,-0.059857405722141266,-9.805472373962402
1.721573080565646e+18,-0.06520938873291016,-0.019318193197250366,-9.816691398620605
1.7215730805716462e+18,0.029908813536167145,-0.04279143363237381,-9.835783958435059
1.7215730805746463e+18,0.004309454932808876,-0.0063551501370966434,-9.774507522583008
1.7215730805806464e+18,0.00562998466193676,-0.01076485775411129,-9.833272933959961
1.7215730805866465e+18,0.04194503650069237,-0.007983570918440819,-9.795002937316895
1.7215730805926467e+18,-0.02284272015094757,0.01028304360806942,-9.88239574432373
1.7215730805986468e+18,-0.030482348054647446,0.04283113032579422,-9.792423248291016
1.721573080604647e+18,0.06467653810977936,0.055955126881599426,-9.803057670593262
1.721573080610647e+18,0.013384227640926838,-0.028072860091924667,-9.896358489990234
1.7215730806166472e+18,-0.0241857822984457,0.08211812376976013,-9.789412498474121
1.7215730806226473e+18,-0.02592221274971962,-0.015451712533831596,-9.810036659240723
1.7215730806286474e+18,0.010076174512505531,0.01969139650464058,-9.937241554260254
1.7215730806346476e+18,0.01622024178504944,0.06730765104293823,-9.795281410217285
1.7215730806406477e+18,-0.01689458079636097,-0.04496114328503609,-9.823939323425293
1.7215730806466478e+18,0.0645240992307663,-0.038731805980205536,-9.823529243469238
1.721573080652648e+18,0.03729897364974022,0.02605495974421501,-9.803059577941895
1.721573080658648e+18,0.010184656828641891,0.021101655438542366,-9.742088317871094
1.7215730806646482e+18,-0.01873607560992241,0.006028035655617714,-9.805671691894531
1.7215730806706483e+18,0.012765128165483475,-0.009934035129845142,-9.859420776367188
1.7215730806766484e+18,-0.001867092214524746,0.023125052452087402,-9.880064964294434
1.7215730806826486e+18,-0.010826087556779385,-0.10735615342855453,-9.82596206665039
1.7215730806886487e+18,-0.04263276979327202,-0.06834679841995239,-9.832056045532227
1.7215730806946488e+18,-0.05200344696640968,0.07002238184213638,-9.802650451660156
1.721573080700649e+18,0.04607337713241577,-0.017038697376847267,-9.803628921508789
1.721573080706649e+18,0.020828349515795708,-0.009414773434400558,-9.824974060058594
1.7215730807126492e+18,-0.09252513945102692,0.050466399639844894,-9.799483299255371
1.7215730807186493e+18,-0.0646747276186943,0.004804946947842836,-9.82894229888916
1.7215730807246495e+18,0.012953796423971653,-0.050103846937417984,-9.855436325073242
1.7215730807306496e+18,-0.035147905349731445,-0.0379079170525074,-9.796679496765137
1.7215730807366497e+18,-0.0051399897783994675,0.018597448244690895,-9.788444519042969
1.7215730807426499e+18,-0.0320742167532444,0.041340090334415436,-9.82039737701416
1.72157308074865e+18,-0.03662136569619179,0.049993373453617096,-9.855525970458984
1.72157308075465e+18,0.02135584130883217,-0.01896815001964569,-9.841574668884277
1.7215730807606502e+18,-0.03001442551612854,0.11890412867069244,-9.793781280517578
1.7215730807666504e+18,-0.043789952993392944,0.06304418295621872,-9.8322114944458
1.7215730807726505e+18,0.01246564369648695,0.06182725355029106,-9.779916763305664
1.7215730807786506e+18,-0.020703613758087158,0.018390659242868423,-9.792669296264648
1.7215730807816507e+18,-0.019799279049038887,-0.014777665957808495,-9.788186073303223
1.7215730807876508e+18,0.0067281825467944145,0.0731455460190773,-9.778395652770996
1.721573080790651e+18,0.0031040606554597616,-0.010129515081644058,-9.848773956298828
1.721573080796651e+18,0.0242320504039526,0.01190792117267847,-9.850587844848633
1.7215730808026511e+18,-0.004680421203374863,-0.04615996778011322,-9.804729461669922
1.7215730808086513e+18,-0.03947949782013893,0.058520011603832245,-9.699385643005371
1.7215730808146514e+18,0.09624160081148148,-0.05967681109905243,-9.815975189208984
1.7215730808236516e+18,0.02358357235789299,-0.0033284714445471764,-9.823129653930664
1.7215730808266516e+18,-0.07854942977428436,0.0014612615341320634,-9.800514221191406
1.7215730808326518e+18,-0.042397938668727875,-0.021445533260703087,-9.824769973754883
1.721573080838652e+18,-0.05570181459188461,-0.037526171654462814,-9.788018226623535
1.721573080844652e+18,0.023557502776384354,-0.01718204654753208,-9.865874290466309
1.7215730808506522e+18,0.07550620287656784,0.03722153976559639,-9.795390129089355
1.7215730808566523e+18,0.11001987755298615,0.0012240135110914707,-9.809452056884766
1.7215730808626524e+18,-0.015374964103102684,0.09050079435110092,-9.770989418029785
1.7215730808686525e+18,0.01199833583086729,-0.005959083791822195,-9.849882125854492
1.7215730808746527e+18,-0.01682918705046177,-0.02444126084446907,-9.81284236907959
1.7215730808806528e+18,-0.04478628933429718,0.03705437108874321,-9.901432991027832
1.7215730808836529e+18,-0.10406035929918289,-0.0019526772666722536,-9.77922248840332
1.721573080889653e+18,-0.05457296967506409,-0.031935080885887146,-9.814769744873047
1.721573080895653e+18,-0.002713664434850216,-0.08650561422109604,-9.798540115356445
1.7215730809016532e+18,-0.06232544034719467,-0.04047873988747597,-9.862042427062988
1.7215730809076534e+18,0.05736982077360153,0.08083811402320862,-9.856175422668457
1.7215730809136535e+18,-0.049727912992239,-0.02565424144268036,-9.800382614135742
1.7215730809196536e+18,-0.06422530859708786,0.03576066344976425,-9.780909538269043
1.7215730809256538e+18,-0.05760970339179039,-0.009247289039194584,-9.855342864990234
1.721573080931654e+18,-0.08576656132936478,0.016281481832265854,-9.826310157775879
1.721573080937654e+18,-0.07295263558626175,0.0416862927377224,-9.739791870117188
1.7215730809436541e+18,0.0825481191277504,-0.025965647771954536,-9.824824333190918
1.7215730809466542e+18,0.09100110083818436,-0.061394982039928436,-9.780488014221191
1.7215730809526543e+18,0.002046086359769106,0.054536014795303345,-9.782231330871582
1.7215730809586545e+18,-0.013984008692204952,0.034102968871593475,-9.834259986877441
1.7215730809646546e+18,0.030020467936992645,-0.004857819061726332,-9.815784454345703
1.7215730809706547e+18,0.02634608931839466,-0.024717310443520546,-9.791098594665527
1.7215730809736548e+18,-0.006715934257954359,0.01756349764764309,-9.761987686157227
1.721573080979655e+18,-0.025071771815419197,-0.0463460236787796,-9.826746940612793
1.721573080985655e+18,0.04029018059372902,-0.022747429087758064,-9.763214111328125
1.7215730809916552e+18,0.023175830021500587,0.023329732939600945,-9.80102825164795
1.7215730809976553e+18,0.021238572895526886,0.010804961435496807,-9.838423728942871
1.7215730810006554e+18,0.040038589388132095,0.03423115238547325,-9.735212326049805
1.7215730810066555e+18,-0.04701952636241913,0.026425456628203392,-9.787147521972656
1.7215730810096556e+18,0.0193482656031847,-0.07890328764915466,-9.768068313598633
1.7215730810156557e+18,0.02367877960205078,-0.003206485416740179,-9.764849662780762
1.7215730810216558e+18,-0.008139447309076786,-0.024844544008374214,-9.758952140808105
1.721573081027656e+18,0.033631738275289536,-0.03034655563533306,-9.661383628845215
1.721573081030656e+18,-0.015595803037285805,-0.02732286974787712,-9.722776412963867
1.7215730810396562e+18,0.010911870747804642,-0.004974924959242344,-9.771044731140137
1.7215730810456563e+18,-0.025096477940678596,0.030947038903832436,-9.808647155761719
1.7215730810516564e+18,0.04091739282011986,-0.03747575357556343,-9.808063507080078
1.7215730810576566e+18,0.04927953705191612,-0.007648942526429892,-9.817632675170898
1.7215730810636567e+18,-0.04198574647307396,0.030952150002121925,-9.8331937789917
1.7215730810696568e+18,0.06024758145213127,-0.02298004738986492,-9.85488224029541
1.721573081075657e+18,-0.000978950411081314,-0.02524883858859539,-9.83028507232666
1.721573081081657e+18,0.030162248760461807,0.0010370701784268022,-9.767592430114746
1.7215730810846572e+18,-0.06298763304948807,-0.1326480209827423,-9.75950813293457
1.7215730810936573e+18,-0.008960814215242863,0.06554929912090302,-9.779780387878418
1.7215730810966574e+18,-0.02566257119178772,0.0021075697150081396,-9.798051834106445
1.7215730811026575e+18,-0.01731102541089058,0.0021169499959796667,-9.892916679382324
1.7215730811086577e+18,0.0031880210153758526,0.03315788879990578,-9.703577995300293
1.7215730811146578e+18,-0.016118131577968597,0.040753185749053955,-9.787310600280762
1.721573081120658e+18,0.007183581590652466,0.07131169736385345,-9.810318946838379
1.721573081123658e+18,0.03129349648952484,0.0005710342666134238,-9.81603717803955
1.7215730811326582e+18,-0.04999609664082527,-0.004506941884756088,-9.838166236877441
1.7215730811356582e+18,0.029176095500588417,0.002579200081527233,-9.779606819152832
1.7215730811416584e+18,-0.062026239931583405,-0.01670593023300171,-9.747563362121582
1.7215730811476585e+18,0.034400057047605515,-0.0584951676428318,-9.812204360961914
1.7215730811536586e+18,0.006995510775595903,0.00571107491850853,-9.746562004089355
1.7215730811596588e+18,-0.05908497795462608,-0.036077145487070084,-9.831052780151367
1.721573081165659e+18,0.03198106959462166,-0.039050422608852386,-9.819175720214844
1.721573081171659e+18,-0.00871146097779274,0.020712025463581085,-9.824970245361328
1.7215730811776591e+18,0.007361731491982937,-0.005583330988883972,-9.800739288330078
1.7215730811866593e+18,-0.07581300288438797,-0.04037073627114296,-9.81005859375
1.7215730811926595e+18,-0.009121302515268326,0.004700297024101019,-9.809337615966797
1.7215730811986596e+18,-0.004818215500563383,-0.0659686028957367,-9.760896682739258
1.7215730812046597e+18,0.04299924150109291,-0.038877107203006744,-9.850939750671387
1.7215730812106598e+18,-0.0184771828353405,0.04623753949999809,-9.825894355773926
1.72157308121666e+18,0.03727814555168152,-0.029225511476397514,-9.799479484558105
1.72157308122266e+18,-0.04244852811098099,0.08519618958234787,-9.800515174865723
1.7215730812286602e+18,0.011239312589168549,0.05680609121918678,-9.845824241638184
1.7215730812346604e+18,-0.04077428951859474,-0.03737695515155792,-9.878713607788086
1.7215730812376604e+18,-0.0652962401509285,-0.024634763598442078,-9.807313919067383
1.7215730812436605e+18,0.04197138547897339,0.029580913484096527,-9.86925983428955
1.7215730812496607e+18,0.058769531548023224,-0.04734816774725914,-9.78657054901123
1.7215730812556608e+18,-0.07711154967546463,-0.048519689589738846,-9.834053993225098
1.721573081261661e+18,0.04490038380026817,0.0035843574441969395,-9.773974418640137
1.721573081264661e+18,-0.06661093235015869,-0.04416633024811745,-9.772473335266113
1.721573081270661e+18,0.015965109691023827,0.04366951063275337,-9.785690307617188
1.7215730812796613e+18,0.010694438591599464,-0.02154308371245861,-9.7978515625
1.7215730812856614e+18,-0.017512444406747818,-0.010481618344783783,-9.777753829956055
1.7215730812916616e+18,-0.06444699317216873,0.005520210601389408,-9.808058738708496
1.7215730812976617e+18,-0.010074090212583542,0.04274153336882591,-9.71110725402832
1.7215730813036618e+18,-0.004823371767997742,-0.04469558596611023,-9.805402755737305
1.721573081309662e+18,-0.029078945517539978,0.07543390989303589,-9.802760124206543
1.721573081315662e+18,0.020442098379135132,0.004562786780297756,-9.824745178222656
1.7215730813216622e+18,0.012999482452869415,-0.03737304359674454,-9.83057975769043
1.7215730813306624e+18,-0.02439185604453087,-0.03296902775764465,-9.814069747924805
1.7215730813336625e+18,-0.04518463462591171,0.0707508772611618,-9.804696083068848
1.7215730813396626e+18,0.025226129218935966,-0.00027193204732611775,-9.793874740600586
1.7215730813456627e+18,0.016215460374951363,0.020196175202727318,-9.831225395202637
1.7215730813486628e+18,0.0103455213829875,-0.03156444430351257,-9.78000545501709
1.721573081354663e+18,-0.07681545615196228,-0.025013281032443047,-9.886282920837402
1.721573081360663e+18,-0.04413515329360962,0.06816369295120239,-9.780517578125
1.7215730813666632e+18,0.05769644305109978,0.059661783277988434,-9.790467262268066
1.7215730813696632e+18,0.07872670888900757,-0.02826659195125103,-9.750855445861816
1.7215730813756634e+18,-0.0704159215092659,0.03788711130619049,-9.727093696594238
1.7215730813846636e+18,-0.04268809035420418,0.026649050414562225,-9.81399917602539
1.7215730813906637e+18,-0.007168622221797705,0.0033019522670656443,-9.702605247497559
1.7215730813966638e+18,0.09071344137191772,0.02769039198756218,-9.769168853759766
1.721573081402664e+18,-0.016553273424506187,-0.06046133488416672,-9.849660873413086
1.721573081408664e+18,0.011375251226127148,0.04212700203061104,-9.720916748046875
1.7215730814146642e+18,-0.058365847915410995,0.014778283424675465,-9.773191452026367
1.7215730814206643e+18,0.022294459864497185,-0.055415280163288116,-9.768718719482422
1.7215730814266644e+18,-0.05985764041543007,-0.01711590401828289,-9.752609252929688
1.7215730814326646e+18,0.017024850472807884,-0.04606485739350319,-9.856878280639648
1.7215730814386647e+18,0.009261487051844597,0.08323833346366882,-9.733101844787598
1.7215730814446648e+18,-0.021377351135015488,-0.033186063170433044,-9.769984245300293
1.721573081450665e+18,0.06717775762081146,0.028599442914128304,-9.795538902282715
1.721573081453665e+18,-0.011636211536824703,0.005996755789965391,-9.809484481811523
1.7215730814596652e+18,0.030729923397302628,-0.08947993069887161,-9.821062088012695
1.7215730814656653e+18,0.050268374383449554,-0.04209325090050697,-9.731939315795898
1.7215730814716654e+18,-0.04376532882452011,-0.016865557059645653,-9.802789688110352
1.7215730814746655e+18,0.04065706208348274,-0.039359595626592636,-9.831992149353027
1.7215730814836657e+18,0.04064982756972313,-0.007767723873257637,-9.835796356201172
1.7215730814866657e+18,-0.026052119210362434,0.03601610288023949,-9.847496032714844
1.7215730814926659e+18,-0.03646783530712128,0.04261840879917145,-9.83183479309082
1.721573081498666e+18,-0.015645358711481094,0.09469272941350937,-9.774618148803711
1.721573081501666e+18,0.00865813996642828,0.017020972445607185,-9.810824394226074
1.7215730815076662e+18,-0.013057886622846127,0.038585416972637177,-9.851396560668945
1.7215730815136663e+18,0.08659171313047409,-0.03911794349551201,-9.8255615234375
1.7215730815196664e+18,-0.025303278118371964,-0.08181896805763245,-9.845168113708496
1.7215730815226665e+18,0.0062869698740541935,0.023285862058401108,-9.844444274902344
1.7215730815286666e+18,-0.05650842562317848,-0.0461331270635128,-9.863734245300293
1.7215730815346668e+18,0.042850740253925323,0.04217599332332611,-9.861289024353027
1.721573081540667e+18,-0.05276849865913391,0.0014318103203549981,-9.806058883666992
1.721573081546667e+18,-0.03270765021443367,-0.05086834356188774,-9.776551246643066
1.7215730815526671e+18,-0.018894895911216736,0.11218737810850143,-9.791736602783203
1.7215730815586673e+18,-0.025324789807200432,0.06397030502557755,-9.82314395904541
1.7215730815646674e+18,0.007072383537888527,0.07555406540632248,-9.850140571594238
1.7215730815706675e+18,-0.134197399020195,-0.051670003682374954,-9.782520294189453
1.7215730815766676e+18,-0.011681687086820602,-0.013041257858276367,-9.828917503356934
1.7215730815826678e+18,0.04854058846831322,0.05046762153506279,-9.806358337402344
1.721573081588668e+18,0.11001398414373398,0.03503674641251564,-9.833999633789062
1.721573081594668e+18,-0.08354539424180984,-0.005020917393267155,-9.806556701660156
1.7215730816006682e+18,-0.012268329970538616,-0.010225223377346992,-9.773895263671875
1.7215730816066683e+18,-0.0818447545170784,-0.047415174543857574,-9.821331977844238
1.7215730816126684e+18,-0.05661609768867493,0.025616543367505074,-9.852720260620117
1.7215730816156685e+18,-0.01580486074090004,-0.062319349497556686,-9.804158210754395
1.7215730816216686e+18,-0.05155714228749275,-0.034705016762018204,-9.786932945251465
1.7215730816276687e+18,0.018117794767022133,0.02060042694211006,-9.873800277709961
1.7215730816336689e+18,0.0327758826315403,0.02910703234374523,-9.748987197875977
1.721573081639669e+18,0.05028194934129715,0.011570952832698822,-9.838985443115234
1.721573081645669e+18,0.03233494609594345,0.004532784689217806,-9.836974143981934
1.7215730816486692e+18,-0.0359976589679718,-0.029673604294657707,-9.839034080505371
1.7215730816546693e+18,-0.041969239711761475,0.0024387852754443884,-9.802844047546387
1.7215730816606694e+18,-0.02481415495276451,0.02790946327149868,-9.828649520874023
1.7215730816666696e+18,0.01925823651254177,0.02112427167594433,-9.81546688079834
1.7215730816726697e+18,-0.013473101891577244,-0.01188475638628006,-9.833334922790527
1.7215730816786698e+18,-0.062167149037122726,0.03399517387151718,-9.8267240524292
1.72157308168167e+18,0.021998094394803047,-0.01821409910917282,-9.817145347595215
1.72157308169067e+18,0.06424238532781601,0.09000954777002335,-9.799367904663086
1.7215730816966702e+18,0.024322567507624626,-0.02197645604610443,-9.793020248413086
1.7215730817026703e+18,0.0600602924823761,0.04168018326163292,-9.752118110656738
1.7215730817086705e+18,-0.003256128868088126,0.02965392917394638,-9.832890510559082
1.7215730817146706e+18,-0.007398606743663549,-0.029624920338392258,-9.755277633666992
1.7215730817206707e+18,0.019882651045918465,0.10270959138870239,-9.820823669433594
1.7215730817266708e+18,0.06076870113611221,0.029360972344875336,-9.78697395324707
1.721573081732671e+18,-0.004093304742127657,-0.007658754475414753,-9.810930252075195
1.721573081738671e+18,-0.05360838770866394,0.059592753648757935,-9.775785446166992
1.7215730817446712e+18,-0.021941283717751503,-0.03931676596403122,-9.848145484924316
1.7215730817476713e+18,-0.037723392248153687,-0.020187044516205788,-9.839386940002441
1.7215730817536714e+18,0.03611262887716293,0.013963286764919758,-9.809555053710938
1.7215730817596716e+18,0.02323441207408905,0.012779617682099342,-9.831742286682129
1.7215730817656717e+18,0.003596841124817729,0.027644138783216476,-9.794951438903809
1.7215730817716718e+18,-0.05562826618552208,-0.031150642782449722,-9.80307388305664
1.721573081774672e+18,0.030715307220816612,0.08316517621278763,-9.801137924194336
1.721573081780672e+18,0.04933535307645798,-0.10254116356372833,-9.757636070251465
1.721573081786672e+18,-0.021235812455415726,-0.04241761192679405,-9.851053237915039
1.7215730817926723e+18,-0.030006831511855125,-0.015892863273620605,-9.834247589111328
1.7215730817986724e+18,0.08961844444274902,0.010717148892581463,-9.695815086364746
1.7215730818046725e+18,-0.04523760452866554,-0.015233027748763561,-9.739956855773926
1.7215730818106726e+18,0.013209283351898193,0.014081173576414585,-9.84517765045166
1.7215730818166728e+18,-0.033951617777347565,-0.02902323007583618,-9.793944358825684
1.721573081822673e+18,-0.0447896271944046,0.06389299780130386,-9.789366722106934
1.721573081828673e+18,0.033042408525943756,-0.017759399488568306,-9.77692985534668
1.7215730818346732e+18,-0.03159743919968605,0.023955779150128365,-9.834259986877441
1.7215730818406733e+18,0.03234603628516197,0.028535284101963043,-9.854544639587402
1.7215730818466734e+18,0.05492663010954857,-0.0378621444106102,-9.85542106628418
1.7215730818526735e+18,0.018575264140963554,0.03395181894302368,-9.854167938232422
1.7215730818556736e+18,-0.08130727708339691,-0.01691764034330845,-9.808975219726562
1.7215730818616737e+18,-0.047046761959791183,-0.026082884520292282,-9.813010215759277
1.7215730818676739e+18,0.00017362955259159207,0.009172993712127209,-9.877429008483887
1.721573081873674e+18,0.019716696813702583,-0.0222921259701252,-9.821955680847168
1.721573081879674e+18,0.04563882201910019,0.0036288273986428976,-9.760629653930664
1.7215730818856742e+18,0.02698548510670662,0.0338582880795002,-9.798904418945312
1.7215730818916744e+18,0.0358203761279583,0.008893908001482487,-9.843013763427734
1.7215730818976745e+18,0.01708892360329628,0.052896223962306976,-9.764727592468262
1.7215730819036746e+18,-0.010748757049441338,0.02433985471725464,-9.815337181091309
1.7215730819096748e+18,-0.008114318363368511,-0.053925104439258575,-9.741658210754395
1.721573081915675e+18,-0.026071539148688316,0.020010696724057198,-9.82472038269043
1.721573081921675e+18,-0.05796204134821892,-0.019871005788445473,-9.82040786743164
1.7215730819276751e+18,-0.040069375187158585,0.0416109561920166,-9.735379219055176
1.7215730819306752e+18,-0.01847038045525551,0.03150305896997452,-9.81300163269043
1.7215730819366753e+18,0.012951156124472618,-0.004295077174901962,-9.763551712036133
1.7215730819426755e+18,-0.059932682663202286,-0.04725339263677597,-9.786606788635254
1.7215730819486756e+18,0.012710455805063248,0.006791293621063232,-9.797272682189941
1.7215730819546757e+18,-0.03275211527943611,0.013530852273106575,-9.791828155517578
1.7215730819606758e+18,-0.038732338696718216,-0.016092374920845032,-9.822951316833496
1.721573081966676e+18,-0.05166865140199661,-0.06234589219093323,-9.833144187927246
1.721573081972676e+18,-0.05812618508934975,-0.02712458372116089,-9.84982681274414
1.7215730819786762e+18,-0.007935930974781513,-0.021421533077955246,-9.786149978637695
1.7215730819846764e+18,-0.010496746748685837,0.06722873449325562,-9.803109169006348
1.7215730819906765e+18,-0.0032887777779251337,0.0130928885191679,-9.79649829864502
1.7215730819966766e+18,-0.0025198606308549643,-0.012167445383965969,-9.757163047790527
1.7215730820026767e+18,-0.013583996333181858,-0.0078229159116745,-9.818241119384766
1.7215730820086769e+18,0.062373995780944824,-0.002032597316429019,-9.814166069030762
1.721573082014677e+18,-0.04004035145044327,-0.08393599838018417,-9.774847030639648
1.721573082020677e+18,-0.04516369476914406,0.08239275962114334,-9.731412887573242
1.7215730820236772e+18,0.019206209108233452,-0.02261499874293804,-9.823034286499023
1.7215730820296773e+18,-0.04162365198135376,0.04808482155203819,-9.924276351928711
1.7215730820356774e+18,-0.026182370260357857,0.037381891161203384,-9.871536254882812
1.7215730820416776e+18,-0.06965061277151108,-0.02041463926434517,-9.760980606079102
1.7215730820476777e+18,0.008052670396864414,-0.06580044329166412,-9.776206970214844
1.7215730820536778e+18,-0.050192032009363174,-0.009380766190588474,-9.801558494567871
1.721573082056678e+18,0.02865387499332428,0.021878279745578766,-9.811213493347168
1.721573082062678e+18,0.01965348981320858,-0.02183055318892002,-9.790307998657227
1.7215730820686781e+18,-0.03674381598830223,0.00036925228778272867,-9.754020690917969
1.7215730820746783e+18,0.05185890570282936,-0.03151626139879227,-9.819512367248535
1.7215730820806784e+18,0.02112985961139202,0.050157856196165085,-9.82852554321289
1.7215730820866785e+18,-0.01965971663594246,0.017023291438817978,-9.837987899780273
1.7215730820926787e+18,0.036206260323524475,-0.023627664893865585,-9.80822467803955
1.7215730820986788e+18,-0.024680135771632195,-0.0027215525042265654,-9.857600212097168
1.721573082104679e+18,0.013793084770441055,0.07817886024713516,-9.69521713256836
1.721573082110679e+18,0.03469140827655792,0.021365728229284286,-9.813725471496582
1.7215730821166792e+18,-0.009774983860552311,0.008373506367206573,-9.782452583312988
1.7215730821226793e+18,-0.08376405388116837,-0.032923635095357895,-9.82772159576416
1.7215730821286794e+18,-0.05563928186893463,0.009924037382006645,-9.790900230407715
1.7215730821346796e+18,-0.010530699975788593,0.05237958952784538,-9.793778419494629
1.7215730821406797e+18,-0.07239126414060593,-0.005112333223223686,-9.764297485351562
1.7215730821466798e+18,-0.02075919322669506,-0.057136550545692444,-9.808365821838379
1.7215730821496799e+18,0.09680970758199692,-0.013171756640076637,-9.809147834777832
1.72157308215568e+18,-0.0007540211081504822,0.006577689200639725,-9.78066349029541
1.7215730821616801e+18,0.08837787061929703,-0.07097845524549484,-9.843832015991211
1.7215730821676803e+18,0.052323244512081146,0.04400285333395004,-9.752801895141602
1.7215730821736804e+18,-0.028172999620437622,0.09243236482143402,-9.803049087524414
1.7215730821796805e+18,-0.022007741034030914,-0.0006913283723406494,-9.86801528930664
1.7215730821856806e+18,0.0076456451788544655,0.04104912281036377,-9.819502830505371
1.7215730821916808e+18,-0.05975112318992615,-0.018641335889697075,-9.779470443725586
1.721573082197681e+18,-0.01570664346218109,0.0876549780368805,-9.744842529296875
1.721573082203681e+18,0.000507073593325913,0.010751526802778244,-9.838109016418457
1.7215730822096812e+18,0.033157914876937866,0.0427483394742012,-9.72861385345459
1.7215730822156813e+18,0.12566320598125458,0.015986962243914604,-9.754776954650879
1.7215730822216814e+18,-0.012440300546586514,0.02028060331940651,-9.834074020385742
1.7215730822276815e+18,0.03716057166457176,0.005555568728595972,-9.740413665771484
1.7215730822366817e+18,-0.03180165961384773,-0.04221374914050102,-9.865341186523438
1.7215730822426819e+18,-0.01646599918603897,-0.09919904172420502,-9.783909797668457
1.721573082248682e+18,-0.004756595473736525,0.06082402542233467,-9.811237335205078
1.721573082254682e+18,-0.023120790719985962,0.031841129064559937,-9.79405689239502
1.7215730822606822e+18,-0.0587492361664772,-0.0180001650005579,-9.823088645935059
1.7215730822666824e+18,-0.07466796040534973,-0.07617873698472977,-9.734051704406738
1.7215730822726825e+18,-0.04931534454226494,-0.03274192661046982,-9.775144577026367
1.7215730822786826e+18,0.036778513342142105,-0.008622651919722557,-9.841750144958496
1.7215730822846828e+18,0.015732696279883385,0.018269069492816925,-9.842034339904785
1.721573082290683e+18,-0.00482114078477025,0.06703808158636093,-9.829987525939941
1.721573082296683e+18,0.0007575338240712881,0.0016322728479281068,-9.752683639526367
1.7215730823026831e+18,0.003472694428637624,-0.030520638450980186,-9.855270385742188
1.7215730823086833e+18,0.016788914799690247,0.016114620491862297,-9.744976997375488
1.7215730823146834e+18,-0.01213876623660326,-0.01425654161721468,-9.761905670166016
1.7215730823206835e+18,-0.04675855487585068,-0.0194082148373127,-9.850654602050781
1.7215730823266836e+18,-0.011251132003962994,-0.004500694572925568,-9.763880729675293
1.7215730823296837e+18,-0.0013410701649263501,-0.027725305408239365,-9.703855514526367
1.7215730823356838e+18,-0.02671012096107006,0.024894166737794876,-9.79854679107666
1.721573082341684e+18,-0.01892125979065895,-0.10210496932268143,-9.82237720489502
1.721573082347684e+18,-0.01334088109433651,-0.04767194017767906,-9.766095161437988
1.7215730823536842e+18,-0.03468143567442894,0.015961872413754463,-9.76501750946045
1.7215730823596844e+18,-0.041432131081819534,0.013844027183949947,-9.828603744506836
1.7215730823656845e+18,-0.019996879622340202,-0.0735338106751442,-9.814454078674316
1.7215730823716846e+18,-0.0469789132475853,0.0033312924206256866,-9.754469871520996
1.7215730823746847e+18,0.04058350622653961,0.06122702360153198,-9.730189323425293
1.7215730823836849e+18,-0.0652858093380928,0.11438193172216415,-9.778605461120605
1.721573082389685e+18,0.011133420281112194,0.03495852276682854,-9.744749069213867
1.721573082395685e+18,-0.03022436425089836,-0.041874732822179794,-9.82043743133545
1.7215730824016852e+18,-0.015468275174498558,-0.023304089903831482,-9.775577545166016
1.7215730824076854e+18,0.03640250861644745,0.03453674539923668,-9.810461044311523
1.7215730824136855e+18,0.0022618479561060667,0.05669383704662323,-9.79530143737793
1.7215730824196856e+18,-0.07039710879325867,0.022270258516073227,-9.867053985595703
1.7215730824256858e+18,-0.013241137377917767,-0.03508254140615463,-9.807964324951172
1.7215730824286858e+18,0.00152422278188169,0.019243890419602394,-9.777397155761719
1.721573082434686e+18,-0.012688747607171535,0.017064135521650314,-9.765551567077637
1.721573082440686e+18,0.012620453722774982,-0.006419437937438488,-9.807629585266113
1.7215730824496863e+18,0.017504610121250153,0.09594907611608505,-9.775351524353027
1.7215730824526863e+18,-0.023037539795041084,0.023090410977602005,-9.82718276977539
1.7215730824616865e+18,0.009961217641830444,-0.0015520850429311395,-9.82032299041748
1.7215730824676867e+18,0.015881473198533058,-0.04769591614603996,-9.756244659423828
1.7215730824736868e+18,-0.032965291291475296,-0.029574209824204445,-9.817011833190918
1.721573082479687e+18,-0.0047699990682303905,-0.003003530902788043,-9.840603828430176
1.721573082482687e+18,-0.01456461288034916,0.030785588547587395,-9.735593795776367
1.721573082488687e+18,0.03204059973359108,0.06839390844106674,-9.793303489685059
1.7215730824946872e+18,0.02141548879444599,0.09410607814788818,-9.867679595947266
1.7215730824976873e+18,0.004712251480668783,-0.00871527660638094,-9.886200904846191
1.7215730825036874e+18,0.020061563700437546,-0.038862332701683044,-9.803050994873047
1.7215730825096876e+18,0.03556515648961067,-0.08820053189992905,-9.727168083190918
1.7215730825156877e+18,0.018526097759604454,-0.014300660230219364,-9.72179889678955
1.7215730825216878e+18,-0.019109666347503662,-0.012831869535148144,-9.857858657836914
1.721573082527688e+18,0.07549381256103516,0.01896008849143982,-9.796611785888672
1.721573082533688e+18,0.1047784760594368,0.039604395627975464,-9.894145965576172
1.7215730825396882e+18,-0.018645532429218292,-0.02439272031188011,-9.78863525390625
1.7215730825456883e+18,0.01684054359793663,-0.06341425329446793,-9.866949081420898
1.7215730825516884e+18,0.049045514315366745,0.05193551257252693,-9.770040512084961
1.7215730825576886e+18,0.047856759279966354,-0.019008776172995567,-9.784351348876953
1.7215730825636887e+18,0.021250396966934204,0.010047714225947857,-9.777373313903809
1.7215730825696888e+18,-0.04656253010034561,0.04538207873702049,-9.804510116577148
1.721573082575689e+18,-0.026366768404841423,-0.04541859030723572,-9.778364181518555
1.721573082578689e+18,-0.03926480561494827,-0.01609569787979126,-9.79826831817627
1.7215730825846892e+18,0.01710076816380024,0.0865749716758728,-9.709789276123047
1.7215730825906893e+18,-0.03149028122425079,0.02483055740594864,-9.83257007598877
1.7215730825966894e+18,-0.020200198516249657,0.005270357243716717,-9.840699195861816
1.7215730826026895e+18,-0.0246836319565773,-0.048977795988321304,-9.772748947143555
1.7215730826116897e+18,0.025355909019708633,-0.021325644105672836,-9.777006149291992
1.7215730826146898e+18,0.03151298686861992,0.02169903554022312,-9.75260066986084
1.72157308262069e+18,-0.020058799535036087,-0.02342996932566166,-9.794757843017578
1.72157308262669e+18,0.09780117124319077,-0.03152827173471451,-9.787187576293945
1.7215730826326902e+18,0.07502628117799759,0.00189023872371763,-9.814410209655762
1.7215730826356902e+18,0.03694027289748192,0.010352635756134987,-9.870917320251465
1.7215730826416904e+18,0.02200056053698063,-0.03571286424994469,-9.723447799682617
1.7215730826476905e+18,0.0780002772808075,0.08558569103479385,-9.774335861206055
1.7215730826536906e+18,-0.030802883207798004,0.010959945619106293,-9.811798095703125
1.7215730826596908e+18,-0.04475075751543045,-0.023781463503837585,-9.808514595031738
1.721573082665691e+18,0.026177262887358665,-0.0192575640976429,-9.783687591552734
1.721573082668691e+18,-0.05902671441435814,0.037525616586208344,-9.772552490234375
1.721573082674691e+18,-0.03100164234638214,0.028414184227585793,-9.814069747924805
1.7215730826806912e+18,0.04730698838829994,-0.017320148646831512,-9.804332733154297
1.7215730826866913e+18,-0.022430839017033577,-0.028268765658140182,-9.804795265197754
1.7215730826896914e+18,-0.05376943200826645,0.008502689190208912,-9.807328224182129
1.7215730826956915e+18,-0.07128702849149704,-0.001887847320176661,-9.760969161987305
1.7215730827016916e+18,-0.050899866968393326,-0.03676566109061241,-9.719090461730957
1.7215730827076918e+18,0.07136256247758865,0.056258298456668854,-9.846805572509766
1.721573082713692e+18,0.0017094614449888468,0.03207416832447052,-9.855719566345215
1.721573082719692e+18,0.12437403947114944,0.028108535334467888,-9.864371299743652
1.7215730827286922e+18,0.013790597207844257,-0.00023410932044498622,-9.847066879272461
1.7215730827346924e+18,-0.0010234912624582648,0.06892816722393036,-9.841257095336914
1.7215730827406925e+18,0.011576353572309017,-0.031572263687849045,-9.726025581359863
1.7215730827466926e+18,0.05801164731383324,0.012812447734177113,-9.773832321166992
1.7215730827526927e+18,0.021504562348127365,0.045045580714941025,-9.787721633911133
1.7215730827556928e+18,-0.062474243342876434,-0.13358953595161438,-9.812227249145508
1.721573082764693e+18,0.015615490265190601,0.040975842624902725,-9.834012985229492
1.721573082770693e+18,-0.03011206164956093,-0.08799640834331512,-9.862303733825684
1.7215730827766932e+18,-0.020907558500766754,0.011202610097825527,-9.85346508026123
1.7215730827826934e+18,-0.009341469965875149,-0.015390601009130478,-9.75711441040039
1.7215730827886935e+18,0.02570933662354946,0.017518416047096252,-9.859726905822754
1.7215730827946936e+18,0.02328527718782425,0.009574448689818382,-9.852823257446289
1.7215730828006938e+18,0.011983240023255348,-0.0015772327315062284,-9.864818572998047
1.721573082806694e+18,-0.04060925543308258,-0.02105960249900818,-9.868557929992676
1.721573082812694e+18,0.011604415252804756,-0.10272634029388428,-9.769552230834961
1.721573082815694e+18,-0.08294570446014404,-0.0028025878127664328,-9.784171104431152
1.7215730828246943e+18,0.03948020190000534,0.0017621669685468078,-9.88094425201416
1.7215730828306944e+18,-0.00501492153853178,0.03403693810105324,-9.787127494812012
1.7215730828366945e+18,0.03261849284172058,0.040893521159887314,-9.838419914245605
1.7215730828426947e+18,-0.018391991034150124,-0.006667104549705982,-9.754098892211914
1.7215730828486948e+18,0.046234216541051865,-0.03928011283278465,-9.812122344970703
1.721573082854695e+18,-0.016771819442510605,0.01249540876597166,-9.752702713012695
1.721573082860695e+18,0.038228921592235565,0.009776832535862923,-9.797561645507812
1.7215730828666952e+18,0.0464484840631485,0.011228475719690323,-9.76175594329834
1.7215730828726953e+18,0.05992116406559944,-0.013365623541176319,-9.775492668151855
1.7215730828786954e+18,0.024308912456035614,0.007109241560101509,-9.809463500976562
1.7215730828846956e+18,-0.014903527684509754,0.017016399651765823,-9.793781280517578
1.7215730828906957e+18,-0.04152832180261612,-0.0437612421810627,-9.81679916381836
1.7215730828966958e+18,0.02887055277824402,0.011961608193814754,-9.886955261230469
1.7215730828996959e+18,-0.11065725982189178,0.06739099323749542,-9.791131019592285
1.721573082905696e+18,-0.05213339626789093,0.026706576347351074,-9.7639741897583
1.7215730829116961e+18,-0.07226099818944931,0.0356421023607254,-9.831151962280273
1.7215730829176963e+18,-0.008663459680974483,-0.04740356281399727,-9.880105018615723
1.7215730829206963e+18,0.005855659022927284,0.014070513658225536,-9.852638244628906
1.7215730829266964e+18,0.004037955775856972,-0.021879224106669426,-9.835821151733398
1.7215730829326966e+18,-0.03778255730867386,-0.0353316031396389,-9.741823196411133
1.7215730829386967e+18,0.03256648778915405,0.026709476485848427,-9.808833122253418
1.7215730829446968e+18,-0.04400796443223953,-0.027519073337316513,-9.810282707214355
1.721573082947697e+18,0.018130119889974594,0.007101765368133783,-9.767720222473145
1.721573082953697e+18,-0.012471653521060944,0.09602068364620209,-9.790462493896484
1.7215730829596972e+18,-0.05240744724869728,0.02712840586900711,-9.844344139099121
1.7215730829656973e+18,0.036790184676647186,0.04395371675491333,-9.826184272766113
1.7215730829716974e+18,0.0649673119187355,0.03199732303619385,-9.836766242980957
1.7215730829776975e+18,0.012180506251752377,0.0652456060051918,-9.820961952209473
1.7215730829836977e+18,0.025600694119930267,-0.048064086586236954,-9.842347145080566
1.7215730829896978e+18,0.04293050616979599,-0.010475920513272285,-9.81937313079834
1.721573082995698e+18,0.011171295307576656,0.05707067623734474,-9.83009147644043
1.721573083001698e+18,0.007922413758933544,0.07253206521272659,-9.860356330871582
1.7215730830076982e+18,0.012071317061781883,0.007399442605674267,-9.76093864440918
1.7215730830166984e+18,-0.017364922910928726,0.029036786407232285,-9.765697479248047
1.7215730830226985e+18,0.0032931070309132338,0.04731035232543945,-9.759668350219727
1.7215730830286986e+18,-0.011361770331859589,-0.016152657568454742,-9.878373146057129
1.7215730830346988e+18,-0.003827097127214074,0.015037802048027515,-9.878277778625488
1.721573083040699e+18,-0.047381941229104996,-0.028129730373620987,-9.818543434143066
1.721573083046699e+18,0.015510394237935543,-0.01001693494617939,-9.795249938964844
1.7215730830526991e+18,-0.02944333851337433,-0.04105124622583389,-9.728124618530273
1.7215730830586993e+18,-0.009594171307981014,0.0051306309178471565,-9.786225318908691
1.7215730830646994e+18,-0.011643058620393276,0.025112800300121307,-9.788520812988281
1.7215730830676995e+18,0.03129367530345917,0.021610084921121597,-9.817413330078125
1.7215730830736996e+18,-0.03294447809457779,-0.034423936158418655,-9.779521942138672
1.7215730830796997e+18,0.00024311916786246002,-0.0423746183514595,-9.782621383666992
1.7215730830856998e+18,-0.0351700522005558,-0.01266989391297102,-9.76669692993164
1.7215730830947e+18,-0.02890927344560623,0.026579730212688446,-9.817948341369629
1.7215730831007002e+18,0.06813979893922806,0.03492606803774834,-9.769187927246094
1.7215730831067003e+18,-0.022233575582504272,0.044196609407663345,-9.777621269226074
1.7215730831127004e+18,0.023333687335252762,-0.025280285626649857,-9.78994369506836
1.7215730831217006e+18,-0.04331081360578537,0.0161722544580698,-9.79036808013916
1.7215730831277007e+18,-0.020774278789758682,0.08154461532831192,-9.717700004577637
1.7215730831337009e+18,-0.05457422882318497,0.023880330845713615,-9.823610305786133
1.721573083139701e+18,-0.0030545678455382586,0.04372210055589676,-9.788434028625488
1.721573083145701e+18,-0.029447102919220924,0.06948508322238922,-9.768924713134766
1.7215730831547013e+18,0.020022446289658546,0.010079046711325645,-9.886284828186035
1.7215730831607014e+18,-0.020818287506699562,-0.02570456452667713,-9.806657791137695
1.7215730831667016e+18,0.02131679840385914,-0.004070394206792116,-9.782682418823242
1.7215730831727017e+18,-0.047754332423210144,-0.027769556269049644,-9.773405075073242
1.721573083181702e+18,-0.00733729125931859,-0.014614029787480831,-9.822510719299316
1.721573083187702e+18,-0.010520369745790958,0.013308592140674591,-9.820931434631348
1.7215730831937021e+18,-0.07127956300973892,-0.004662994295358658,-9.834062576293945
1.7215730831997023e+18,-0.049358393996953964,-0.01958075724542141,-9.820465087890625
1.7215730832057024e+18,-0.03674035891890526,0.02584405615925789,-9.816524505615234
1.7215730832147026e+18,0.02833567000925541,-0.005359223112463951,-9.81521224975586
1.7215730832207027e+18,-0.02505527064204216,0.009086910635232925,-9.819589614868164
1.7215730832267028e+18,-6.903721805429086e-05,-0.009272451512515545,-9.839832305908203
1.721573083232703e+18,-0.02225259132683277,-0.0063333166763186455,-9.770284652709961
1.721573083238703e+18,-0.02469690889120102,0.006169268861413002,-9.736517906188965
1.7215730832447032e+18,-0.058459337800741196,-0.03451494872570038,-9.757344245910645
1.7215730832537034e+18,0.07254080474376678,0.09465434402227402,-9.822534561157227
1.7215730832597036e+18,-0.010469012893736362,-0.05503291264176369,-9.808492660522461
1.7215730832657037e+18,-0.03509674221277237,0.01254960522055626,-9.831647872924805
1.7215730832717038e+18,0.0284716859459877,-0.014370639808475971,-9.820894241333008
1.721573083277704e+18,-0.015718042850494385,0.06613224744796753,-9.865370750427246
1.721573083286704e+18,0.033480655401945114,-0.0011145493481308222,-9.833767890930176
1.7215730832927043e+18,0.005378223489969969,0.024036338552832603,-9.733869552612305
1.7215730832987044e+18,-0.029692580923438072,-0.004366664681583643,-9.836999893188477
1.7215730833017044e+18,0.015269535593688488,-0.013833179138600826,-9.759434700012207
1.7215730833077046e+18,-0.02071782387793064,-0.02573440410196781,-9.817827224731445
1.7215730833137047e+18,0.038438085466623306,0.05434040352702141,-9.827971458435059
1.7215730833197048e+18,-0.023898664861917496,0.0653238371014595,-9.770824432373047
1.721573083325705e+18,0.003381447633728385,0.0384657084941864,-9.843648910522461
1.721573083331705e+18,0.027438800781965256,-0.019523005932569504,-9.775579452514648
1.7215730833377052e+18,-0.03923962265253067,0.05136510357260704,-9.75374984741211
1.7215730833437053e+18,0.05973125994205475,-0.023502349853515625,-9.786942481994629
1.7215730833497055e+18,0.05272901803255081,-0.06253115087747574,-9.76610279083252
1.7215730833557056e+18,-0.03224242106080055,-0.04051099345088005,-9.779167175292969
1.7215730833617057e+18,0.026680732145905495,0.0018187230452895164,-9.782392501831055
1.7215730833677059e+18,-0.025605402886867523,-0.045519303530454636,-9.796504974365234
1.721573083370706e+18,-0.019681021571159363,0.01195420790463686,-9.847145080566406
1.721573083376706e+18,-0.02606157772243023,-0.045180972665548325,-9.736196517944336
1.7215730833827062e+18,-0.013624323531985283,0.11137043684720993,-9.792673110961914
1.7215730833887063e+18,-0.05461661145091057,0.0434860996901989,-9.78050422668457
1.7215730833947064e+18,-0.017448175698518753,-0.026642372831702232,-9.835394859313965
1.7215730833977065e+18,0.09906364232301712,0.0394698791205883,-9.783764839172363
1.7215730834037066e+18,-0.04310302436351776,0.007382159121334553,-9.81554126739502
1.7215730834097068e+18,0.07913825660943985,0.08320768922567368,-9.761122703552246
1.7215730834127068e+18,0.08010383695363998,-0.004257701337337494,-9.69741439819336
1.721573083418707e+18,-0.004309675190597773,-0.033907871693372726,-9.830772399902344
1.721573083424707e+18,-0.05324957147240639,0.029537906870245934,-9.804333686828613
1.7215730834337073e+18,-0.029635682702064514,-0.03382845222949982,-9.824681282043457
1.7215730834367073e+18,-0.020640810951590538,0.012821884825825691,-9.79354190826416
1.7215730834457075e+18,0.005879572592675686,-0.0727374479174614,-9.840890884399414
1.7215730834517076e+18,-0.056109294295310974,0.012606967240571976,-9.753426551818848
1.7215730834547077e+18,0.08445868641138077,-0.005634122062474489,-9.829392433166504
1.7215730834607078e+18,0.05953419581055641,-0.014942062087357044,-9.770072937011719
1.721573083466708e+18,0.00802520103752613,-0.009248417802155018,-9.811813354492188
1.7215730834757082e+18,0.018561244010925293,-0.05340683087706566,-9.75795841217041
1.7215730834817083e+18,-0.00417946744710207,-0.02101564221084118,-9.875887870788574
1.7215730834877084e+18,-0.03619904816150665,0.01716185361146927,-9.759610176086426
1.7215730834937085e+18,0.003529130946844816,0.03889650106430054,-9.837532043457031
1.7215730834997087e+18,-0.01863906718790531,0.005762026645243168,-9.82084846496582
1.7215730835057088e+18,-0.04095319285988808,-0.020883740857243538,-9.770934104919434
1.7215730835087089e+18,-0.015412656590342522,0.002563269343227148,-9.777976036071777
1.721573083517709e+18,0.0019040086772292852,0.11785771697759628,-9.873144149780273
1.7215730835237092e+18,-0.04411640018224716,-0.027931978926062584,-9.822088241577148
1.7215730835297093e+18,0.02744261920452118,0.030143754556775093,-9.852596282958984
1.7215730835327094e+18,0.0018015747191384435,0.020689157769083977,-9.869355201721191
1.7215730835387095e+18,-0.03970145806670189,-0.014318597503006458,-9.866110801696777
1.7215730835447096e+18,-0.033838167786598206,0.026703760027885437,-9.775335311889648
1.7215730835507098e+18,-0.023891037330031395,-0.031152714043855667,-9.80189323425293
1.72157308355671e+18,0.005694881081581116,-0.08104587346315384,-9.744894027709961
1.72157308356271e+18,0.010994046926498413,0.020185524597764015,-9.828216552734375
1.7215730835687101e+18,0.03910769894719124,-0.07193874567747116,-9.831130027770996
1.7215730835747103e+18,-0.0586782768368721,-0.039271797984838486,-9.786686897277832
1.7215730835807104e+18,0.03466391935944557,-0.0362611748278141,-9.741238594055176
1.7215730835867105e+18,-0.0273000355809927,0.00606201309710741,-9.87623119354248
1.7215730835927107e+18,0.015302255749702454,0.010961601510643959,-9.754334449768066
1.7215730835987108e+18,0.01137714646756649,-0.05498751252889633,-9.704825401306152
1.721573083604711e+18,-0.04978698119521141,0.05450964346528053,-9.879478454589844
1.721573083610711e+18,0.017694242298603058,-0.044599104672670364,-9.814762115478516
1.7215730836167112e+18,0.010693480260670185,-0.01218964159488678,-9.82695484161377
1.7215730836227113e+18,0.026960814371705055,0.020529022440314293,-9.766535758972168
1.7215730836287114e+18,0.06220650300383568,0.04828536882996559,-9.823339462280273
1.7215730836347116e+18,-0.019712980836629868,0.019513625651597977,-9.763046264648438
1.7215730836407117e+18,0.00950752291828394,0.011734884232282639,-9.804317474365234
1.7215730836467118e+18,-0.06775786727666855,-0.043049026280641556,-9.840818405151367
1.721573083652712e+18,-0.06265012919902802,0.019733058288693428,-9.775333404541016
1.721573083655712e+18,0.01535740401595831,-0.03654523566365242,-9.734890937805176
1.7215730836617121e+18,0.040552787482738495,-0.02256156876683235,-9.870594024658203
1.7215730836677123e+18,-0.0694614052772522,-0.03302670642733574,-9.77325439453125
1.7215730836737124e+18,-0.016349444165825844,-0.03158659115433693,-9.849438667297363
1.7215730836797125e+18,0.005654118489474058,0.013065521605312824,-9.757184028625488
1.7215730836857126e+18,0.012330714613199234,0.029893195256590843,-9.835023880004883
1.7215730836917128e+18,0.026745183393359184,0.037638116627931595,-9.852063179016113
1.721573083697713e+18,0.023930994793772697,0.0805835947394371,-9.74014949798584
1.721573083703713e+18,-0.0035441338550299406,0.053124357014894485,-9.786685943603516
1.7215730837097132e+18,-0.005020547192543745,0.045134592801332474,-9.862497329711914
1.7215730837157133e+18,0.04077574238181114,0.014800457283854485,-9.800589561462402
1.7215730837217134e+18,-0.062412384897470474,-0.05680191144347191,-9.772786140441895
1.7215730837277135e+18,-0.01674533262848854,-0.07112030684947968,-9.803339958190918
1.7215730837307136e+18,0.005471138283610344,-0.02489425428211689,-9.860894203186035
1.7215730837367137e+18,0.003771742107346654,0.01218771655112505,-9.848875999450684
1.7215730837427139e+18,0.01228716317564249,-0.05545836687088013,-9.760855674743652
1.721573083748714e+18,0.048337966203689575,-0.05859473720192909,-9.813074111938477
1.721573083754714e+18,-0.04888860136270523,0.0411776565015316,-9.770796775817871
1.7215730837607142e+18,0.015226591378450394,-0.04909072071313858,-9.793591499328613
1.7215730837667144e+18,-0.01537843607366085,0.03587851673364639,-9.841941833496094
1.7215730837727145e+18,0.009383922442793846,0.033512651920318604,-9.8701171875
1.7215730837787146e+18,-0.029759708791971207,-0.05761367455124855,-9.943296432495117
1.7215730837847148e+18,0.025163890793919563,-0.051991891115903854,-9.867724418640137
1.721573083790715e+18,-0.023226603865623474,-0.01102486439049244,-9.769712448120117
1.721573083796715e+18,-0.009766582399606705,0.07968086749315262,-9.831731796264648
1.7215730838027151e+18,-0.014956338331103325,0.04277338832616806,-9.793412208557129
1.7215730838087153e+18,0.073210209608078,-0.019329549744725227,-9.819488525390625
1.7215730838147154e+18,0.08143740147352219,-0.04752707853913307,-9.749114036560059
1.7215730838207155e+18,0.0479080006480217,-0.019567206501960754,-9.799989700317383
1.7215730838267156e+18,-0.02446078322827816,0.07360707223415375,-9.802641868591309
1.7215730838327158e+18,0.02004675567150116,0.018541710451245308,-9.810235023498535
1.721573083838716e+18,0.031271740794181824,-0.006245735567063093,-9.80654525756836
1.721573083841716e+18,-0.10869310051202774,-0.012212669476866722,-9.767986297607422
1.721573083847716e+18,0.03785434737801552,0.046864163130521774,-9.821686744689941
1.7215730838537162e+18,0.01012677326798439,0.04804639890789986,-9.79719352722168
1.7215730838597164e+18,0.01655689999461174,0.02186156064271927,-9.81568431854248
1.7215730838657165e+18,0.020963620394468307,0.019587598741054535,-9.828875541687012
1.7215730838717166e+18,0.02674146182835102,0.06377599388360977,-9.824658393859863
1.7215730838777167e+18,-0.029324859380722046,-0.10000955313444138,-9.817750930786133
1.7215730838837169e+18,-0.014605442062020302,-0.007967270910739899,-9.751758575439453
1.721573083889717e+18,-0.0021461492870002985,0.04102778062224388,-9.877796173095703
1.721573083895717e+18,0.028586192056536674,0.018525758758187294,-9.773604393005371
1.7215730839017172e+18,-0.09602320194244385,-0.08866246044635773,-9.77053165435791
1.7215730839077174e+18,-0.01139266137033701,0.0012073483085259795,-9.856017112731934
1.7215730839137175e+18,0.0005745607777498662,-0.04171792417764664,-9.77206802368164
1.7215730839197176e+18,0.00711859529837966,0.04388302192091942,-9.84770679473877
1.7215730839227177e+18,-0.1027527004480362,-0.008837101981043816,-9.821052551269531
1.7215730839287178e+18,-0.026819219812750816,0.08370552957057953,-9.743805885314941
1.721573083934718e+18,-0.01264800876379013,-0.03404983878135681,-9.830138206481934
1.721573083940718e+18,0.03661017864942551,-0.0572078637778759,-9.83870792388916
1.7215730839467182e+18,0.022786885499954224,-0.012519055977463722,-9.816319465637207
1.7215730839497183e+18,0.017947321757674217,0.022607512772083282,-9.854552268981934
1.7215730839557184e+18,-0.03432125970721245,-0.008002453483641148,-9.754229545593262
1.7215730839617185e+18,-0.042496684938669205,-0.002204653574153781,-9.875931739807129
1.7215730839677187e+18,-0.013271243311464787,-0.0004991068271920085,-9.821650505065918
1.7215730839737188e+18,0.01162443682551384,-0.031188135966658592,-9.78166675567627
1.721573083979719e+18,-0.008095802739262581,0.06084955856204033,-9.885453224182129
1.721573083985719e+18,-0.05907968059182167,0.02663070149719715,-9.835987091064453
1.7215730839947192e+18,-0.057955436408519745,-0.01214394997805357,-9.786720275878906
1.7215730840007194e+18,-0.021572431549429893,0.02664027363061905,-9.819567680358887
1.7215730840067195e+18,0.014377393759787083,-0.004839237313717604,-9.808487892150879
1.7215730840127196e+18,-0.027709320187568665,0.06597384810447693,-9.793813705444336
1.7215730840187197e+18,-0.044899918138980865,0.0012125211069360375,-9.779873847961426
1.72157308402472e+18,-0.02927364967763424,0.02961314283311367,-9.812191009521484
1.72157308403072e+18,0.0656462237238884,-0.03267666697502136,-9.783622741699219
1.72157308403672e+18,0.02986823208630085,0.008104604668915272,-9.882573127746582
1.7215730840397202e+18,0.0760396271944046,0.06603249162435532,-9.740978240966797
1.7215730840457203e+18,-0.040184348821640015,0.09187201410531998,-9.841460227966309
1.7215730840517204e+18,0.03589428588747978,0.0011637675343081355,-9.78969955444336
1.7215730840577206e+18,-0.07178891450166702,-0.04767943173646927,-9.833303451538086
1.7215730840637207e+18,0.032445210963487625,-0.0546661913394928,-9.797860145568848
1.7215730840667208e+18,-0.03119662031531334,0.05704024061560631,-9.834615707397461
1.721573084072721e+18,-0.03520342707633972,-0.011224742978811264,-9.794756889343262
1.721573084078721e+18,-0.0013680137926712632,-0.026762671768665314,-9.831539154052734
1.7215730840847212e+18,0.02048363722860813,0.03592829406261444,-9.858221054077148
1.7215730840907213e+18,-0.02007000334560871,-0.030011260882019997,-9.832845687866211
1.7215730840967214e+18,-0.017816321924328804,0.009427273645997047,-9.762760162353516
1.7215730841027215e+18,0.014860772527754307,0.022383026778697968,-9.759689331054688
1.7215730841087217e+18,-0.007858455181121826,-0.024984069168567657,-9.843192100524902
1.7215730841147218e+18,-0.04857110232114792,0.008765569888055325,-9.76745319366455
1.721573084120722e+18,-0.08868833631277084,-0.007556363940238953,-9.817280769348145
1.721573084126722e+18,-0.008791174739599228,-0.012026638723909855,-9.824331283569336
1.7215730841327222e+18,-0.04632937163114548,-0.0032422428485006094,-9.837570190429688
1.7215730841387223e+18,-0.009970222599804401,0.047843191772699356,-9.834303855895996
1.7215730841447224e+18,-0.04139475151896477,-0.025908173993229866,-9.721912384033203
1.7215730841507226e+18,-0.052680693566799164,-0.027867192402482033,-9.764670372009277
1.7215730841567227e+18,0.07868131250143051,-0.003811897709965706,-9.77330493927002
1.7215730841627228e+18,0.0879349336028099,-0.023986613377928734,-9.822914123535156
1.721573084168723e+18,0.0482620932161808,-0.03433841094374657,-9.759186744689941
1.721573084174723e+18,-0.00879765022546053,-0.044795647263526917,-9.731803894042969
1.7215730841807232e+18,-0.010439635254442692,-0.06530218571424484,-9.837736129760742
1.7215730841867233e+18,0.0109100341796875,-0.037822138518095016,-9.845626831054688
1.7215730841927235e+18,-0.03523833677172661,0.0033169384114444256,-9.838549613952637
1.7215730841987236e+18,-0.0051161544397473335,-0.09946300834417343,-9.76378345489502
1.7215730842047237e+18,-0.03859342634677887,-0.03486930578947067,-9.7304105758667
1.7215730842107238e+18,0.036565929651260376,-0.051704373210668564,-9.779293060302734
1.721573084216724e+18,0.010061275213956833,-0.0807788297533989,-9.78333854675293
1.721573084222724e+18,-0.012914517894387245,0.025625057518482208,-9.7139253616333
1.7215730842287242e+18,0.054764408618211746,-0.03212086483836174,-9.776415824890137
1.7215730842317243e+18,0.04688740521669388,-0.05778168886899948,-9.841670989990234
1.7215730842377244e+18,0.075340136885643,-0.08058105409145355,-9.80587100982666
1.7215730842437245e+18,-0.020540587604045868,0.013573288917541504,-9.771919250488281
1.7215730842497247e+18,-0.13357000052928925,-0.018797477707266808,-9.764483451843262
1.7215730842557248e+18,0.06084318831562996,0.0267706960439682,-9.864694595336914
1.721573084261725e+18,-0.061037249863147736,0.007275139447301626,-9.888567924499512
1.721573084264725e+18,-0.015974421054124832,-0.09416352212429047,-9.851495742797852
1.721573084270725e+18,-0.025629211217164993,0.022627172991633415,-9.799521446228027
1.7215730842767252e+18,-0.01102313119918108,0.02344205230474472,-9.777695655822754
1.7215730842857254e+18,-0.010070535354316235,-0.006624516099691391,-9.804081916809082
1.7215730842917256e+18,0.0012805277947336435,0.012513840571045876,-9.802501678466797
1.7215730842947256e+18,-0.019630150869488716,0.027105629444122314,-9.791260719299316
1.7215730843037258e+18,0.001887163962237537,-0.03046068362891674,-9.765413284301758
1.721573084309726e+18,-0.026822291314601898,-0.012466863729059696,-9.902443885803223
1.721573084315726e+18,0.002179396338760853,0.023770134896039963,-9.721877098083496
1.7215730843187261e+18,-0.05521305650472641,-0.06157399341464043,-9.802605628967285
1.7215730843247263e+18,-0.04930131882429123,0.02370874583721161,-9.812088012695312
1.7215730843337265e+18,-0.005691654048860073,0.038089435547590256,-9.796027183532715
1.7215730843367265e+18,0.04749668389558792,-0.03716259449720383,-9.882667541503906
1.7215730843457267e+18,-0.024512361735105515,0.010170250199735165,-9.861820220947266
1.7215730843517268e+18,-0.0396195724606514,0.03540588915348053,-9.797971725463867
1.721573084357727e+18,0.03770479932427406,0.07115260511636734,-9.90836238861084
1.721573084360727e+18,0.04338180273771286,0.01559973880648613,-9.844722747802734
1.7215730843667272e+18,-0.004693685099482536,0.0639066994190216,-9.818598747253418
1.7215730843727273e+18,0.08028960227966309,0.0657266303896904,-9.768064498901367
1.7215730843787274e+18,0.08061989396810532,-0.06853130459785461,-9.822920799255371
1.7215730843847276e+18,0.03787391260266304,0.04713744670152664,-9.795103073120117
1.7215730843907277e+18,-0.00467555969953537,0.06968177855014801,-9.895590782165527
1.7215730843967278e+18,-0.03885669261217117,-0.011545456945896149,-9.838147163391113
1.721573084402728e+18,-0.03220995515584946,-0.00577279319986701,-9.86086654663086
1.721573084408728e+18,0.019897330552339554,-0.020159805193543434,-9.855257987976074
1.7215730844147282e+18,-0.05124424770474434,0.0461987629532814,-9.83906078338623
1.7215730844207283e+18,-0.06317894905805588,-0.05809055268764496,-9.875865936279297
1.7215730844267284e+18,-0.007072953507304192,0.05121690407395363,-9.800015449523926
1.7215730844327286e+18,-0.08073752373456955,0.0330548994243145,-9.775472640991211
1.7215730844387287e+18,0.036153171211481094,0.01706455834209919,-9.87413501739502
1.7215730844447288e+18,-0.00036309799179434776,0.04414009302854538,-9.791221618652344
1.721573084447729e+18,-0.001210648100823164,-0.05974498763680458,-9.813531875610352
1.721573084453729e+18,0.023265991359949112,-0.06379611045122147,-9.779868125915527
1.7215730844597292e+18,0.06486694514751434,0.022657182067632675,-9.786210060119629
1.7215730844657293e+18,-0.0077967047691345215,-0.025123078376054764,-9.737211227416992
1.7215730844717294e+18,0.007207765709608793,-0.007752610370516777,-9.805166244506836
1.7215730844777295e+18,0.01734313741326332,0.008990639820694923,-9.87270450592041
1.7215730844837297e+18,0.048982493579387665,0.06318064033985138,-9.775951385498047
1.7215730844897298e+18,0.03871418535709381,-0.03180601820349693,-9.819999694824219
1.7215730844927299e+18,0.019620444625616074,0.0760413333773613,-9.826571464538574
1.72157308450173e+18,0.03566449135541916,0.022212736308574677,-9.797045707702637
1.7215730845077302e+18,-0.038496263325214386,-0.008188270963728428,-9.79052734375
1.7215730845137303e+18,0.027639981359243393,0.004432715475559235,-9.877157211303711
1.7215730845197304e+18,0.02007589116692543,-0.039572738111019135,-9.763076782226562
1.7215730845227305e+18,-0.04888683557510376,-0.018911495804786682,-9.862869262695312
1.7215730845287306e+18,-0.017359469085931778,-0.03951529413461685,-9.827814102172852
1.7215730845347308e+18,-0.04499809443950653,0.04091814532876015,-9.755019187927246
1.721573084540731e+18,0.011500254273414612,0.052112944424152374,-9.730334281921387
1.721573084546731e+18,0.05764470621943474,-0.015104745514690876,-9.786982536315918
1.721573084549731e+18,-0.009526827372610569,0.0160311721265316,-9.820247650146484
1.7215730845557312e+18,-0.011296279728412628,0.007083471864461899,-9.760452270507812
1.7215730845617313e+18,0.050762027502059937,0.09598671644926071,-9.793998718261719
1.7215730845677315e+18,0.007327811326831579,0.009901351295411587,-9.73223876953125
1.7215730845737316e+18,0.05159233510494232,-0.047061286866664886,-9.861645698547363
1.7215730845797317e+18,0.00017985349404625595,0.018161019310355186,-9.828804016113281
1.721573084588732e+18,0.06793787330389023,-0.004106755834072828,-9.837472915649414
1.721573084594732e+18,0.029649823904037476,-0.005025073885917664,-9.828071594238281
1.7215730846007322e+18,0.0023536530788987875,0.003898192662745714,-9.809947967529297
1.7215730846067323e+18,0.006621674168854952,0.09120442718267441,-9.837574005126953
1.7215730846127324e+18,-0.02328410930931568,-0.03724159300327301,-9.82559871673584
1.7215730846187325e+18,-0.0248040072619915,0.0056114187464118,-9.728978157043457
1.7215730846247327e+18,-0.0031491960398852825,-0.05775495246052742,-9.741232872009277
1.7215730846307328e+18,-0.013181209564208984,-0.060020770877599716,-9.877350807189941
1.721573084636733e+18,-0.013518971391022205,-0.018836872652173042,-9.88680648803711
1.721573084642733e+18,-0.018475767225027084,-0.09398763626813889,-9.751152992248535
1.7215730846487332e+18,-0.00015590962721034884,-0.07107026875019073,-9.727765083312988
1.7215730846547333e+18,-0.0018620615592226386,0.037469618022441864,-9.724456787109375
1.7215730846607334e+18,0.02772325836122036,-0.04292063042521477,-9.756900787353516
1.7215730846637335e+18,-0.022618789225816727,0.0023229820653796196,-9.765499114990234
1.7215730846697336e+18,-0.03035091608762741,-0.043338194489479065,-9.859366416931152
1.7215730846757338e+18,0.04740609601140022,-0.04355522617697716,-9.815508842468262
1.7215730846787338e+18,-0.08591794222593307,-0.05028145760297775,-9.7549467086792
1.721573084684734e+18,0.025095324963331223,0.02512265369296074,-9.782988548278809
1.721573084690734e+18,-0.03618958219885826,0.04597443714737892,-9.74032974243164
1.7215730846967342e+18,0.004154994152486324,0.00017980538541451097,-9.849949836730957
1.7215730847027343e+18,-0.10827204585075378,0.006075083743780851,-9.774333000183105
1.7215730847087345e+18,-0.015311813913285732,0.02026345208287239,-9.826436042785645
1.7215730847147346e+18,-0.005139010492712259,0.053375110030174255,-9.829119682312012
1.7215730847207347e+18,0.004262228962033987,0.04800790548324585,-9.885568618774414
1.721573084729735e+18,0.020695902407169342,0.03936716541647911,-9.736594200134277
1.721573084735735e+18,0.009666615165770054,-0.09978549182415009,-9.807348251342773
1.721573084738735e+18,-0.06665968894958496,0.05144196376204491,-9.797598838806152
1.7215730847447352e+18,0.018869582563638687,0.0707402229309082,-9.827975273132324
1.7215730847507354e+18,0.02137591876089573,-0.04848071187734604,-9.854482650756836
1.7215730847567355e+18,-0.02203265018761158,-0.04539423808455467,-9.7733793258667
1.7215730847627356e+18,-0.05754809454083443,0.058977220207452774,-9.798025131225586
1.7215730847687357e+18,0.0780378133058548,-0.04102861136198044,-9.799283027648926
1.721573084774736e+18,0.03133422136306763,-0.04873063042759895,-9.749868392944336
1.721573084780736e+18,-0.035041917115449905,-0.03413550928235054,-9.773761749267578
1.721573084786736e+18,-0.03776860237121582,0.003260912373661995,-9.782102584838867
1.7215730847957363e+18,0.0542740598320961,0.033136799931526184,-9.886164665222168
1.7215730848017364e+18,0.0517592579126358,0.03387007862329483,-9.706125259399414
1.7215730848077366e+18,0.07988864928483963,-0.023294314742088318,-9.834144592285156
1.7215730848137367e+18,0.029778797179460526,-0.010175601579248905,-9.862895965576172
1.7215730848167368e+18,-0.022272417321801186,0.03041381761431694,-9.832448959350586
1.721573084822737e+18,-0.06856963038444519,0.006817713379859924,-9.809183120727539
1.721573084828737e+18,-0.05746040493249893,-0.09035690128803253,-9.748127937316895
1.7215730848347372e+18,0.07565074414014816,-0.042162902653217316,-9.772293090820312
1.7215730848407373e+18,0.042111534625291824,-0.041418418288230896,-9.792996406555176
1.7215730848467374e+18,0.05047030374407768,0.00013952529116068035,-9.748979568481445
1.7215730848497375e+18,-0.0016276914393529296,0.014969492331147194,-9.841136932373047
1.7215730848557376e+18,-0.005989891942590475,0.04995119199156761,-9.784465789794922
1.7215730848617377e+18,0.0066206990741193295,0.01377721969038248,-9.838347434997559
1.7215730848677379e+18,-0.006363939493894577,0.0022881689947098494,-9.821430206298828
1.721573084870738e+18,-0.017350345849990845,0.020648658275604248,-9.77927303314209
1.721573084879738e+18,0.08964326232671738,0.06804907321929932,-9.790523529052734
1.7215730848857382e+18,0.06093180552124977,0.03758881613612175,-9.81400203704834
1.7215730848917384e+18,-0.05449662730097771,0.0011585904285311699,-9.791873931884766
1.7215730848977385e+18,-0.036082442849874496,-0.020932817831635475,-9.880226135253906
1.7215730849037386e+18,0.019432704895734787,0.022697405889630318,-9.776473045349121
1.7215730849097388e+18,-0.07339918613433838,0.012307078577578068,-9.807877540588379
1.721573084915739e+18,0.016929015517234802,-0.05659724026918411,-9.831399917602539
1.721573084921739e+18,0.04691488668322563,-0.009630508720874786,-9.795623779296875
1.7215730849277391e+18,0.013517962768673897,-0.03516031429171562,-9.801870346069336
1.7215730849337393e+18,-0.04713299497961998,-0.011316445656120777,-9.829634666442871
1.7215730849397394e+18,0.054569061845541,-0.07598873972892761,-9.822244644165039
1.7215730849457395e+18,-0.04837759956717491,0.0008520474657416344,-9.776278495788574
1.7215730849517396e+18,0.02077263407409191,0.02142893150448799,-9.770008087158203
1.7215730849577398e+18,0.029905227944254875,0.03688184544444084,-9.740352630615234
1.7215730849607398e+18,0.01065414771437645,-0.0660938248038292,-9.810946464538574
1.72157308496674e+18,0.02080012857913971,-0.03075985424220562,-9.812464714050293
1.72157308497274e+18,-0.1065698117017746,-0.011996348388493061,-9.830416679382324
1.7215730849787402e+18,-0.03979593515396118,0.024604519829154015,-9.781468391418457
1.7215730849817403e+18,0.10151149332523346,0.07398670166730881,-9.822868347167969
1.7215730849877404e+18,0.04246661812067032,0.03781595826148987,-9.874208450317383
1.7215730849937405e+18,0.00731793325394392,0.015563679859042168,-9.817001342773438
1.7215730849967406e+18,0.013983536511659622,0.06307855993509293,-9.75158977508545
1.7215730850027407e+18,-0.014572441577911377,-0.048700980842113495,-9.863946914672852
1.7215730850087409e+18,0.03462502360343933,0.006671672686934471,-9.803583145141602
1.721573085011741e+18,0.004604753106832504,0.02633802220225334,-9.849409103393555
1.721573085017741e+18,0.011250609531998634,0.046487897634506226,-9.811294555664062
1.7215730850267412e+18,-0.04750896990299225,-0.04315536841750145,-9.868444442749023
1.7215730850327414e+18,0.05975489690899849,-0.003916304558515549,-9.877786636352539
1.7215730850387415e+18,-0.04004755988717079,0.010316302068531513,-9.832595825195312
1.7215730850447416e+18,0.03405404090881348,0.056364674121141434,-9.838288307189941
1.7215730850507418e+18,-0.016616852954030037,0.032733120024204254,-9.898110389709473
1.721573085056742e+18,-0.023660775274038315,0.020187782123684883,-9.812141418457031
1.721573085065742e+18,0.0405338853597641,-0.012004546821117401,-9.899445533752441
1.7215730850687421e+18,-0.0015070587396621704,-0.041925616562366486,-9.796575546264648
1.7215730850777423e+18,-0.03080502152442932,0.08138468861579895,-9.811701774597168
1.7215730850837425e+18,0.03001025691628456,0.04128728061914444,-9.899833679199219
1.7215730850897426e+18,0.05611226335167885,0.018241649493575096,-9.820765495300293
1.7215730850927427e+18,0.0016842857003211975,-0.032245077192783356,-9.906773567199707
1.7215730850987428e+18,0.08113489300012589,0.0010946281254291534,-9.876058578491211
1.721573085104743e+18,-0.02205859124660492,-0.046885158866643906,-9.885026931762695
1.721573085110743e+18,0.02890337072312832,0.07203957438468933,-9.93709945678711
1.7215730851167432e+18,-0.0027207471430301666,0.04065275192260742,-9.90307331085205
1.7215730851197432e+18,-0.0379401296377182,-0.018608562648296356,-10.001288414001465
1.7215730851257434e+18,0.022884944453835487,0.03692242503166199,-9.950799942016602
1.7215730851317435e+18,0.057991091161966324,0.011656563729047775,-10.074699401855469
1.7215730851347436e+18,0.019500507041811943,-0.02624817006289959,-10.007184028625488
1.7215730851407437e+18,-0.0025662556290626526,0.041527777910232544,-9.941189765930176
1.7215730851467438e+18,0.10963868349790573,0.02925175428390503,-9.950172424316406
1.721573085152744e+18,0.00843815691769123,-0.01596774533390999,-9.998014450073242
1.721573085158744e+18,0.007600005716085434,-0.07629359513521194,-9.956504821777344
1.7215730851647442e+18,-0.014213514514267445,0.013969449326395988,-9.990708351135254
1.7215730851707443e+18,-0.03605174645781517,0.010203247889876366,-9.89956283569336
1.7215730851767444e+18,-0.019230781123042107,0.0035225949250161648,-9.951359748840332
1.7215730851827446e+18,-0.08398042619228363,0.013295571319758892,-10.034843444824219
1.7215730851887447e+18,0.01960866153240204,0.038272347301244736,-10.001903533935547
1.7215730851947448e+18,-0.06228329986333847,0.01838327944278717,-10.007425308227539
1.721573085200745e+18,0.029754139482975006,-0.011109274812042713,-10.056571006774902
1.721573085206745e+18,-0.003616870380938053,-0.07494212687015533,-10.088979721069336
1.7215730852127452e+18,0.0019395037088543177,0.036082517355680466,-10.061500549316406
1.7215730852187453e+18,0.015662221238017082,0.051252156496047974,-10.118241310119629
1.7215730852217454e+18,0.08066805452108383,-0.03461100161075592,-10.135441780090332
1.7215730852277455e+18,0.0729486346244812,0.02630867250263691,-10.150036811828613
1.7215730852337457e+18,-0.009946477599442005,-0.0014879703521728516,-10.137494087219238
1.7215730852397458e+18,0.013340380974113941,-0.03120848722755909,-10.194496154785156
1.721573085245746e+18,0.036397725343704224,0.07099591195583344,-10.155856132507324
1.721573085251746e+18,0.02233724482357502,0.0682249441742897,-10.181312561035156
1.7215730852577462e+18,-0.03450920432806015,-0.00835186243057251,-10.251954078674316
1.7215730852637463e+18,0.07849231362342834,-0.014778380282223225,-10.303731918334961
1.7215730852727465e+18,0.11385678499937057,-0.031298547983169556,-10.336003303527832
1.7215730852817467e+18,-0.045172810554504395,0.02524794451892376,-10.315841674804688
1.721573085290747e+18,-0.008119845762848854,-0.03693034499883652,-10.251358985900879
1.721573085296747e+18,-0.05253732204437256,-0.05966711789369583,-10.343893051147461
1.7215730853057472e+18,0.027562949806451797,0.014942340552806854,-10.338626861572266
1.7215730853117473e+18,0.004568834323436022,0.008540645241737366,-10.32117748260498
1.7215730853207475e+18,-0.017662839964032173,0.02421354502439499,-10.322514533996582
1.7215730853267476e+18,0.04519076272845268,0.040238283574581146,-10.267064094543457
1.7215730853327478e+18,0.021547291427850723,0.025865208357572556,-10.305373191833496
1.721573085341748e+18,-0.06557130813598633,-0.03053823485970497,-10.330171585083008
1.721573085347748e+18,-0.0031357924453914165,0.008897276595234871,-10.262608528137207
1.7215730853537482e+18,0.020084429532289505,-0.0321599543094635,-10.289728164672852
1.7215730853597484e+18,-0.0018483804306015372,0.02941824495792389,-10.247639656066895
1.7215730853657485e+18,0.009705137461423874,-0.030276499688625336,-10.263166427612305
1.7215730853717486e+18,-0.00874226912856102,-0.03757988288998604,-10.403684616088867
1.7215730853777487e+18,-0.005476065911352634,-0.026911504566669464,-10.32679271697998
1.7215730853837489e+18,-0.05974193662405014,-0.026613181456923485,-10.242177963256836
1.721573085389749e+18,-0.0022431479301303625,-0.030520616099238396,-10.3856201171875
1.721573085395749e+18,0.034042343497276306,-0.06712523102760315,-10.29640007019043
1.7215730854047493e+18,-0.032584864646196365,-0.01286789495497942,-10.308093070983887
1.7215730854107494e+18,-0.0026936389040201902,0.03664996474981308,-10.295231819152832
1.7215730854167496e+18,0.002930914983153343,-0.08125031739473343,-10.310647010803223
1.7215730854227497e+18,-0.013780340552330017,0.032676246017217636,-10.266237258911133
1.7215730854287498e+18,0.05907093361020088,-0.0021624125074595213,-10.346611022949219
1.72157308543475e+18,0.0873703733086586,0.03863920643925667,-10.22607421875
1.72157308544075e+18,-0.029095113277435303,-0.015314042568206787,-10.293082237243652
1.7215730854467502e+18,-0.015441322699189186,-0.07363739609718323,-10.292728424072266
1.7215730854527503e+18,-0.012872717343270779,-0.00894668698310852,-10.315167427062988
1.7215730854617505e+18,-0.08441027253866196,-0.031344376504421234,-10.212202072143555
1.7215730854647506e+18,0.058777883648872375,0.08019860088825226,-10.28442668914795
1.7215730854707507e+18,-0.0010445771040394902,-0.009782041423022747,-10.326873779296875
1.721573085479751e+18,-0.014108136296272278,0.00546514755114913,-10.28264331817627
1.721573085485751e+18,-0.017024030908942223,-0.0002994752721861005,-10.308021545410156
1.7215730854917512e+18,-0.04764897748827934,-0.028751332312822342,-10.285350799560547
1.7215730854977513e+18,-0.00870598666369915,-0.05722503736615181,-10.284775733947754
1.7215730855037514e+18,0.018337490037083626,0.09072107821702957,-10.276043891906738
1.7215730855097516e+18,0.019471339881420135,0.0351797379553318,-10.269484519958496
1.7215730855157517e+18,-0.03233511000871658,-0.09821562469005585,-10.370328903198242
1.7215730855217518e+18,0.014343530870974064,0.002682691439986229,-10.351924896240234
1.721573085527752e+18,0.022114988416433334,0.019293956458568573,-10.38803482055664
1.721573085533752e+18,0.022405583411455154,-0.006132785696536303,-10.32522201538086
1.7215730855397522e+18,-0.061000704765319824,-0.013578630983829498,-10.281014442443848
1.7215730855457523e+18,0.002960032317787409,-0.041162967681884766,-10.316488265991211
1.7215730855487524e+18,0.02133011445403099,0.025394152849912643,-10.220553398132324
1.7215730855547525e+18,-0.08366905152797699,0.019480371847748756,-10.327404975891113
1.7215730855607526e+18,-0.013200785033404827,-0.03646402806043625,-10.312719345092773
1.7215730855697528e+18,-0.016503993421792984,0.058028750121593475,-10.371537208557129
1.721573085572753e+18,-0.007871302776038647,-0.030023541301488876,-10.2604341506958
1.721573085581753e+18,-0.02951478585600853,0.03373488783836365,-10.308235168457031
1.7215730855877532e+18,-0.09976299107074738,0.06736290454864502,-10.330246925354004
1.7215730855937533e+18,0.04462936148047447,-0.08138338476419449,-10.26673412322998
1.7215730855997535e+18,-0.004617626778781414,0.044868241995573044,-10.200100898742676
1.7215730856027535e+18,0.008969372138381004,-0.03491154685616493,-10.258888244628906
1.7215730856117537e+18,-0.007718686480075121,-0.08592171221971512,-10.25162124633789
1.7215730856177539e+18,-0.04353194311261177,-0.04772833734750748,-10.275218963623047
1.721573085623754e+18,-0.028937947005033493,-0.04336073249578476,-10.284762382507324
1.721573085629754e+18,0.024965904653072357,-0.009419625625014305,-10.266326904296875
1.7215730856357542e+18,-0.04020657017827034,0.02854933775961399,-10.288762092590332
1.7215730856417544e+18,0.09301255643367767,0.03197353333234787,-10.359565734863281
1.7215730856477545e+18,0.035300109535455704,0.049811407923698425,-10.265684127807617
1.7215730856537546e+18,0.0024264873936772346,-0.040864527225494385,-10.277393341064453
1.7215730856597548e+18,-0.006110025569796562,-0.018853742629289627,-10.2964506149292
1.721573085665755e+18,-0.0014395478647202253,0.027519594877958298,-10.32702922821045
1.721573085671755e+18,0.046773917973041534,0.033437132835388184,-10.263158798217773
1.7215730856777551e+18,0.012513053603470325,0.12261661142110825,-10.314054489135742
1.7215730856867553e+18,-0.029232190921902657,-0.03428789600729942,-10.360074043273926
1.7215730856897554e+18,-0.07519728690385818,0.008692213334143162,-10.290552139282227
1.7215730856957555e+18,0.02456723526120186,-0.019682828336954117,-10.340398788452148
1.7215730857017556e+18,0.026147570461034775,-0.03451351448893547,-10.254583358764648
1.7215730857077558e+18,-0.01652619056403637,-0.04166214168071747,-10.339645385742188
1.721573085713756e+18,-0.023436233401298523,0.04846074432134628,-10.376370429992676
1.721573085716756e+18,0.012627149000763893,-0.005576868541538715,-10.253905296325684
1.721573085722756e+18,-0.00678575225174427,-0.001881126081570983,-10.284500122070312
1.7215730857287562e+18,0.00537299457937479,-0.03217704966664314,-10.331561088562012
1.7215730857347564e+18,0.013118180446326733,-0.002812716644257307,-10.251441955566406
1.7215730857407565e+18,0.05301573500037193,-0.020016076043248177,-10.252116203308105
1.7215730857467566e+18,0.009639162570238113,0.042724065482616425,-10.28292465209961
1.7215730857497567e+18,0.04677673429250717,0.02960781380534172,-10.322279930114746
1.7215730857557568e+18,-0.01651129312813282,-0.062191981822252274,-10.27612018585205
1.7215730857587569e+18,0.022352712228894234,0.009330319240689278,-10.257526397705078
1.721573085764757e+18,0.013356467708945274,-0.0617133304476738,-10.321027755737305
1.721573085770757e+18,-0.03585050255060196,0.026743337512016296,-10.308170318603516
1.7215730857767572e+18,0.03253074362874031,0.05713324621319771,-10.306282997131348
1.7215730857827574e+18,0.028992755338549614,0.016142653301358223,-10.290770530700684
1.7215730857887575e+18,0.012586141005158424,0.03989813104271889,-10.32744312286377
1.7215730857977577e+18,-0.006499940529465675,0.02665971778333187,-10.188657760620117
1.7215730858007578e+18,-0.035491328686475754,-0.009128729812800884,-10.251655578613281
1.721573085809758e+18,-0.08652055263519287,-0.10431712865829468,-10.268123626708984
1.721573085812758e+18,-0.062122892588377,-0.05462810397148132,-10.264805793762207
1.7215730858217582e+18,0.055878896266222,-0.03586077690124512,-10.353738784790039
1.7215730858277583e+18,-0.023571103811264038,-0.0908990204334259,-10.214720726013184
1.7215730858337585e+18,-0.008078048937022686,-0.016659609973430634,-10.270964622497559
1.7215730858397586e+18,-0.031973615288734436,0.020453795790672302,-10.24692440032959
1.7215730858457587e+18,0.04453472048044205,0.021276626735925674,-10.235381126403809
1.7215730858517588e+18,-0.07315469533205032,0.130438432097435,-10.29947566986084
1.721573085854759e+18,0.08045633882284164,-0.008838768117129803,-10.193840026855469
1.721573085860759e+18,0.021718420088291168,0.0416407436132431,-10.346487045288086
1.7215730858667592e+18,0.014143167063593864,-0.02892119809985161,-10.290329933166504
1.7215730858727593e+18,-0.043878305703401566,-0.009726645424962044,-10.254706382751465
1.7215730858787594e+18,-0.041192151606082916,0.047018423676490784,-10.275304794311523
1.7215730858817595e+18,-0.003277476178482175,-0.046190086752176285,-10.316747665405273
1.7215730858877596e+18,0.1038491427898407,-0.062040120363235474,-10.230997085571289
1.7215730858937597e+18,-0.04461265727877617,-0.04699191078543663,-10.317079544067383
1.7215730858997599e+18,0.02129700779914856,0.03381994739174843,-10.332194328308105
1.7215730859147602e+18,-0.007756903767585754,-0.03542998433113098,-10.2799654006958
1.7215730859177603e+18,0.06902624666690826,-0.013940592296421528,-10.306610107421875
1.7215730859237604e+18,0.023719090968370438,-0.017440933734178543,-10.291034698486328
1.7215730859297605e+18,-0.008673520758748055,0.01361101120710373,-10.25708293914795
1.7215730859357606e+18,-0.11949463188648224,-0.056799765676259995,-10.278132438659668
1.7215730859417608e+18,0.0046037714928388596,0.05980851128697395,-10.228418350219727
1.721573085953761e+18,-0.0342007540166378,-0.07726915925741196,-10.295822143554688
1.7215730859597612e+18,0.07774373888969421,0.0001945819240063429,-10.279996871948242
1.7215730859657613e+18,0.12566788494586945,-0.046516112983226776,-10.388688087463379
1.7215730859717614e+18,-0.01605093479156494,0.0017821738729253411,-10.253580093383789
1.7215730859777615e+18,0.04867512360215187,0.07520809024572372,-10.295040130615234
1.7215730859837617e+18,-0.019374975934624672,0.07410994172096252,-10.215245246887207
1.7215730859897618e+18,-0.046820055693387985,0.033491939306259155,-10.270547866821289
1.7215730859927619e+18,-0.045840151607990265,-0.013299766927957535,-10.349047660827637
1.721573085995762e+18,-0.0430656373500824,0.0594438873231411,-10.268623352050781
1.721573086001762e+18,0.028937598690390587,-0.019549895077943802,-10.31368350982666
1.7215730860077622e+18,0.05847343057394028,-0.004134275950491428,-10.267328262329102
1.7215730860137623e+18,0.04759225621819496,-0.04172151908278465,-10.248401641845703
1.7215730860197624e+18,0.028496919199824333,0.08805772662162781,-10.271612167358398
1.7215730860257626e+18,0.07960686832666397,-0.08371899276971817,-10.202947616577148
1.7215730860377628e+18,-0.058740273118019104,0.07402962446212769,-10.346076965332031
1.721573086043763e+18,-0.043769292533397675,-0.03655127435922623,-10.329178810119629
1.721573086049763e+18,-0.013128415681421757,-0.11685996502637863,-10.27212142944336
1.7215730860647634e+18,-0.09090737998485565,0.04619091749191284,-10.22926139831543
1.7215730860707635e+18,-0.04577052220702171,0.05198194086551666,-10.339190483093262
1.7215730860737636e+18,0.01067157182842493,-0.018163686618208885,-10.238722801208496
1.7215730860797637e+18,-0.009262251667678356,-0.04386419430375099,-10.337115287780762
1.7215730860857638e+18,-0.04266350716352463,-0.02182183787226677,-10.351724624633789
1.721573086091764e+18,-0.004214263521134853,0.04634382203221321,-10.225427627563477
1.721573086097764e+18,0.012328785844147205,0.03229628875851631,-10.349618911743164
1.7215730861037642e+18,-0.03112242929637432,-0.004459272138774395,-10.284614562988281
1.7215730861097644e+18,0.05208572745323181,0.07435440272092819,-10.348405838012695
1.7215730861157645e+18,0.08726569265127182,-0.09224515408277512,-10.250126838684082
1.7215730861217646e+18,0.07764848321676254,0.08652294427156448,-10.370316505432129
1.7215730861247647e+18,0.049127690494060516,-0.0015778130618855357,-10.329387664794922
1.7215730861307648e+18,0.06695341318845749,0.0041508981958031654,-10.269765853881836
1.7215730861337649e+18,-0.00016619404777884483,0.0552423931658268,-10.264904975891113
1.721573086139765e+18,-0.004732147324830294,0.03351254388689995,-10.318190574645996
1.721573086145765e+18,0.008627595379948616,-0.0034809759818017483,-10.246339797973633
1.7215730861517652e+18,0.0655728131532669,0.03410160541534424,-10.328886032104492
1.7215730861577654e+18,-0.01647763140499592,0.022460684180259705,-10.259218215942383
1.7215730861637655e+18,-0.005593844689428806,-0.10230039805173874,-10.381667137145996
1.7215730861667656e+18,-0.04024162143468857,-0.03540546074509621,-10.295183181762695
1.7215730861727657e+18,0.014667406678199768,0.06056580692529678,-10.279224395751953
1.7215730861787658e+18,0.020393148064613342,0.06256647408008575,-10.202866554260254
1.721573086184766e+18,0.009194213896989822,-0.028071429580450058,-10.2920503616333
1.721573086190766e+18,-0.08812719583511353,-0.04180154576897621,-10.304252624511719
1.7215730861967662e+18,-0.019203616306185722,0.080014169216156,-10.180828094482422
1.7215730862027663e+18,0.005314166657626629,-0.03140160068869591,-10.293058395385742
1.7215730862087665e+18,0.032210249453783035,-0.002913895295932889,-10.25715160369873
1.7215730862147666e+18,0.03266105800867081,-0.004135977476835251,-10.290566444396973
1.7215730862207667e+18,-0.025441747158765793,0.010937526822090149,-10.269217491149902
1.721573086232767e+18,0.010926897637546062,-0.060394037514925,-10.241207122802734
1.721573086238767e+18,-0.07288911938667297,-0.023403514176607132,-10.31298828125
1.7215730862447672e+18,-0.04409147799015045,0.05571812391281128,-10.280043601989746
1.7215730862507674e+18,0.019484834745526314,-0.03429601341485977,-10.278677940368652
1.7215730862567675e+18,0.020639745518565178,0.045663442462682724,-10.270479202270508
1.7215730862627676e+18,-0.01434992253780365,0.010314198210835457,-10.278340339660645
1.7215730862687677e+18,-0.03382929787039757,0.05471925809979439,-10.28958511352539
1.721573086274768e+18,0.018532047048211098,0.06929080188274384,-10.27855110168457
1.721573086280768e+18,-0.008287123404443264,-0.03905244916677475,-10.236204147338867
1.721573086286768e+18,-0.05622662603855133,0.06221246346831322,-10.20190143585205
1.7215730862927683e+18,-0.01646808534860611,-0.002632716204971075,-10.42109203338623
1.7215730862987684e+18,0.007828418165445328,-0.012362180277705193,-10.253606796264648
1.7215730863107686e+18,0.014213292859494686,0.012362268753349781,-10.310975074768066
1.7215730863167688e+18,-0.006274747662246227,-0.02418309450149536,-10.293211936950684
1.721573086322769e+18,0.007948152720928192,0.06357251852750778,-10.223165512084961
1.721573086331769e+18,0.06323873996734619,-0.011006690561771393,-10.28235149383545
1.721573086331769e+18,0.06323873996734619,-0.011006690561771393,-10.28235149383545
1.7215730863377692e+18,-0.021691665053367615,0.05106298625469208,-10.28861141204834
1.7215730863437693e+18,-0.07506261020898819,0.06189674139022827,-10.29995346069336
1.7215730863497695e+18,-0.029026363044977188,0.0057323649525642395,-10.243332862854004
1.7215730863557696e+18,-0.04211597144603729,0.049331534653902054,-10.248818397521973
1.7215730863617697e+18,0.05669020488858223,0.036236826330423355,-10.48617935180664
1.72157308637077e+18,0.03584291413426399,-0.006588047835975885,-10.487720489501953
1.72157308637377e+18,-0.027158141136169434,-0.02145482413470745,-10.319165229797363
1.7215730863827702e+18,0.013461347669363022,-0.005958460737019777,-10.34052848815918
1.7215730863857702e+18,0.05117746442556381,0.035337064415216446,-10.412636756896973
1.7215730863917704e+18,0.006763450801372528,0.07481595873832703,-10.378578186035156
1.7215730864067707e+18,-0.09008795768022537,0.046316634863615036,-10.490509033203125
1.7215730864097708e+18,0.044987596571445465,0.07977069914340973,-10.55352783203125
1.721573086418771e+18,-0.021107373759150505,0.0331745482981205,-10.47251033782959
1.721573086424771e+18,0.01679174229502678,-0.006640168838202953,-10.626786231994629
1.7215730864307712e+18,-0.05644212290644646,0.017516719177365303,-10.53019905090332
1.7215730864367713e+18,0.0532580241560936,-0.008029507473111153,-10.546401023864746
1.7215730864427715e+18,-0.02030397206544876,-0.013268762268126011,-10.49672794342041
1.7215730864487716e+18,-0.0052365586161613464,0.034442342817783356,-10.519730567932129
1.7215730864547717e+18,0.06448034942150116,-0.020913762971758842,-10.484772682189941
1.7215730864607718e+18,-0.015562989749014378,0.006302312016487122,-10.57465648651123
1.721573086466772e+18,-0.035846661776304245,0.019543800503015518,-10.534445762634277
1.721573086472772e+18,0.04702389985322952,0.011636938899755478,-10.54257869720459
1.7215730864787722e+18,-0.04748987406492233,0.006350154522806406,-10.55067253112793
1.7215730864817723e+18,-0.06550925225019455,0.033979032188653946,-10.540190696716309
1.7215730864877724e+18,0.06521353125572205,-0.07347739487886429,-10.479572296142578
1.7215730864937725e+18,-0.0038566195871680975,0.0071570840664207935,-10.502479553222656
1.7215730865027727e+18,0.01175018586218357,0.03369711712002754,-10.519892692565918
1.7215730865057728e+18,-0.03039407730102539,0.09311405569314957,-10.53214168548584
1.721573086514773e+18,-0.02303946390748024,-0.006984880659729242,-10.643458366394043
1.721573086517773e+18,-0.0018078489229083061,0.08194045722484589,-10.53376293182373
1.7215730865267732e+18,-0.011057835072278976,0.028210142627358437,-10.508600234985352
1.7215730865327734e+18,-0.06731658428907394,-0.019749639555811882,-10.516350746154785
1.7215730865387735e+18,0.040637001395225525,-0.024206509813666344,-10.659991264343262
1.7215730865447736e+18,-0.051380835473537445,0.018160074949264526,-10.573260307312012
1.7215730865507738e+18,0.0012279348447918892,-0.021401677280664444,-10.595053672790527
1.721573086556774e+18,0.0006173872388899326,0.05481894686818123,-10.576165199279785
1.721573086562774e+18,0.0492188036441803,0.004466552287340164,-10.500250816345215
1.7215730865687741e+18,-0.04497956484556198,-0.06464379280805588,-10.57938289642334
1.7215730865717742e+18,-0.013354895636439323,-0.031188499182462692,-10.50981330871582
1.7215730865777743e+18,-0.05716109648346901,0.09453277289867401,-10.488574981689453
1.7215730865837745e+18,0.05635342746973038,0.002708356361836195,-10.532151222229004
1.7215730865897746e+18,-0.05654111132025719,-0.06550201028585434,-10.499926567077637
1.7215730865957747e+18,-0.026396039873361588,-0.018811486661434174,-10.646941184997559
1.7215730866017748e+18,-0.031316645443439484,0.01059478335082531,-10.535496711730957
1.721573086610775e+18,0.01498338207602501,-0.012538328766822815,-10.516534805297852
1.7215730866167752e+18,0.043812140822410583,-0.08887065947055817,-10.520163536071777
1.7215730866227753e+18,0.0269133560359478,-0.003925674594938755,-10.492266654968262
1.7215730866287754e+18,0.03227312117815018,0.0500294528901577,-10.55661392211914
1.7215730866347756e+18,-0.043565187603235245,0.009537389501929283,-10.597687721252441
1.7215730866377756e+18,0.039639391005039215,-0.03663196414709091,-10.475324630737305
1.7215730866437757e+18,0.018016546964645386,-0.01656278967857361,-10.50529670715332
1.721573086652776e+18,0.029179856181144714,0.062051922082901,-10.553973197937012
1.721573086658776e+18,-0.06542282551527023,-0.037343066185712814,-10.585549354553223
1.7215730866647762e+18,0.0071344696916639805,-0.03792184963822365,-10.54736042022705
1.7215730866677763e+18,0.002185508143156767,-0.013799341395497322,-10.519290924072266
1.7215730866767764e+18,0.02637818083167076,-0.019345629960298538,-10.601665496826172
1.7215730866827766e+18,0.07638566941022873,0.04278083145618439,-10.574166297912598
1.7215730866887767e+18,0.019419722259044647,-0.05532541498541832,-10.512758255004883
1.7215730866947768e+18,-0.052868857979774475,-0.0549742728471756,-10.536832809448242
1.721573086700777e+18,-0.025058088824152946,0.052451156079769135,-10.534393310546875
1.721573086706777e+18,-0.04396748170256615,-0.06004978343844414,-10.517051696777344
1.7215730867127772e+18,0.04268485680222511,-0.008370023220777512,-10.476391792297363
1.7215730867187773e+18,0.06974887102842331,0.01599455252289772,-10.496682167053223
1.7215730867247775e+18,-0.05905291810631752,0.02676527015864849,-10.5048828125
1.7215730867277775e+18,-0.020299842581152916,0.06356850266456604,-10.4624605178833
1.7215730867337777e+18,0.017238933593034744,0.014826085418462753,-10.592674255371094
1.7215730867397778e+18,-0.016244471073150635,0.029786081984639168,-10.475512504577637
1.721573086745778e+18,-0.012225644662976265,0.028736069798469543,-10.485672950744629
1.721573086751778e+18,0.02157951332628727,-0.06964938342571259,-10.503555297851562
1.7215730867577782e+18,-0.08534152805805206,-0.03342917561531067,-10.5939302444458
1.7215730867637783e+18,-0.06043983995914459,0.015108511783182621,-10.474410057067871
1.7215730867697784e+18,0.027779705822467804,-0.022600382566452026,-10.572128295898438
1.7215730867757786e+18,-0.007656223606318235,-0.016996346414089203,-10.586877822875977
1.7215730867817787e+18,-0.06988389045000076,-0.01917446032166481,-10.465847969055176
1.7215730867877788e+18,-0.07585180550813675,0.004217129200696945,-10.482627868652344
1.721573086793779e+18,0.02560006082057953,-0.07845510542392731,-10.515520095825195
1.721573086799779e+18,0.02243773080408573,0.011176833882927895,-10.49307918548584
1.7215730868057792e+18,-0.025849591940641403,-0.023394983261823654,-10.519871711730957
1.7215730868117793e+18,-0.035351816564798355,0.03827713057398796,-10.540468215942383
1.7215730868177795e+18,0.01604941487312317,-0.04749036580324173,-10.525787353515625
1.7215730868237796e+18,0.008377077989280224,-0.03251023590564728,-10.52968978881836
1.7215730868297797e+18,-0.039466992020606995,-0.061169691383838654,-10.442093849182129
1.7215730868357798e+18,-0.04436352476477623,0.04268615320324898,-10.580328941345215
1.72157308684178e+18,-0.037706296890974045,0.03194775432348251,-10.5148344039917
1.72157308684478e+18,-0.004236213397234678,0.012257365509867668,-10.525331497192383
1.7215730868507802e+18,-0.03556443005800247,0.059815775603055954,-10.422077178955078
1.7215730868567803e+18,-0.038502149283885956,-0.04421406611800194,-10.545309066772461
1.7215730868627804e+18,-0.0064722467213869095,0.025440054014325142,-10.53580093383789
1.7215730868687805e+18,0.09245416522026062,-0.04937543720006943,-10.499488830566406
1.7215730868747807e+18,-0.003148635383695364,0.05275752395391464,-10.486119270324707
1.7215730868807808e+18,0.030302444472908974,-0.029140206053853035,-10.491318702697754
1.721573086886781e+18,-0.07471660524606705,-0.02122601866722107,-10.564443588256836
1.721573086889781e+18,0.03142299875617027,0.0027208165265619755,-10.535259246826172
1.721573086895781e+18,0.002785990945994854,0.04273267090320587,-10.510645866394043
1.7215730869017812e+18,0.025593316182494164,0.018637949600815773,-10.516708374023438
1.7215730869077814e+18,0.024792324751615524,0.03785165026783943,-10.493951797485352
1.7215730869137815e+18,0.04078143835067749,-0.06719158589839935,-10.512463569641113
1.7215730869197816e+18,-0.05826716125011444,-0.012253155931830406,-10.52361011505127
1.721573086934782e+18,-0.019601408392190933,-0.06969772279262543,-10.511054039001465
1.721573086940782e+18,0.08931227773427963,-0.05820823833346367,-10.506062507629395
1.7215730869467822e+18,0.036896154284477234,0.03256219998002052,-10.510331153869629
1.7215730869527823e+18,0.056916285306215286,-0.023454517126083374,-10.413308143615723
1.7215730869527823e+18,0.056916285306215286,-0.023454517126083374,-10.413308143615723
1.7215730869587825e+18,0.13226370513439178,0.04035332798957825,-10.493692398071289
1.7215730869647826e+18,0.003774221520870924,0.012899518013000488,-10.608924865722656
1.7215730869707827e+18,0.04804810509085655,-0.029879610985517502,-10.497526168823242
1.721573086979783e+18,0.0007657087408006191,0.07126972824335098,-10.46619987487793
1.721573086985783e+18,0.08371579647064209,0.02036232315003872,-10.459196090698242
1.7215730869917832e+18,-0.07893478870391846,-0.10641766339540482,-10.51888370513916
1.7215730869977833e+18,-0.008617490530014038,0.01888234354555607,-10.474059104919434
1.7215730870037834e+18,-0.010837799869477749,0.07559626549482346,-10.475374221801758
1.7215730870097836e+18,0.031568899750709534,-0.008447472006082535,-10.543149948120117
1.7215730870157837e+18,0.020738912746310234,-0.04146718606352806,-10.54516887664795
1.7215730870217838e+18,-0.002748198341578245,-0.020610816776752472,-10.439436912536621
1.721573087027784e+18,-0.033573683351278305,-0.01270105130970478,-10.461374282836914
1.721573087033784e+18,-0.006903684698045254,-0.05963706225156784,-10.523558616638184
1.7215730870397842e+18,-0.0086050471290946,-0.03748895972967148,-10.493135452270508
1.7215730870427843e+18,-0.03654087707400322,0.0671457052230835,-10.435466766357422
1.7215730870487844e+18,-0.11758073419332504,-0.008305246010422707,-10.502638816833496
1.7215730870547845e+18,0.09091388434171677,-0.018441716209053993,-10.457555770874023
1.7215730870577846e+18,-0.014621758833527565,-0.0041060177609324455,-10.412712097167969
1.7215730870637847e+18,0.0339655727148056,0.019651014357805252,-10.472826957702637
1.7215730870697848e+18,-0.013454930856823921,-0.028116004541516304,-10.420793533325195
1.721573087075785e+18,-0.0036037261597812176,-0.027363240718841553,-10.506579399108887
1.721573087081785e+18,0.00636229757219553,-0.007974810898303986,-10.410727500915527
1.7215730870877852e+18,0.03924308344721794,-0.030471233651041985,-10.46323013305664
1.7215730870967854e+18,-0.0436946339905262,-0.013090749271214008,-10.457820892333984
1.7215730871027855e+18,0.024940377101302147,0.007156454958021641,-10.552896499633789
1.7215730871087857e+18,0.003900398500263691,0.0633886307477951,-10.547891616821289
1.7215730871147858e+18,-0.02418386936187744,-0.06149124726653099,-10.521080017089844
1.721573087120786e+18,-0.011512964963912964,-0.07834887504577637,-10.470709800720215
1.721573087126786e+18,-0.004848260432481766,-0.07059678435325623,-10.369575500488281
1.7215730871327862e+18,0.04710451513528824,0.11841973662376404,-10.498749732971191
1.7215730871387863e+18,0.009641855023801327,0.01586819626390934,-10.487646102905273
1.7215730871417864e+18,0.003760766237974167,-0.03219987079501152,-10.47524642944336
1.7215730871477865e+18,0.0022374861873686314,0.013288537040352821,-10.441839218139648
1.7215730871537866e+18,0.003859949763864279,0.03633624315261841,-10.480469703674316
1.7215730871597868e+18,0.02058185450732708,-0.023015977814793587,-10.531858444213867
1.721573087165787e+18,0.04469193145632744,0.05521991103887558,-10.439075469970703
1.721573087171787e+18,0.05441134423017502,-0.0130518339574337,-10.497458457946777
1.7215730871777871e+18,-0.0353194959461689,-0.0045418450608849525,-10.469334602355957
1.7215730871867873e+18,0.04801322519779205,0.03424195945262909,-10.479034423828125
1.7215730871927875e+18,0.018622899428009987,-0.0017453460022807121,-10.448172569274902
1.7215730871987876e+18,0.001757610822096467,-0.03231862187385559,-10.464703559875488
1.7215730872047877e+18,-0.010976122692227364,0.07079185545444489,-10.428627014160156
1.7215730872107878e+18,0.029078993946313858,-0.020973913371562958,-10.478073120117188
1.721573087216788e+18,0.09761745482683182,0.028056398034095764,-10.51439094543457
1.7215730872257882e+18,0.07834574580192566,0.034453410655260086,-10.451448440551758
1.7215730872287882e+18,0.05191692337393761,0.05248747766017914,-10.41935920715332
1.7215730872377884e+18,-0.028288258239626884,-0.028049983084201813,-10.428874015808105
1.7215730872437885e+18,-0.07340508699417114,-0.015291068702936172,-10.357322692871094
1.7215730872497887e+18,-0.0006518717855215073,0.05391534045338631,-10.460636138916016
1.7215730872557888e+18,0.05110296607017517,-0.068559929728508,-10.339221954345703
1.7215730872587889e+18,-0.057163968682289124,-0.006895648315548897,-10.369813919067383
1.721573087267789e+18,-0.028346382081508636,-0.017512280493974686,-10.456612586975098
1.7215730872737892e+18,-0.04165221005678177,0.015653006732463837,-10.385982513427734
1.7215730872797893e+18,-0.03100033849477768,-0.02036939188838005,-10.395888328552246
1.7215730872857894e+18,0.08709404617547989,0.045800626277923584,-10.419769287109375
1.7215730872917896e+18,0.05051574856042862,-0.015661612153053284,-10.413738250732422
1.7215730872977897e+18,0.03550836816430092,-0.05060127377510071,-10.378697395324707
1.7215730873037898e+18,-0.041439272463321686,-0.021896835416555405,-10.425935745239258
1.72157308730979e+18,-0.050969984382390976,0.01685200445353985,-10.388861656188965
1.72157308731579e+18,-0.01837688311934471,-0.023264393210411072,-10.439674377441406
1.7215730873217902e+18,-0.01654256507754326,0.0668700635433197,-10.419450759887695
1.7215730873307904e+18,-0.014953283593058586,0.0440511591732502,-10.424224853515625
1.7215730873367905e+18,-0.010573782958090305,0.0041043576784431934,-10.404025077819824
1.7215730873427907e+18,-0.03541058674454689,0.013146563433110714,-10.395668983459473
1.7215730873487908e+18,-0.05782318860292435,0.0024815876968204975,-10.429594039916992
1.721573087354791e+18,0.05150139331817627,0.0013161636888980865,-10.448628425598145
1.721573087360791e+18,0.05505778640508652,0.07830337435007095,-10.406228065490723
1.7215730873697912e+18,-0.0027169445529580116,0.08854829519987106,-10.429797172546387
1.7215730873757914e+18,0.020323917269706726,-0.059978045523166656,-10.372770309448242
1.7215730873817915e+18,0.061937253922224045,-0.06350046396255493,-10.414383888244629
1.7215730873877916e+18,-0.05238647386431694,-0.04536387324333191,-10.496355056762695
1.7215730873937917e+18,-0.02339620143175125,-0.045571304857730865,-10.391253471374512
1.7215730873997919e+18,-0.014764731749892235,0.025783183053135872,-10.421812057495117
1.721573087405792e+18,-0.0453721322119236,0.02736339159309864,-10.335505485534668
1.7215730874147922e+18,-0.006453485693782568,-0.03848326578736305,-10.394700050354004
1.7215730874207923e+18,-0.0378236286342144,-0.00805763527750969,-10.374030113220215
1.7215730874267924e+18,0.05259023979306221,0.006337698549032211,-10.394734382629395
1.7215730874327926e+18,-0.02103867009282112,-0.01616121083498001,-10.391915321350098
1.7215730874387927e+18,0.06565550714731216,-0.01086847297847271,-10.368310928344727
1.7215730874447928e+18,0.005696481559425592,0.03272337093949318,-10.461366653442383
1.721573087453793e+18,-0.009439419023692608,0.011493146419525146,-10.38774299621582
1.7215730874597932e+18,0.04656849801540375,0.012597198598086834,-10.3693265914917
1.7215730874717934e+18,0.006983221508562565,0.005271893460303545,-10.409750938415527
1.7215730874777935e+18,-0.025233104825019836,0.0351286381483078,-10.47688102722168
1.7215730874837937e+18,0.04312407597899437,0.0692874938249588,-10.443373680114746
1.7215730874897938e+18,0.035469405353069305,0.06556570529937744,-10.398510932922363
1.721573087495794e+18,-0.011658526957035065,0.0538724847137928,-10.373409271240234
1.721573087501794e+18,-0.02911766991019249,0.0607742965221405,-10.33166790008545
1.7215730875077942e+18,0.03155331313610077,-0.01554987020790577,-10.351702690124512
1.7215730875137943e+18,0.012947803363204002,0.003874987829476595,-10.404240608215332
1.7215730875197944e+18,0.0036874781362712383,0.05320156365633011,-10.403971672058105
1.7215730875257946e+18,0.014776425436139107,0.027533914893865585,-10.337318420410156
1.7215730875377948e+18,0.07006797194480896,0.0957302376627922,-10.327558517456055
1.721573087543795e+18,-0.006659307517111301,-0.04873913154006004,-10.332389831542969
1.721573087549795e+18,-0.027898307889699936,-0.021003810688853264,-10.351935386657715
1.7215730875557952e+18,-0.008597884327173233,-0.034418150782585144,-10.376697540283203
1.7215730875617953e+18,-0.055292099714279175,0.0363430455327034,-10.305992126464844
1.7215730875677955e+18,0.04452812299132347,0.0416325181722641,-10.405470848083496
1.7215730875737956e+18,0.02868029847741127,-0.020186370238661766,-10.44719123840332
1.7215730875797957e+18,-0.025275789201259613,0.025069821625947952,-10.405860900878906
1.7215730875857958e+18,0.05397331342101097,0.006404823623597622,-10.400348663330078
1.721573087591796e+18,0.023092415183782578,0.008323363959789276,-10.40855598449707
1.721573087597796e+18,0.0005881655961275101,0.016262302175164223,-10.37852668762207
1.7215730876037962e+18,-0.03761102259159088,-0.003252294845879078,-10.359231948852539
1.7215730876097964e+18,-0.01763252355158329,0.059155769646167755,-10.410205841064453
1.7215730876157965e+18,0.046409621834754944,-0.03606653958559036,-10.371243476867676
1.7215730876217966e+18,0.067882239818573,-0.01762627251446247,-10.32746410369873
1.7215730876277967e+18,0.0205235555768013,-0.021099384874105453,-10.468563079833984
1.7215730876337969e+18,0.020358456298708916,-0.025308972224593163,-10.374741554260254
1.721573087639797e+18,-0.029700089246034622,0.019701775163412094,-10.399252891540527
1.721573087645797e+18,0.004021517001092434,-0.041968028992414474,-10.381843566894531
1.7215730876517972e+18,-0.04240703582763672,-0.005897508934140205,-10.322334289550781
1.7215730876577974e+18,0.008059193380177021,0.05482315272092819,-10.362685203552246
1.7215730876637975e+18,0.060211218893527985,-0.06194034218788147,-10.303398132324219
1.7215730876667976e+18,-0.03834279254078865,0.00696461321786046,-10.359516143798828
1.7215730876727977e+18,0.020624816417694092,0.06521977484226227,-10.276862144470215
1.7215730876787978e+18,0.01771705597639084,0.014015734195709229,-10.255363464355469
1.721573087684798e+18,0.02286362648010254,0.014299577102065086,-10.359630584716797
1.721573087690798e+18,-0.02624555677175522,-0.04892410710453987,-10.275508880615234
1.7215730876967982e+18,0.031467147171497345,-0.006869424134492874,-10.303420066833496
1.7215730877027983e+18,-0.0122756976634264,0.06852397322654724,-10.265345573425293
1.7215730877087985e+18,-0.025034476071596146,0.022701503708958626,-10.345980644226074
1.7215730877147986e+18,-0.006365509703755379,-0.046596549451351166,-10.350626945495605
1.7215730877207987e+18,-0.07428202778100967,0.021578438580036163,-10.388566017150879
1.7215730877267988e+18,-0.025460999459028244,0.06495320051908493,-10.340398788452148
1.721573087732799e+18,-0.015209022909402847,0.004268303979188204,-10.310959815979004
1.721573087738799e+18,-0.018103022128343582,0.025795385241508484,-10.257850646972656
1.7215730877447992e+18,0.029993200674653053,-0.07434049993753433,-10.308720588684082
1.7215730877507994e+18,-0.024992750957608223,-0.05089608579874039,-10.398710250854492
1.7215730877567995e+18,-0.03873204067349434,0.01745004579424858,-10.318979263305664
1.7215730877627996e+18,-0.019540181383490562,-0.033984165638685226,-10.295805931091309
1.7215730877687997e+18,0.011187332682311535,0.014516735449433327,-10.33121109008789
1.7215730877748e+18,-0.027509864419698715,0.009123757481575012,-10.148955345153809
1.7215730877778e+18,0.07197265326976776,0.019980620592832565,-10.23509693145752
1.7215730877928003e+18,0.012197041884064674,0.05178682878613472,-10.316354751586914
1.7215730877988004e+18,0.015224434435367584,0.026467101648449898,-10.183722496032715
1.7215730878048005e+18,-0.021126504987478256,-0.004044647328555584,-10.1483793258667
1.7215730878108006e+18,0.041841231286525726,0.0018745043780654669,-10.20875072479248
1.7215730878168008e+18,0.03833713009953499,-0.026621850207448006,-10.212393760681152
1.721573087822801e+18,-0.021389758214354515,-0.016916532069444656,-10.241779327392578
1.721573087828801e+18,-0.08323433250188828,0.03717551752924919,-10.237191200256348
1.7215730878348012e+18,-0.012609748169779778,-0.020202146843075752,-10.163663864135742
1.7215730878378012e+18,-0.007969370111823082,-0.03534996882081032,-10.14183235168457
1.7215730878438013e+18,0.03998028114438057,0.027799053117632866,-10.13418960571289
1.7215730878498015e+18,-0.040359802544116974,0.02062653750181198,-10.207788467407227
1.7215730878558016e+18,0.04806915298104286,0.026243584230542183,-10.16976261138916
1.7215730878618017e+18,-0.033844947814941406,-0.05945971608161926,-10.174701690673828
1.7215730878678019e+18,0.05101007968187332,0.03545107692480087,-10.165166854858398
1.721573087873802e+18,0.015723247081041336,0.025448810309171677,-10.169130325317383
1.721573087879802e+18,0.017647992819547653,-0.02135024592280388,-10.124778747558594
1.7215730878858022e+18,-0.024208366870880127,-0.02960154041647911,-10.139230728149414
1.7215730878918024e+18,0.05370956286787987,-0.01260528713464737,-10.226316452026367
1.7215730878978025e+18,-0.0006114373099990189,-0.015772119164466858,-10.169745445251465
1.7215730879038026e+18,-0.012899694964289665,0.020847022533416748,-10.175803184509277
1.7215730879098028e+18,-0.059748947620391846,0.07313378900289536,-10.152413368225098
1.721573087915803e+18,0.04288269951939583,0.0361197255551815,-10.14394760131836
1.721573087921803e+18,-0.0022075700107961893,-0.010766224935650826,-10.09200382232666
1.7215730879278031e+18,0.07382234185934067,0.005387067329138517,-10.145161628723145
1.7215730879338033e+18,-0.012310218065977097,-0.018214810639619827,-10.16961669921875
1.7215730879398034e+18,0.029276687651872635,0.05106443539261818,-10.194793701171875
1.7215730879428035e+18,0.06770814955234528,-0.014218867756426334,-10.192914009094238
1.7215730879488036e+18,-0.012627389281988144,0.026643311604857445,-10.235347747802734
1.7215730879548037e+18,0.0038018496707081795,0.0234850887209177,-10.120759963989258
1.7215730879608038e+18,-0.05359066277742386,0.032323431223630905,-10.218500137329102
1.721573087966804e+18,-0.015249371528625488,-0.04763216897845268,-10.147719383239746
1.721573087972804e+18,0.0033386540599167347,-0.0888512134552002,-10.043023109436035
1.7215730879788042e+18,-0.018536007031798363,0.030588949099183083,-10.094451904296875
1.7215730879848044e+18,0.03708910569548607,0.010713566094636917,-10.117006301879883
1.7215730879908045e+18,-0.06453193724155426,-0.00044175703078508377,-10.158989906311035
1.7215730879968046e+18,-0.03229379281401634,-0.07944321632385254,-10.16463565826416
1.7215730879998047e+18,-0.05693827569484711,-0.018881332129240036,-10.146669387817383
1.7215730880088049e+18,-0.10970126837491989,0.01489337906241417,-10.14101505279541
1.721573088014805e+18,-0.04552854225039482,0.02585749700665474,-10.04179573059082
1.721573088017805e+18,-0.021351175382733345,0.04976086691021919,-10.027048110961914
1.7215730880268052e+18,0.06330965459346771,0.01983259618282318,-10.026153564453125
1.7215730880298053e+18,-0.01402346696704626,-0.0017922150436788797,-10.00285816192627
1.7215730880358054e+18,-0.04950603470206261,-0.022790322080254555,-9.96624755859375
1.7215730880418056e+18,-0.0453728586435318,-0.0410945825278759,-10.01538372039795
1.7215730880478057e+18,0.006750402972102165,-0.12398546934127808,-10.025678634643555
1.7215730880538058e+18,-0.04071326553821564,0.0210832841694355,-10.022205352783203
1.721573088062806e+18,-0.05173974856734276,0.009720904752612114,-10.026829719543457
1.7215730880688061e+18,0.0028676874935626984,0.0034693959169089794,-10.054075241088867
1.7215730880748063e+18,-0.00580308074131608,-0.0422544926404953,-10.038103103637695
1.7215730880808064e+18,0.026817062869668007,-0.039472710341215134,-9.972513198852539
1.7215730880868065e+18,0.010068556293845177,0.017907138913869858,-10.0636625289917
1.7215730880928067e+18,-0.0026623113080859184,0.02604389190673828,-9.99938678741455
1.7215730880988068e+18,0.012600724585354328,-0.043009452521800995,-10.022429466247559
1.721573088104807e+18,0.040945082902908325,0.06735824793577194,-10.03441333770752
1.721573088110807e+18,0.02943877875804901,-0.030609730631113052,-10.127385139465332
1.7215730881168072e+18,0.06464619934558868,0.010330305434763432,-10.145938873291016
1.7215730881228073e+18,0.008373252116143703,-0.06660088151693344,-10.003209114074707
1.7215730881288074e+18,0.111692413687706,0.04784917086362839,-9.989871978759766
1.7215730881348076e+18,-0.04728325456380844,-0.016147183254361153,-9.975600242614746
1.7215730881408077e+18,-0.052358049899339676,-0.0689881220459938,-10.042295455932617
1.7215730881468078e+18,-0.05133388936519623,0.08101039379835129,-9.99217700958252
1.7215730881498079e+18,0.01006030198186636,-0.025600098073482513,-9.920122146606445
1.721573088155808e+18,-0.04928072541952133,-0.10033109784126282,-10.100071907043457
1.7215730881618081e+18,-0.011526384390890598,-0.028965838253498077,-10.020577430725098
1.7215730881678083e+18,-0.015145457349717617,0.03549373149871826,-9.895161628723145
1.7215730881708083e+18,-0.03994116559624672,0.027439245954155922,-9.960267066955566
1.7215730881768084e+18,-0.03257695958018303,-0.03487011790275574,-10.036050796508789
1.7215730881828086e+18,-0.034713320434093475,-0.040627703070640564,-10.00208568572998
1.7215730881888087e+18,-0.03504214435815811,0.023797398433089256,-10.030025482177734
1.7215730881948088e+18,0.05760098993778229,-0.0008382508531212807,-9.98302173614502
1.721573088200809e+18,0.0437127985060215,0.008068920113146305,-9.992843627929688
1.721573088206809e+18,-0.07376022636890411,0.02410111390054226,-9.980395317077637
1.7215730882128092e+18,0.04459841549396515,0.019530892372131348,-10.053996086120605
1.7215730882188093e+18,-0.028394924476742744,-0.008191670291125774,-9.979206085205078
1.7215730882248095e+18,0.03914283588528633,-0.05345992371439934,-10.030786514282227
1.7215730882308096e+18,-0.034458987414836884,0.01614256389439106,-10.004813194274902
1.7215730882368097e+18,-0.048703938722610474,-0.013232284225523472,-9.970732688903809
1.7215730882428099e+18,0.0197627954185009,-0.0049094087444245815,-9.997758865356445
1.72157308824881e+18,0.034782472997903824,0.06493513286113739,-10.04578971862793
1.7215730882638103e+18,-0.009673044085502625,0.0490824431180954,-9.981047630310059
1.7215730882698104e+18,-0.06845924258232117,0.011500458233058453,-9.979406356811523
1.7215730882758106e+18,0.02944529429078102,0.04409836232662201,-10.081872940063477
1.7215730882788106e+18,-0.013984885066747665,0.06067579239606857,-9.998617172241211
1.7215730882848108e+18,-0.018275007605552673,-0.08035730570554733,-9.948594093322754
1.721573088290811e+18,0.06652560830116272,0.023429835215210915,-9.986156463623047
1.721573088296811e+18,0.03655863553285599,-0.02428746223449707,-10.076034545898438
1.7215730883028111e+18,-0.04910428076982498,0.037782952189445496,-10.026028633117676
1.7215730883088113e+18,0.05707525834441185,0.044634249061346054,-9.993402481079102
1.7215730883148114e+18,0.04492004215717316,0.011102879419922829,-10.003652572631836
1.7215730883208115e+18,-0.01394666824489832,0.04533085227012634,-9.954041481018066
1.7215730883268116e+18,-0.06260569393634796,-0.08313917368650436,-9.980810165405273
1.7215730883328118e+18,0.06513751298189163,0.0647585391998291,-10.006141662597656
1.721573088338812e+18,0.017794083803892136,0.008708341047167778,-9.97350788116455
1.7215730883538122e+18,0.05495159700512886,-0.0008544886950403452,-10.042926788330078
1.7215730883598124e+18,-0.09899184107780457,0.07173176854848862,-9.916552543640137
1.7215730883658125e+18,0.024889813736081123,-0.019265243783593178,-9.999067306518555
1.7215730883718126e+18,-0.010405694134533405,-0.0147733548656106,-9.910003662109375
1.7215730883778127e+18,-0.0009148921817541122,-0.043759625405073166,-9.946385383605957
1.7215730883838129e+18,0.05753878876566887,-0.008731823414564133,-10.043002128601074
1.721573088389813e+18,-0.009346630424261093,0.053973764181137085,-9.958755493164062
1.721573088395813e+18,0.04259558767080307,-0.08881863206624985,-9.849390029907227
1.7215730884018132e+18,-0.0234950240701437,-0.05322277918457985,-9.96774959564209
1.7215730884078134e+18,-0.0807385966181755,0.005108604207634926,-9.933371543884277
1.7215730884138135e+18,0.06836730986833572,-0.006744574289768934,-9.98287582397461
1.7215730884198136e+18,-0.014736386947333813,-0.036708809435367584,-9.942717552185059
1.7215730884258138e+18,-0.027730856090784073,0.013377846218645573,-9.941070556640625
1.7215730884288138e+18,0.03838733956217766,-0.06627379357814789,-9.908162117004395
1.721573088434814e+18,-0.030639994889497757,-0.09981527924537659,-9.921316146850586
1.721573088440814e+18,0.05061851069331169,0.08153144270181656,-9.964128494262695
1.7215730884468142e+18,0.009444783441722393,-0.03670921176671982,-9.951272010803223
1.7215730884528143e+18,-0.022987928241491318,-0.005276029463857412,-9.943185806274414
1.7215730884588145e+18,0.02722742035984993,-0.05047724395990372,-9.876123428344727
1.7215730884648146e+18,0.007393345236778259,-0.0024249465204775333,-9.917082786560059
1.7215730884708147e+18,-0.04416680335998535,0.0011933284113183618,-9.999756813049316
1.7215730884768148e+18,-0.04819834977388382,-0.01796690560877323,-9.942296028137207
1.721573088482815e+18,-0.08354922384023666,0.041716963052749634,-9.951258659362793
1.721573088488815e+18,0.018369240686297417,-0.004927377216517925,-9.91049575805664
1.7215730884948152e+18,0.13032527267932892,-0.03578144311904907,-9.913616180419922
1.7215730885008154e+18,0.03266989439725876,0.11004704236984253,-9.854421615600586
1.7215730885068155e+18,0.03540700301527977,-0.020940760150551796,-9.974732398986816
1.7215730885128156e+18,0.07118743658065796,-0.03164762631058693,-9.879319190979004
1.721573088524816e+18,0.011555698700249195,0.004577355459332466,-9.894474029541016
1.721573088530816e+18,-0.022171322256326675,0.02548382803797722,-9.881537437438965
1.721573088536816e+18,-0.04054363816976547,0.0031306836754083633,-9.923541069030762
1.7215730885428163e+18,0.03903263807296753,-0.029914220795035362,-9.919466018676758
1.7215730885488164e+18,0.024640336632728577,0.022471552714705467,-9.847687721252441
1.7215730885548165e+18,0.017316538840532303,-0.01757134683430195,-9.927021026611328
1.7215730885608166e+18,0.07301650941371918,-0.03574375435709953,-9.915044784545898
1.7215730885668168e+18,0.0019972287118434906,-0.01724659465253353,-9.915128707885742
1.721573088572817e+18,0.037600770592689514,0.02151084505021572,-9.90707778930664
1.721573088578817e+18,0.04164034500718117,-0.008944190107285976,-9.936275482177734
1.7215730885878172e+18,0.02864816226065159,0.03750202804803848,-9.869257926940918
1.7215730885938173e+18,-0.029239460825920105,-0.0260358527302742,-9.883380889892578
1.7215730885998175e+18,-0.014190314337611198,0.036036890000104904,-9.821187019348145
1.7215730886058176e+18,0.028042327612638474,-0.04637427628040314,-9.856709480285645
1.721573088620818e+18,-0.029848944395780563,0.0023378347977995872,-9.852910995483398
1.721573088626818e+18,0.0677897036075592,0.016372788697481155,-9.885967254638672
1.7215730886328182e+18,0.06264741718769073,0.0365748293697834,-9.910590171813965
1.7215730886388183e+18,0.03413635864853859,-0.04745594784617424,-9.862716674804688
1.7215730886448184e+18,-0.025021638721227646,-0.022518157958984375,-9.788325309753418
1.7215730886508186e+18,0.02836025319993496,-0.015298958867788315,-9.919785499572754
1.7215730886568187e+18,-0.012119956314563751,0.053411055356264114,-9.888192176818848
1.7215730886628188e+18,0.015438556671142578,-0.04545670747756958,-9.904953002929688
1.721573088668819e+18,0.046328168362379074,0.07621671259403229,-9.856842994689941
