timestamp,accel_x,accel_y,accel_z
1.7294973984500787e+18,-0.032430846244096756,-0.018657712265849113,-9.773297309875488
1.729497398459079e+18,-0.04264764115214348,0.00983928982168436,-9.755725860595703
1.729497398468079e+18,-0.029058465734124184,0.024865934625267982,-9.795964241027832
1.7294973984800794e+18,-0.018104758113622665,-0.0557202473282814,-9.782509803771973
1.7294973984920796e+18,0.09573152661323547,0.05364752188324928,-9.789572715759277
1.7294973984980797e+18,0.04542595148086548,-0.0421585813164711,-9.776506423950195
1.72949739850708e+18,-0.06593403965234756,0.023874858394265175,-9.859270095825195
1.72949739851608e+18,-0.08212511241436005,0.007840766571462154,-9.772565841674805
1.7294973985220803e+18,0.01766432262957096,-0.01068816240876913,-9.741086959838867
1.7294973985310804e+18,0.01598260924220085,0.04591953381896019,-9.864337921142578
1.7294973985400806e+18,0.019943425431847572,0.04163781553506851,-9.802727699279785
1.7294973985490808e+18,-0.008419713005423546,0.019962947815656662,-9.754951477050781
1.729497398558081e+18,0.08126875758171082,-0.0015722806565463543,-9.714631080627441
1.7294973985670812e+18,-0.004818466957658529,0.018939515575766563,-9.75213623046875
1.7294973985730813e+18,0.06356789916753769,-0.03632337227463722,-9.847264289855957
1.7294973985820815e+18,-0.03431812673807144,-0.03464517369866371,-9.810639381408691
1.7294973985910817e+18,0.03267791494727135,-0.009131759405136108,-9.869170188903809
1.729497398600082e+18,-0.021759141236543655,-0.04306602478027344,-9.879953384399414
1.729497398606082e+18,0.010667391121387482,0.055746786296367645,-9.79755687713623
1.7294973986150822e+18,-0.016615187749266624,-0.033955227583646774,-9.89770793914795
1.7294973986240824e+18,0.06627582758665085,-0.027147097513079643,-9.734334945678711
1.7294973986330826e+18,0.020469607785344124,-0.007364500779658556,-9.738383293151855
1.7294973986390828e+18,-0.030356846749782562,0.010639053769409657,-9.764524459838867
1.729497398648083e+18,-0.02511056698858738,-0.06120563670992851,-9.816705703735352
1.729497398654083e+18,-0.08801931887865067,0.051599740982055664,-9.81803035736084
1.7294973986630833e+18,0.04511594399809837,0.008222908712923527,-9.79686450958252
1.7294973986690834e+18,-0.04307308420538902,-0.0031027987133711576,-9.753804206848145
1.7294973986780836e+18,0.012229654006659985,0.034339915961027145,-9.79670238494873
1.7294973986840837e+18,0.11570855230093002,-0.02039923518896103,-9.83188247680664
1.729497398693084e+18,0.013765918090939522,0.06969837099313736,-9.69621753692627
1.729497398702084e+18,-0.00794137641787529,-0.0359923280775547,-9.792289733886719
1.7294973987080842e+18,-0.029782982543110847,0.031434327363967896,-9.838295936584473
1.7294973987170844e+18,0.009928198531270027,-0.11642467975616455,-9.794136047363281
1.7294973987230845e+18,0.0373900942504406,-0.018546223640441895,-9.751436233520508
1.7294973987320847e+18,-0.014411825686693192,-0.08133234083652496,-9.726606369018555
1.729497398741085e+18,-0.011822021566331387,-0.06058421730995178,-9.834214210510254
1.729497398747085e+18,0.07451773434877396,-0.015870070084929466,-9.741653442382812
1.7294973987560852e+18,0.07251094281673431,-0.06459806114435196,-9.806816101074219
1.7294973987650854e+18,-0.08886328339576721,-0.04256901517510414,-9.796331405639648
1.7294973987710856e+18,-0.008916826918721199,-0.023053297773003578,-9.801396369934082
1.7294973987800858e+18,-0.025992348790168762,0.07654820382595062,-9.781598091125488
1.729497398786086e+18,0.06376741081476212,-0.0275113545358181,-9.758102416992188
1.729497398795086e+18,0.05682019144296646,0.05490348860621452,-9.82738971710205
1.7294973988010862e+18,0.05689842626452446,-0.03899577632546425,-9.794156074523926
1.7294973988100864e+18,0.050899043679237366,0.048537157475948334,-9.799129486083984
1.7294973988190866e+18,0.003874599700793624,0.036462102085351944,-9.804943084716797
1.7294973988280868e+18,-0.11341444402933121,0.03391684591770172,-9.808646202087402
1.729497398834087e+18,0.009603528305888176,-0.02859269641339779,-9.881685256958008
1.729497398843087e+18,0.01611272431910038,-0.005455182399600744,-9.741811752319336
1.7294973988520873e+18,-0.03509151190519333,0.04373101517558098,-9.844874382019043
1.7294973988580874e+18,-0.03261764347553253,-0.013796034269034863,-9.849848747253418
1.7294973988670876e+18,0.024380430579185486,0.017330847680568695,-9.80124568939209
1.7294973988760878e+18,0.0006750734173692763,-0.016415487974882126,-9.750567436218262
1.729497398882088e+18,-0.04401123523712158,0.03065793216228485,-9.875353813171387
1.7294973988910881e+18,0.05372745543718338,-0.08664767444133759,-9.7503023147583
1.7294973989000883e+18,-0.005713877733796835,0.010026012547314167,-9.77408218383789
1.7294973989090885e+18,0.045117367058992386,-0.015862273052334785,-9.861377716064453
1.7294973989150886e+18,0.025744354352355003,0.03237204998731613,-9.842474937438965
1.7294973989240888e+18,0.02646547555923462,-0.03730523958802223,-9.816863059997559
1.729497398930089e+18,0.0018076807027682662,0.03460497781634331,-9.836167335510254
1.7294973989390892e+18,-0.019261006265878677,-0.008607825264334679,-9.807327270507812
1.7294973989450893e+18,-0.026143230497837067,-0.04278638958930969,-9.78173828125
1.7294973989540895e+18,0.038457948714494705,-0.06737576425075531,-9.843647956848145
1.7294973989630897e+18,0.028684282675385475,-0.01685045287013054,-9.829212188720703
1.7294973989690898e+18,-0.09393244981765747,0.023371178656816483,-9.854092597961426
1.72949739897809e+18,0.02248482219874859,0.025636212900280952,-9.811342239379883
1.7294973989870902e+18,-0.04372073709964752,-0.007904762402176857,-9.84964370727539
1.7294973989930903e+18,0.0116876857355237,0.00936081726104021,-9.820600509643555
1.7294973990020905e+18,0.004306064452975988,-0.0656561329960823,-9.82209587097168
1.7294973990110907e+18,-0.04162635654211044,0.002426386112347245,-9.849342346191406
1.7294973990170908e+18,-0.009434394538402557,-0.02401028573513031,-9.783300399780273
1.729497399026091e+18,0.06070329248905182,0.0024223995860666037,-9.807750701904297
1.7294973990320911e+18,-0.01004363689571619,-0.052106451243162155,-9.785423278808594
1.7294973990410913e+18,-0.032678768038749695,0.04378349334001541,-9.761384963989258
1.7294973990500915e+18,-0.061665426939725876,-0.06858184188604355,-9.810198783874512
1.7294973990560916e+18,0.00629729637876153,0.0850425660610199,-9.856743812561035
1.7294973990650918e+18,-0.016810337081551552,0.037676308304071426,-9.815919876098633
1.729497399071092e+18,-0.06364751607179642,0.03295586258172989,-9.798897743225098
1.7294973990800922e+18,0.029474226757884026,0.06943212449550629,-9.817781448364258
1.7294973990890924e+18,0.0019166063284501433,0.08308236300945282,-9.847021102905273
1.7294973990950925e+18,-0.052123330533504486,-0.05855197086930275,-9.812044143676758
1.7294973991040927e+18,0.004731219727545977,0.02897561527788639,-9.814277648925781
1.7294973991100928e+18,-0.03571401536464691,-0.019415797665715218,-9.808900833129883
1.729497399122093e+18,0.03305281698703766,0.04910631850361824,-9.817024230957031
1.7294973991280932e+18,-0.050808750092983246,-0.02115459367632866,-9.836589813232422
1.7294973991370934e+18,0.09109283983707428,0.0007361880270764232,-9.8158597946167
1.7294973991460936e+18,-0.013621912337839603,0.00859446544200182,-9.941415786743164
1.7294973991550938e+18,-0.055077794939279556,-0.11305970698595047,-9.76500415802002
1.729497399164094e+18,-0.027006272226572037,-0.018130887299776077,-9.796295166015625
1.729497399170094e+18,0.047540176659822464,0.0037080778274685144,-9.86219310760498
1.7294973991790943e+18,0.012422396801412106,-0.00238204188644886,-9.80870246887207
1.7294973991850944e+18,-0.029811862856149673,0.03662770614027977,-9.858169555664062
1.7294973991940946e+18,-0.010291741229593754,0.0005211963434703648,-9.791175842285156
1.7294973992030948e+18,-0.04262297973036766,-0.03118416666984558,-9.812515258789062
1.729497399209095e+18,-0.006949703674763441,-0.046762339770793915,-9.771495819091797
1.729497399218095e+18,-0.005327027756720781,0.02573992684483528,-9.816622734069824
1.7294973992240952e+18,-0.002251674421131611,0.007768290117383003,-9.787466049194336
1.7294973992330954e+18,0.0055459532886743546,-0.017317702993750572,-9.821599960327148
1.7294973992420956e+18,-0.03141007199883461,0.023224012926220894,-9.79212474822998
1.7294973992480957e+18,-0.04293147101998329,0.018590854480862617,-9.884056091308594
1.729497399257096e+18,-0.06561441719532013,0.012868897058069706,-9.781829833984375
1.729497399263096e+18,-0.037016984075307846,0.11096152663230896,-9.837882041931152
1.7294973992720963e+18,0.022345969453454018,-0.039505213499069214,-9.860064506530762
1.7294973992810964e+18,-0.0265829898416996,-0.0016746552428230643,-9.854263305664062
1.7294973992870966e+18,0.05754677951335907,-0.0032528003212064505,-9.76877212524414
1.7294973992960968e+18,0.06825777888298035,-0.042532019317150116,-9.808215141296387
1.729497399302097e+18,-0.001692841062322259,-0.030574966222047806,-9.785658836364746
1.7294973993140972e+18,-0.013582565821707249,0.08022619038820267,-9.785017967224121
1.7294973993260974e+18,-0.08995447307825089,-0.0432295985519886,-9.780618667602539
1.7294973993350976e+18,0.0038466094993054867,-0.011386454105377197,-9.811928749084473
1.7294973993410977e+18,-0.038983311504125595,0.003973060753196478,-9.83417797088623
1.729497399350098e+18,-0.05411672219634056,0.031168973073363304,-9.777705192565918
1.729497399359098e+18,-0.007383395917713642,0.019749876111745834,-9.837940216064453
1.7294973993650982e+18,0.03982248157262802,-0.05441002920269966,-9.75538444519043
1.7294973993740984e+18,0.0027949013747274876,0.09029734879732132,-9.900994300842285
1.7294973993830986e+18,0.039772480726242065,0.028683606535196304,-9.830169677734375
1.7294973993890988e+18,0.028496379032731056,0.06168316304683685,-9.881718635559082
1.729497399398099e+18,0.02359939180314541,0.054113104939460754,-9.736005783081055
1.7294973994070991e+18,-0.005208163522183895,-0.023109663277864456,-9.759294509887695
1.7294973994160993e+18,0.025876978412270546,0.00010006312368204817,-9.77735424041748
1.7294973994220995e+18,-0.0033588113728910685,-0.02089962176978588,-9.800339698791504
1.7294973994310996e+18,-0.05664416402578354,-0.07974082231521606,-9.786846160888672
1.7294973994370998e+18,-0.08012616634368896,-0.049155209213495255,-9.840767860412598
1.7294973994461e+18,-0.018632037565112114,-0.005224154330790043,-9.842429161071777
1.7294973994521e+18,-0.009873242117464542,0.01860678941011429,-9.773033142089844
1.7294973994611003e+18,0.014205030165612698,-0.03998245298862457,-9.79107666015625
1.7294973994671004e+18,0.035531189292669296,0.05610598996281624,-9.777198791503906
1.7294973994761006e+18,-0.03287161514163017,-0.03351124748587608,-9.822846412658691
1.7294973994851008e+18,0.0021197893656790257,-0.06701667606830597,-9.827548027038574
1.729497399494101e+18,-0.019311703741550446,-0.053813785314559937,-9.811448097229004
1.7294973995031012e+18,-0.029930705204606056,0.04604809731245041,-9.778645515441895
1.7294973995121014e+18,0.07364606112241745,-0.03681909292936325,-9.852238655090332
1.7294973995181015e+18,-0.005421966314315796,0.03104889951646328,-9.774574279785156
1.7294973995271017e+18,0.06354833394289017,0.01997559890151024,-9.752562522888184
1.729497399536102e+18,-0.0404411256313324,0.037649005651474,-9.761046409606934
1.729497399545102e+18,-0.047390617430210114,0.01918770931661129,-9.80722427368164
1.7294973995541023e+18,0.0237539354711771,0.02188802696764469,-9.853470802307129
1.7294973995601024e+18,0.01817174069583416,0.021859485656023026,-9.807843208312988
1.7294973995691026e+18,-0.026623398065567017,-0.03703231364488602,-9.816659927368164
1.7294973995781028e+18,0.003556234994903207,-0.06273667514324188,-9.832364082336426
1.729497399587103e+18,-0.05186091735959053,-0.0008528938633389771,-9.787345886230469
1.7294973995961032e+18,-0.03200490027666092,-0.00985885038971901,-9.784698486328125
1.7294973996021033e+18,0.09103743731975555,0.0013672274071723223,-9.807785034179688
1.7294973996111035e+18,0.008081194013357162,-0.009955602698028088,-9.858156204223633
1.7294973996171036e+18,0.060825422406196594,-0.020461007952690125,-9.87980842590332
1.7294973996261038e+18,-0.022033633664250374,0.06985602527856827,-9.77223014831543
1.729497399635104e+18,0.023011885583400726,0.04448936879634857,-9.800384521484375
1.7294973996441042e+18,-0.059583019465208054,0.00028908730018883944,-9.718372344970703
1.7294973996531044e+18,-0.010680148378014565,0.03335583582520485,-9.846707344055176
1.7294973996621046e+18,0.07192787528038025,-0.044674649834632874,-9.722402572631836
1.7294973996711048e+18,-0.007890238426625729,-0.052383363246917725,-9.767132759094238
1.729497399680105e+18,0.004768500570207834,-0.0048039862886071205,-9.785758972167969
1.7294973996921052e+18,-0.05316098779439926,0.027673259377479553,-9.767657279968262
1.7294973997011054e+18,-0.0164741612970829,-0.018107304349541664,-9.83590316772461
1.7294973997101056e+18,0.02007579244673252,-0.010890871286392212,-9.726871490478516
1.7294973997161057e+18,-0.002548565622419119,-0.09904603660106659,-9.849186897277832
1.729497399725106e+18,-0.008302946574985981,0.01955169439315796,-9.739093780517578
1.729497399734106e+18,0.038735296577215195,-0.019130222499370575,-9.842463493347168
1.7294973997431063e+18,-0.009390722960233688,0.04633326083421707,-9.786114692687988
1.7294973997521065e+18,0.05406755954027176,0.04875938966870308,-9.851597785949707
1.7294973997611067e+18,-0.0012302511604502797,-0.002396198222413659,-9.799474716186523
1.729497399770107e+18,-0.048851270228624344,-0.007311978843063116,-9.841773986816406
1.729497399779107e+18,0.03445432335138321,-0.04813680425286293,-9.776598930358887
1.7294973997881073e+18,0.0708760991692543,-0.016919367015361786,-9.818445205688477
1.7294973997941074e+18,-0.025155292823910713,0.02323295548558235,-9.870637893676758
1.7294973998031076e+18,-0.04664129763841629,-0.0146551001816988,-9.827131271362305
1.7294973998121078e+18,0.07514560222625732,-0.04406805336475372,-9.776116371154785
1.729497399821108e+18,-0.08315367251634598,-0.003491373034194112,-9.805583000183105
1.7294973998301082e+18,-0.07908856123685837,-0.03473902866244316,-9.857026100158691
1.7294973998391084e+18,0.023755641654133797,0.03212037310004234,-9.839749336242676
1.7294973998511086e+18,-0.039176009595394135,0.023158807307481766,-9.766048431396484
1.7294973998601088e+18,-0.08892887830734253,0.024313194677233696,-9.818662643432617
1.729497399869109e+18,0.03325429558753967,0.06468730419874191,-9.838838577270508
1.7294973998781092e+18,-0.07437074184417725,-0.03971582651138306,-9.759342193603516
1.7294973998871094e+18,0.0200580395758152,-0.04116252437233925,-9.822927474975586
1.7294973998961096e+18,0.05754208192229271,-0.09382602572441101,-9.790823936462402
1.7294973999051098e+18,0.03605179861187935,-0.01096193864941597,-9.768498420715332
1.72949739991411e+18,-0.03275609761476517,-0.015347462147474289,-9.853741645812988
1.7294973999231101e+18,-0.09325919300317764,0.06096963584423065,-9.82072639465332
1.7294973999321103e+18,-0.022344693541526794,-0.07585982978343964,-9.796243667602539
1.7294973999411105e+18,-0.10059425234794617,0.0513986237347126,-9.758376121520996
1.7294973999501107e+18,-0.013030756264925003,-0.008574189618229866,-9.765483856201172
1.729497399959111e+18,-0.05322958156466484,-0.09320840984582901,-9.732564926147461
1.729497399968111e+18,0.06105427443981171,0.001644645817577839,-9.794363975524902
1.7294973999771113e+18,0.01660315692424774,0.017031190916895866,-9.7788667678833
1.7294973999861115e+18,-0.02171626128256321,-0.018101273104548454,-9.788856506347656
1.7294973999951117e+18,0.021896645426750183,0.010527865961194038,-9.840898513793945
1.729497400007112e+18,-0.03591805323958397,-0.002915605204179883,-9.853058815002441
1.729497400016112e+18,0.0245202723890543,-0.021772637963294983,-9.816372871398926
1.7294974000251123e+18,0.03593870624899864,0.03608592227101326,-9.791888236999512
1.7294974000341125e+18,-0.00975507590919733,-0.02373780682682991,-9.758439064025879
1.7294974000431127e+18,0.05994589626789093,0.044917259365320206,-9.738912582397461
1.729497400052113e+18,-0.06737397611141205,-0.030148115009069443,-9.823629379272461
1.729497400061113e+18,0.09255552291870117,-0.0960918739438057,-9.701615333557129
1.7294974000701133e+18,0.058041803538799286,0.014549723826348782,-9.82274055480957
1.7294974000821135e+18,-0.028095776215195656,0.0036504538729786873,-9.798783302307129
1.7294974000911137e+18,-0.03801209479570389,0.030143532902002335,-9.733203887939453
1.729497400103114e+18,-0.054692450910806656,0.005740847438573837,-9.8505859375
1.7294974001121142e+18,-0.0169932022690773,0.0264773890376091,-9.734785079956055
1.7294974001211144e+18,0.0325155071914196,0.0008959429105743766,-9.765361785888672
1.7294974001331146e+18,0.007571843918412924,0.023772798478603363,-9.71115779876709
1.7294974001421148e+18,0.1159881204366684,0.002329235663637519,-9.76817512512207
1.729497400151115e+18,-0.05363618582487106,0.008714055642485619,-9.763903617858887
1.7294974001631153e+18,-0.01461177971214056,0.05249931290745735,-9.817428588867188
1.7294974001721155e+18,-0.10887566953897476,0.025686966255307198,-9.80168342590332
1.7294974001811156e+18,0.03710361197590828,0.01423058845102787,-9.869913101196289
1.7294974001901158e+18,-0.029930781573057175,0.01796632818877697,-9.815082550048828
1.729497400199116e+18,-0.015403787605464458,0.02535303309559822,-9.838994026184082
1.7294974002081162e+18,-0.019781867042183876,0.01990380324423313,-9.74389934539795
1.7294974002201165e+18,0.013192437589168549,0.0004790442471858114,-9.814647674560547
1.7294974002291167e+18,-0.045371346175670624,-0.035839736461639404,-9.790270805358887
1.7294974002381169e+18,0.03387003391981125,-0.011462727561593056,-9.792012214660645
1.729497400247117e+18,0.018658673390746117,0.015174279920756817,-9.843998908996582
1.7294974002561172e+18,-0.02208319865167141,-0.0397755391895771,-9.806478500366211
1.7294974002681175e+18,0.020304009318351746,0.02196250483393669,-9.703069686889648
1.7294974002771177e+18,0.01408423949033022,0.02140505425632,-9.844429969787598
1.729497400286118e+18,0.03545371815562248,0.019169213250279427,-9.891626358032227
1.729497400292118e+18,0.03041488118469715,-0.04016518592834473,-9.73231029510498
1.7294974003011182e+18,-0.012381229549646378,-0.05372991785407066,-9.75279712677002
1.7294974003101184e+18,0.049061499536037445,-0.03564693033695221,-9.77066421508789
1.7294974003191186e+18,0.02681516669690609,-0.04164158180356026,-9.758414268493652
1.7294974003281188e+18,-0.0299710463732481,-0.032440777868032455,-9.863924980163574
1.729497400337119e+18,-0.032283708453178406,-0.04871059209108353,-9.824190139770508
1.7294974003461192e+18,0.03433198854327202,0.009223515167832375,-9.862509727478027
1.7294974003521193e+18,-0.026012925431132317,0.10263427346944809,-9.866183280944824
1.7294974003611195e+18,0.011827001348137856,0.058627013117074966,-9.949043273925781
1.7294974003701197e+18,0.041801050305366516,0.012205032631754875,-9.855368614196777
1.7294974003791199e+18,0.026996081694960594,-0.04376255348324776,-9.847013473510742
1.72949740038512e+18,-0.022431455552577972,-0.046447768807411194,-9.888961791992188
1.7294974003941202e+18,-0.00831056572496891,-0.021554427221417427,-9.892338752746582
1.7294974004031204e+18,0.0646141842007637,-0.11107634752988815,-9.904525756835938
1.7294974004121206e+18,-0.032389793545007706,-0.09865598380565643,-9.957621574401855
1.7294974004211208e+18,-0.023280512541532516,0.042969707399606705,-10.024864196777344
1.729497400430121e+18,-0.02854553610086441,0.08744148164987564,-10.06734848022461
1.729497400436121e+18,-0.12024373561143875,-0.03885344788432121,-9.954299926757812
1.7294974004571215e+18,0.029778018593788147,-0.07685667276382446,-10.017337799072266
1.7294974004661217e+18,0.04941287264227867,-0.02442348375916481,-10.110227584838867
1.729497400475122e+18,0.041221894323825836,-0.07321114838123322,-10.089208602905273
1.729497400481122e+18,0.04546723514795303,0.012345267459750175,-10.152751922607422
1.7294974004901222e+18,-0.10172702372074127,-0.007642789278179407,-10.274099349975586
1.7294974004991224e+18,0.007732799276709557,-0.027939263731241226,-10.41213607788086
1.7294974005081226e+18,-0.07382353395223618,-0.0996975377202034,-10.476491928100586
1.7294974005171228e+18,-0.049038708209991455,-0.015753036364912987,-10.434996604919434
1.729497400526123e+18,-0.019071387127041817,-0.012184429913759232,-10.403891563415527
1.7294974005321231e+18,-0.023888977244496346,0.0633753165602684,-10.54515266418457
1.7294974005411233e+18,0.07395249605178833,0.01784176006913185,-10.492818832397461
1.7294974005501235e+18,-0.011105944402515888,0.03479829430580139,-10.481308937072754
1.7294974005591237e+18,-0.03890162706375122,0.0676155611872673,-10.546306610107422
1.729497400568124e+18,0.05053228512406349,-0.003319310490041971,-10.450236320495605
1.729497400577124e+18,-0.05028596520423889,0.020432284101843834,-10.512892723083496
1.7294974005861243e+18,0.07491856813430786,-0.02502438798546791,-10.459003448486328
1.7294974005921244e+18,-0.024299120530486107,0.005006501451134682,-10.52351188659668
1.7294974006011246e+18,-0.028690360486507416,-0.030198272317647934,-10.613621711730957
1.7294974006101248e+18,-0.047002531588077545,-0.005791260860860348,-10.543959617614746
1.729497400619125e+18,0.005074693821370602,-0.046378906816244125,-10.497049331665039
1.7294974006281252e+18,-0.02266405150294304,0.011767655611038208,-10.52360725402832
1.7294974006371254e+18,0.05538947135210037,-0.028710491955280304,-10.543840408325195
1.7294974006461256e+18,-0.05775226280093193,0.026233874261379242,-10.592483520507812
1.7294974006551258e+18,0.06524385511875153,-0.031076744198799133,-10.518838882446289
1.729497400661126e+18,0.003063783049583435,0.00848902203142643,-10.50966739654541
1.729497400670126e+18,0.040849022567272186,-0.08122862130403519,-10.534074783325195
1.7294974006791263e+18,-0.0350409597158432,0.01566816307604313,-10.522250175476074
1.7294974006851264e+18,0.026735130697488785,-0.06303858011960983,-10.502074241638184
1.7294974006941266e+18,0.050600338727235794,0.0027368655428290367,-10.5489501953125
1.7294974007031268e+18,-0.048925526440143585,-0.03758932650089264,-10.537413597106934
1.729497400712127e+18,0.0037747202441096306,0.030864711850881577,-10.572672843933105
1.7294974007211272e+18,-0.062407687306404114,-0.03351513668894768,-10.56209945678711
1.7294974007331274e+18,-0.028360597789287567,0.02779998816549778,-10.63550090789795
1.7294974007421276e+18,-0.046040650457143784,0.01942923478782177,-10.562938690185547
1.7294974007511278e+18,-0.01857205666601658,0.044180355966091156,-10.569979667663574
1.729497400760128e+18,0.03121803142130375,0.029240606352686882,-10.588067054748535
1.7294974007691282e+18,-0.01311049610376358,0.00939946062862873,-10.59988021850586
1.7294974007811284e+18,0.061504755169153214,0.029567284509539604,-10.586824417114258
1.7294974007901286e+18,0.0310274176299572,-0.08169807493686676,-10.580185890197754
1.729497400802129e+18,-0.07924586534500122,0.022294342517852783,-10.688945770263672
1.729497400811129e+18,-0.04602765664458275,-0.008008085191249847,-10.621125221252441
1.7294974008201293e+18,0.016204971820116043,0.0342574268579483,-10.574589729309082
1.7294974008291295e+18,0.0020564920268952847,-0.023798726499080658,-10.524564743041992
1.7294974008411297e+18,-0.009780067019164562,-0.03636116907000542,-10.618159294128418
1.72949740085013e+18,0.0075830318965017796,0.03365617245435715,-10.53986930847168
1.72949740085913e+18,0.017938662320375443,-0.03749490901827812,-10.608756065368652
1.7294974008681303e+18,-0.05262332037091255,0.030742350965738297,-10.589662551879883
1.7294974008771305e+18,0.02796129882335663,0.0062539707869291306,-10.539996147155762
1.7294974008861307e+18,-0.002006105612963438,-0.024274365976452827,-10.607455253601074
1.729497400898131e+18,0.037178877741098404,-0.06057004630565643,-10.675008773803711
1.7294974009071311e+18,-0.021114734932780266,-0.017112350091338158,-10.651993751525879
1.7294974009161313e+18,-0.0033610814716666937,0.02153247594833374,-10.582850456237793
1.7294974009251315e+18,0.0672740638256073,-0.031076576560735703,-10.564430236816406
1.7294974009341317e+18,-0.04845278337597847,-0.06342040002346039,-10.519554138183594
1.729497400946132e+18,0.00259458483196795,-0.007242622319608927,-10.602843284606934
1.7294974009551322e+18,-0.06384598463773727,0.005363401956856251,-10.63168716430664
1.7294974009641324e+18,0.02531331218779087,0.0479014590382576,-10.615341186523438
1.7294974009731325e+18,-0.05112937092781067,-0.12334875762462616,-10.531448364257812
1.7294974009851328e+18,0.04306517168879509,0.05706440657377243,-10.557940483093262
1.729497400994133e+18,-0.03642178699374199,0.022363558411598206,-10.581925392150879
1.7294974010031332e+18,0.06157207861542702,0.0070762475952506065,-10.655264854431152
1.7294974010121334e+18,0.001727942144498229,-0.022711360827088356,-10.64245891571045
1.7294974010211336e+18,0.01678326725959778,-0.049735747277736664,-10.633756637573242
1.7294974010301338e+18,0.05589606240391731,0.007164670620113611,-10.613777160644531
1.729497401039134e+18,-0.005547837819904089,-0.028052296489477158,-10.51914119720459
1.7294974010481341e+18,0.001612914726138115,-0.01869029738008976,-10.595377922058105
1.7294974010571343e+18,-0.03589485585689545,0.03704235702753067,-10.622726440429688
1.7294974010661345e+18,-0.0839209258556366,-0.042103156447410583,-10.632325172424316
1.7294974010751347e+18,-0.039670780301094055,0.04678119719028473,-10.557818412780762
1.729497401084135e+18,-0.00874435342848301,0.07384467124938965,-10.588251113891602
1.729497401093135e+18,0.055555664002895355,0.0004014883888885379,-10.597417831420898
1.7294974011021353e+18,0.00713878870010376,-0.07294599711894989,-10.668478012084961
1.7294974011141356e+18,-0.010280050337314606,-0.06913173198699951,-10.536385536193848
1.7294974011231357e+18,-0.000632156734354794,-0.04222133010625839,-10.623723030090332
1.729497401132136e+18,-0.04340766742825508,0.05999929830431938,-10.534727096557617
1.7294974011411361e+18,0.006007680669426918,0.0427599772810936,-10.659544944763184
1.7294974011501363e+18,0.010472817346453667,-0.03298923373222351,-10.601292610168457
1.7294974011591365e+18,-0.015927447006106377,-0.01075434498488903,-10.565566062927246
1.7294974011681367e+18,0.025204753503203392,0.05035678297281265,-10.5858736038208
1.729497401177137e+18,0.0001237710239365697,0.008804403245449066,-10.587358474731445
1.729497401186137e+18,0.011054257862269878,0.019267406314611435,-10.53049087524414
1.7294974011951373e+18,-0.013477185741066933,-0.014986248686909676,-10.611594200134277
1.7294974012041375e+18,0.0006502089090645313,0.05966688320040703,-10.666241645812988
1.7294974012131377e+18,0.02513105608522892,0.011879743076860905,-10.593299865722656
1.7294974012221379e+18,0.009903858415782452,0.0314202606678009,-10.651161193847656
1.729497401231138e+18,-0.008487693965435028,0.011276962235569954,-10.675459861755371
1.7294974012401382e+18,-0.021739564836025238,-0.0020085666328668594,-10.621539115905762
1.7294974012491384e+18,-0.033715780824422836,0.03575573489069939,-10.59654712677002
1.7294974012581386e+18,0.07052195817232132,0.004821636248379946,-10.686019897460938
1.7294974012671388e+18,0.051109954714775085,-0.0005564468447118998,-10.58813762664795
1.729497401276139e+18,0.020534807816147804,-0.060405973345041275,-10.66555404663086
1.7294974012851392e+18,-0.0520084984600544,-0.00886116735637188,-10.618764877319336
1.7294974012941394e+18,0.03407642990350723,-0.008006179705262184,-10.539899826049805
1.7294974013031396e+18,0.050069741904735565,-0.018357522785663605,-10.55445671081543
1.7294974013121398e+18,-0.07004179060459137,0.09671536833047867,-10.596563339233398
1.72949740132114e+18,-0.029199961572885513,0.05967571586370468,-10.64759635925293
1.7294974013301402e+18,-0.006741727236658335,0.005879498086869717,-10.573294639587402
1.7294974013391404e+18,-0.026943214237689972,-0.059277430176734924,-10.584200859069824
1.7294974013481405e+18,-0.016068508848547935,0.04260128736495972,-10.517075538635254
1.7294974013601408e+18,0.05243591219186783,-0.01576341688632965,-10.544917106628418
1.729497401366141e+18,-0.03356539085507393,-0.014232727698981762,-10.535576820373535
1.729497401375141e+18,0.006965102627873421,0.0684553012251854,-10.576377868652344
1.7294974013841413e+18,0.026861442252993584,0.043142836540937424,-10.593816757202148
1.7294974013931415e+18,-0.019209029152989388,0.036285560578107834,-10.505043983459473
1.7294974014021417e+18,0.008100931532680988,-0.038030315190553665,-10.514876365661621
1.729497401411142e+18,0.08034411072731018,0.026055943220853806,-10.567608833312988
1.729497401420142e+18,0.04589457809925079,0.050811268389225006,-10.602350234985352
1.7294974014291423e+18,0.04969871789216995,0.10892564803361893,-10.523248672485352
1.7294974014411425e+18,-0.0012010857462882996,0.05824407562613487,-10.612778663635254
1.7294974014501427e+18,0.0029754089191555977,-0.036327362060546875,-10.60303020477295
1.729497401459143e+18,0.033121660351753235,0.002905427711084485,-10.453383445739746
1.729497401468143e+18,0.06664828956127167,0.0009155549923889339,-10.674369812011719
1.7294974014771433e+18,0.044509340077638626,-0.01028811652213335,-10.537354469299316
1.7294974014831434e+18,0.0008088281028904021,-0.05638132989406586,-10.523528099060059
1.7294974014921436e+18,0.011621218174695969,-0.005264275707304478,-10.530725479125977
1.7294974015011438e+18,-0.07857044041156769,-0.005700496956706047,-10.517553329467773
1.729497401510144e+18,-0.028021598234772682,0.07120515406131744,-10.572896957397461
1.7294974015191442e+18,-0.0845811516046524,0.02557353489100933,-10.521658897399902
1.7294974015281444e+18,0.12490546703338623,-0.02184814214706421,-10.654878616333008
1.7294974015371446e+18,0.020917261019349098,-0.004208306781947613,-10.578721046447754
1.7294974015431447e+18,-0.014416497200727463,8.736707968637347e-05,-10.49264907836914
1.729497401552145e+18,0.030857518315315247,-0.01314915157854557,-10.49112319946289
1.729497401561145e+18,0.06521495431661606,0.0645812600851059,-10.535331726074219
1.7294974015701453e+18,0.05868732929229736,0.08935540914535522,-10.514997482299805
1.7294974015791455e+18,-0.024852801114320755,-0.028361894190311432,-10.476654052734375
1.7294974015881457e+18,-0.06829822808504105,-0.03303530067205429,-10.568495750427246
1.7294974015971459e+18,0.053261898458004,-0.01093362271785736,-10.554384231567383
1.729497401603146e+18,0.04641958326101303,0.04174917936325073,-10.606019973754883
1.7294974016121462e+18,-0.00980602577328682,-0.018345391377806664,-10.608479499816895
1.7294974016211464e+18,0.025590654462575912,-0.006339762359857559,-10.537156105041504
1.7294974016301466e+18,0.10969550162553787,0.11045465618371964,-10.59328556060791
1.7294974016391468e+18,0.030274299904704094,-0.0034857711289077997,-10.525595664978027
1.729497401645147e+18,0.11416910588741302,-0.0613228902220726,-10.496072769165039
1.729497401654147e+18,-0.07663098722696304,-0.01693231798708439,-10.561619758605957
1.7294974016631473e+18,-0.004898097366094589,0.0006734635098837316,-10.482195854187012
1.7294974016721475e+18,-0.011294225230813026,0.06405878812074661,-10.454182624816895
1.7294974016781476e+18,0.11990443617105484,-0.04381655156612396,-10.559476852416992
1.7294974016871478e+18,0.04597223922610283,0.0952141061425209,-10.525754928588867
1.729497401696148e+18,-0.018470512703061104,0.016928356140851974,-10.33421802520752
1.7294974017051482e+18,-0.008604206144809723,0.11151553690433502,-10.525139808654785
1.7294974017141484e+18,-0.025782687589526176,-0.011411372572183609,-10.549318313598633
1.7294974017231485e+18,-0.02356429398059845,-0.009317838586866856,-10.477272987365723
1.7294974017321487e+18,-0.003244012361392379,0.07132288813591003,-10.43026065826416
1.729497401741149e+18,0.007561998441815376,0.03895281255245209,-10.494260787963867
1.729497401750149e+18,-0.03873632103204727,-0.10779603570699692,-10.559247016906738
1.7294974017561492e+18,0.0022282747086137533,-0.046142540872097015,-10.503687858581543
1.7294974017651494e+18,-0.02302573062479496,-0.08229798823595047,-10.526307106018066
1.7294974017741496e+18,-0.0715738832950592,-0.012742623686790466,-10.562515258789062
1.7294974017831498e+18,0.036859866231679916,-0.0038179070688784122,-10.473936080932617
1.72949740179215e+18,-0.010524272918701172,0.06855590641498566,-10.500425338745117
1.7294974018011502e+18,-0.017150407657027245,-0.03379588946700096,-10.582736015319824
1.7294974018071503e+18,0.04368644580245018,0.04449319839477539,-10.5355224609375
1.7294974018161505e+18,-0.018610280007123947,-0.025545703247189522,-10.599592208862305
1.7294974018251507e+18,-0.017622530460357666,0.08060099184513092,-10.429489135742188
1.729497401834151e+18,0.03739064931869507,-0.035946622490882874,-10.413820266723633
1.729497401843151e+18,-0.05898266285657883,0.05354120954871178,-10.54330062866211
1.7294974018521513e+18,0.036780714988708496,-0.0414281003177166,-10.402173042297363
1.7294974018611515e+18,0.005232065450400114,-0.010702131316065788,-10.340547561645508
1.7294974018701517e+18,-0.02527735009789467,-0.015508303418755531,-10.321325302124023
1.7294974018791519e+18,0.014779233373701572,-0.009715515188872814,-10.269755363464355
1.729497401885152e+18,-0.03508288040757179,-0.09874322265386581,-10.312966346740723
1.7294974018941522e+18,-0.0060973456129431725,0.02740383893251419,-10.269331932067871
1.7294974019031524e+18,-0.06895759701728821,0.00559297576546669,-10.273313522338867
1.7294974019121526e+18,-0.015202315524220467,0.012519611045718193,-10.301958084106445
1.7294974019211528e+18,0.05644780397415161,-0.04892122745513916,-10.14677906036377
1.729497401930153e+18,-0.07160348445177078,-0.09207472205162048,-10.145700454711914
1.7294974019391532e+18,-0.040208812803030014,0.07781016081571579,-10.075035095214844
1.7294974019481533e+18,-0.014333309605717659,0.053843896836042404,-10.103638648986816
1.7294974019571535e+18,0.008879642933607101,-0.019947145134210587,-10.049760818481445
1.7294974019661537e+18,-0.03533792123198509,-0.05507732555270195,-9.964122772216797
1.7294974019721539e+18,0.047261182218790054,0.03568323329091072,-10.097485542297363
1.729497401981154e+18,-0.019176475703716278,0.05789788067340851,-9.980157852172852
1.7294974019901542e+18,0.09682118147611618,0.010379254817962646,-10.01957893371582
1.7294974019991544e+18,0.008960334584116936,-0.05146976560354233,-9.862076759338379
1.7294974020051546e+18,-0.042974527925252914,-0.0017009980510920286,-9.887954711914062
1.7294974020141548e+18,0.018399912863969803,-0.043400123715400696,-9.842370986938477
1.729497402023155e+18,0.06121765449643135,0.04444374144077301,-9.816957473754883
1.729497402029155e+18,0.04479231685400009,-0.011314665898680687,-9.9472017288208
1.7294974020381553e+18,-0.05149559676647186,0.10210411995649338,-9.746453285217285
1.7294974020471555e+18,0.002135554328560829,-0.002712839050218463,-9.79393196105957
1.7294974020561556e+18,0.020251862704753876,0.04625045135617256,-9.814669609069824
1.7294974020651558e+18,-0.0026604104787111282,0.038178905844688416,-9.752370834350586
1.729497402071156e+18,-0.08037698268890381,0.06545209884643555,-9.79493522644043
1.7294974020801562e+18,-0.04265948757529259,0.055540814995765686,-9.682205200195312
1.7294974020891564e+18,0.0018386635929346085,0.11305555701255798,-9.743781089782715
1.7294974020951565e+18,-0.013106750324368477,0.004325820133090019,-9.70467472076416
1.7294974021041567e+18,-0.0031330916099250317,0.022614751011133194,-9.707372665405273
1.7294974021131569e+18,-0.048508137464523315,0.038144707679748535,-9.613329887390137
1.729497402119157e+18,-0.011500950902700424,0.006775356829166412,-9.698951721191406
1.7294974021281572e+18,0.08790416270494461,0.042561158537864685,-9.615092277526855
1.7294974021371574e+18,-0.014209510758519173,-0.06965608894824982,-9.733715057373047
1.7294974021461576e+18,-0.0061168489046394825,-0.04202966019511223,-9.645918846130371
1.7294974021521577e+18,0.029691990464925766,-0.058071792125701904,-9.693559646606445
1.729497402161158e+18,-0.021813351660966873,-0.031221024692058563,-9.739028930664062
1.729497402167158e+18,-0.02394900470972061,0.06196090579032898,-9.706202507019043
1.7294974021761582e+18,-0.06359093636274338,-0.005647791083902121,-9.66647720336914
1.7294974021851584e+18,-0.020177775993943214,-0.03301585465669632,-9.727919578552246
1.7294974021941586e+18,-0.08033443242311478,-0.013340793550014496,-9.677823066711426
1.7294974022031588e+18,-0.04443417489528656,0.00688753230497241,-9.746453285217285
1.729497402212159e+18,0.0509297139942646,-0.02949163131415844,-9.683181762695312
1.729497402218159e+18,-0.03985915333032608,-0.10658975690603256,-9.729659080505371
1.7294974022271593e+18,0.052442558109760284,0.059443771839141846,-9.754799842834473
1.7294974022391596e+18,0.05356742814183235,-0.05038346350193024,-9.657737731933594
1.7294974022511598e+18,0.03649143502116203,-0.05136309191584587,-9.69304370880127
1.72949740225716e+18,0.03330589830875397,0.005760186351835728,-9.687040328979492
1.72949740226616e+18,0.004981635138392448,0.013838792219758034,-9.712203025817871
1.7294974022751603e+18,-0.08331192284822464,-0.06615857034921646,-9.694134712219238
1.7294974022841605e+18,-0.05747572332620621,-0.041920486837625504,-9.76222038269043
1.7294974022901606e+18,-0.0010813127737492323,0.008809953927993774,-9.742067337036133
1.7294974022991608e+18,-0.022173777222633362,-0.03641315549612045,-9.646568298339844
1.729497402308161e+18,0.00564426789060235,0.03644146770238876,-9.618742942810059
1.7294974023171612e+18,0.06070856750011444,-0.050605565309524536,-9.664024353027344
1.7294974023231613e+18,-0.002468171762302518,-0.015302474610507488,-9.74488639831543
1.7294974023321615e+18,0.013427792116999626,0.017207179218530655,-9.72608757019043
1.7294974023411617e+18,-0.020605649799108505,-0.007474557496607304,-9.750650405883789
1.729497402350162e+18,-0.008468913845717907,-0.020138993859291077,-9.751008987426758
1.729497402356162e+18,0.04194316267967224,0.06394360959529877,-9.641566276550293
1.7294974023651622e+18,0.11112481355667114,-0.013905826956033707,-9.691728591918945
1.7294974023741624e+18,-0.09229599684476852,-0.00874081626534462,-9.66772747039795
1.7294974023801626e+18,0.019841328263282776,-0.001354661537334323,-9.679179191589355
1.7294974023891628e+18,0.10496364533901215,-0.007285112515091896,-9.600074768066406
1.729497402398163e+18,0.035982392728328705,-0.09184513986110687,-9.712203979492188
1.7294974024071631e+18,-0.011813260614871979,-0.029028093442320824,-9.66722583770752
1.7294974024161633e+18,0.03153098374605179,-0.026322394609451294,-9.68244457244873
1.7294974024251635e+18,0.0038725687190890312,0.0054922583512961864,-9.624109268188477
1.7294974024341637e+18,-0.033883772790431976,-0.08302535861730576,-9.531401634216309
1.7294974024401638e+18,0.005026572849601507,-0.0412781648337841,-9.572768211364746
1.729497402449164e+18,-0.0016976232873275876,0.057629115879535675,-9.624000549316406
1.7294974024581642e+18,0.09560728073120117,0.051667504012584686,-9.661792755126953
1.7294974024671644e+18,0.021640580147504807,-0.0064203632064163685,-9.687944412231445
1.7294974024761646e+18,-0.0526706725358963,0.004473247565329075,-9.603628158569336
1.7294974024851648e+18,-0.021962419152259827,0.0013428442180156708,-9.618670463562012
1.729497402491165e+18,-0.042137011885643005,-0.12209384888410568,-9.589017868041992
1.729497402500165e+18,-0.10171634703874588,0.02228865586221218,-9.70845890045166
1.7294974025091653e+18,0.0792866125702858,-0.032505910843610764,-9.681129455566406
1.7294974025181655e+18,0.05031845346093178,-0.0818580836057663,-9.6825532913208
1.7294974025271657e+18,-0.011334937065839767,-0.04201047867536545,-9.622081756591797
1.729497402536166e+18,0.09774361550807953,-0.02389943040907383,-9.582137107849121
1.729497402545166e+18,0.02568858489394188,-0.03138706833124161,-9.582236289978027
1.7294974025511662e+18,0.012463029474020004,-0.0366511233150959,-9.602163314819336
1.7294974025601664e+18,-0.03713265806436539,0.014592799358069897,-9.564903259277344
1.7294974025691666e+18,0.022347543388605118,0.010437254793941975,-9.480352401733398
1.7294974025781668e+18,0.009888826869428158,-0.01852923445403576,-9.627896308898926
1.729497402584167e+18,0.06626381725072861,0.008767985738813877,-9.652470588684082
1.729497402593167e+18,0.0006331504555419087,0.10187050700187683,-9.584256172180176
1.7294974026021673e+18,0.02526756376028061,-0.099698506295681,-9.60008716583252
1.7294974026081674e+18,-0.02153635397553444,-0.006931394804269075,-9.64067268371582
1.7294974026171676e+18,-0.0774504691362381,0.07317179441452026,-9.604331016540527
1.7294974026261678e+18,0.036015383899211884,0.014381597749888897,-9.497383117675781
1.729497402635168e+18,-0.02780952677130699,0.018286071717739105,-9.539904594421387
1.7294974026411681e+18,-0.0012133399723097682,-0.028612442314624786,-9.554396629333496
1.7294974026531684e+18,-0.02541504241526127,-0.01625003293156624,-9.564485549926758
1.7294974026591685e+18,0.0038962303660809994,-0.05836855620145798,-9.629570960998535
1.7294974026681687e+18,-0.01277957297861576,0.015837667509913445,-9.560681343078613
1.729497402677169e+18,-0.03145141154527664,0.006982643157243729,-9.570191383361816
1.729497402686169e+18,0.013411249034106731,-0.06902579218149185,-9.506752967834473
1.7294974026921692e+18,-0.04537912830710411,-0.07596756517887115,-9.543747901916504
1.7294974027011694e+18,-0.03910566866397858,-0.0209308173507452,-9.594013214111328
1.7294974027071695e+18,0.022840576246380806,0.07131431996822357,-9.55201530456543
1.7294974027161697e+18,-0.02202608808875084,-0.04758736491203308,-9.582257270812988
1.72949740272517e+18,0.006646501831710339,0.06951866298913956,-9.555488586425781
1.72949740273417e+18,0.027217837050557137,0.010919889435172081,-9.516914367675781
1.7294974027431703e+18,0.0016207630978897214,-0.023310262709856033,-9.586166381835938
1.7294974027521705e+18,0.02941668964922428,0.012162750586867332,-9.574929237365723
1.7294974027581706e+18,-0.01482317503541708,0.03091098554432392,-9.52212142944336
1.7294974027671708e+18,0.08376412093639374,0.02574288286268711,-9.626864433288574
1.729497402776171e+18,0.05502963811159134,0.03757638484239578,-9.564358711242676
1.7294974027851712e+18,0.047307901084423065,0.035997889935970306,-9.608601570129395
1.7294974027941714e+18,-0.03817391023039818,0.06555008143186569,-9.561893463134766
1.7294974028001715e+18,-0.07586207240819931,0.010587053373456001,-9.53858470916748
1.7294974028091717e+18,-0.08204059302806854,0.001331967767328024,-9.629877090454102
1.729497402818172e+18,0.07806235551834106,-0.01406607311218977,-9.610005378723145
1.729497402827172e+18,0.0305388942360878,-0.03277169167995453,-9.609268188476562
1.7294974028331722e+18,-0.004624180495738983,-0.04276017099618912,-9.45644474029541
1.7294974028421724e+18,0.09221263229846954,-0.0715014636516571,-9.502013206481934
1.7294974028511726e+18,0.03995350003242493,-0.021989470347762108,-9.553646087646484
1.7294974028571727e+18,-0.017571406438946724,0.0018694184254854918,-9.549491882324219
1.729497402866173e+18,0.033823080360889435,-0.028631407767534256,-9.547775268554688
1.729497402872173e+18,0.07654391974210739,0.09273915737867355,-9.550655364990234
1.7294974028811732e+18,-0.06521207839250565,0.0144722331315279,-9.470966339111328
1.7294974028901734e+18,-0.011594889685511589,0.038124438375234604,-9.491371154785156
1.7294974028991736e+18,-0.045922014862298965,0.02667732536792755,-9.537403106689453
1.7294974029081738e+18,-0.009711511433124542,0.04338902235031128,-9.490647315979004
1.729497402917174e+18,-0.04602353274822235,0.027886804193258286,-9.55316162109375
1.7294974029231741e+18,0.0035308862570673227,-0.02295752428472042,-9.468027114868164
1.7294974029321743e+18,0.01295826118439436,-0.07618191093206406,-9.555298805236816
1.7294974029411745e+18,0.0003668528515845537,0.021395862102508545,-9.49239444732666
1.7294974029501747e+18,-0.014611675404012203,0.005387528799474239,-9.542792320251465
1.729497402959175e+18,0.006124403793364763,0.03471054136753082,-9.507559776306152
1.729497402965175e+18,0.09686725586652756,0.016888657584786415,-9.527923583984375
1.7294974029741752e+18,0.011590009555220604,0.049682147800922394,-9.496941566467285
1.7294974029831754e+18,-0.04828638955950737,0.02076953463256359,-9.613719940185547
1.7294974029891756e+18,0.07526325434446335,0.00873632449656725,-9.550090789794922
1.7294974029981757e+18,-0.04015560820698738,-0.10478344559669495,-9.44184398651123
1.729497403007176e+18,-0.03390275686979294,0.010692061856389046,-9.468376159667969
1.729497403016176e+18,-0.0034611187875270844,0.015795543789863586,-9.4572172164917
1.7294974030221763e+18,-0.036903977394104004,0.0415884405374527,-9.516305923461914
1.7294974030311764e+18,-0.06538420915603638,0.022500989958643913,-9.421250343322754
1.7294974030401766e+18,-0.01519252359867096,0.01680690236389637,-9.481584548950195
1.7294974030461768e+18,-0.012861775234341621,0.0013928847620263696,-9.536364555358887
1.729497403055177e+18,-0.006765851750969887,0.015199245885014534,-9.5549898147583
1.7294974030641772e+18,-0.007729887031018734,-0.06901119649410248,-9.508062362670898
1.7294974030701773e+18,-0.03510935604572296,-0.0485970713198185,-9.547609329223633
1.7294974030791775e+18,0.03168827295303345,0.009396396577358246,-9.418549537658691
1.7294974030881777e+18,-0.04728081449866295,-0.13424822688102722,-9.40481185913086
1.7294974030971779e+18,0.027212057262659073,0.02432541362941265,-9.446950912475586
1.729497403106178e+18,0.07374410331249237,0.002481976058334112,-9.46484661102295
1.7294974031121782e+18,0.09564147889614105,-0.036532994359731674,-9.442093849182129
1.7294974031211784e+18,0.028888536617159843,-0.04590986296534538,-9.461338996887207
1.7294974031301786e+18,-0.04602089524269104,-0.004872141871601343,-9.473085403442383
1.7294974031391788e+18,-0.011639231815934181,-0.00961668323725462,-9.410715103149414
1.729497403145179e+18,-0.03349362313747406,-0.0038087216671556234,-9.368685722351074
1.729497403154179e+18,-0.0774117037653923,0.1289031207561493,-9.494088172912598
1.7294974031631793e+18,0.016653867438435555,0.012989829294383526,-9.5186128616333
1.7294974031691794e+18,0.02719697542488575,0.028127381578087807,-9.475101470947266
1.7294974031781796e+18,0.0550554059445858,-0.04091600701212883,-9.498396873474121
1.7294974031871798e+18,-0.05473526939749718,-0.02581801265478134,-9.509588241577148
1.72949740319618e+18,0.06024046242237091,-0.01974092423915863,-9.538830757141113
1.72949740320218e+18,-0.012400533072650433,0.038807954639196396,-9.440873146057129
1.7294974032111803e+18,0.03542160242795944,-0.06659498065710068,-9.461838722229004
1.7294974032171804e+18,0.021122468635439873,0.004452947527170181,-9.419493675231934
1.7294974032261806e+18,0.044397056102752686,-0.03201579675078392,-9.529253959655762
1.7294974032351808e+18,-0.06945451349020004,0.07792450487613678,-9.383993148803711
1.729497403244181e+18,-0.0405910462141037,-0.03023568168282509,-9.414166450500488
1.729497403250181e+18,0.006767675280570984,0.007952101528644562,-9.383798599243164
1.7294974032591813e+18,-0.038651712238788605,-0.06894227862358093,-9.448678970336914
1.7294974032681815e+18,-0.042389191687107086,0.017978228628635406,-9.465551376342773
1.7294974032771817e+18,-0.040565770119428635,-0.11675944179296494,-9.432065963745117
1.7294974032831818e+18,0.0049081826582551,-0.06708883494138718,-9.507513999938965
1.729497403292182e+18,0.00676463870331645,0.03199026361107826,-9.420110702514648
1.7294974033011822e+18,-0.01945618912577629,0.019525442272424698,-9.463984489440918
1.7294974033101824e+18,0.0012480078730732203,0.05625852942466736,-9.372260093688965
1.7294974033191826e+18,-0.052724238485097885,-0.03516586869955063,-9.495837211608887
1.7294974033251827e+18,0.04479523003101349,-0.024568920955061913,-9.446932792663574
1.729497403334183e+18,0.03621012717485428,-0.018884040415287018,-9.485812187194824
1.729497403343183e+18,0.007586079183965921,-0.06796108931303024,-9.409958839416504
1.7294974033521833e+18,-0.03851228579878807,-0.01144496351480484,-9.402091026306152
1.7294974033581834e+18,0.044446785002946854,-0.026375168934464455,-9.518911361694336
1.7294974033671836e+18,-0.003590318374335766,0.05578834190964699,-9.464795112609863
1.7294974033761838e+18,-0.01841503195464611,0.08053014427423477,-9.466653823852539
1.729497403385184e+18,-0.04544620215892792,-0.03786572813987732,-9.431092262268066
1.7294974033911841e+18,-0.02957785129547119,0.053674545139074326,-9.476399421691895
1.7294974034001843e+18,-0.015398160554468632,0.017433280125260353,-9.39555549621582
1.7294974034091845e+18,0.04386710748076439,0.03916792944073677,-9.375370979309082
1.7294974034181847e+18,-0.00708448700606823,0.01899677701294422,-9.358555793762207
1.729497403427185e+18,0.023023109883069992,0.03616459295153618,-9.49173355102539
1.729497403433185e+18,-0.04495454207062721,0.00925031304359436,-9.417673110961914
1.7294974034421852e+18,0.014679396525025368,-0.0453355573117733,-9.481818199157715
1.7294974034511854e+18,-0.016546044498682022,0.06905963271856308,-9.460437774658203
1.7294974034571855e+18,-0.05411387234926224,-0.019887775182724,-9.413799285888672
1.7294974034661857e+18,-0.04502677917480469,-0.036137502640485764,-9.513806343078613
1.7294974034721859e+18,0.0037715148646384478,-0.03913136571645737,-9.46502685546875
1.729497403481186e+18,0.026872005313634872,-0.04996902123093605,-9.444573402404785
1.7294974034901862e+18,0.012163524515926838,-0.02387405000627041,-9.348420143127441
1.7294974034961864e+18,0.06471787393093109,0.06082891300320625,-9.41525650024414
1.7294974035051866e+18,0.09330497682094574,-0.06853526830673218,-9.43413257598877
1.7294974035141868e+18,-0.009588689543306828,-0.06812428683042526,-9.515260696411133
1.729497403520187e+18,-0.0036121977027505636,0.0873873233795166,-9.480143547058105
1.729497403529187e+18,-0.024107422679662704,-0.09007089585065842,-9.479823112487793
1.7294974035351872e+18,-0.018043288961052895,0.008610128425061703,-9.38894271850586
1.7294974035441874e+18,0.08159336447715759,-0.05192817747592926,-9.461331367492676
1.7294974035531876e+18,-0.025402788072824478,-0.03844958171248436,-9.343265533447266
1.7294974035591877e+18,-0.07749725878238678,0.06331085413694382,-9.37153148651123
1.729497403568188e+18,-0.0074799382127821445,0.02321288362145424,-9.263514518737793
1.729497403577188e+18,0.08630023151636124,-0.024136995896697044,-9.310622215270996
1.7294974035861883e+18,-0.08051368594169617,-0.00635918602347374,-9.220675468444824
1.7294974035921884e+18,0.04467637836933136,0.08691535890102386,-9.277730941772461
1.7294974036011886e+18,-0.017858363687992096,-0.06857563555240631,-9.277286529541016
1.7294974036101888e+18,-0.034090667963027954,0.035950858145952225,-9.157517433166504
1.729497403616189e+18,-0.04251360893249512,0.014721387065947056,-9.19629955291748
1.729497403625189e+18,-0.0425296425819397,-0.0046311370097100735,-9.148449897766113
1.7294974036341893e+18,-0.05924921855330467,-0.09968549013137817,-9.17485237121582
1.7294974036401894e+18,0.023453284054994583,0.03895062953233719,-9.095664024353027
1.7294974036491896e+18,0.0033169970847666264,-0.04212311655282974,-9.046428680419922
1.7294974036581898e+18,-0.08326320350170135,-0.008913403376936913,-9.051549911499023
1.72949740366419e+18,-0.058989085257053375,-0.00843295082449913,-9.07010555267334
1.7294974036731901e+18,-0.018497800454497337,0.0035588957834988832,-9.019036293029785
1.7294974036821903e+18,-0.020285408943891525,0.09822571277618408,-8.991944313049316
1.7294974036911905e+18,0.07215432822704315,-0.009621934965252876,-8.944317817687988
1.7294974036971907e+18,0.03716002032160759,-0.009342857636511326,-8.81255054473877
1.7294974037061908e+18,-0.03209928423166275,0.07022327929735184,-8.917190551757812
1.729497403712191e+18,0.05635591596364975,-0.0018528543878346682,-8.813055992126465
1.7294974037211912e+18,-0.10277047753334045,0.031849440187215805,-8.922202110290527
1.7294974037301914e+18,0.0018358684610575438,-0.048058681190013885,-8.774843215942383
1.7294974037361915e+18,-0.04500146582722664,0.017387310042977333,-8.79078483581543
1.7294974037451917e+18,-0.02110259421169758,0.033431462943553925,-8.771751403808594
1.729497403754192e+18,0.025530442595481873,0.028703905642032623,-8.770297050476074
1.729497403760192e+18,-0.025810586288571358,0.015132540836930275,-8.760875701904297
1.7294974037691922e+18,-0.03786945715546608,-0.047762177884578705,-8.69362735748291
1.7294974037781924e+18,0.017278287559747696,-0.08056662976741791,-8.596141815185547
1.7294974037841925e+18,-0.047874052077531815,-0.034713804721832275,-8.563861846923828
1.7294974037931927e+18,0.01071518287062645,-0.00027356797363609076,-8.649231910705566
1.729497403802193e+18,0.05845320224761963,0.004209551028907299,-8.683302879333496
1.729497403808193e+18,0.05120762810111046,0.06236559525132179,-8.606400489807129
1.7294974038171932e+18,-0.026749536395072937,-0.049368079751729965,-8.696672439575195
1.7294974038231933e+18,0.02654963918030262,-0.019892757758498192,-8.65726089477539
1.7294974038321935e+18,0.0490306057035923,-0.09522359818220139,-8.676796913146973
1.7294974038411937e+18,-0.006348683498799801,0.001394918654114008,-8.679537773132324
1.7294974038471939e+18,-0.09154824912548065,0.00851573795080185,-8.742327690124512
1.729497403856194e+18,-0.05611829832196236,0.02873312681913376,-8.766342163085938
1.7294974038651942e+18,0.011156459338963032,-0.025280676782131195,-8.805500030517578
1.7294974038711944e+18,0.01488326583057642,-0.03855923190712929,-8.77885627746582
1.7294974038801946e+18,-0.04307452589273453,-0.0706961527466774,-8.740516662597656
1.7294974038891948e+18,0.0650387555360794,-0.04422444477677345,-8.659150123596191
1.729497403895195e+18,0.02033977583050728,-0.04754146561026573,-8.80420970916748
1.729497403904195e+18,0.05415308102965355,-0.0336000919342041,-8.845270156860352
1.7294974039101952e+18,-0.0832880437374115,-0.03130881115794182,-8.846013069152832
1.7294974039191954e+18,0.02734789252281189,-0.010989710688591003,-13.98336410522461
1.7294974039281956e+18,-0.062345728278160095,0.0410369411110878,-15.796234130859375
1.7294974039341957e+18,-0.07081080973148346,0.007901407778263092,-16.11454200744629
1.729497403943196e+18,0.031249811872839928,-0.062193483114242554,-16.327495574951172
1.729497403952196e+18,-0.04229133948683739,0.08199753612279892,-16.318819046020508
1.7294974039581962e+18,-0.013105081394314766,-0.07139993458986282,-16.21404266357422
1.7294974039671964e+18,0.030077440664172173,0.019976679235696793,-16.1429500579834
1.7294974039761966e+18,-0.036835771054029465,-0.008029029704630375,-16.004337310791016
1.7294974039821967e+18,-0.08286663889884949,0.022977635264396667,-15.787825584411621
1.729497403991197e+18,-0.000588497961871326,0.06520204246044159,-15.698554039001465
1.729497404000197e+18,-0.0037506590597331524,0.04051899537444115,-15.550923347473145
1.7294974040091973e+18,0.0519159771502018,0.029588298872113228,-15.546905517578125
1.7294974040151974e+18,0.0031411228701472282,-0.0026426834519952536,-15.367898941040039
1.7294974040241976e+18,-0.07043756544589996,0.013888735324144363,-15.313467979431152
1.7294974040331978e+18,-0.02105758711695671,0.08063140511512756,-15.118855476379395
1.729497404042198e+18,0.018379928544163704,0.03443506732583046,-14.952747344970703
1.7294974040481981e+18,0.01593705825507641,-0.036877021193504333,-14.849291801452637
1.7294974040571983e+18,0.045354004949331284,-0.03412296622991562,-14.877599716186523
1.7294974040661985e+18,-0.0191543810069561,-0.07018399238586426,-14.765207290649414
1.7294974040751987e+18,0.005337909329682589,-0.0028431997634470463,-14.465800285339355
1.729497404084199e+18,0.021110981702804565,-0.02802409417927265,-14.489834785461426
1.7294974041021993e+18,0.05398639664053917,0.07084009796380997,-14.262198448181152
1.7294974041141996e+18,0.01558077335357666,-0.03331078961491585,-14.088432312011719
1.7294974041231997e+18,-0.01965313032269478,-0.03360392153263092,-13.904850959777832
1.7294974041291999e+18,-0.03434542194008827,-0.026619231328368187,-13.867180824279785
1.7294974041382e+18,0.0879761353135109,-0.009064075537025928,-13.860454559326172
1.7294974041472003e+18,0.021720126271247864,-0.041107650846242905,-13.816853523254395
1.7294974041532004e+18,0.04302302002906799,0.013875169679522514,-13.616569519042969
1.7294974041622006e+18,-0.0037940216716378927,-0.00906845647841692,-13.517921447753906
1.7294974041682007e+18,-0.0202671829611063,0.027523303404450417,-13.544027328491211
1.729497404177201e+18,-0.004233759827911854,-0.03319159895181656,-13.485977172851562
1.729497404186201e+18,-0.026024581864476204,-0.0063127088360488415,-13.402945518493652
1.7294974041922012e+18,-0.02306845411658287,-0.03313180431723595,-13.24799633026123
1.7294974042012014e+18,-0.08245767652988434,0.03238804638385773,-13.202692031860352
1.7294974042102016e+18,0.03076901286840439,0.026878442615270615,-13.115102767944336
1.7294974042162017e+18,0.04102787747979164,-0.00146564282476902,-13.055136680603027
1.729497404225202e+18,0.033237162977457047,0.012692946940660477,-12.883432388305664
1.729497404234202e+18,-0.02736751176416874,-0.052066605538129807,-12.86256217956543
1.7294974042432023e+18,0.005138946231454611,-0.08000151813030243,-12.805670738220215
1.7294974042492024e+18,0.06200933828949928,-0.0440095029771328,-12.793065071105957
1.7294974042582026e+18,0.015511383302509785,-0.024627864360809326,-12.657828330993652
1.7294974042672028e+18,-0.05651143938302994,0.060006409883499146,-12.674799919128418
1.729497404276203e+18,0.10976295173168182,-0.05204609036445618,-12.65241813659668
1.7294974042852032e+18,-0.08535318076610565,0.020943639799952507,-12.563675880432129
1.7294974042942034e+18,-0.0280210729688406,-0.057233136147260666,-12.432440757751465
1.7294974043032036e+18,-0.0295299980789423,0.06573716551065445,-12.48896312713623
1.7294974043122038e+18,0.022368846461176872,-0.08458979427814484,-12.380270957946777
1.729497404318204e+18,0.03685688227415085,0.07190030068159103,-12.32563304901123
1.729497404327204e+18,-0.016525348648428917,-0.003758458886295557,-12.257641792297363
1.7294974043362043e+18,-0.05321447551250458,0.03705664724111557,-12.131400108337402
1.7294974043422044e+18,-0.08647654205560684,0.05116572603583336,-12.085532188415527
1.7294974043512046e+18,0.004236741457134485,0.05048506334424019,-12.115620613098145
1.7294974043602048e+18,0.06269384175539017,-0.07228373736143112,-12.072439193725586
1.729497404369205e+18,-0.020451713353395462,0.044033098965883255,-12.0785551071167
1.729497404375205e+18,-0.018735628575086594,-0.0010191164910793304,-12.05065631866455
1.7294974043842053e+18,0.012795455753803253,0.06689809262752533,-11.989656448364258
1.7294974043932055e+18,0.02745680697262287,-0.050020482391119,-11.946351051330566
1.7294974044022057e+18,0.01939069852232933,-0.005211385898292065,-11.912191390991211
1.729497404411206e+18,0.031887900084257126,0.006753858644515276,-11.75418758392334
1.729497404417206e+18,-0.09222999215126038,0.05146466940641403,-11.822614669799805
1.7294974044262062e+18,0.07808198779821396,-0.019656626507639885,-11.7293701171875
1.7294974044352064e+18,-0.0003436855331528932,-0.024214189499616623,-11.69734001159668
1.7294974044412065e+18,-0.034055501222610474,-0.00041030312422662973,-11.603309631347656
1.7294974044502067e+18,0.053174521774053574,-0.037795133888721466,-11.617557525634766
1.729497404459207e+18,-0.008685877546668053,0.02076411060988903,-11.599676132202148
1.729497404468207e+18,0.05477293208241463,0.08535688370466232,-11.528726577758789
1.7294974044742072e+18,0.03665684163570404,-0.009370214305818081,-11.5200834274292
1.7294974044832074e+18,0.035260263830423355,0.017316995188593864,-11.522346496582031
1.7294974044922076e+18,-0.08028199523687363,0.04213930293917656,-11.42260456085205
1.7294974044982077e+18,-0.015567190945148468,-0.024744629859924316,-11.51275634765625
1.729497404507208e+18,0.03727110102772713,0.024511443451046944,-11.409150123596191
1.729497404516208e+18,0.027006682008504868,-0.01650017313659191,-11.354328155517578
1.7294974045252083e+18,-0.04171113669872284,-0.03431837260723114,-11.215667724609375
1.7294974045342085e+18,0.016741931438446045,-0.014625189825892448,-11.30105209350586
1.7294974045432087e+18,0.0129983089864254,0.026491714641451836,-11.275017738342285
1.729497404552209e+18,0.022629503160715103,-0.031076770275831223,-11.276076316833496
1.729497404561209e+18,-0.03902596980333328,0.041712436825037,-11.252188682556152
1.7294974045702093e+18,-0.0008132194634526968,-0.020075099542737007,-11.23866081237793
1.7294974045762094e+18,0.07395120710134506,0.009625166654586792,-11.177946090698242
1.7294974045882097e+18,0.02915787696838379,0.035615645349025726,-11.078709602355957
1.7294974045972099e+18,-0.03511950746178627,-0.05442596599459648,-11.11313533782959
1.72949740460621e+18,0.030723540112376213,0.0074654133059084415,-11.027398109436035
1.7294974046152102e+18,-0.008153724484145641,0.014480609446763992,-11.026841163635254
1.7294974046212104e+18,-0.033079393208026886,0.05871037021279335,-10.989550590515137
1.7294974046302106e+18,0.007166893221437931,-0.03065359592437744,-11.004873275756836
1.7294974046392108e+18,-0.0052850134670734406,0.02499145269393921,-10.997411727905273
1.729497404648211e+18,-0.037008900195360184,0.015000407584011555,-10.991232872009277
1.7294974046572111e+18,0.06634413450956345,-0.014188973233103752,-10.977408409118652
1.7294974046632113e+18,-0.004723646678030491,0.03226847946643829,-10.869132041931152
1.7294974046722115e+18,-0.09236861765384674,-0.05211718752980232,-10.869665145874023
1.7294974046812116e+18,0.020790429785847664,-0.08059094846248627,-10.766974449157715
1.7294974046872118e+18,0.021810755133628845,-0.024972805753350258,-10.911680221557617
1.729497404696212e+18,0.03953760862350464,-0.027249474078416824,-10.7853364944458
1.7294974047052122e+18,-0.007945609278976917,0.008298886939883232,-10.836429595947266
1.7294974047112123e+18,0.0003784577129408717,-0.021787941455841064,-10.82341194152832
1.7294974047202125e+18,0.04045715555548668,0.03370841592550278,-10.732416152954102
1.7294974047292127e+18,0.031093036755919456,-0.005711013916879892,-10.67574691772461
1.7294974047382129e+18,0.0010685264132916927,-0.037381529808044434,-10.748427391052246
1.729497404744213e+18,0.00981083046644926,0.00501850014552474,-10.779488563537598
1.7294974047532132e+18,-0.030392467975616455,-0.05287322774529457,-10.63690185546875
1.7294974047622134e+18,-0.016323287039995193,-0.0545138455927372,-10.742927551269531
1.7294974047682135e+18,-0.03728795051574707,0.06282880157232285,-10.648107528686523
1.7294974047772137e+18,0.02446180395781994,0.05332024022936821,-10.620898246765137
1.729497404786214e+18,0.05760211870074272,0.0546506866812706,-10.625395774841309
1.729497404792214e+18,0.01094434130936861,-0.009499493055045605,-10.597110748291016
1.7294974048012142e+18,-0.07844171673059464,-0.024853812530636787,-10.556556701660156
1.7294974048102144e+18,-0.020072080194950104,0.10365819185972214,-10.54055404663086
1.7294974048162145e+18,0.02589651569724083,0.015792543068528175,-10.53931999206543
1.7294974048252147e+18,0.04246796295046806,0.016225647181272507,-10.465782165527344
1.729497404834215e+18,0.06285697966814041,-0.059026677161455154,-10.479913711547852
1.729497404843215e+18,0.028203792870044708,-0.051142144948244095,-10.46105670928955
1.7294974048492152e+18,-0.02865584008395672,-0.0008310693665407598,-10.537825584411621
1.7294974048582154e+18,-0.0619443915784359,0.043663542717695236,-10.43260669708252
1.7294974048672156e+18,-0.013668670319020748,0.034384433180093765,-10.384937286376953
1.7294974048732157e+18,0.020438900217413902,0.11031409353017807,-10.547645568847656
1.729497404882216e+18,-0.013679390773177147,-0.006434681359678507,-10.538492202758789
1.7294974048912161e+18,-0.06049463897943497,0.03254416212439537,-10.472325325012207
1.7294974048972163e+18,-0.04448927193880081,-0.04261880740523338,-10.415629386901855
1.7294974049062164e+18,-0.02007509209215641,0.12944355607032776,-10.352500915527344
1.7294974049152166e+18,-0.001356748165562749,0.009452066384255886,-10.336641311645508
1.7294974049242168e+18,0.08042146265506744,-0.05089641734957695,-10.416581153869629
1.729497404930217e+18,0.04449550434947014,0.04279196262359619,-10.314172744750977
1.7294974049392172e+18,-0.003338085487484932,0.011455157771706581,-10.261091232299805
1.7294974049452173e+18,-0.021176520735025406,0.004058687016367912,-10.419665336608887
1.7294974049542175e+18,-0.01609310694038868,-0.00257952231913805,-10.352370262145996
1.7294974049632177e+18,-0.07030603289604187,0.02326018549501896,-10.301801681518555
1.7294974049722179e+18,-0.11824532598257065,-0.02132234536111355,-10.33065414428711
1.729497404978218e+18,-0.035461705178022385,-0.04332899674773216,-10.280060768127441
1.7294974049872182e+18,0.023072071373462677,-0.053408123552799225,-10.32242202758789
1.7294974049962184e+18,-0.0007851427653804421,-0.047638796269893646,-10.277212142944336
1.7294974050052186e+18,0.017288727685809135,-0.010069661773741245,-10.283138275146484
1.7294974050142188e+18,-0.02120027132332325,0.034117959439754486,-10.208765029907227
1.729497405020219e+18,-0.012635982595384121,-0.051891498267650604,-10.205571174621582
1.729497405029219e+18,0.032894566655159,0.018125921487808228,-10.175027847290039
1.7294974050382193e+18,-0.030405526980757713,-0.016825441271066666,-10.245813369750977
1.7294974050442194e+18,0.010272670537233353,-0.004902124870568514,-10.249281883239746
1.7294974050532196e+18,-0.005457812454551458,0.06091564521193504,-10.136600494384766
1.7294974050592197e+18,0.008669895119965076,-0.08364958316087723,-10.179593086242676
1.72949740506822e+18,0.046487078070640564,-0.08614014834165573,-10.199289321899414
1.72949740507722e+18,-0.018469225615262985,-0.042655956000089645,-10.209650993347168
1.7294974050862203e+18,-0.039703115820884705,0.02672777697443962,-10.179784774780273
1.7294974050922204e+18,-0.04322858154773712,0.054360274225473404,-10.094478607177734
1.7294974051012206e+18,0.037462182343006134,-0.01901855506002903,-10.168188095092773
1.7294974051102208e+18,0.03479260206222534,-0.10332246124744415,-10.083335876464844
1.729497405116221e+18,0.056579720228910446,0.07554978132247925,-10.114975929260254
1.729497405125221e+18,0.019536780193448067,-0.006739633623510599,-10.031240463256836
1.7294974051342213e+18,0.024727802723646164,0.0031478554010391235,-10.099602699279785
1.7294974051402214e+18,-0.04476483538746834,-0.011316409334540367,-10.083958625793457
1.7294974051492216e+18,0.008514510467648506,0.05548221617937088,-10.027769088745117
1.7294974051582218e+18,0.035937171429395676,-0.03398245573043823,-10.13663387298584
1.729497405164222e+18,0.027666853740811348,0.03291725739836693,-10.124261856079102
1.7294974051732221e+18,-0.08171889185905457,0.0001969636359717697,-10.081542015075684
1.7294974051792223e+18,0.04872993007302284,0.05118515342473984,-10.011114120483398
1.7294974051882225e+18,-0.028915008530020714,0.017696015536785126,-10.101301193237305
1.7294974051972227e+18,-0.0005610224325209856,0.0764680877327919,-9.98132038116455
1.7294974052032228e+18,-0.055025048553943634,-0.018880629912018776,-10.018716812133789
1.729497405212223e+18,0.042235180735588074,0.026306578889489174,-10.000744819641113
1.7294974052212232e+18,0.0438983328640461,-0.0015174876898527145,-9.979369163513184
1.7294974052302234e+18,0.04228193685412407,-0.026386335492134094,-9.996970176696777
1.7294974052362235e+18,0.029370121657848358,0.010029702447354794,-10.00538444519043
1.7294974052452237e+18,-0.033722177147865295,-0.03599994629621506,-10.016776084899902
1.7294974052512238e+18,0.04208073392510414,0.05766972526907921,-9.998930931091309
1.729497405260224e+18,0.02351423352956772,-0.019415613263845444,-9.96910285949707
1.7294974052692242e+18,-0.0079428656026721,-0.002936077304184437,-9.949467658996582
1.7294974052752243e+18,0.004667895380407572,-0.02813458815217018,-9.973458290100098
1.7294974052842245e+18,-0.09885285049676895,0.011276790872216225,-10.018942832946777
1.7294974052932247e+18,-0.09833782911300659,0.02938094176352024,-9.964495658874512
1.729497405302225e+18,-0.009598744101822376,-0.0563584603369236,-9.998443603515625
1.729497405311225e+18,-0.06815405189990997,0.07397623360157013,-9.914780616760254
1.7294974053172252e+18,0.003266547340899706,0.10059361159801483,-9.920364379882812
1.7294974053262254e+18,0.014304377138614655,-0.018601523712277412,-9.918302536010742
1.7294974053352256e+18,-0.029393743723630905,-0.04180489853024483,-9.932811737060547
1.7294974053442258e+18,-0.018188659101724625,-0.016212260350584984,-9.903332710266113
1.729497405350226e+18,0.045487988740205765,-0.022544320672750473,-9.890275001525879
1.729497405359226e+18,0.04239140450954437,-0.027822216972708702,-9.986274719238281
1.7294974053682263e+18,0.10006111115217209,0.0660981833934784,-9.958182334899902
1.7294974053772265e+18,0.07353676855564117,0.11817961186170578,-9.885836601257324
1.7294974053832266e+18,0.027350271120667458,-0.04408447816967964,-9.927668571472168
1.7294974053922268e+18,-0.03887327387928963,-0.05778423696756363,-9.756507873535156
1.729497405401227e+18,0.009808930568397045,0.0602913536131382,-9.925353050231934
1.7294974054102272e+18,0.017178544774651527,-0.047895707190036774,-9.906686782836914
1.7294974054192274e+18,0.10202290117740631,-0.09526190161705017,-9.893977165222168
1.7294974054252275e+18,0.029724756255745888,-0.031100640073418617,-9.821099281311035
1.7294974054342277e+18,-0.021789390593767166,0.01119675487279892,-9.892041206359863
1.729497405443228e+18,-0.014980493113398552,-0.00694816280156374,-9.86602783203125
1.729497405452228e+18,-0.05679526925086975,0.00715442281216383,-9.895833969116211
1.7294974054582282e+18,0.13237787783145905,0.00312506640329957,-9.759526252746582
1.7294974054672284e+18,0.009813208132982254,-0.055128034204244614,-9.91706371307373
1.7294974054762286e+18,-0.010514712892472744,0.026134461164474487,-9.781600952148438
1.7294974054822287e+18,-0.10483333468437195,0.06668505072593689,-9.765212059020996
1.729497405491229e+18,-0.010907270945608616,0.023928066715598106,-9.88155746459961
1.729497405500229e+18,-0.08812682330608368,0.01865479163825512,-9.8177490234375
1.7294974055092293e+18,0.0380130298435688,-0.029590386897325516,-9.861441612243652
1.7294974055182295e+18,0.03231046721339226,-0.049886975437402725,-9.913322448730469
1.7294974055242296e+18,0.021372411400079727,0.06156240403652191,-9.815643310546875
1.7294974055332298e+18,0.013620501384139061,-0.020518625155091286,-9.884657859802246
1.72949740554223e+18,-0.010472672991454601,0.011268608272075653,-9.827437400817871
1.7294974055512302e+18,-0.010612232610583305,-0.04666590690612793,-9.807952880859375
1.7294974055602304e+18,-0.018545780330896378,-0.03169774264097214,-9.810770988464355
1.7294974055692306e+18,0.03961019590497017,-0.018654441460967064,-9.805770874023438
1.7294974055752307e+18,0.036319367587566376,-0.033442169427871704,-9.78132438659668
1.729497405584231e+18,-0.014314924366772175,-0.015915483236312866,-9.884364128112793
1.729497405593231e+18,-0.05276264250278473,0.10542148351669312,-9.80846881866455
1.7294974055992312e+18,0.021623343229293823,-0.0057296776212751865,-9.84753704071045
1.7294974056082314e+18,-0.07650765031576157,0.022062143310904503,-9.801627159118652
1.7294974056172316e+18,-0.09156887233257294,-0.02414512261748314,-9.84707260131836
1.7294974056262318e+18,0.07196195423603058,-0.01880127750337124,-9.825886726379395
1.729497405632232e+18,0.045733656734228134,0.053023986518383026,-9.797511100769043
1.7294974056412321e+18,0.001245793653652072,-0.0032198186963796616,-9.765304565429688
1.7294974056472323e+18,-0.05787399411201477,-0.011802534572780132,-9.799586296081543
1.7294974056562324e+18,0.0026694079861044884,-0.02948356419801712,-9.798330307006836
1.7294974056652326e+18,-0.0018199190963059664,-0.026469867676496506,-9.76524829864502
1.7294974056712328e+18,0.005660045426338911,-0.016743799671530724,-9.8311185836792
1.729497405680233e+18,-0.006613170262426138,0.021006889641284943,-9.817208290100098
1.7294974056892332e+18,-0.023642709478735924,0.0011959582334384322,-9.793904304504395
1.7294974056982333e+18,0.016868142411112785,-0.0027114858385175467,-9.836697578430176
1.7294974057072335e+18,0.04626529663801193,0.07461241632699966,-9.828851699829102
1.7294974057132337e+18,0.041582439094781876,0.004231467843055725,-9.753433227539062
1.7294974057222339e+18,0.02225738763809204,-0.010205162689089775,-9.707450866699219
1.729497405731234e+18,0.007360943593084812,-0.017541280016303062,-9.78044605255127
1.7294974057372342e+18,0.04801829531788826,0.015105623751878738,-9.748703002929688
1.7294974057462344e+18,-0.032853029668331146,-0.006426908541470766,-9.803940773010254
1.7294974057522345e+18,0.02233121357858181,-0.004301783163100481,-9.750922203063965
1.7294974057612347e+18,-0.00896509550511837,0.007945473305881023,-9.650851249694824
1.729497405770235e+18,0.033001188188791275,0.01865052990615368,-9.810331344604492
1.729497405776235e+18,-0.039530619978904724,0.06127055734395981,-9.73851203918457
1.7294974057852352e+18,0.026338184252381325,0.04143852740526199,-9.753117561340332
1.7294974057942354e+18,0.02122219279408455,0.023975616320967674,-9.758316993713379
1.7294974058002355e+18,0.025743955746293068,0.03671963885426521,-9.712385177612305
1.7294974058092357e+18,-0.009141257032752037,0.030680319294333458,-9.71849250793457
1.729497405818236e+18,0.022740500047802925,-0.02069886587560177,-9.712044715881348
1.729497405824236e+18,-0.012560763396322727,0.10283118486404419,-9.763696670532227
1.7294974058332362e+18,-0.00010641178232617676,0.07164827734231949,-9.76274299621582
1.7294974058422364e+18,-0.030033864080905914,-0.07296926528215408,-9.730313301086426
1.7294974058482365e+18,-0.05614132061600685,-0.03954511880874634,-9.715964317321777
1.7294974058572367e+18,-0.014901863411068916,-0.04695604369044304,-9.764317512512207
1.729497405866237e+18,0.11117492616176605,-0.030455272644758224,-9.781023979187012
1.729497405875237e+18,-0.024561380967497826,-0.02978379651904106,-9.756049156188965
1.7294974058812372e+18,0.010173282586038113,0.05579341948032379,-9.786239624023438
1.7294974058902374e+18,0.034058406949043274,0.02557390369474888,-9.772421836853027
1.7294974058992376e+18,-0.05374934524297714,0.05886529013514519,-9.744831085205078
1.7294974059052378e+18,-0.029532313346862793,0.05200766772031784,-9.75583267211914
1.729497405914238e+18,-0.02364118956029415,0.07632964849472046,-9.725793838500977
1.7294974059232381e+18,-0.029093090444803238,0.0047457171604037285,-9.678995132446289
1.7294974059322383e+18,-0.00930715724825859,-0.016073597595095634,-9.753499984741211
1.7294974059382385e+18,-0.002831102116033435,0.018017202615737915,-9.741498947143555
1.7294974059472387e+18,-0.040267497301101685,0.02163323387503624,-9.802559852600098
1.7294974059562388e+18,-0.02842950075864792,0.04219531640410423,-9.812335014343262
1.729497405965239e+18,-0.02361200377345085,-0.0204688161611557,-9.927888870239258
1.7294974059712392e+18,0.016799667850136757,-0.028111552819609642,-9.830801010131836
1.7294974059802394e+18,-0.013729507103562355,0.020221078768372536,-9.825936317443848
1.7294974059862395e+18,0.08315496891736984,0.04167472571134567,-9.843229293823242
1.7294974059952397e+18,-0.004762503318488598,0.00038697829586453736,-9.886754989624023
1.72949740600424e+18,0.015549697913229465,-0.017031461000442505,-9.849513053894043
1.72949740601324e+18,-0.04225624352693558,0.00316479685716331,-9.903372764587402
1.7294974060192402e+18,0.001329599879682064,-0.046614497900009155,-9.78373908996582
1.7294974060282404e+18,0.06596259772777557,0.022402537986636162,-9.772444725036621
1.7294974060372406e+18,-0.019877944141626358,-0.02048495039343834,-9.847049713134766
1.7294974060432407e+18,-0.0533926859498024,-0.023101920261979103,-9.765267372131348
1.729497406052241e+18,0.003110678168013692,-0.07236884534358978,-9.799039840698242
1.729497406061241e+18,-0.013971407897770405,-0.059917669743299484,-9.803510665893555
1.7294974060702413e+18,0.005213839467614889,0.03706514090299606,-9.871872901916504
1.7294974060792415e+18,0.011455558240413666,0.03188350051641464,-9.853549003601074
1.7294974060852416e+18,-0.046348247677087784,0.01905370131134987,-9.83743667602539
1.7294974060942418e+18,-0.030337471514940262,-0.006279634311795235,-9.780858039855957
1.729497406103242e+18,0.058747511357069016,0.06711733341217041,-9.867826461791992
1.7294974061122422e+18,-0.02314445562660694,-0.025837542489171028,-9.769623756408691
1.7294974061182423e+18,-0.015325694344937801,-0.035290591418743134,-9.799270629882812
1.7294974061272425e+18,-0.005123293027281761,-0.009285110980272293,-9.749825477600098
1.7294974061362427e+18,0.03530154749751091,0.05634978786110878,-9.680132865905762
1.7294974061422428e+18,0.027750296518206596,-0.05553273856639862,-9.856274604797363
1.729497406151243e+18,-0.04527181386947632,0.055983733385801315,-9.712064743041992
1.7294974061602432e+18,-0.0339139848947525,-0.05557003989815712,-9.823564529418945
1.7294974061662433e+18,0.013612356968224049,0.006790383718907833,-9.818665504455566
1.7294974061752435e+18,0.09736094623804092,-0.019850915297865868,-9.742881774902344
1.7294974061842437e+18,-0.07104597985744476,0.059494275599718094,-9.783897399902344
1.7294974061902438e+18,-0.03273584321141243,0.04977704957127571,-9.78437328338623
1.729497406199244e+18,0.08138071000576019,-0.03713507205247879,-9.808761596679688
1.7294974062082442e+18,0.03452463448047638,-0.045752521604299545,-9.816692352294922
1.7294974062172444e+18,-0.021939720958471298,0.006277505774050951,-9.792974472045898
1.7294974062232445e+18,0.06080535426735878,-0.03563985973596573,-9.76249885559082
1.7294974062322447e+18,-0.026562843471765518,-0.035834938287734985,-9.816671371459961
1.729497406241245e+18,-0.09582091867923737,-0.043379031121730804,-9.805147171020508
1.729497406250245e+18,0.0296491589397192,-0.02095872163772583,-9.721118927001953
1.7294974062622454e+18,-0.03508521988987923,0.06144071742892265,-9.782021522521973
1.7294974062712456e+18,-0.013719446025788784,-0.01624194346368313,-9.712268829345703
1.7294974062802458e+18,-0.11514189094305038,0.027135955169796944,-9.74963665008545
1.729497406289246e+18,-0.03658100217580795,-0.029808105900883675,-9.74138355255127
1.7294974062982461e+18,-0.01591283269226551,0.060408007353544235,-9.73399829864502
1.7294974063042463e+18,-0.009507249109447002,-0.020899778231978416,-9.712397575378418
1.7294974063132465e+18,-0.022556379437446594,0.0029262832831591368,-9.765885353088379
1.7294974063222467e+18,-0.01737828738987446,0.002971491776406765,-9.752893447875977
1.7294974063282468e+18,-0.01230325922369957,0.041400473564863205,-9.64306640625
1.729497406337247e+18,-0.07334596663713455,0.08187223225831985,-9.820758819580078
1.7294974063462472e+18,-0.027352849021553993,-0.030862996354699135,-9.72214412689209
1.7294974063522473e+18,0.09311623126268387,0.027280522510409355,-9.763603210449219
1.7294974063612475e+18,0.059911906719207764,0.015192617662250996,-9.723429679870605
1.7294974063702477e+18,0.006547858938574791,-0.09537810832262039,-9.783004760742188
1.7294974063792479e+18,-0.04409252107143402,0.013738999143242836,-9.731803894042969
1.729497406388248e+18,0.025905124843120575,0.0634760707616806,-9.713151931762695
1.7294974063942482e+18,0.04499495029449463,-0.02936260588467121,-9.686471939086914
1.7294974064032484e+18,0.0428355410695076,-0.07199788093566895,-9.774343490600586
1.7294974064122486e+18,-0.0001628220488782972,-0.0010009629186242819,-9.681883811950684
1.7294974064212488e+18,0.03295235335826874,-0.026596147567033768,-9.740381240844727
1.729497406430249e+18,0.10831192135810852,-0.025995107367634773,-9.802650451660156
1.7294974064422492e+18,-0.02182730659842491,0.0523855984210968,-9.775617599487305
1.7294974064512494e+18,0.06293770670890808,-0.003604255383834243,-9.693742752075195
1.7294974064572495e+18,-0.006454865448176861,0.03267461434006691,-9.773185729980469
1.7294974064662497e+18,0.029759908095002174,-0.010019023902714252,-9.703840255737305
1.72949740647525e+18,-0.04540320485830307,-0.029699014499783516,-9.760992050170898
1.72949740648425e+18,-0.03374756500124931,-0.0957086905837059,-9.697386741638184
1.7294974064932503e+18,0.01921924576163292,-0.00831145141273737,-9.79988956451416
1.7294974065022505e+18,0.020620375871658325,0.013400533236563206,-9.701412200927734
1.7294974065082506e+18,-0.033067431300878525,-0.040056392550468445,-9.748129844665527
1.7294974065172508e+18,0.013347173109650612,-0.038278523832559586,-9.708962440490723
1.729497406526251e+18,-0.07427502423524857,0.09797637909650803,-9.804098129272461
1.7294974065352512e+18,0.02332933433353901,-0.04725189134478569,-9.689533233642578
1.7294974065442514e+18,0.026137512177228928,0.038386452943086624,-9.773810386657715
1.7294974065532516e+18,-0.00776573596522212,-0.008527709171175957,-9.684334754943848
1.7294974065622518e+18,0.030873622745275497,0.010420070961117744,-9.773406982421875
1.729497406571252e+18,-0.012763026170432568,0.050380609929561615,-9.768366813659668
1.7294974065832522e+18,-0.10449165105819702,-0.008065761998295784,-9.797930717468262
1.7294974065922524e+18,0.019003739580512047,-0.04054585471749306,-9.743281364440918
1.7294974065982525e+18,0.03129197284579277,-0.013761005364358425,-9.727452278137207
1.7294974066072527e+18,0.011395834386348724,-0.0028703389689326286,-9.7335844039917
1.729497406616253e+18,-0.03344031795859337,-0.042273350059986115,-9.803633689880371
1.729497406625253e+18,0.026667634025216103,0.07996118068695068,-9.79477310180664
1.7294974066342533e+18,0.04121345654129982,0.0896463468670845,-9.735886573791504
1.7294974066432535e+18,-0.006856531370431185,0.0031848978251218796,-9.714140892028809
1.7294974066522537e+18,-0.04278329387307167,-0.006527962628751993,-9.693867683410645
1.729497406661254e+18,0.0070201982744038105,-0.0429481640458107,-9.74621868133545
1.729497406670254e+18,0.0301387757062912,0.028230400756001472,-9.756797790527344
1.7294974066792543e+18,-0.006095639429986477,0.06710872799158096,-9.674311637878418
1.7294974066882545e+18,0.061569202691316605,0.07601670920848846,-9.809948921203613
1.7294974066972547e+18,0.0061878724955022335,0.00037239340599626303,-9.665788650512695
1.7294974067062548e+18,0.002023401902988553,-0.010863049887120724,-9.764817237854004
1.729497406712255e+18,0.002918305341154337,0.0027915507089346647,-9.728038787841797
1.7294974067212552e+18,0.011936226859688759,-0.028810778632760048,-9.766366958618164
1.7294974067302554e+18,-0.06858372688293457,-0.04125450924038887,-9.74658203125
1.7294974067392556e+18,0.05073688179254532,0.026591245085000992,-9.709092140197754
1.7294974067482557e+18,0.0229654461145401,0.012700679711997509,-9.784037590026855
1.729497406757256e+18,-0.06883017718791962,-0.04817560315132141,-9.683762550354004
1.729497406766256e+18,0.001485908986069262,-0.010498619638383389,-9.74321460723877
1.7294974067722563e+18,0.019372299313545227,0.017274552956223488,-9.719949722290039
1.7294974067842565e+18,0.006638869643211365,0.03203743323683739,-9.706955909729004
1.7294974067902566e+18,-0.057635217905044556,-0.032352399080991745,-9.765543937683105
1.7294974067992568e+18,0.009319559670984745,0.008900375105440617,-9.75918197631836
1.729497406808257e+18,-0.020876210182905197,-0.011472266167402267,-9.714052200317383
1.7294974068172572e+18,-0.038083989173173904,-0.02294808067381382,-9.758625030517578
1.7294974068262574e+18,0.059829600155353546,-0.00834511686116457,-9.723071098327637
1.7294974068352576e+18,-0.03981601074337959,-0.020154347643256187,-9.669981002807617
1.7294974068442578e+18,-0.014061500318348408,0.06243545934557915,-9.6585693359375
1.729497406853258e+18,-0.06098101660609245,-0.02517480030655861,-9.750723838806152
1.729497406859258e+18,0.06539010256528854,0.025547608733177185,-9.735507011413574
1.7294974068682583e+18,0.00214871927164495,-0.007985517382621765,-9.736334800720215
1.7294974068772585e+18,-0.01229440700262785,-0.01568153314292431,-9.678299903869629
1.7294974068862587e+18,0.01810135506093502,0.03671484813094139,-9.69189453125
1.7294974068922588e+18,-0.007598471362143755,0.05381355807185173,-9.753914833068848
1.729497406901259e+18,-0.024966290220618248,0.0252249613404274,-9.656314849853516
1.7294974069102592e+18,-0.022133145481348038,0.025675009936094284,-9.819354057312012
1.7294974069192594e+18,0.026597244665026665,-0.015046686865389347,-9.712028503417969
1.7294974069282596e+18,0.006033708341419697,-0.03682898357510567,-9.681997299194336
1.7294974069372598e+18,-0.01552608422935009,0.004687023814767599,-9.694689750671387
1.72949740694326e+18,-0.0888020396232605,-0.05571094900369644,-9.67705249786377
1.7294974069552602e+18,0.040318381041288376,-0.01831209845840931,-9.711862564086914
1.7294974069672604e+18,0.03510188311338425,-0.007570086978375912,-9.793397903442383
1.7294974069792607e+18,-0.04139281436800957,-0.038098931312561035,-9.749757766723633
1.7294974069882609e+18,0.05471474304795265,0.057690851390361786,-9.743388175964355
1.729497406997261e+18,0.03246789053082466,-0.009511345997452736,-9.744548797607422
1.7294974070062612e+18,-0.06264563649892807,-0.0028225560672581196,-9.75263500213623
1.7294974070152614e+18,-0.008662528358399868,0.0036160596646368504,-9.813377380371094
1.7294974070212616e+18,-0.02834477089345455,0.000737324240617454,-9.782731056213379
1.7294974070302618e+18,-0.013811777345836163,0.053892798721790314,-9.765000343322754
1.729497407039262e+18,-0.011274139396846294,-0.023711474612355232,-9.761067390441895
1.7294974070482621e+18,-0.027796262875199318,0.04571576416492462,-9.86974811553955
1.7294974070572623e+18,-0.050413768738508224,0.0026086480356752872,-9.72663688659668
1.7294974070662625e+18,-0.04902452602982521,0.04054237902164459,-9.783736228942871
1.7294974070752627e+18,-0.05690724775195122,-0.04684221372008324,-9.707576751708984
1.729497407084263e+18,-0.07226112484931946,0.030046449974179268,-9.815709114074707
1.729497407090263e+18,-0.0010149111039936543,0.010123925283551216,-9.736763000488281
1.7294974070992632e+18,-0.04290344566106796,-0.06491292268037796,-9.721951484680176
1.7294974071082634e+18,0.010038108564913273,-0.03277834504842758,-9.702792167663574
1.7294974071172636e+18,-0.006478504743427038,0.03576279804110527,-9.7828950881958
1.7294974071262638e+18,-0.0030045383609831333,0.06379758566617966,-9.781858444213867
1.729497407135264e+18,-0.012718403711915016,-0.005136711057275534,-9.714502334594727
1.7294974071442642e+18,0.0239003486931324,0.007298870012164116,-9.771722793579102
1.7294974071532644e+18,-0.01766800880432129,0.037621986120939255,-9.745454788208008
1.7294974071622646e+18,-0.06240793690085411,-0.06371620297431946,-9.848526954650879
1.7294974071712648e+18,-0.04040788859128952,-0.06324858963489532,-9.757853507995605
1.729497407180265e+18,-0.03340447321534157,0.011100713163614273,-9.798876762390137
1.7294974071892652e+18,-0.026684999465942383,-0.030585860833525658,-9.747414588928223
1.7294974071982653e+18,0.006380010396242142,0.020224256440997124,-9.762282371520996
1.7294974072072655e+18,0.019240057095885277,-0.010977049358189106,-9.77409839630127
1.7294974072162657e+18,-0.002117566065862775,-0.07144928723573685,-9.821785926818848
1.7294974072222659e+18,-0.03571191057562828,0.015128007158637047,-9.742080688476562
1.729497407231266e+18,0.009062329307198524,0.07514002919197083,-9.76287841796875
1.7294974072402662e+18,0.06626322865486145,-0.0012679696083068848,-9.774517059326172
1.7294974072522665e+18,0.04907871410250664,-0.016477394849061966,-9.736720085144043
1.7294974072612667e+18,0.011148246936500072,-0.038499534130096436,-9.730461120605469
1.729497407270267e+18,0.029079455882310867,0.005058856215327978,-9.80420207977295
1.729497407279267e+18,-0.008950328454375267,0.016640393063426018,-9.777318000793457
1.7294974072882673e+18,-0.0055870311334729195,0.04113278165459633,-9.771516799926758
1.7294974072972675e+18,-0.06877121329307556,-0.009670727886259556,-9.679347038269043
1.7294974073062676e+18,0.023748038336634636,-0.0038752974942326546,-9.72155475616455
1.7294974073152678e+18,-0.05229023098945618,-0.0019282883731648326,-9.76387882232666
1.729497407324268e+18,0.010599789209663868,-0.055638160556554794,-9.725990295410156
1.7294974073332682e+18,0.007737104780972004,0.027300268411636353,-9.768796920776367
1.7294974073422684e+18,-0.01473899744451046,0.007902908138930798,-9.77351188659668
1.7294974073512686e+18,0.041660550981760025,-0.04160723462700844,-9.77659797668457
1.7294974073602688e+18,0.01673523522913456,0.01105832401663065,-9.7371187210083
1.729497407372269e+18,0.07810527831315994,0.03065788373351097,-9.754504203796387
1.7294974073812692e+18,-0.05820845440030098,0.044968657195568085,-9.76809310913086
1.7294974073902694e+18,-0.03764066472649574,0.04930763691663742,-9.685261726379395
1.7294974073992696e+18,-0.0851348489522934,0.008307553827762604,-9.69919490814209
1.7294974074082698e+18,-0.05983523651957512,-0.0018628982361406088,-9.768218040466309
1.72949740741727e+18,0.04594788700342178,-0.0001533959584776312,-9.774402618408203
1.7294974074262702e+18,0.016127148643136024,-0.04075349494814873,-9.716534614562988
1.7294974074322703e+18,-0.016455864533782005,0.07451694458723068,-9.787053108215332
1.7294974074412705e+18,0.02261265181005001,-0.02310372330248356,-9.702056884765625
1.7294974074502707e+18,0.034553829580545425,0.030731499195098877,-9.798407554626465
1.729497407459271e+18,0.009144408628344536,-0.05268861725926399,-9.778848648071289
1.729497407468271e+18,0.026645861566066742,0.03568315878510475,-9.88864517211914
1.7294974074772713e+18,-0.02650141716003418,0.0185657050460577,-9.821196556091309
1.7294974074862715e+18,-0.046378035098314285,0.01710606925189495,-9.80273151397705
1.7294974074922716e+18,0.0015787463635206223,0.07946274429559708,-9.721138000488281
1.7294974075012718e+18,0.01628248207271099,-0.04532190412282944,-9.789637565612793
1.729497407510272e+18,-0.023396169766783714,-0.019794555380940437,-9.681463241577148
1.729497407516272e+18,0.0002932135830633342,-0.04864967614412308,-9.761988639831543
1.7294974075252723e+18,-0.0015763711417093873,0.04658205434679985,-9.831873893737793
1.7294974075312724e+18,0.018364956602454185,0.03596842288970947,-9.824270248413086
1.7294974075402726e+18,0.0082994494587183,-0.0351703017950058,-9.799859046936035
1.7294974075492728e+18,-0.07236471027135849,-0.07501430809497833,-9.722074508666992
1.729497407558273e+18,0.03773773834109306,-0.03828397020697594,-9.717354774475098
1.7294974075642732e+18,0.08048507571220398,0.06799206137657166,-9.765172958374023
1.7294974075732733e+18,-0.01236338447779417,-0.020353078842163086,-9.787915229797363
1.7294974075822735e+18,0.028233788907527924,-0.015271911397576332,-9.781539916992188
1.7294974075882737e+18,-0.05014047399163246,-0.05960932746529579,-9.815056800842285
1.7294974075972739e+18,-0.016855359077453613,-0.024507874622941017,-9.76525592803955
1.729497407606274e+18,0.04133359715342522,-7.848691893741488e-06,-9.805084228515625
1.7294974076122742e+18,0.04052357375621796,0.020195623859763145,-9.663066864013672
1.7294974076212744e+18,-0.035535167902708054,0.012308564968407154,-9.757938385009766
1.7294974076302746e+18,-0.0008072860655374825,-0.006607207469642162,-9.816512107849121
1.7294974076392748e+18,0.01843325048685074,-0.04290454462170601,-9.780424118041992
1.729497407645275e+18,-0.03497307375073433,-0.02229607105255127,-9.837275505065918
1.729497407654275e+18,0.06228652969002724,0.059918925166130066,-9.757874488830566
1.7294974076632753e+18,-0.015133778564631939,-0.10408656299114227,-9.768176078796387
1.7294974076692754e+18,0.06144401431083679,0.018909834325313568,-9.774065017700195
1.7294974076782756e+18,-0.038361262530088425,0.023235023021697998,-9.804949760437012
1.7294974076872758e+18,-0.02549034170806408,0.017623022198677063,-9.750080108642578
1.729497407693276e+18,-0.02439732663333416,-0.104935422539711,-9.834587097167969
1.729497407702276e+18,0.03676057979464531,-0.060187265276908875,-9.868093490600586
1.7294974077112763e+18,0.05754956603050232,-0.08291204273700714,-9.819195747375488
1.7294974077202765e+18,0.07109347730875015,-0.0007884429069235921,-9.777098655700684
1.7294974077292767e+18,0.017737338319420815,0.055529121309518814,-9.780587196350098
1.7294974077352768e+18,0.009206191636621952,-0.027948370203375816,-9.775960922241211
1.729497407744277e+18,-0.042645566165447235,-0.016793759539723396,-9.76717472076416
1.729497407750277e+18,0.019516849890351295,0.04073501378297806,-9.767752647399902
1.7294974077592773e+18,-0.010687318630516529,-0.026284774765372276,-9.817286491394043
1.7294974077682775e+18,-0.048618678003549576,0.03174638748168945,-9.795893669128418
1.7294974077772777e+18,-0.005969599355012178,-0.014055031351745129,-9.767560958862305
1.7294974077832778e+18,0.04882889986038208,-0.046627227216959,-9.840535163879395
1.729497407792278e+18,-0.07816390693187714,0.03200140967965126,-9.835735321044922
1.7294974078012782e+18,-0.02885029837489128,0.012322216294705868,-9.757742881774902
1.7294974078102784e+18,-0.013453409075737,-0.046359408646821976,-9.758591651916504
1.7294974078192786e+18,0.04492216929793358,-0.009763061068952084,-9.805453300476074
1.7294974078282788e+18,0.05764017999172211,-0.04639424383640289,-9.776609420776367
1.729497407840279e+18,-0.035054780542850494,0.01284135039895773,-9.800169944763184
1.7294974078492792e+18,-0.03881339728832245,-0.06323601305484772,-9.722524642944336
1.7294974078552794e+18,-0.050754349678754807,0.0075320592150092125,-9.758663177490234
1.7294974078642796e+18,0.06657210737466812,-0.047733698040246964,-9.804011344909668
1.7294974078732797e+18,-0.019144708290696144,0.05973919853568077,-9.8421049118042
1.72949740788228e+18,-0.014274872839450836,-0.07913260906934738,-9.77927303314209
1.7294974078912801e+18,0.0011775996536016464,0.07878091931343079,-9.78688907623291
1.7294974078972803e+18,-0.02438797615468502,-0.026738692075014114,-9.835836410522461
1.7294974079062804e+18,0.016148066148161888,0.07118190824985504,-9.817737579345703
1.7294974079152806e+18,0.01776942051947117,-0.04456802085042,-9.770236015319824
1.7294974079242808e+18,-0.04400866478681564,-0.055543046444654465,-9.729814529418945
1.729497407933281e+18,0.08199860900640488,-0.006218915339559317,-9.760260581970215
1.7294974079392812e+18,0.029515065252780914,0.021348124369978905,-9.735438346862793
1.7294974079482813e+18,0.0011247550137341022,-0.0381101556122303,-9.916647911071777
1.7294974079572815e+18,0.003673526458442211,-0.009464103728532791,-9.750697135925293
1.7294974079662817e+18,-0.013717512600123882,-0.015885239467024803,-9.79278564453125
1.7294974079722819e+18,-0.042005203664302826,0.014264269731938839,-9.796586990356445
1.729497407981282e+18,0.020009709522128105,0.03903285786509514,-9.762727737426758
1.7294974079872822e+18,-0.05419766530394554,0.011158312670886517,-9.826131820678711
1.7294974079962824e+18,-0.008966038934886456,-0.04189135506749153,-9.775701522827148
1.7294974080052826e+18,-0.0007110541919246316,-0.03698820248246193,-9.841595649719238
1.7294974080112827e+18,0.030664809048175812,-0.01633630134165287,-9.790514945983887
1.729497408020283e+18,0.00019023436470888555,-0.036251869052648544,-9.796951293945312
1.729497408026283e+18,-0.046914391219615936,-0.021856602281332016,-9.721963882446289
1.7294974080352832e+18,-0.01656287908554077,0.050974778831005096,-9.771032333374023
1.7294974080442834e+18,0.06766222417354584,0.04388875514268875,-9.807416915893555
1.7294974080502835e+18,-0.001024544471874833,0.044885050505399704,-9.843153953552246
1.7294974080592837e+18,-0.024137042462825775,0.04490489140152931,-9.801793098449707
1.729497408068284e+18,-0.004064484965056181,-0.058175068348646164,-9.831298828125
1.729497408077284e+18,-0.11511542648077011,-0.000551424571312964,-9.756159782409668
1.7294974080832842e+18,0.059367988258600235,0.015349858440458775,-9.84839916229248
1.7294974080922844e+18,0.10192450881004333,0.05562290549278259,-9.754554748535156
1.7294974081012846e+18,-0.038874320685863495,0.09357891231775284,-9.859021186828613
1.7294974081102848e+18,0.03250107169151306,-0.026410670951008797,-9.867294311523438
1.729497408119285e+18,-0.06604977697134018,-0.007223995868116617,-9.75117301940918
1.7294974081282852e+18,-0.020417455583810806,0.03327597677707672,-9.746438980102539
1.7294974081372854e+18,-0.006885791663080454,0.00010747325723059475,-9.74374008178711
1.7294974081462856e+18,0.04251372441649437,-0.04238314554095268,-9.809612274169922
1.7294974081552858e+18,-0.0038692594971507788,-0.024372540414333344,-9.78971004486084
1.729497408161286e+18,-9.123898053076118e-05,0.00434899190440774,-9.800594329833984
1.729497408170286e+18,-0.07542922347784042,-0.019106848165392876,-9.830443382263184
1.7294974081792863e+18,-0.09834190458059311,-0.015015769749879837,-9.771791458129883
1.7294974081882865e+18,-0.012880928814411163,0.029497947543859482,-9.773290634155273
1.7294974081942866e+18,-0.06292276084423065,-0.00972642470151186,-9.838667869567871
1.7294974082032868e+18,0.0016375978011637926,0.05054547265172005,-9.721203804016113
1.729497408209287e+18,-0.01703239232301712,-0.012022086419165134,-9.815629005432129
1.729497408218287e+18,0.07367082685232162,0.003807641798630357,-9.779240608215332
1.7294974082272873e+18,-0.024210624396800995,-0.002272617071866989,-9.777053833007812
1.7294974082332874e+18,0.02906353585422039,-0.02834981493651867,-9.766550064086914
1.7294974082422876e+18,0.03652597963809967,-0.005213374271988869,-9.833828926086426
1.7294974082512878e+18,0.01135010365396738,0.0080140121281147,-9.820892333984375
1.729497408257288e+18,0.07253944128751755,-0.03463810309767723,-9.775931358337402
1.729497408266288e+18,-0.023655295372009277,0.0892285481095314,-9.81287956237793
1.7294974082752883e+18,-0.008167402818799019,0.007105691824108362,-9.801544189453125
1.7294974082842885e+18,0.022363517433404922,-0.0007375799468718469,-9.829959869384766
1.7294974082932887e+18,0.04568865895271301,0.0007553798495791852,-9.84911060333252
1.7294974082992888e+18,0.0062256790697574615,-0.03271087631583214,-9.754907608032227
1.729497408308289e+18,-0.0413154736161232,-0.029230818152427673,-9.933558464050293
1.7294974083142892e+18,-0.05470393970608711,0.05436781048774719,-9.814504623413086
1.7294974083232893e+18,-0.00698282802477479,0.009720105677843094,-9.759635925292969
1.7294974083322895e+18,-0.013370158150792122,0.006224031560122967,-9.758866310119629
1.7294974083382897e+18,0.05601176619529724,-0.0027900165878236294,-9.783807754516602
1.7294974083472899e+18,0.043006781488657,-0.0008887926815077662,-9.732827186584473
1.72949740835329e+18,-0.005507792811840773,-0.06109176576137543,-9.869488716125488
1.7294974083622902e+18,0.061030153185129166,0.020024925470352173,-9.753690719604492
1.7294974083712904e+18,0.03143034875392914,0.126435786485672,-9.80199146270752
1.7294974083772905e+18,-0.06412427127361298,0.012585945427417755,-9.804091453552246
1.7294974083862907e+18,-0.011166445910930634,0.07677394896745682,-9.700736045837402
1.729497408395291e+18,0.026488250121474266,0.023672420531511307,-9.79122543334961
1.729497408404291e+18,-0.07044870406389236,-0.0063715362921357155,-9.872992515563965
1.7294974084132913e+18,-0.034159719944000244,0.08350758254528046,-9.770356178283691
1.7294974084192914e+18,-0.019342536106705666,-0.03870002180337906,-9.864033699035645
1.7294974084282916e+18,0.019373981282114983,-0.008206219412386417,-9.810317039489746
1.7294974084372918e+18,-0.008103584870696068,-0.01903104968369007,-9.760339736938477
1.729497408446292e+18,-0.02254526875913143,0.009376073256134987,-9.759961128234863
1.7294974084552922e+18,0.02600289322435856,-0.002247645752504468,-9.817584037780762
1.7294974084612923e+18,-0.0013480611378327012,-0.0140557661652565,-9.83699893951416
1.7294974084702925e+18,-0.03938030079007149,0.05010562017560005,-9.773024559020996
1.7294974084792927e+18,-0.0016214940696954727,0.007970461621880531,-9.793391227722168
1.7294974084882929e+18,0.021437276154756546,0.05053679272532463,-9.808099746704102
1.729497408494293e+18,0.004480657167732716,-0.020854076370596886,-9.776408195495605
1.7294974085032932e+18,0.054098136723041534,0.02334696799516678,-9.785902976989746
1.7294974085122934e+18,-0.005516859237104654,0.02084563486278057,-9.807401657104492
1.7294974085182935e+18,0.056008532643318176,0.0009501978056505322,-9.793728828430176
1.7294974085272937e+18,-0.0258808396756649,-0.041345130652189255,-9.763801574707031
1.729497408536294e+18,-0.019833695143461227,0.0017071596812456846,-9.862225532531738
1.729497408542294e+18,0.024164484813809395,0.06357114017009735,-9.819296836853027
1.7294974085512942e+18,0.003348427126184106,-0.04625120759010315,-9.881258010864258
1.7294974085602944e+18,-0.0016674961661919951,0.011864429339766502,-9.839043617248535
1.7294974085662945e+18,-0.011616172268986702,-0.04535942152142525,-9.870598793029785
1.7294974085752947e+18,-0.009622283279895782,-0.07790018618106842,-9.777304649353027
1.729497408584295e+18,0.009520827792584896,0.009651257656514645,-9.816191673278809
1.729497408593295e+18,0.018903620541095734,-0.046749405562877655,-9.81479263305664
1.7294974085992952e+18,-0.0013325840700417757,0.0434064082801342,-9.781259536743164
1.7294974086082954e+18,-0.010683448053896427,0.05791217088699341,-9.872329711914062
1.7294974086172956e+18,0.04533153772354126,0.04243271052837372,-9.9122896194458
1.7294974086262958e+18,-0.004123419523239136,-0.018230527639389038,-9.819012641906738
1.729497408635296e+18,-0.011766558513045311,-0.00791351217776537,-9.823140144348145
1.7294974086442962e+18,0.019573545083403587,-0.018706969916820526,-9.78764533996582
1.7294974086532964e+18,-0.020091263577342033,0.03645401820540428,-9.842909812927246
1.7294974086622966e+18,-0.03211972862482071,-0.002715589478611946,-9.746264457702637
1.7294974086712968e+18,-0.0381283313035965,0.005780920851975679,-9.758323669433594
1.729497408680297e+18,0.024789344519376755,-0.00502255791798234,-9.799141883850098
1.7294974086892972e+18,0.013149090111255646,-0.01848881132900715,-9.908628463745117
1.7294974086952973e+18,-0.01850580796599388,0.03172335401177406,-9.79503059387207
1.7294974087042975e+18,-0.014969793148338795,0.03191966935992241,-9.786581039428711
1.7294974087132977e+18,0.032404329627752304,0.05626921355724335,-9.794049263000488
1.7294974087222979e+18,-0.0540737546980381,0.024360699579119682,-9.782780647277832
1.729497408731298e+18,0.012161203660070896,0.04126155003905296,-9.744400978088379
1.7294974087402982e+18,-0.015381874516606331,-0.11556663364171982,-9.869199752807617
1.7294974087462984e+18,-0.0780816301703453,0.035067517310380936,-9.830175399780273
1.7294974087552986e+18,0.04288521781563759,0.01461563166230917,-9.757826805114746
1.7294974087642988e+18,0.004974640440195799,-0.03030095249414444,-9.824806213378906
1.729497408773299e+18,0.01857095956802368,-0.002647645538672805,-9.805774688720703
1.729497408779299e+18,-0.02715047262609005,0.006926171947270632,-9.758397102355957
1.7294974087882993e+18,0.004155566915869713,0.009523050859570503,-9.738929748535156
1.7294974087972995e+18,-0.015173518098890781,0.012954838573932648,-9.827052116394043
1.7294974088062996e+18,-0.06363190710544586,-0.05837743729352951,-9.824938774108887
1.7294974088152998e+18,0.048768166452646255,0.00383264129050076,-9.868579864501953
1.7294974088243e+18,0.020699836313724518,-0.0018328017322346568,-9.893731117248535
1.7294974088333002e+18,-0.00022371907834894955,-0.07738794386386871,-9.793992042541504
1.7294974088423004e+18,-0.02644886076450348,0.025782249867916107,-9.810253143310547
1.7294974088513006e+18,0.019324028864502907,-0.03665813431143761,-9.815009117126465
1.7294974088603008e+18,-0.0423092395067215,0.09600755572319031,-9.802124977111816
1.729497408866301e+18,0.024268943816423416,-0.09779477119445801,-9.785041809082031
1.729497408875301e+18,0.03377557173371315,0.018766382709145546,-9.803955078125
1.7294974088843013e+18,0.05537228286266327,0.01710709184408188,-9.797089576721191
1.7294974088933015e+18,0.02051805518567562,0.0019301495049148798,-9.879581451416016
1.7294974089023017e+18,-0.023406146094202995,-0.06395789235830307,-9.724344253540039
1.729497408911302e+18,0.035114966332912445,0.03229208290576935,-9.723167419433594
1.729497408920302e+18,0.05564795061945915,-0.015762150287628174,-9.848262786865234
1.7294974089293023e+18,-0.04100882261991501,-0.05393051728606224,-9.862992286682129
1.7294974089383025e+18,0.012952513061463833,0.004037695005536079,-9.796093940734863
1.7294974089473027e+18,-0.07517682760953903,0.08308257162570953,-9.690649032592773
1.7294974089563028e+18,0.011400973424315453,-0.003682359354570508,-9.764960289001465
1.729497408965303e+18,0.025370484218001366,0.01932733878493309,-9.888893127441406
1.7294974089743032e+18,0.09430644661188126,-0.048906758427619934,-9.793811798095703
1.7294974089833034e+18,0.024580545723438263,0.018088458105921745,-9.75005054473877
1.7294974089893036e+18,0.023759912699460983,0.04841141030192375,-9.748655319213867
1.7294974089983037e+18,0.012977007776498795,-0.04888151213526726,-9.84179401397705
1.729497409007304e+18,0.04775533825159073,0.029603447765111923,-9.862399101257324
1.729497409016304e+18,-0.07145962119102478,-0.0017517554806545377,-9.903963088989258
1.7294974090223043e+18,-0.05081379786133766,0.034027501940727234,-9.726140022277832
1.7294974090313044e+18,0.035679128021001816,0.01714155822992325,-9.792601585388184
1.7294974090403046e+18,-0.006017457693815231,0.03753642737865448,-9.857590675354004
1.7294974090463048e+18,-0.021096771582961082,0.02490614727139473,-9.788308143615723
1.729497409055305e+18,-0.030859239399433136,0.045548077672719955,-8.407111167907715
1.7294974090643052e+18,-0.00019112695008516312,0.013561553321778774,-7.929663181304932
1.7294974090733053e+18,0.03951472416520119,0.019299928098917007,-7.844461917877197
1.7294974090793055e+18,0.06443257629871368,0.04377484321594238,-7.852545738220215
1.7294974090883057e+18,0.09943069517612457,0.11181159317493439,-10.176892280578613
1.7294974090973059e+18,0.09472473710775375,0.06657613813877106,-10.872504234313965
1.729497409106306e+18,0.015788476914167404,0.15850168466567993,-11.040045738220215
1.7294974091123062e+18,0.0014081262052059174,0.11844248324632645,-11.110929489135742
1.7294974091213064e+18,0.07095617800951004,0.058195602148771286,-11.165319442749023
1.7294974091303066e+18,0.10570067167282104,0.07218922674655914,-10.756885528564453
1.7294974091393068e+18,0.08170803636312485,0.0751696527004242,-10.509096145629883
1.729497409145307e+18,0.0004207491874694824,-0.0006143078207969666,-10.48901653289795
1.729497409154307e+18,0.03738780319690704,0.05615215003490448,-10.082518577575684
1.7294974091633073e+18,0.13935723900794983,0.11279039829969406,-9.958534240722656
1.7294974091693074e+18,0.06510567665100098,0.09242905676364899,-9.879609107971191
1.7294974091783076e+18,0.08204683661460876,0.08676283806562424,-9.86603832244873
1.7294974091873078e+18,0.012056928128004074,0.03518348187208176,-9.864648818969727
1.729497409193308e+18,0.08217182755470276,0.03918008133769035,-9.594721794128418
1.729497409202308e+18,-0.010498013347387314,0.0023142993450164795,-9.424887657165527
1.7294974092113083e+18,0.07794003188610077,0.06256749480962753,-9.334074020385742
1.7294974092203085e+18,0.056654006242752075,-0.01980651170015335,-9.389301300048828
1.7294974092293087e+18,0.09433063119649887,0.048059821128845215,-9.407334327697754
1.7294974092383089e+18,0.04586268961429596,0.04745081812143326,-8.935815811157227
1.729497409247309e+18,0.013405533507466316,0.10229778289794922,-8.837383270263672
1.7294974092533092e+18,-0.02007337659597397,-0.004906419664621353,-8.753819465637207
1.7294974092623094e+18,0.0528172068297863,0.018202118575572968,-8.670286178588867
1.7294974092713096e+18,0.015368453226983547,0.07999040186405182,-8.595335006713867
1.7294974092773097e+18,0.02108493261039257,0.07116326689720154,-8.685051918029785
1.72949740928631e+18,0.042936377227306366,-0.015521325170993805,-8.682071685791016
1.72949740929531e+18,0.04675433039665222,0.03777912259101868,-8.472251892089844
1.7294974093043103e+18,-0.00965619646012783,0.06322813034057617,-8.309587478637695
1.7294974093103104e+18,-0.028812695294618607,-0.026481490582227707,-8.46460247039795
1.7294974093193106e+18,-0.019795652478933334,-0.003609931096434593,-8.421672821044922
1.7294974093283108e+18,0.0058211954310536385,0.034895431250333786,-8.2057523727417
1.729497409337311e+18,-0.01666453666985035,-0.041395559906959534,-8.124268531799316
1.7294974093463112e+18,0.08631198853254318,-0.05824814364314079,-8.244959831237793
1.7294974093553114e+18,0.039667218923568726,0.07259612530469894,-8.300485610961914
1.7294974093613115e+18,-0.029376138001680374,-0.07757802307605743,-8.273629188537598
1.7294974093703117e+18,0.029806118458509445,-0.0980609878897667,-8.222843170166016
1.7294974093763118e+18,0.04106823354959488,-0.0159129798412323,-8.392053604125977
1.729497409385312e+18,-0.0485728420317173,-0.050528205931186676,-8.336343765258789
1.7294974093943122e+18,0.019604932516813278,0.06409919261932373,-8.392364501953125
1.7294974094003123e+18,-0.07453416287899017,0.02481275424361229,-8.304118156433105
1.7294974094093125e+18,0.038068484514951706,0.0006413953378796577,-8.207018852233887
1.7294974094183127e+18,-0.018715249374508858,-0.06673609465360641,-8.182010650634766
1.729497409427313e+18,0.07696785777807236,0.04559057950973511,-8.112333297729492
1.729497409436313e+18,-0.012062149122357368,-0.06964914500713348,-8.158166885375977
1.7294974094423132e+18,0.08172816038131714,-0.004239907022565603,-8.20698070526123
1.7294974094513134e+18,0.08156312257051468,-0.07074988633394241,-8.27146053314209
1.7294974094603136e+18,0.008647228591144085,-0.0891684740781784,-8.227153778076172
1.7294974094663137e+18,0.010671764612197876,0.09367509931325912,-8.203595161437988
1.729497409475314e+18,0.06768984347581863,-0.06511500477790833,-8.21139907836914
1.729497409484314e+18,0.02137874998152256,-0.04241671413183212,-8.191431045532227
1.7294974094933143e+18,0.013913266360759735,-0.06327840685844421,-8.134598731994629
1.7294974095023145e+18,-0.020490825176239014,-0.0908644050359726,-8.1849365234375
1.7294974095083146e+18,0.009306972846388817,-0.0422515943646431,-8.306117057800293
1.7294974095173148e+18,0.028570350259542465,-0.0739172175526619,-8.323307991027832
1.729497409529315e+18,-0.043467652052640915,-0.052898429334163666,-8.29578971862793
1.7294974095383153e+18,0.055285558104515076,0.015830205753445625,-8.292922019958496
1.7294974095473155e+18,0.04317501187324524,0.012826507911086082,-8.290202140808105
1.7294974095563156e+18,-0.058323539793491364,-0.04095378518104553,-8.231240272521973
1.7294974095653158e+18,0.03037988394498825,-0.09649945795536041,-8.283244132995605
1.729497409574316e+18,-0.016474179923534393,0.1076454296708107,-8.39199161529541
1.7294974095863163e+18,-0.020688122138381004,0.02030043490231037,-8.369755744934082
1.7294974095953165e+18,0.025924935936927795,-0.027830583974719048,-8.25849437713623
1.7294974096043167e+18,-0.08854859322309494,-0.0352645106613636,-8.402105331420898
1.7294974096133169e+18,-0.013434885069727898,0.023833170533180237,-8.427254676818848
1.729497409619317e+18,0.0055046118795871735,-0.03439468890428543,-8.47322940826416
1.7294974096283172e+18,0.04364388436079025,-0.004523811861872673,-8.430591583251953
1.7294974096373174e+18,-0.023674987256526947,-0.02723502740263939,-8.443671226501465
1.7294974096463176e+18,-0.06270340085029602,-0.05214940384030342,-8.424752235412598
1.7294974096553178e+18,0.054857805371284485,0.0385855995118618,-8.449030876159668
1.729497409664318e+18,0.038369618356227875,0.021370651200413704,-8.442804336547852
1.7294974096733181e+18,0.06571146845817566,0.05591409653425217,-8.559798240661621
1.7294974096823183e+18,-0.044723011553287506,-0.028395531699061394,-8.549808502197266
1.7294974096913185e+18,-0.04084126651287079,0.014310916885733604,-8.555407524108887
1.7294974097003187e+18,-0.006956420373171568,0.05576704069972038,-8.645892143249512
1.7294974097063188e+18,0.007227413356304169,-0.046472690999507904,-8.58702278137207
1.729497409718319e+18,0.03105064108967781,0.018832650035619736,-8.585083961486816
1.7294974097243192e+18,-0.019621597602963448,0.047507137060165405,-8.509883880615234
1.7294974097333194e+18,-0.1689889132976532,0.006748684681952,-8.625164985656738
1.7294974097423196e+18,0.03327434882521629,-0.023116232827305794,-8.69990348815918
1.7294974097513198e+18,0.01589512638747692,-0.030206400901079178,-8.748316764831543
1.72949740976032e+18,0.03353848308324814,0.0006749159656465054,-8.764358520507812
1.7294974097693202e+18,-0.022313915193080902,-0.04550810158252716,-8.74941349029541
1.7294974097753203e+18,0.006636857986450195,-0.1187516301870346,-8.798659324645996
1.7294974097843205e+18,-0.0008048510644584894,0.0336017906665802,-8.855077743530273
1.7294974097933207e+18,0.042949896305799484,-0.04959482699632645,-8.834108352661133
1.729497409802321e+18,0.022374317049980164,0.05659496411681175,-8.775083541870117
1.729497409811321e+18,0.05016098916530609,-0.050661299377679825,-8.850473403930664
1.7294974098203213e+18,0.032145895063877106,0.015620356425642967,-8.906859397888184
1.7294974098293215e+18,-0.043351929634809494,0.045195650309324265,-8.890229225158691
1.7294974098383217e+18,-0.04041005298495293,0.07589304447174072,-8.852029800415039
1.7294974098473219e+18,0.025391554459929466,0.045072637498378754,-8.940176010131836
1.729497409856322e+18,-0.03624660521745682,-0.029745839536190033,-8.921060562133789
1.7294974098623222e+18,0.13353808224201202,0.07414773851633072,-8.929129600524902
1.7294974098713224e+18,-0.0032832082360982895,-0.004583233967423439,-8.97089958190918
1.7294974098833226e+18,-0.03824011981487274,-0.006151063367724419,-8.952366828918457
1.7294974098893228e+18,-0.011672277003526688,-0.007794613018631935,-9.041719436645508
1.729497409898323e+18,0.0444122776389122,0.007634418085217476,-9.048624038696289
1.7294974099073231e+18,-0.054277680814266205,0.017411472275853157,-9.03383731842041
1.7294974099163233e+18,0.0038873786106705666,0.08417953550815582,-9.088661193847656
1.7294974099253235e+18,0.014784375205636024,0.05638117715716362,-9.085132598876953
1.7294974099343237e+18,-0.04676700010895729,0.03367941454052925,-9.090283393859863
1.729497409943324e+18,0.05318201333284378,-0.0008544959127902985,-9.06606674194336
1.729497409952324e+18,0.013624555431306362,0.0012882556766271591,-9.200512886047363
1.7294974099613243e+18,0.04511762037873268,0.0878928005695343,-9.122542381286621
1.7294974099703245e+18,-0.05184045806527138,0.006314808502793312,-9.155460357666016
1.7294974099793247e+18,-0.04951578378677368,0.09683366119861603,-9.17919635772705
1.7294974099853248e+18,0.10024458169937134,-0.03310198336839676,-9.298883438110352
1.729497409994325e+18,0.042446330189704895,0.06658264994621277,-9.305262565612793
1.7294974100033252e+18,-0.04254370927810669,-0.020034316927194595,-9.200145721435547
1.7294974100123254e+18,0.007375847548246384,0.015441004186868668,-9.227826118469238
1.7294974100183255e+18,0.02851712889969349,0.02162453532218933,-9.349990844726562
1.7294974100273257e+18,-0.027511004358530045,0.12330307811498642,-9.309206008911133
1.729497410036326e+18,-0.013800699263811111,0.028597701340913773,-9.411141395568848
1.729497410042326e+18,-0.04179457947611809,-0.03952867537736893,-9.321871757507324
1.7294974100513262e+18,-0.06210283935070038,0.042155951261520386,-9.355958938598633
1.7294974100603264e+18,0.07009601593017578,-0.012575935572385788,-9.440759658813477
1.7294974100663265e+18,0.09407656639814377,-0.01686769351363182,-9.439493179321289
1.7294974100753267e+18,-0.00096123106777668,0.0334986187517643,-9.483968734741211
1.7294974100813268e+18,0.018768729642033577,0.09809668362140656,-9.436447143554688
1.729497410090327e+18,0.10988213121891022,0.06941548734903336,-9.472923278808594
1.7294974100993272e+18,0.04340759664773941,0.05330571532249451,-9.514215469360352
1.7294974101053274e+18,0.017482919618487358,0.09476140141487122,-9.52538776397705
1.7294974101143276e+18,0.037854015827178955,0.07992920279502869,-9.579660415649414
1.7294974101233277e+18,-0.014239989221096039,0.07192664593458176,-9.57451057434082
1.7294974101293279e+18,0.028693798929452896,0.1123926192522049,-9.575929641723633
1.729497410138328e+18,0.05285215750336647,-0.0012953057885169983,-9.631610870361328
1.7294974101473283e+18,0.045951347798109055,0.026148146018385887,-9.646445274353027
1.7294974101533284e+18,-0.0057701226323843,0.01598391681909561,-9.6130952835083
1.7294974101623286e+18,0.05352843552827835,0.021445345133543015,-9.619462013244629
1.7294974101713288e+18,-0.027438506484031677,0.05341535434126854,-9.620916366577148
1.729497410180329e+18,-0.011286599561572075,-0.056189119815826416,-9.771075248718262
1.7294974101893292e+18,0.027202222496271133,0.11563900113105774,-9.697068214416504
1.7294974101983293e+18,0.059726160019636154,0.08868394047021866,-9.703943252563477
1.7294974102073295e+18,0.10191041976213455,0.0032295212149620056,-9.788106918334961
1.7294974102163297e+18,0.051153138279914856,0.11434278637170792,-9.858247756958008
1.72949741022533e+18,0.08452564477920532,0.08205048739910126,-9.816461563110352
1.72949741023433e+18,0.0020576994866132736,0.11570486426353455,-9.784952163696289
1.7294974102433303e+18,0.015603723004460335,0.03127511590719223,-9.865854263305664
1.7294974102523305e+18,-0.010843697935342789,0.09022083878517151,-9.889416694641113
1.7294974102613307e+18,-0.02603806182742119,0.14347511529922485,-9.864069938659668
1.729497410270331e+18,0.01533530093729496,-0.018312379717826843,-9.903347969055176
1.729497410276331e+18,0.009470918215811253,0.05963904410600662,-9.90009593963623
1.7294974102883313e+18,0.010547426529228687,0.10970613360404968,-9.97121524810791
1.7294974102943314e+18,0.006902432069182396,0.12692439556121826,-9.993638038635254
1.7294974103033316e+18,-0.02892213687300682,0.04376421868801117,-10.008230209350586
1.7294974103123318e+18,-0.062087610363960266,0.15941312909126282,-10.01982593536377
1.729497410321332e+18,0.10615673661231995,0.07076521217823029,-10.034919738769531
1.7294974103303322e+18,-0.013953369110822678,0.08654627203941345,-10.055556297302246
1.7294974103363323e+18,0.0688670426607132,0.10617063194513321,-10.057269096374512
1.7294974103453325e+18,0.022486509755253792,0.06051436811685562,-10.066436767578125
1.7294974103543327e+18,-0.0020310040563344955,0.05657677352428436,-10.10510540008545
1.7294974103633329e+18,-0.03730347007513046,0.11647230386734009,-10.005329132080078
1.729497410372333e+18,0.044250406324863434,0.03906149044632912,-10.184950828552246
1.7294974103783332e+18,-0.03460540249943733,0.1443164348602295,-10.115826606750488
1.7294974103873334e+18,0.022633202373981476,0.057791393250226974,-10.173941612243652
1.7294974103963336e+18,0.02628740668296814,0.04553472623229027,-10.19666576385498
1.7294974104053338e+18,0.035438422113657,0.0769311785697937,-10.146425247192383
1.729497410411334e+18,-0.047468386590480804,0.1246100589632988,-10.187166213989258
1.729497410420334e+18,-0.031493622809648514,-0.013657554984092712,-10.234539985656738
1.7294974104293343e+18,0.020313289016485214,0.07804267108440399,-10.277688980102539
1.7294974104353344e+18,0.037070054560899734,0.1051282212138176,-10.223607063293457
1.7294974104443346e+18,0.03126217797398567,0.08788169920444489,-10.255319595336914
1.7294974104533348e+18,0.0473608672618866,0.10309673100709915,-10.223295211791992
1.729497410462335e+18,0.050344500690698624,0.16071824729442596,-10.261280059814453
1.729497410468335e+18,0.005332211032509804,0.158244326710701,-10.365607261657715
1.7294974104773353e+18,-0.0238752793520689,0.06419762969017029,-10.326862335205078
1.7294974104863355e+18,-0.028230661526322365,0.12354587763547897,-10.398120880126953
1.7294974104953357e+18,0.10501602292060852,0.11534027010202408,-10.357407569885254
1.729497410504336e+18,-0.00028201378881931305,0.1000109612941742,-10.373626708984375
1.729497410510336e+18,0.07395412772893906,0.11274313181638718,-10.372856140136719
1.7294974105193362e+18,0.08758121728897095,0.06779593229293823,-10.465841293334961
1.7294974105283364e+18,0.0594123937189579,0.11199943721294403,-10.496905326843262
1.7294974105373366e+18,0.04951891303062439,0.10430397838354111,-10.46060562133789
1.7294974105463368e+18,0.03379112854599953,0.17300443351268768,-10.497790336608887
1.729497410555337e+18,0.11156857013702393,0.07576102018356323,-10.51269817352295
