timestamp,accel_x,accel_y,accel_z
1.7294980440038502e+18,0.010340479202568531,-0.07341307401657104,-9.815836906433105
1.7294980440128504e+18,-0.05251080170273781,0.058999087661504745,-9.819868087768555
1.7294980440188506e+18,0.06915213912725449,0.003562492784112692,-9.738975524902344
1.7294980440278508e+18,0.025675175711512566,-0.05919361487030983,-9.820990562438965
1.729498044036851e+18,0.007927087135612965,0.02900199219584465,-9.863334655761719
1.7294980440458511e+18,-0.014106213115155697,0.00574565539136529,-9.796609878540039
1.7294980440548513e+18,0.038631536066532135,-0.026736626401543617,-9.817967414855957
1.7294980440638515e+18,0.05292345955967903,0.039871785789728165,-9.79697036743164
1.7294980440698516e+18,-0.023243721574544907,-0.024198319762945175,-9.78919506072998
1.7294980440788518e+18,0.014934378676116467,-0.062314677983522415,-9.874128341674805
1.729498044087852e+18,-0.0760621726512909,-0.001656348118558526,-9.754831314086914
1.7294980440938522e+18,-0.03049515187740326,0.04103423282504082,-9.75202465057373
1.7294980441028524e+18,0.023947417736053467,0.04824948310852051,-9.827937126159668
1.7294980441118525e+18,0.04171561077237129,0.04347599670290947,-9.906746864318848
1.7294980441208527e+18,0.027812456712126732,-0.024981508031487465,-9.660748481750488
1.729498044132853e+18,0.0048431213945150375,0.008227256126701832,-9.871221542358398
1.7294980441418532e+18,-0.0011774757876992226,-0.07247354835271835,-9.80842399597168
1.7294980441478533e+18,0.020338550209999084,-0.05379723012447357,-9.796070098876953
1.7294980441568535e+18,0.022501762956380844,-0.03693684563040733,-9.775484085083008
1.7294980441628536e+18,-0.020208556205034256,0.00805002823472023,-9.78219223022461
1.7294980441718538e+18,-0.057404134422540665,-0.0001605472934897989,-9.799185752868652
1.729498044180854e+18,-0.021528510376811028,-0.004117260687053204,-9.910449981689453
1.7294980441898542e+18,-0.04104412719607353,-0.0930425375699997,-9.786178588867188
1.7294980441958543e+18,0.0219162218272686,0.003166607581079006,-9.783452987670898
1.7294980442048545e+18,0.008492656983435154,-0.027776435017585754,-9.860841751098633
1.7294980442108547e+18,-0.002530749887228012,0.045492999255657196,-9.748991012573242
1.7294980442198548e+18,0.02565639279782772,0.01293096225708723,-9.807159423828125
1.729498044228855e+18,-0.009921512566506863,0.009261177852749825,-9.800782203674316
1.7294980442348552e+18,0.0229283906519413,0.009800092317163944,-9.783445358276367
1.7294980442438554e+18,-0.015853146091103554,-0.03343302756547928,-9.822402954101562
1.7294980442528556e+18,0.021668149158358574,0.05149274319410324,-9.863496780395508
1.7294980442618557e+18,-0.05773346871137619,-0.04800961911678314,-9.868005752563477
1.729498044270856e+18,0.024933138862252235,0.005398289300501347,-9.877001762390137
1.729498044279856e+18,-0.007712221704423428,0.03450918570160866,-9.868216514587402
1.7294980442858563e+18,-0.0033396694343537092,0.0374615453183651,-9.835878372192383
1.7294980442948564e+18,-0.02461019717156887,0.07556720823049545,-9.853302001953125
1.7294980443038566e+18,-0.00890920590609312,-0.06535651534795761,-9.749381065368652
1.7294980443098568e+18,0.04223155230283737,0.05174519121646881,-9.804075241088867
1.729498044318857e+18,0.11096686124801636,0.006893771234899759,-9.700613021850586
1.7294980443278572e+18,0.019521554931998253,-0.04078083112835884,-9.710620880126953
1.7294980443338573e+18,0.0625377669930458,0.058785028755664825,-9.715909957885742
1.7294980443428575e+18,-0.01230127364397049,-0.09661086648702621,-9.78549861907959
1.7294980443518577e+18,0.037038128823041916,-0.038290511816740036,-9.791401863098145
1.7294980443578578e+18,0.06615971773862839,0.0022000328171998262,-9.768068313598633
1.729498044366858e+18,-0.04110722243785858,-0.018277689814567566,-9.693942070007324
1.7294980443758582e+18,-0.014958972111344337,0.02674679458141327,-9.755094528198242
1.7294980443818583e+18,0.02347549982368946,-0.03985769301652908,-9.728946685791016
1.7294980443908585e+18,-0.0035466370172798634,0.012397927232086658,-9.778055191040039
1.7294980443968586e+18,0.03281958028674126,-0.02166515216231346,-9.78573226928711
1.7294980444058588e+18,-0.011460287496447563,0.026411090046167374,-9.74556827545166
1.729498044414859e+18,0.026993244886398315,-0.010548841208219528,-9.845497131347656
1.7294980444208591e+18,0.0030815128702670336,0.032291218638420105,-9.80396842956543
1.7294980444298593e+18,0.03737263008952141,0.075860396027565,-9.797675132751465
1.7294980444358595e+18,-0.021458441391587257,0.040020573884248734,-9.79736042022705
1.7294980444448596e+18,-0.048302266746759415,-0.008335982449352741,-9.758891105651855
1.7294980444538598e+18,-0.0824611634016037,-0.030155330896377563,-9.793404579162598
1.72949804445986e+18,0.034136831760406494,0.001802122569642961,-9.848809242248535
1.7294980444688602e+18,0.020142067223787308,-0.0007336281123571098,-9.824832916259766
1.7294980444778604e+18,0.018623868003487587,0.04482476785778999,-9.735979080200195
1.7294980444838605e+18,0.00872709322720766,0.03667210787534714,-9.822227478027344
1.7294980444928607e+18,0.02967795543372631,-0.0107778524979949,-9.779217720031738
1.7294980444988608e+18,0.07001522183418274,0.03581792116165161,-9.837404251098633
1.729498044507861e+18,0.04409803822636604,0.05709104239940643,-9.95588493347168
1.729498044513861e+18,0.011271034367382526,-0.03042430244386196,-9.83251953125
1.7294980445228613e+18,0.06452476978302002,0.011167177930474281,-9.718683242797852
1.7294980445318615e+18,-0.006563625764101744,-0.10951127111911774,-9.783114433288574
1.7294980445408617e+18,0.010105611756443977,-0.00047510588774457574,-9.85494327545166
1.7294980445468618e+18,-0.03091008961200714,-0.049684762954711914,-9.72931957244873
1.729498044555862e+18,-0.023773083463311195,0.010316802188754082,-9.824702262878418
1.7294980445618621e+18,-0.05088525265455246,0.013162254355847836,-9.789188385009766
1.7294980445708623e+18,-0.06821895390748978,-0.03168494254350662,-9.791913032531738
1.7294980445768625e+18,0.0317048616707325,0.06210346519947052,-9.834212303161621
1.7294980445858627e+18,0.010239276103675365,0.06931909173727036,-9.80634880065918
1.7294980445948628e+18,-0.0053975386545062065,0.04531828314065933,-9.817880630493164
1.729498044600863e+18,-0.00646938756108284,0.0687294602394104,-9.852336883544922
1.7294980446098632e+18,0.0028611719608306885,0.057387471199035645,-9.854104042053223
1.7294980446188634e+18,-0.012074224650859833,-0.010229676030576229,-9.856974601745605
1.7294980446248635e+18,-0.0013158229412510991,-0.04405306279659271,-9.862730979919434
1.7294980446338637e+18,0.01991073042154312,0.002351541770622134,-9.791255950927734
1.7294980446428639e+18,-0.051499515771865845,0.020525721833109856,-9.7715482711792
1.729498044651864e+18,-0.03909984976053238,-0.013202239759266376,-9.81035041809082
1.7294980446608643e+18,0.014464649371802807,-0.036998212337493896,-9.792374610900879
1.7294980446698644e+18,0.018387634307146072,0.025794275104999542,-9.811120986938477
1.7294980446788646e+18,0.012095869518816471,0.0020780148915946484,-9.802082061767578
1.7294980446848648e+18,0.031210435554385185,0.026203177869319916,-9.816113471984863
1.729498044696865e+18,-0.019930651411414146,0.023200709372758865,-9.833517074584961
1.7294980447058652e+18,-0.04391032084822655,0.09692838042974472,-9.698515892028809
1.7294980447118653e+18,0.05213640257716179,0.048445768654346466,-9.804609298706055
1.7294980447208655e+18,-0.0011644234182313085,-0.06429826468229294,-9.775293350219727
1.7294980447268657e+18,0.10749883949756622,-0.0065054865553975105,-9.809833526611328
1.7294980447358659e+18,-0.013039881363511086,-0.1075681746006012,-9.879730224609375
1.729498044741866e+18,-0.019741052761673927,-0.058363303542137146,-9.802639961242676
1.7294980447508662e+18,0.0013426474761217833,0.009211123920977116,-9.750479698181152
1.7294980447598664e+18,0.008209691382944584,0.0006463523604907095,-9.79659366607666
1.7294980447688666e+18,0.00817879382520914,-0.0524865984916687,-9.822822570800781
1.7294980447748667e+18,-0.04819592088460922,0.004800319671630859,-9.76489543914795
1.729498044783867e+18,-0.024373555555939674,0.00994042120873928,-9.761029243469238
1.729498044792867e+18,0.006937171332538128,-0.0341532900929451,-9.861592292785645
1.7294980447988672e+18,0.07492177188396454,-0.035617563873529434,-9.845823287963867
1.7294980448078674e+18,0.08795952051877975,-0.023427003994584084,-9.81389331817627
1.7294980448138675e+18,-0.04265039041638374,-0.0396958626806736,-9.807579040527344
1.7294980448228677e+18,0.04899163544178009,-0.02104805037379265,-9.75444221496582
1.729498044831868e+18,-0.00633438304066658,-0.05117729306221008,-9.803388595581055
1.729498044840868e+18,-0.01703290268778801,0.02096870169043541,-9.734132766723633
1.7294980448468682e+18,0.05567459017038345,0.04048334062099457,-9.78747844696045
1.7294980448558684e+18,-0.0215273667126894,-0.03854826092720032,-9.799012184143066
1.7294980448618685e+18,0.014258801937103271,0.011823982000350952,-9.815918922424316
1.7294980448708687e+18,0.01249772496521473,0.07111359387636185,-9.785655975341797
1.729498044879869e+18,-0.05019204691052437,-0.021705832332372665,-9.71645450592041
1.729498044885869e+18,0.009174635633826256,-0.040849942713975906,-9.83439826965332
1.7294980448948692e+18,-0.01385660469532013,-0.05751742795109749,-9.756891250610352
1.7294980449038694e+18,-0.042549122124910355,-0.014719473198056221,-9.766101837158203
1.7294980449098696e+18,-0.015186862088739872,0.028604257851839066,-9.879339218139648
1.7294980449218698e+18,0.09566523134708405,0.07456494122743607,-9.7346830368042
1.72949804492787e+18,-0.006950149312615395,-0.025880059227347374,-9.819307327270508
1.7294980449368701e+18,0.023748256266117096,-0.003954942338168621,-9.786431312561035
1.7294980449458703e+18,0.04572919011116028,0.049937017261981964,-9.754892349243164
1.7294980449548705e+18,-0.015269706025719643,-0.06138801574707031,-9.828396797180176
1.7294980449608707e+18,-0.0034264419227838516,-0.04006524011492729,-9.738758087158203
1.7294980449698708e+18,0.049641046673059464,-0.0707201436161995,-9.854169845581055
1.729498044978871e+18,-0.005601068027317524,0.013809614814817905,-9.753509521484375
1.7294980449878712e+18,0.014544880017638206,0.004030756186693907,-9.84576416015625
1.7294980449938714e+18,0.04717482626438141,-0.005611632019281387,-9.776506423950195
1.7294980450028716e+18,-0.04490787908434868,0.01847846433520317,-9.712278366088867
1.7294980450088717e+18,-0.018913239240646362,0.03239401802420616,-9.814584732055664
1.729498045017872e+18,0.08845840394496918,0.03771762177348137,-9.85695743560791
1.729498045023872e+18,0.019989173859357834,0.016783928498625755,-9.779766082763672
1.7294980450328722e+18,-0.048885200172662735,-0.008591988123953342,-9.796629905700684
1.7294980450418724e+18,0.005145727191120386,-0.0014309867983683944,-9.809638023376465
1.7294980450478725e+18,-0.04205288365483284,0.05641350522637367,-9.791592597961426
1.7294980450568727e+18,-0.01335141435265541,0.10014014691114426,-9.765559196472168
1.729498045065873e+18,0.01866431161761284,-0.009044624865055084,-9.848389625549316
1.729498045071873e+18,-0.025700800120830536,-0.0805128887295723,-9.758952140808105
1.7294980450808732e+18,-0.020754465833306313,0.005413764156401157,-9.808045387268066
1.7294980450898734e+18,-0.0008444554987363517,-0.10531536489725113,-9.780248641967773
1.7294980450988736e+18,-0.03685573488473892,0.05728469043970108,-9.74897575378418
1.7294980451078738e+18,0.051479846239089966,0.008042698726058006,-9.807892799377441
1.729498045113874e+18,0.043045029044151306,0.03628350794315338,-9.740066528320312
1.729498045122874e+18,-0.0026174127124249935,0.05475093796849251,-9.813345909118652
1.7294980451318743e+18,0.06338263303041458,0.07356565445661545,-9.816542625427246
1.7294980451408745e+18,0.0024188030511140823,-0.0032246506307274103,-9.822508811950684
1.7294980451528748e+18,-0.008729391731321812,0.014551003463566303,-9.877521514892578
1.729498045158875e+18,-0.07897473871707916,0.05179707705974579,-9.792710304260254
1.729498045167875e+18,0.0037824981845915318,0.013244904577732086,-9.745382308959961
1.7294980451738752e+18,0.029049133881926537,0.003884807461872697,-9.868614196777344
1.7294980451828754e+18,0.009517800994217396,-0.01898626610636711,-9.835441589355469
1.7294980451888755e+18,0.014888488687574863,-0.052860792726278305,-9.824932098388672
1.7294980451978757e+18,0.052807003259658813,-0.11552144587039948,-9.858866691589355
1.729498045206876e+18,0.010231426917016506,0.0810919851064682,-9.841111183166504
1.729498045215876e+18,-0.052824147045612335,-0.10734990984201431,-9.807962417602539
1.7294980452248763e+18,0.021167147904634476,-0.0713578462600708,-9.89924144744873
1.7294980452308764e+18,-0.05862545967102051,0.03421657532453537,-9.792284965515137
1.7294980452398766e+18,0.0692504495382309,0.025858832523226738,-9.813250541687012
1.7294980452488768e+18,-0.03993596136569977,-0.011535263620316982,-9.872329711914062
1.729498045254877e+18,-0.050374846905469894,0.004955286160111427,-9.712005615234375
1.729498045263877e+18,-0.08565124869346619,0.028186356648802757,-9.822311401367188
1.7294980452728773e+18,0.04577034339308739,-0.009201331064105034,-9.813928604125977
1.7294980452848776e+18,-0.04618946835398674,0.04071551188826561,-9.766674041748047
1.7294980452908777e+18,0.08696173876523972,0.052417855709791183,-9.80276870727539
1.729498045299878e+18,-0.044915225356817245,-0.05831632763147354,-9.849644660949707
1.7294980453148782e+18,0.03924352303147316,-0.04750221595168114,-9.852509498596191
1.7294980453268785e+18,-0.051261983811855316,0.024493811652064323,-9.815384864807129
1.7294980453328786e+18,-0.0012652487494051456,-0.0053937723860144615,-9.820504188537598
1.7294980453418788e+18,0.018551398068666458,-0.050076741725206375,-9.766020774841309
1.729498045350879e+18,0.014774167910218239,-0.06860319525003433,-9.803055763244629
1.729498045356879e+18,-0.037079598754644394,-0.013433246873319149,-9.81250286102295
1.7294980453658793e+18,0.011634476482868195,-0.0016174885677173734,-9.821736335754395
1.7294980453748795e+18,-0.05169688165187836,-0.028080329298973083,-9.844318389892578
1.7294980453838797e+18,-0.03584840148687363,-0.06705845892429352,-9.863300323486328
1.7294980453898798e+18,-0.07179766893386841,0.04092029109597206,-9.762654304504395
1.72949804539888e+18,-0.05813555419445038,0.010773960500955582,-9.796178817749023
1.7294980454048801e+18,0.03366656228899956,0.07150550931692123,-9.824790000915527
1.7294980454138803e+18,0.03148597106337547,0.0195166002959013,-9.807319641113281
1.7294980454228805e+18,0.021810945123434067,-0.008294336497783661,-9.78019905090332
1.7294980454288806e+18,0.0031797667033970356,0.030392440035939217,-9.764369010925293
1.7294980454378808e+18,-0.03667520731687546,-0.007082801312208176,-9.841976165771484
1.729498045443881e+18,0.03129912167787552,-0.02217259630560875,-9.815824508666992
1.7294980454528812e+18,-0.061080899089574814,-0.0404554158449173,-9.789030075073242
1.7294980454618813e+18,0.023464031517505646,0.03143392875790596,-9.870223045349121
1.7294980454678815e+18,0.014317004010081291,0.006313948426395655,-9.856148719787598
1.7294980454768817e+18,0.03154844418168068,0.03827113285660744,-9.76003646850586
1.7294980454828818e+18,0.0556090883910656,-0.0626886636018753,-9.9226713180542
1.729498045491882e+18,0.06416449695825577,0.11315247416496277,-9.814005851745605
1.7294980455008822e+18,0.05134052410721779,-0.0062658763490617275,-9.778912544250488
1.7294980455068823e+18,-0.009814378805458546,0.014555100351572037,-9.782958030700684
1.7294980455158825e+18,-0.04307562857866287,0.031216861680150032,-9.912698745727539
1.7294980455218826e+18,0.00789161678403616,-0.03781791776418686,-9.813058853149414
1.7294980455308828e+18,-0.018971189856529236,-0.02406587079167366,-9.8345947265625
1.729498045536883e+18,0.0025563191156834364,0.027773752808570862,-9.743108749389648
1.7294980455458831e+18,0.01618010364472866,-0.08353707939386368,-9.854389190673828
1.7294980455548833e+18,0.014451280236244202,-0.03109615668654442,-9.743318557739258
1.7294980455608835e+18,0.026463203132152557,-0.031122837215662003,-9.748876571655273
1.7294980455698836e+18,-0.015151852741837502,0.006353586446493864,-9.774789810180664
1.7294980455788838e+18,0.020753616467118263,-0.014272610656917095,-9.7774076461792
1.729498045584884e+18,0.018437199294567108,-0.007923847995698452,-9.752169609069824
1.7294980455938842e+18,-0.05224492773413658,0.008028637617826462,-9.850003242492676
1.7294980456028844e+18,-0.007513431832194328,0.028917035087943077,-9.868338584899902
1.7294980456088845e+18,-0.04735179990530014,0.0003787623718380928,-9.793973922729492
1.7294980456178847e+18,0.009807163849473,-0.03273436799645424,-9.803779602050781
1.7294980456238848e+18,-0.007926245220005512,0.016838308423757553,-9.834770202636719
1.729498045632885e+18,0.03590894863009453,0.0034952161367982626,-9.848369598388672
1.7294980456418852e+18,0.0662795752286911,-0.005865405313670635,-9.85374641418457
1.7294980456478853e+18,0.004730855580419302,-0.02138141542673111,-9.791560173034668
1.7294980456568855e+18,0.05068697780370712,0.07230508327484131,-9.777030944824219
1.7294980456628856e+18,-0.03468900918960571,0.023494787514209747,-9.806492805480957
1.7294980456718858e+18,-0.03101603128015995,0.06926470249891281,-9.823846817016602
1.729498045677886e+18,-0.05798523128032684,-0.020462827757000923,-9.745681762695312
1.7294980456868861e+18,0.0763297751545906,-0.014649830758571625,-9.881143569946289
1.7294980456958863e+18,-0.06467840075492859,0.0030088971834629774,-9.892533302307129
1.7294980457018865e+18,-0.016544317826628685,0.019535191357135773,-9.774004936218262
1.7294980457108867e+18,0.018961042165756226,-0.04663093388080597,-9.761619567871094
1.7294980457198868e+18,-0.021178938448429108,0.03227900713682175,-9.837712287902832
1.729498045725887e+18,-0.0814497321844101,0.041091613471508026,-9.852082252502441
1.7294980457348872e+18,-0.005955664906650782,-0.0047217500396072865,-9.782031059265137
1.7294980457438874e+18,0.0036659471224993467,-0.021345442160964012,-9.845295906066895
1.7294980457498875e+18,0.009972091764211655,-0.061655156314373016,-9.863446235656738
1.7294980457588877e+18,-0.04793015494942665,0.05881001427769661,-9.74155330657959
1.7294980457648878e+18,-0.018960071727633476,0.023529525846242905,-9.82774543762207
1.729498045773888e+18,-0.06614167988300323,-0.01097960863262415,-9.869437217712402
1.7294980457828882e+18,-0.1299876868724823,0.08187249302864075,-9.825275421142578
1.7294980457888883e+18,0.05298599600791931,-0.04279201477766037,-9.789608001708984
1.7294980457978885e+18,0.054324641823768616,0.03509338200092316,-9.805641174316406
1.7294980458098888e+18,-0.024755055084824562,-0.03432711213827133,-9.849235534667969
1.729498045818889e+18,-0.07435433566570282,-0.024568356573581696,-9.852323532104492
1.729498045824889e+18,-0.03835548460483551,0.027361886575818062,-9.832432746887207
1.7294980458338893e+18,0.03054623492062092,-0.018734578043222427,-9.840089797973633
1.7294980458428895e+18,0.08700226992368698,0.05199476331472397,-9.845911026000977
1.7294980458488896e+18,-0.002742453943938017,0.03205079212784767,-9.879732131958008
1.7294980458578898e+18,0.11550644040107727,0.024145593866705894,-9.764144897460938
1.72949804586389e+18,0.02163228951394558,0.022525206208229065,-9.811312675476074
1.72949804587289e+18,0.017201872542500496,0.007567552383989096,-9.810555458068848
1.7294980458788902e+18,0.02791130170226097,-0.036463867872953415,-9.705856323242188
1.7294980458878904e+18,-0.04566119983792305,-0.0406610481441021,-9.795705795288086
1.7294980458968906e+18,-0.006340626161545515,0.0473451092839241,-9.754992485046387
1.7294980459028908e+18,-0.008631776086986065,0.01870746538043022,-9.806697845458984
1.729498045911891e+18,0.08345963805913925,0.048369601368904114,-9.853858947753906
1.7294980459208911e+18,0.011842659674584866,0.04031003266572952,-9.846517562866211
1.7294980459268913e+18,-0.06927723437547684,-0.033254966139793396,-9.808038711547852
1.7294980459358915e+18,-0.031509239226579666,0.07255176454782486,-9.800536155700684
1.7294980459448916e+18,-0.1032302975654602,0.05704871565103531,-9.792293548583984
1.7294980459508918e+18,0.059767935425043106,-0.04018377512693405,-9.789875030517578
1.729498045959892e+18,-0.026860645040869713,-0.020866774022579193,-9.796224594116211
1.729498045965892e+18,-0.08864680677652359,0.106980100274086,-9.826457023620605
1.7294980459748923e+18,-0.03543565049767494,-0.03271948918700218,-9.839574813842773
1.7294980459838925e+18,0.03514246270060539,0.0046908920630812645,-9.812286376953125
1.7294980459898926e+18,-0.03648051619529724,0.011652198620140553,-9.807689666748047
1.7294980459988928e+18,0.0454222708940506,0.027170034125447273,-9.821911811828613
1.729498046007893e+18,-0.02503289468586445,0.02698003500699997,-9.793527603149414
1.729498046013893e+18,-0.019688837230205536,-0.014320623129606247,-9.763489723205566
1.7294980460228933e+18,-0.02301083318889141,-0.0706748515367508,-9.797428131103516
1.7294980460288934e+18,0.014007264748215675,0.05795357748866081,-9.835403442382812
1.7294980460378936e+18,0.06328782439231873,-0.036439016461372375,-9.818973541259766
1.7294980460468938e+18,-0.07675094902515411,0.07464935630559921,-9.776383399963379
1.729498046055894e+18,-0.02362019568681717,0.019070228561758995,-9.898258209228516
1.7294980460648942e+18,-0.041720978915691376,0.0020493282936513424,-9.836540222167969
1.7294980460708943e+18,-0.09361541271209717,-0.025128871202468872,-9.791776657104492
1.7294980460798945e+18,0.056260135024785995,-0.07032157480716705,-9.863313674926758
1.7294980460888947e+18,0.017864970490336418,-0.011166572570800781,-9.811115264892578
1.7294980460948948e+18,0.11568184196949005,-0.007186060771346092,-9.775249481201172
1.729498046103895e+18,-0.024051418527960777,0.03930770233273506,-9.778076171875
1.7294980461098952e+18,-0.05104374513030052,0.00670038303360343,-9.801793098449707
1.7294980461188954e+18,0.07419746369123459,-0.05214613676071167,-9.739694595336914
1.7294980461278956e+18,-0.026844678446650505,0.08883748203516006,-9.822102546691895
1.7294980461338957e+18,0.02331814356148243,-0.07715383917093277,-9.832719802856445
1.7294980461428959e+18,-0.0791545882821083,-0.005966073367744684,-9.774836540222168
1.729498046151896e+18,0.021825164556503296,-0.035309433937072754,-9.776664733886719
1.7294980461578962e+18,0.05067332834005356,-0.033441562205553055,-9.782539367675781
1.7294980461668964e+18,-0.013420302420854568,0.06738173216581345,-9.826068878173828
1.7294980461728965e+18,0.012934432365000248,0.039909783750772476,-9.72819995880127
1.7294980461818967e+18,-0.06919296085834503,0.017109794542193413,-9.774620056152344
1.7294980461878968e+18,-0.10868139564990997,-0.015520764514803886,-9.733779907226562
1.729498046196897e+18,0.05638385936617851,0.034661371260881424,-9.774528503417969
1.7294980462058972e+18,0.0009833612712100148,-0.0780571773648262,-9.781107902526855
1.7294980462118973e+18,-0.06246144324541092,0.024378972128033638,-9.769187927246094
1.7294980462208975e+18,0.011933963745832443,0.10488421469926834,-9.826438903808594
1.7294980462268977e+18,-0.035730842500925064,-0.05649122968316078,-9.887655258178711
1.7294980462358979e+18,0.07157997041940689,-0.04492124170064926,-9.871257781982422
1.729498046241898e+18,-0.04673479124903679,0.008177729323506355,-9.77875804901123
1.7294980462508982e+18,0.04973386600613594,0.09172714501619339,-9.874896049499512
1.7294980462598984e+18,-0.09310061484575272,0.0030455966480076313,-9.700881958007812
1.7294980462658985e+18,-0.014126284047961235,0.038939423859119415,-9.81602954864502
1.7294980462748987e+18,-0.03364873304963112,-0.008774868212640285,-9.793716430664062
1.729498046283899e+18,-0.04576926305890083,-0.06804990768432617,-9.835192680358887
1.729498046289899e+18,0.0054022762924432755,0.01443482842296362,-9.820771217346191
1.7294980462988992e+18,-0.018082840368151665,0.04030074179172516,-9.837284088134766
1.7294980463048993e+18,0.003349385457113385,0.03181034326553345,-9.737936973571777
1.7294980463138995e+18,0.025755012407898903,-0.017066041007637978,-9.788555145263672
1.7294980463228997e+18,-0.032250482589006424,0.000711923697963357,-9.842585563659668
1.7294980463288998e+18,0.0017623701132833958,0.022055301815271378,-9.877982139587402
1.7294980463379e+18,0.027170291170477867,-0.08090145140886307,-9.835817337036133
1.7294980463469002e+18,0.0017505112336948514,-0.03665509074926376,-9.86771297454834
1.7294980463529004e+18,-0.02240244671702385,-0.0236381683498621,-9.74248218536377
1.7294980463619005e+18,0.04024830460548401,-0.04330673813819885,-9.75169563293457
1.7294980463709007e+18,0.09897217154502869,-0.027481531724333763,-9.796330451965332
1.7294980463769009e+18,0.013598782010376453,0.035354360938072205,-9.79043197631836
1.729498046385901e+18,0.0030869783367961645,0.032165128737688065,-9.809945106506348
1.7294980463919012e+18,0.0594058521091938,-0.0005881665856577456,-9.863121032714844
1.7294980464009014e+18,0.06444165855646133,0.013254585675895214,-9.798516273498535
1.7294980464069015e+18,0.03660965710878372,-0.028705699369311333,-9.759241104125977
1.7294980464159017e+18,-0.03988196700811386,0.041267938911914825,-9.83944034576416
1.7294980464219018e+18,-0.007290075067430735,-0.035981666296720505,-9.851313591003418
1.729498046430902e+18,0.045738738030195236,0.005414827726781368,-9.81979751586914
1.7294980464399022e+18,0.026166599243879318,-0.008513098582625389,-9.880401611328125
1.7294980464489024e+18,-0.01716100051999092,0.05981602519750595,-9.876925468444824
1.7294980464549025e+18,0.047058962285518646,0.04840322211384773,-9.915409088134766
1.7294980464639027e+18,0.05359642580151558,-0.01204818207770586,-9.88595199584961
1.7294980464699028e+18,-0.0358675979077816,-0.07742159813642502,-9.987711906433105
1.729498046478903e+18,-0.02739158272743225,0.02125207893550396,-9.985730171203613
1.7294980464879032e+18,0.10089662671089172,0.0660679042339325,-10.065238952636719
1.7294980464939034e+18,0.01985504850745201,-0.06709764897823334,-10.030410766601562
1.7294980465029036e+18,0.03514917939901352,-0.0448545441031456,-10.040149688720703
1.7294980465089037e+18,-0.01623038575053215,-0.025664139539003372,-10.01979923248291
1.729498046517904e+18,-0.033444471657276154,-0.012561739422380924,-10.14401626586914
1.729498046523904e+18,0.03892591595649719,-0.100501149892807,-10.052826881408691
1.7294980465329042e+18,-0.050264306366443634,0.03000517189502716,-10.106971740722656
1.7294980465419044e+18,0.10878834128379822,0.05653693899512291,-10.079695701599121
1.7294980465479045e+18,-0.020088285207748413,-0.06673584878444672,-10.099738121032715
1.7294980465569047e+18,-0.07420431077480316,0.03306899964809418,-10.06132698059082
1.7294980465629048e+18,0.005950154736638069,-0.09947715699672699,-10.287344932556152
1.729498046571905e+18,0.08163943886756897,-0.05462521314620972,-10.39273452758789
1.7294980465809052e+18,0.021840473636984825,0.024649016559123993,-10.442938804626465
1.7294980465869053e+18,-0.07714138925075531,-0.032433122396469116,-10.527395248413086
1.7294980465959055e+18,-0.054346367716789246,0.056414783000946045,-10.535433769226074
1.7294980466049057e+18,0.004293947014957666,-0.017271868884563446,-10.515411376953125
1.7294980466109059e+18,-0.0134828956797719,-0.0006683696410618722,-10.516074180603027
1.729498046619906e+18,0.005596166476607323,-0.04354512691497803,-10.546221733093262
1.7294980466289062e+18,0.006233756896108389,0.09262450784444809,-10.508894920349121
1.7294980466349064e+18,-0.09526034444570541,-0.011098623275756836,-10.518786430358887
1.7294980466439066e+18,-0.040316592901945114,0.03528004139661789,-10.517318725585938
1.7294980466499067e+18,0.03134423494338989,0.01828869804739952,-10.542962074279785
1.729498046658907e+18,-0.022613659501075745,0.059485048055648804,-10.504317283630371
1.729498046667907e+18,-0.04229259118437767,-0.012040185742080212,-10.586758613586426
1.7294980466739072e+18,-0.059419333934783936,0.036135703325271606,-10.518550872802734
1.7294980466829074e+18,-0.025569653138518333,-0.0034438613802194595,-10.674485206604004
1.7294980466919076e+18,-0.02382831461727619,0.041580840945243835,-10.637410163879395
1.7294980467009078e+18,0.00015887507470324636,0.05838175490498543,-10.591548919677734
1.729498046706908e+18,0.10453026741743088,-0.024033498018980026,-10.485236167907715
1.729498046715908e+18,-0.05432465672492981,0.07398976385593414,-10.60215950012207
1.7294980467219082e+18,0.015042145736515522,0.007581893354654312,-10.526479721069336
1.7294980467309084e+18,0.029162639752030373,0.03731843829154968,-10.50894546508789
1.7294980467399086e+18,0.0018882222939282656,-0.005020846147090197,-10.655356407165527
1.7294980467459087e+18,-0.08431258797645569,0.03213007003068924,-10.551774978637695
1.729498046754909e+18,0.05331595614552498,-0.06662600487470627,-10.59323501586914
1.729498046760909e+18,0.04417342692613602,0.030756182968616486,-10.611040115356445
1.7294980467699092e+18,0.003035596339032054,-0.019422991201281548,-10.544934272766113
1.7294980467789094e+18,-0.0407048836350441,0.01997319981455803,-10.607986450195312
1.7294980467849096e+18,-0.016015993431210518,0.008764723315834999,-10.585061073303223
1.7294980467939098e+18,0.07235237210988998,-0.028042417019605637,-10.641122817993164
1.72949804680291e+18,0.0030520171858370304,-0.016524257138371468,-10.589454650878906
1.72949804680891e+18,0.021088281646370888,0.004266615957021713,-10.6159029006958
1.7294980468179103e+18,0.02894657477736473,-0.03367131948471069,-10.595755577087402
1.7294980468239104e+18,-0.004892755765467882,0.04523749649524689,-10.522967338562012
1.7294980468329106e+18,-0.009379797615110874,0.04693122208118439,-10.62240219116211
1.7294980468419108e+18,-0.010547460056841373,0.026013720780611038,-10.591883659362793
1.729498046847911e+18,0.04874402657151222,0.0189200472086668,-10.558206558227539
1.729498046856911e+18,0.0700874924659729,-0.006920186337083578,-10.703143119812012
1.7294980468659113e+18,-0.011956064961850643,-0.037139054387807846,-10.68239688873291
1.7294980468719114e+18,-0.020157739520072937,0.003658836940303445,-10.51819133758545
1.7294980468779116e+18,0.0024493630044162273,-0.056312646716833115,-10.62403392791748
1.7294980468869117e+18,0.01713554747402668,0.027330774813890457,-10.605992317199707
1.729498046895912e+18,-0.00628539128229022,-0.06951257586479187,-10.586149215698242
1.7294980469049121e+18,-0.02625257894396782,0.02103395015001297,-10.557661056518555
1.7294980469109123e+18,0.027862492948770523,-0.028853073716163635,-10.608892440795898
1.7294980469199124e+18,0.11857111752033234,0.04929565265774727,-10.584146499633789
1.7294980469289126e+18,0.020225904881954193,-0.00872332975268364,-10.553406715393066
1.7294980469349128e+18,0.012813689187169075,0.04952356219291687,-10.56396770477295
1.729498046943913e+18,-0.0168460663408041,0.05886165052652359,-10.631047248840332
1.7294980469529132e+18,0.01899639517068863,0.06694306433200836,-10.651246070861816
1.7294980469589133e+18,-0.01911710388958454,-0.013692690059542656,-10.63289737701416
1.7294980469679135e+18,-0.022054340690374374,0.02609897032380104,-10.602144241333008
1.7294980469739136e+18,-0.006555417086929083,0.01144053228199482,-10.647441864013672
1.7294980469829138e+18,-0.004003027454018593,0.04588226228952408,-10.630661964416504
1.729498046991914e+18,0.004568496719002724,0.03837060183286667,-10.650986671447754
1.7294980470009142e+18,0.036973729729652405,-0.03142563998699188,-10.636541366577148
1.7294980470099144e+18,0.007288995198905468,0.03423713147640228,-10.60705280303955
1.7294980470189146e+18,-0.09891066700220108,0.004246429540216923,-10.570732116699219
1.7294980470279148e+18,0.03683808818459511,-0.04399947077035904,-10.58980655670166
1.729498047036915e+18,0.038659706711769104,0.02916334941983223,-10.629122734069824
1.729498047042915e+18,0.02933846041560173,-0.05868189036846161,-10.66215991973877
1.7294980470519153e+18,-0.05817127972841263,0.048086754977703094,-10.535623550415039
1.7294980470609155e+18,-0.10970233380794525,0.026040708646178246,-10.588080406188965
1.7294980470699156e+18,0.018948327749967575,-0.034141864627599716,-10.626773834228516
1.7294980470789158e+18,-0.04825102910399437,-0.04408889263868332,-10.640697479248047
1.729498047087916e+18,0.008644955232739449,-0.048362720757722855,-10.610854148864746
1.7294980470939162e+18,0.03165172412991524,0.04985451325774193,-10.657835960388184
1.7294980471029164e+18,0.024999219924211502,0.004138625226914883,-10.542067527770996
1.7294980471119165e+18,-0.01719835214316845,0.035828545689582825,-10.61775016784668
1.7294980471179167e+18,0.06217176467180252,-0.012702912092208862,-10.596538543701172
1.7294980471269169e+18,-0.026164023205637932,-0.05457695573568344,-10.693105697631836
1.729498047135917e+18,0.05122796818614006,0.01426998432725668,-10.62911319732666
1.7294980471449172e+18,-0.00011770491255447268,-0.05612199008464813,-10.534088134765625
1.7294980471539174e+18,-0.0310660507529974,0.01589801535010338,-10.67455768585205
1.7294980471629176e+18,-0.014972568489611149,-0.012170502915978432,-10.625662803649902
1.729498047174918e+18,-0.016683343797922134,-0.018450917676091194,-10.599823951721191
1.729498047183918e+18,0.07373378425836563,-0.04093014821410179,-10.609535217285156
1.7294980471959183e+18,-0.0343831405043602,0.015271777287125587,-10.592411041259766
1.7294980472139187e+18,-0.03360914811491966,0.03113023191690445,-10.70499038696289
1.729498047222919e+18,-0.05793720483779907,0.032531704753637314,-10.614767074584961
1.729498047231919e+18,0.045121967792510986,0.03600700572133064,-10.615337371826172
1.7294980472409193e+18,-0.07069732248783112,-0.024024277925491333,-10.637235641479492
1.7294980472469194e+18,0.016341986134648323,0.05407501012086868,-10.681658744812012
1.7294980472559196e+18,-0.037448178976774216,-0.00024382525589317083,-10.67470645904541
1.7294980472649198e+18,-0.009387833066284657,-0.02441331371665001,-10.54520034790039
1.72949804727392e+18,-0.03222903236746788,0.010435948148369789,-10.640602111816406
1.72949804727992e+18,0.0005333734443411231,-0.027395062148571014,-10.623891830444336
1.7294980472889203e+18,0.029339024797081947,0.04437863081693649,-10.669136047363281
1.7294980472979205e+18,-0.02162628062069416,-0.008969745598733425,-10.616954803466797
1.7294980473069207e+18,-0.012818079441785812,-0.02855006605386734,-10.61275577545166
1.7294980473129208e+18,0.030071165412664413,-0.03887251764535904,-10.581567764282227
1.729498047321921e+18,-0.028905091807246208,-0.04026791453361511,-10.614821434020996
1.7294980473309212e+18,0.0014135976089164615,0.014302755706012249,-10.525308609008789
1.7294980473399214e+18,0.06594858318567276,-0.03729856386780739,-10.645628929138184
1.7294980473459215e+18,0.005536593031138182,-0.030906924977898598,-10.65494441986084
1.7294980473549217e+18,0.0358186699450016,0.028144443407654762,-10.609967231750488
1.729498047363922e+18,0.08965315669775009,-0.013390909880399704,-10.540878295898438
1.7294980473759222e+18,-0.08010856807231903,-0.044502999633550644,-10.64260482788086
1.7294980473849224e+18,0.015320641919970512,0.008124055340886116,-10.621602058410645
1.7294980473939226e+18,-0.03441730514168739,0.014306792989373207,-10.629412651062012
1.7294980474029228e+18,-0.05361321195960045,0.04569268226623535,-10.592331886291504
1.729498047411923e+18,-0.0934949666261673,-0.0074089448899030685,-10.573221206665039
1.729498047417923e+18,0.028074778616428375,0.08106318861246109,-10.5931978225708
1.7294980474269233e+18,0.07177910208702087,-0.0005712886340916157,-10.553630828857422
1.7294980474359235e+18,-0.04775313660502434,0.06528463214635849,-10.509594917297363
1.7294980474449236e+18,0.025561008602380753,-0.05035260319709778,-10.51755428314209
1.7294980474539238e+18,0.02506474405527115,0.029552752152085304,-10.637253761291504
1.729498047465924e+18,-0.01708819344639778,-0.04058370366692543,-10.562981605529785
1.7294980474749243e+18,-0.03802390396595001,-0.012428456917405128,-10.595194816589355
1.7294980474809244e+18,-0.028862234205007553,-0.0007789277005940676,-10.634815216064453
1.7294980474899246e+18,-0.012956136837601662,-0.0724450945854187,-10.585076332092285
1.7294980474989248e+18,-0.05111819505691528,0.019403718411922455,-10.65439224243164
1.729498047507925e+18,-0.018417280167341232,-0.006942412815988064,-10.542304992675781
1.7294980475169252e+18,-0.002354620024561882,-0.0703931599855423,-10.64365005493164
1.7294980475259254e+18,0.03993505612015724,0.01905914396047592,-10.590084075927734
1.7294980475319255e+18,-0.012091453187167645,0.018873803317546844,-10.542506217956543
1.7294980475409257e+18,-0.02939872071146965,0.011531107127666473,-10.514388084411621
1.729498047552926e+18,-0.019591402262449265,-0.029211733490228653,-10.602192878723145
1.7294980475619261e+18,0.027031097561120987,-0.022885942831635475,-10.627596855163574
1.7294980475709263e+18,0.03301209583878517,-0.03148765116930008,-10.552711486816406
1.7294980475799265e+18,0.05876210331916809,-0.017266815528273582,-10.551407814025879
1.7294980475889267e+18,-0.06319400668144226,-0.07177734375,-10.616109848022461
1.729498047597927e+18,-0.039030492305755615,-0.005919272545725107,-10.619853019714355
1.729498047606927e+18,0.05674511566758156,-0.06873101741075516,-10.54896068572998
1.7294980476159273e+18,-0.01066525001078844,0.03738810867071152,-10.622775077819824
1.7294980476249275e+18,0.028168119490146637,0.03287427872419357,-10.556696891784668
1.7294980476339277e+18,0.04868140071630478,-0.06111894175410271,-10.509655952453613
1.7294980476429279e+18,0.008523989468812943,0.05835453420877457,-10.529943466186523
1.7294980476549281e+18,0.05632426217198372,-0.0261618010699749,-10.568069458007812
1.7294980476639283e+18,0.053630877286195755,0.04692748188972473,-10.546453475952148
1.7294980476729285e+18,-0.045793112367391586,-0.014173788949847221,-10.645333290100098
1.7294980476819287e+18,-0.05569104105234146,-0.04105212539434433,-10.518390655517578
1.729498047690929e+18,0.028194256126880646,-0.005968463607132435,-10.541296005249023
1.729498047699929e+18,0.03141108155250549,-0.04115810990333557,-10.66082763671875
1.7294980477089293e+18,-0.032711781561374664,-0.021621672436594963,-10.569750785827637
1.7294980477179295e+18,-0.012888778001070023,-0.05034906789660454,-10.593911170959473
1.7294980477269297e+18,-0.12809957563877106,0.01571783423423767,-10.564092636108398
1.7294980477359299e+18,0.034546516835689545,-0.014374017715454102,-10.541125297546387
1.72949804774493e+18,0.001542440033517778,0.036199480295181274,-10.598709106445312
1.7294980477539302e+18,0.057945966720581055,-0.02101529762148857,-10.508857727050781
1.7294980477629304e+18,-0.04725277051329613,-0.01871446520090103,-10.619009971618652
1.7294980477719306e+18,-0.029503988102078438,-0.04916540905833244,-10.550883293151855
1.7294980477809308e+18,-0.09293650090694427,-0.06645000725984573,-10.530271530151367
1.729498047789931e+18,-0.040382444858551025,0.04660903289914131,-10.493548393249512
1.7294980478139315e+18,-0.05114687606692314,0.004966615233570337,-10.531265258789062
1.7294980478229317e+18,0.035051412880420685,-0.00723601970821619,-10.529327392578125
1.729498047834932e+18,0.019341737031936646,-0.013501808047294617,-10.537030220031738
1.7294980478439322e+18,0.015755459666252136,0.07484868913888931,-10.495911598205566
1.7294980478529324e+18,0.02352074533700943,-0.04382183030247688,-10.516501426696777
1.7294980478619325e+18,0.004874545615166426,-0.043788474053144455,-10.481184005737305
1.7294980478679327e+18,-0.05548018962144852,-0.0497741773724556,-10.496381759643555
1.7294980478769329e+18,-0.033913157880306244,0.03235623612999916,-10.381450653076172
1.729498047885933e+18,0.07629456371068954,0.02410162426531315,-10.427289009094238
1.7294980478949332e+18,-0.006386700086295605,-0.006004814989864826,-10.380565643310547
1.7294980479039334e+18,0.06458297371864319,0.0010381266474723816,-10.375933647155762
1.7294980479129336e+18,-0.036022502928972244,-0.054552797228097916,-10.292319297790527
1.7294980479219338e+18,0.0591987669467926,-0.0029722279869019985,-10.31782054901123
1.729498047930934e+18,-0.012640289030969143,0.08720619976520538,-10.321516036987305
1.7294980479399342e+18,0.00976659171283245,0.03548753261566162,-10.239028930664062
1.7294980479489344e+18,-0.07340554147958755,0.006748758256435394,-10.254183769226074
1.7294980479579346e+18,-0.020772378891706467,0.002067252527922392,-10.160786628723145
1.7294980479909353e+18,-0.027330681681632996,0.03986533731222153,-10.066215515136719
1.7294980480029356e+18,0.0487419068813324,0.025542106479406357,-10.054452896118164
1.7294980480149358e+18,0.08730872720479965,0.026917271316051483,-10.009317398071289
1.729498048023936e+18,-0.04009993001818657,-0.07507408410310745,-9.921828269958496
1.729498048029936e+18,0.025968847796320915,-0.02153352089226246,-9.995718955993652
1.7294980480389363e+18,-0.020061686635017395,-0.03211403638124466,-9.876236915588379
1.7294980480479365e+18,-0.01365641038864851,0.09019482135772705,-9.904861450195312
1.729498048068937e+18,0.012989724986255169,0.006439578719437122,-9.819687843322754
1.7294980480959375e+18,-0.0009650742285884917,-0.05646181106567383,-9.781956672668457
1.7294980481079378e+18,0.05463845655322075,-0.08824050426483154,-9.646947860717773
1.729498048116938e+18,0.046781815588474274,0.015999218448996544,-9.797344207763672
1.7294980481259382e+18,0.027615930885076523,-0.0005723863141611218,-9.585381507873535
1.7294980481349384e+18,-0.07675518840551376,-0.038511354476213455,-9.753308296203613
1.7294980481469386e+18,-0.07132181525230408,0.011855356395244598,-9.649203300476074
1.7294980481559388e+18,0.02133415825664997,0.013826941139996052,-9.690483093261719
1.729498048164939e+18,-0.009794758632779121,0.05107048526406288,-9.672971725463867
1.7294980481709391e+18,-0.07970759272575378,-0.045195795595645905,-9.728289604187012
1.7294980481799393e+18,0.02282852865755558,-0.02362857200205326,-9.63454818725586
1.7294980481889395e+18,0.027736520394682884,-0.011127700097858906,-9.646848678588867
1.7294980481979397e+18,-0.03407467529177666,-0.03449970856308937,-9.683783531188965
1.72949804820694e+18,0.009546163491904736,-0.09036493301391602,-9.6891508102417
1.72949804821594e+18,-0.01337417121976614,0.023764511570334435,-9.735848426818848
1.7294980482249403e+18,-0.08832241594791412,0.06810680776834488,-9.617033004760742
1.7294980482339405e+18,-0.001609419472515583,0.007925146259367466,-9.706266403198242
1.7294980482429407e+18,0.01010187529027462,0.02323993481695652,-9.6150484085083
1.7294980482519409e+18,-0.004637805745005608,-0.030679762363433838,-9.682977676391602
1.729498048257941e+18,-0.012991270050406456,0.058655157685279846,-9.67088508605957
1.7294980482669412e+18,-0.001265164464712143,-0.04540535807609558,-9.724245071411133
1.7294980482759414e+18,-0.08781979978084564,0.005120868794620037,-9.746359825134277
1.7294980482849416e+18,-0.04472773149609566,-0.021568071097135544,-9.704660415649414
1.7294980482939418e+18,-0.03704149276018143,-0.0073177446611225605,-9.743902206420898
1.729498048302942e+18,-0.03384675085544586,-0.008865952491760254,-9.708708763122559
1.7294980483119421e+18,-0.005554174538701773,0.0770752876996994,-9.683805465698242
1.7294980483209423e+18,-0.0246003195643425,0.011238006874918938,-9.665254592895508
1.7294980483299425e+18,0.006823439616709948,-0.01667921617627144,-9.677167892456055
1.7294980483389427e+18,0.009180603548884392,-0.03873743116855621,-9.767410278320312
1.729498048347943e+18,0.017577875405550003,0.019619496539235115,-9.635014533996582
1.7294980483599432e+18,0.025427911430597305,0.04756588488817215,-9.675580024719238
1.7294980483689434e+18,0.006202055606991053,0.005883010104298592,-9.663169860839844
1.7294980483779436e+18,-0.004216482397168875,-0.08169732242822647,-9.711304664611816
1.7294980483839437e+18,0.03297685831785202,-0.007638849318027496,-9.725517272949219
1.7294980483929439e+18,-0.03021324798464775,0.011241818778216839,-9.605910301208496
1.729498048401944e+18,0.04194990545511246,-0.023112941533327103,-9.685409545898438
1.7294980484109443e+18,0.023118335753679276,0.01113094761967659,-9.767638206481934
1.7294980484229445e+18,-0.009305771440267563,-0.03276406601071358,-9.66356086730957
1.7294980484319447e+18,-0.006988234352320433,-0.017853030934929848,-9.754021644592285
1.729498048440945e+18,-0.004942518658936024,-0.018247850239276886,-9.66364574432373
1.729498048449945e+18,-0.006614020559936762,-0.05530088022351265,-9.62468147277832
1.7294980484589453e+18,0.0047878785990178585,-0.08337455242872238,-9.654915809631348
1.7294980484679455e+18,0.04360734298825264,0.0037495989818125963,-9.635891914367676
1.7294980484769457e+18,-0.04845214635133743,-0.04906044155359268,-9.604662895202637
1.7294980484859459e+18,0.008821431547403336,-0.004104198422282934,-9.597728729248047
1.729498048494946e+18,-0.05063086003065109,0.06018078699707985,-9.627490997314453
1.7294980485039462e+18,0.06535866856575012,0.012216655537486076,-9.605131149291992
1.7294980485129464e+18,0.030501607805490494,0.03223135694861412,-9.700775146484375
1.7294980485219466e+18,-0.03694014996290207,0.08234501630067825,-9.597456932067871
1.7294980485309468e+18,-0.03263388201594353,0.03724769130349159,-9.649392127990723
1.729498048536947e+18,-0.10001856833696365,-0.08257558941841125,-9.656509399414062
1.7294980485459471e+18,-0.027300355955958366,-0.03474944457411766,-9.652910232543945
1.7294980485549473e+18,0.0408293753862381,0.03578731790184975,-9.598921775817871
1.7294980485639475e+18,-0.015921995043754578,-0.00725552998483181,-9.647920608520508
1.7294980485759478e+18,-0.031482793390750885,0.008644742891192436,-9.633831977844238
1.729498048584948e+18,-0.01764262467622757,0.009676927700638771,-9.635921478271484
1.729498048590948e+18,0.059337735176086426,-0.036739371716976166,-9.583954811096191
1.7294980485999483e+18,-0.028739873319864273,0.025980763137340546,-9.61573314666748
1.7294980486089485e+18,0.013071220368146896,-0.031195422634482384,-9.622963905334473
1.7294980486179487e+18,-0.014891181141138077,0.01643300987780094,-9.624321937561035
1.7294980486269489e+18,0.03589753434062004,0.03605034574866295,-9.623432159423828
1.729498048635949e+18,0.002408270724117756,-0.005142210982739925,-9.58371639251709
1.7294980486449492e+18,-0.019514990970492363,-0.05658320337533951,-9.615580558776855
1.7294980486539494e+18,0.04430949687957764,-0.0331350713968277,-9.531840324401855
1.7294980486629496e+18,-0.06744106113910675,-0.021318010985851288,-9.528130531311035
1.7294980486719498e+18,0.05561022460460663,0.033691372722387314,-9.504974365234375
1.72949804868095e+18,-0.002081463113427162,-0.0397326685488224,-9.607715606689453
1.7294980486869501e+18,0.0444265641272068,-0.009685667231678963,-9.60302734375
1.7294980486959503e+18,0.007277671247720718,0.021203864365816116,-9.591121673583984
1.7294980487049505e+18,0.04535921663045883,0.03236497566103935,-9.524852752685547
1.7294980487139507e+18,0.03188382089138031,0.002520084148272872,-9.656214714050293
1.729498048722951e+18,0.06642331182956696,0.012962914071977139,-9.592370986938477
1.729498048728951e+18,0.015818091109395027,-0.011490683071315289,-9.565185546875
1.7294980487379512e+18,0.08538837730884552,0.05897572636604309,-9.594038009643555
1.7294980487469514e+18,0.06585724651813507,0.03169266879558563,-9.507918357849121
1.7294980487559516e+18,0.01988813281059265,-0.049815647304058075,-9.571475982666016
1.7294980487619517e+18,0.00980219803750515,-0.06241777539253235,-9.62779426574707
1.729498048770952e+18,0.017213566228747368,0.08166937530040741,-9.587499618530273
1.729498048779952e+18,0.01574975624680519,-0.03257657587528229,-9.573328018188477
1.7294980487859523e+18,0.01853688433766365,-0.01349719800055027,-9.572736740112305
1.7294980487949524e+18,-0.007398614194244146,-7.029867265373468e-05,-9.539352416992188
1.7294980488039526e+18,-0.00546563183888793,0.0031471368856728077,-9.504057884216309
1.7294980488129528e+18,0.05004098266363144,-0.021735992282629013,-9.537633895874023
1.729498048818953e+18,-0.04441595450043678,-0.05826355889439583,-9.596348762512207
1.7294980488279532e+18,-0.00809018686413765,-0.09237764030694962,-9.477377891540527
1.7294980488369533e+18,0.04714459925889969,0.028254631906747818,-9.540990829467773
1.7294980488459535e+18,-0.020213842391967773,0.05496000126004219,-9.457802772521973
1.7294980488549537e+18,0.04571940004825592,-0.04001592844724655,-9.493947982788086
1.7294980488609539e+18,-0.0016538533382117748,-0.028201039880514145,-9.537904739379883
1.729498048869954e+18,-0.03259202465415001,-0.017833253368735313,-9.521124839782715
1.7294980488789542e+18,0.033426132053136826,-0.07667269557714462,-9.485987663269043
1.7294980488879544e+18,0.01903444342315197,0.016970522701740265,-9.646421432495117
1.7294980488969546e+18,-0.06431514769792557,0.022047346457839012,-9.598194122314453
1.7294980489029548e+18,-0.11771540343761444,-0.055484164506196976,-9.570055961608887
1.729498048911955e+18,0.03123614192008972,-0.01821589097380638,-9.530012130737305
1.7294980489209551e+18,0.061076048761606216,-0.015223097056150436,-9.48870849609375
1.7294980489299553e+18,0.015914618968963623,0.04992304742336273,-9.586015701293945
1.7294980489359555e+18,-0.04032878950238228,0.026280883699655533,-9.505427360534668
1.7294980489449556e+18,-0.01060636155307293,0.003726847469806671,-9.519536972045898
1.7294980489539558e+18,0.02557447925209999,0.06505290418863297,-9.532051086425781
1.729498048962956e+18,-0.013893121853470802,-0.01121537759900093,-9.466558456420898
1.7294980489689562e+18,-0.0008071684860624373,0.08585520833730698,-9.466832160949707
1.7294980489779564e+18,0.027831796556711197,-0.06537406146526337,-9.457802772521973
1.7294980489869565e+18,-0.08379283547401428,0.04446250572800636,-9.502501487731934
1.7294980489959567e+18,0.04409976676106453,-0.01310824602842331,-9.558553695678711
1.7294980490019569e+18,0.00938450451940298,-0.008198323659598827,-9.488727569580078
1.729498049010957e+18,-0.06899401545524597,0.009535957127809525,-9.498154640197754
1.7294980490199572e+18,0.04891404137015343,0.036778081208467484,-9.501646041870117
1.7294980490259574e+18,-0.04978718236088753,-0.00946543924510479,-9.495509147644043
1.7294980490349576e+18,0.007053811103105545,-0.03901178017258644,-9.534285545349121
1.7294980490409577e+18,-0.05797266215085983,-0.0032503949478268623,-9.531782150268555
1.729498049049958e+18,-0.04868033155798912,0.023977456614375114,-9.526556015014648
1.729498049055958e+18,-0.047042060643434525,0.052538029849529266,-9.531448364257812
1.7294980490649582e+18,-0.06750696897506714,-0.0027470074128359556,-9.497381210327148
1.7294980490739584e+18,-0.0787455290555954,-0.02764142118394375,-9.533829689025879
1.7294980490799585e+18,0.0057311393320560455,-0.09292194247245789,-9.52241325378418
1.7294980490889587e+18,-0.059318333864212036,-0.014965983107686043,-9.559124946594238
1.729498049097959e+18,-0.039236538112163544,-0.05357091873884201,-9.483816146850586
1.729498049103959e+18,0.009510235860943794,-0.01723611354827881,-9.491409301757812
1.7294980491129592e+18,-0.05447707325220108,-0.011920427903532982,-9.557543754577637
1.7294980491189594e+18,-0.06267641484737396,0.06665808707475662,-9.395827293395996
1.7294980491279596e+18,-0.03708145022392273,-0.02834109403192997,-9.462955474853516
1.7294980491369597e+18,0.024882905185222626,-0.08691918849945068,-9.484322547912598
1.7294980491429599e+18,-0.006574531551450491,-0.05940231308341026,-9.484368324279785
1.72949804915196e+18,0.08570762723684311,-0.07680021971464157,-9.454256057739258
1.7294980491579602e+18,0.04714943841099739,-0.009299902245402336,-9.469742774963379
1.7294980491669604e+18,-0.0016144206747412682,0.07816267758607864,-9.50428295135498
1.7294980491729605e+18,-0.05895335227251053,-0.015282674692571163,-9.445775032043457
1.7294980491819607e+18,0.07060949504375458,-0.022126583382487297,-9.504761695861816
1.729498049190961e+18,0.00288946065120399,0.043420061469078064,-9.558138847351074
1.729498049196961e+18,-0.07359140366315842,0.007048714440315962,-9.465019226074219
1.7294980492059612e+18,-0.08131878077983856,0.00011108035687357187,-9.522355079650879
1.7294980492119613e+18,-0.059102773666381836,0.050893936306238174,-9.495654106140137
1.7294980492209615e+18,0.012057129293680191,-0.003100366797298193,-9.549823760986328
1.7294980492299617e+18,0.03580562025308609,0.05911428853869438,-9.530324935913086
1.7294980492359619e+18,0.02296588383615017,-0.05082928016781807,-9.4542818069458
1.729498049244962e+18,-0.005184030160307884,-0.05363037809729576,-9.509819030761719
1.7294980492539622e+18,0.0021091655362397432,0.04905835911631584,-9.47668743133545
1.7294980492629624e+18,-0.061548154801130295,0.06404510140419006,-9.41742992401123
1.7294980492689626e+18,-0.02234276384115219,0.016489941626787186,-9.471302032470703
1.7294980492779628e+18,-0.02953437715768814,0.003844470949843526,-9.48084831237793
1.729498049286963e+18,0.0001580368261784315,0.06514482200145721,-9.461966514587402
1.7294980492959631e+18,0.09112832695245743,0.05414421483874321,-9.476842880249023
1.7294980493019633e+18,-0.04349658638238907,0.00402427464723587,-9.405989646911621
1.7294980493109635e+18,0.0415201261639595,-0.0021536010317504406,-9.356671333312988
1.7294980493199636e+18,-0.04072986915707588,-0.05499177426099777,-9.430886268615723
1.7294980493259638e+18,0.05431455001235008,0.04060504212975502,-9.408618927001953
1.729498049334964e+18,-0.002569358330219984,0.02864750474691391,-9.439310073852539
1.7294980493469642e+18,0.03500274196267128,-0.017885476350784302,-9.49825668334961
1.7294980493589645e+18,0.00340256211347878,0.011818524450063705,-9.420924186706543
1.7294980493679647e+18,-0.023369671776890755,0.009039364755153656,-9.496376037597656
1.7294980493739648e+18,-0.019690707325935364,0.050281375646591187,-9.499727249145508
1.729498049382965e+18,-0.0026747435331344604,-0.013813103549182415,-9.42464542388916
1.7294980493919652e+18,0.0507785938680172,-0.01872223988175392,-9.412238121032715
1.7294980493979653e+18,-0.015695642679929733,-0.029277507215738297,-9.401993751525879
1.7294980494069655e+18,-0.019477948546409607,-0.04126324504613876,-9.382619857788086
1.7294980494129656e+18,-0.0045088124461472034,-0.007590206805616617,-9.459832191467285
1.7294980494219658e+18,0.004864984191954136,-0.04407494142651558,-9.382461547851562
1.729498049430966e+18,0.03579585626721382,0.006910040974617004,-9.409859657287598
1.7294980494369661e+18,0.00043066474609076977,0.007479573134332895,-9.471786499023438
1.7294980494459663e+18,-0.02258460409939289,-0.011079982854425907,-9.361709594726562
1.7294980494549665e+18,0.009481159038841724,-0.0313422754406929,-9.448319435119629
1.7294980494609667e+18,-0.006760562304407358,-0.0073440964333713055,-9.38682746887207
1.7294980494699668e+18,0.0037586118560284376,-0.0015229941345751286,-9.453277587890625
1.729498049478967e+18,0.04114770516753197,-0.001557481475174427,-9.409306526184082
1.7294980494849672e+18,-0.04721565917134285,-0.02805253677070141,-9.382282257080078
1.7294980494939674e+18,-0.015208335593342781,0.003936625551432371,-9.430024147033691
1.7294980495029676e+18,-0.028774786740541458,0.013396902941167355,-9.426656723022461
1.7294980495089677e+18,0.04275551065802574,0.0514923520386219,-9.44012451171875
1.729498049520968e+18,-0.00981916394084692,-0.002447504084557295,-9.44247817993164
1.729498049529968e+18,0.020337620750069618,-0.015894653275609016,-9.422306060791016
1.7294980495359683e+18,-0.018769025802612305,-0.04465831443667412,-9.373977661132812
1.7294980495449684e+18,0.008226676844060421,0.027407940477132797,-9.389850616455078
1.7294980495509686e+18,0.05176888033747673,-0.0090481610968709,-9.422621726989746
1.7294980495629688e+18,-0.017751680687069893,-0.012231209315359592,-9.38428020477295
1.729498049571969e+18,0.00755941541865468,0.020879995077848434,-9.466574668884277
1.7294980495779692e+18,-0.0004240314883645624,-0.03412041813135147,-9.333597183227539
1.7294980495869693e+18,-0.004044766537845135,-0.025903405621647835,-9.434599876403809
1.7294980495959695e+18,0.05502886697649956,-0.0012968305964022875,-9.354342460632324
1.7294980496019697e+18,0.03619635850191116,0.08160421997308731,-9.22846794128418
1.7294980496109699e+18,-0.04527655243873596,0.022954851388931274,-9.316821098327637
1.72949804961697e+18,0.0234149731695652,0.019534923136234283,-9.332125663757324
1.7294980496259702e+18,-0.014542886056005955,-0.09795798361301422,-9.24875259399414
1.7294980496349704e+18,0.006864331662654877,-0.12436448037624359,-9.241660118103027
1.7294980496409705e+18,-0.024332264438271523,-0.006501549854874611,-9.277604103088379
1.7294980496499707e+18,0.04163038730621338,0.007549739908427,-9.141847610473633
1.7294980496559708e+18,-0.07715792208909988,-0.007185595575720072,-9.177067756652832
1.729498049664971e+18,-0.0040890187956392765,0.002511282917112112,-9.066500663757324
1.7294980496739712e+18,0.007617560215294361,-0.025305643677711487,-9.07536506652832
1.7294980496799713e+18,-0.06121384724974632,0.012125769630074501,-9.124414443969727
1.7294980496889715e+18,-0.008352016098797321,0.07807023078203201,-8.988948822021484
1.7294980496949716e+18,-0.028000811114907265,-0.06426722556352615,-9.014747619628906
1.7294980497039718e+18,-0.03205772116780281,0.013735797256231308,-9.092108726501465
1.729498049709972e+18,0.012149174697697163,-0.07813256233930588,-9.04067325592041
1.7294980497189722e+18,0.009248548187315464,-0.047241177409887314,-8.921697616577148
1.7294980497249723e+18,0.025490131229162216,-0.012355933897197247,-8.982415199279785
1.7294980497339725e+18,0.033581800758838654,0.03640446066856384,-8.890440940856934
1.7294980497429727e+18,-0.06406017392873764,0.020068636164069176,-8.830259323120117
1.7294980497519729e+18,0.01239748578518629,-0.027048833668231964,-8.91070556640625
1.729498049757973e+18,-0.024409383535385132,-0.04675949364900589,-8.845429420471191
1.7294980497669732e+18,-0.03664303198456764,0.039538122713565826,-8.818934440612793
1.7294980497729733e+18,-0.04749056696891785,-0.04561983793973923,-8.766216278076172
1.7294980497819735e+18,0.022750724107027054,-0.004476462956517935,-8.886775016784668
1.7294980497909737e+18,0.01913764886558056,0.04124803841114044,-8.722240447998047
1.729498049799974e+18,-0.019819563254714012,-0.007553546689450741,-8.739850997924805
1.729498049805974e+18,-0.004603645298629999,-0.07700689136981964,-8.615865707397461
1.7294980498149742e+18,-0.02906627580523491,0.003712063655257225,-8.672310829162598
1.7294980498239744e+18,0.048514463007450104,0.011433811858296394,-8.617857933044434
1.7294980498329746e+18,-0.05077778175473213,-0.006118107587099075,-8.556587219238281
1.7294980498389747e+18,0.024727527052164078,0.042250219732522964,-8.636091232299805
1.729498049847975e+18,-0.06596274673938751,-0.06003360450267792,-8.711180686950684
1.729498049856975e+18,0.02142365463078022,-0.02609388157725334,-8.660202026367188
1.7294980498629752e+18,0.02719714678823948,-0.032204024493694305,-8.688962936401367
1.7294980498719754e+18,0.026271210983395576,-0.036607202142477036,-8.70293140411377
1.7294980498809756e+18,-0.01874811388552189,0.11049333214759827,-8.706753730773926
1.7294980498869757e+18,-0.09669824689626694,-0.12453301250934601,-8.696944236755371
1.729498049895976e+18,-0.01679880917072296,0.04997679963707924,-8.749815940856934
1.7294980499049761e+18,-0.0585731603205204,-0.007067352999001741,-8.759140014648438
1.7294980499109763e+18,-0.06758882105350494,-0.02003101073205471,-8.757153511047363
1.7294980499199764e+18,-0.04740703105926514,0.005691321101039648,-8.718539237976074
1.7294980499289766e+18,0.05374830588698387,0.019515985623002052,-8.773756980895996
1.7294980499349768e+18,-0.015995291993021965,-0.01805924065411091,-8.72056770324707
1.729498049943977e+18,0.0067904312163591385,0.04274732246994972,-8.754643440246582
1.7294980499529772e+18,-0.03741169348359108,-0.011345977894961834,-8.884781837463379
1.7294980499589773e+18,-0.06537344306707382,0.05344407260417938,-8.807004928588867
1.7294980499679775e+18,4.8461020924150944e-05,0.042114004492759705,-8.80001163482666
1.7294980499769777e+18,0.02424859255552292,-0.03662528470158577,-8.816898345947266
1.7294980499829778e+18,-0.015598928555846214,0.06381172686815262,-13.981752395629883
1.729498049991978e+18,0.015354146249592304,-0.01042979396879673,-15.775840759277344
1.7294980500009782e+18,-0.03814708814024925,0.007366639096289873,-16.06566047668457
1.7294980500069783e+18,0.005502151325345039,-0.0446915403008461,-16.07607650756836
1.7294980500159785e+18,-0.05270423740148544,-0.010022813454270363,-16.191478729248047
1.7294980500219786e+18,0.0227244533598423,-0.024242626503109932,-16.303115844726562
1.7294980500309788e+18,0.03681131824851036,-0.0026224381290376186,-16.179683685302734
1.729498050039979e+18,0.009438566863536835,0.05688747763633728,-16.12497901916504
1.7294980500459791e+18,0.012167575769126415,0.04038006439805031,-15.97789192199707
1.7294980500549793e+18,0.05852501839399338,0.009236556477844715,-15.93539810180664
1.7294980500639795e+18,0.05232870578765869,-0.04626711085438728,-15.695996284484863
1.7294980500699796e+18,-0.07904800027608871,-0.07424148917198181,-15.611008644104004
1.7294980500789798e+18,-0.03712840378284454,-0.040146566927433014,-15.43997573852539
1.72949805008498e+18,-0.05799330770969391,-0.020962633192539215,-15.380168914794922
1.7294980500939802e+18,0.002672916743904352,0.03237106651067734,-15.220428466796875
1.7294980501029804e+18,-0.04924549162387848,-0.0236855186522007,-15.140810012817383
1.7294980501089805e+18,-0.045847777277231216,-0.002994819078594446,-15.047410011291504
1.7294980501179807e+18,-0.02818151004612446,-0.04129187762737274,-14.95053768157959
1.7294980501269809e+18,0.06363102048635483,0.00629124790430069,-14.77232837677002
1.729498050132981e+18,0.035628631711006165,0.016348131000995636,-14.783588409423828
1.7294980501419812e+18,-0.12474334239959717,0.02628556825220585,-14.524998664855957
1.7294980501509814e+18,0.03926558420062065,0.01545870490372181,-14.505561828613281
1.7294980501569815e+18,-0.009457078762352467,0.08346185833215714,-14.467081069946289
1.7294980501659817e+18,0.0020341745112091303,-0.04720509424805641,-14.299112319946289
1.7294980501719818e+18,-0.028026307001709938,0.0017272583208978176,-14.122587203979492
1.729498050180982e+18,0.034372128546237946,-0.04950423911213875,-14.052163124084473
1.7294980501899822e+18,0.05011213570833206,-0.029247045516967773,-14.102201461791992
1.7294980501959823e+18,0.0793873593211174,0.020992564037442207,-13.916147232055664
1.7294980502049825e+18,-0.008254124782979488,0.015238454565405846,-13.822893142700195
1.7294980502109827e+18,0.02369219809770584,0.03524375334382057,-13.741682052612305
1.7294980502199828e+18,0.02685379981994629,-0.019508646801114082,-13.803055763244629
1.729498050228983e+18,-0.036367639899253845,0.027919352054595947,-13.655643463134766
1.7294980502379832e+18,0.008371453732252121,0.006291824858635664,-13.458650588989258
1.7294980502439834e+18,-0.09391558915376663,0.020724454894661903,-13.402619361877441
1.7294980502529836e+18,-0.038720935583114624,0.006871833465993404,-13.430929183959961
1.7294980502589837e+18,-0.05300523340702057,-0.030394187197089195,-13.2874174118042
1.729498050267984e+18,-0.054964493960142136,0.03359789773821831,-13.269987106323242
1.729498050276984e+18,-0.11704058200120926,0.008065820671617985,-13.101408958435059
1.7294980502829842e+18,0.09194932878017426,-0.0481254942715168,-13.097185134887695
1.7294980502919844e+18,0.03603013604879379,-0.04248172789812088,-13.08093547821045
1.7294980503009846e+18,-0.032969459891319275,-0.03896242752671242,-12.8817720413208
1.7294980503069847e+18,-0.03709986060857773,-0.024965789169073105,-12.925835609436035
1.729498050315985e+18,0.03398153930902481,0.022715402767062187,-12.850687026977539
1.729498050324985e+18,-0.011066833510994911,0.035470280796289444,-12.763154983520508
1.7294980503309852e+18,-0.033283498138189316,-0.008125025779008865,-12.72860050201416
1.7294980503399854e+18,-0.019823478534817696,-0.048219673335552216,-12.673966407775879
1.7294980503459855e+18,-0.01984328217804432,0.05363240838050842,-12.582247734069824
1.7294980503549857e+18,0.0010555420303717256,0.008301990106701851,-12.546170234680176
1.729498050363986e+18,0.05285121873021126,-0.011372985318303108,-12.426627159118652
1.729498050369986e+18,-0.02599112130701542,0.02334226295351982,-12.457403182983398
1.7294980503789862e+18,0.02324087731540203,-0.032193634659051895,-12.362738609313965
1.7294980503879864e+18,0.05661117285490036,-0.019804153591394424,-12.320115089416504
1.7294980503939866e+18,0.03225924074649811,0.0290820375084877,-12.204002380371094
1.7294980504029868e+18,-0.025238148868083954,0.06357123702764511,-12.274491310119629
1.729498050411987e+18,-0.03413330763578415,-0.0066554551012814045,-12.249412536621094
1.729498050417987e+18,-0.10808844119310379,0.05554552003741264,-12.1256742477417
1.7294980504269873e+18,-0.024392906576395035,0.02502598986029625,-12.119994163513184
1.7294980504359875e+18,0.05300365388393402,0.02150367759168148,-12.016051292419434
1.7294980504449876e+18,-0.03705839440226555,0.03759094327688217,-12.082301139831543
1.7294980504509878e+18,0.033160459250211716,0.09000159054994583,-11.924894332885742
1.729498050459988e+18,-0.0760137289762497,-0.08284135907888412,-11.967677116394043
1.729498050465988e+18,-0.046812206506729126,-0.037710584700107574,-11.965951919555664
1.7294980504749883e+18,0.007906675338745117,-0.06662535667419434,-11.821528434753418
1.7294980504839885e+18,-0.0016308301128447056,-0.01954435370862484,-11.830578804016113
1.7294980504899886e+18,-0.037785258144140244,0.03225281834602356,-11.771004676818848
1.7294980504989888e+18,-0.0513661652803421,-0.023349065333604813,-11.710628509521484
1.729498050504989e+18,0.005014043767005205,-0.06336496770381927,-11.701911926269531
1.729498050513989e+18,-0.031112827360630035,0.03270864486694336,-11.705750465393066
1.7294980505229893e+18,0.031732384115457535,-0.005529236048460007,-11.6614408493042
1.7294980505319895e+18,-0.019393006339669228,0.026901725679636,-11.5626802444458
1.7294980505379896e+18,0.0070311324670910835,-0.02901754528284073,-11.57292366027832
1.7294980505469898e+18,-0.06874904781579971,0.03316110372543335,-11.490096092224121
1.72949805055299e+18,0.026741083711385727,0.0048319934867322445,-11.489822387695312
1.7294980505619901e+18,-0.024023668840527534,-0.05703434348106384,-11.373552322387695
1.7294980505709903e+18,0.054542623460292816,0.014035084284842014,-11.355098724365234
1.7294980505769905e+18,0.015858907252550125,-0.010871226899325848,-11.420513153076172
1.7294980505859907e+18,0.04494157060980797,0.050820838660001755,-11.383461952209473
1.7294980505949908e+18,-0.04867104813456535,-0.041908685117959976,-11.399425506591797
1.729498050600991e+18,0.018308555707335472,0.003635621629655361,-11.317028045654297
1.7294980506099912e+18,0.08520765602588654,-0.032558903098106384,-11.231269836425781
1.7294980506159913e+18,-0.0012615955201908946,-0.06403018534183502,-11.249825477600098
1.7294980506249915e+18,-0.021008696407079697,-0.07890597730875015,-11.233471870422363
1.7294980506339917e+18,-0.08836214244365692,-0.011070141568779945,-11.25550651550293
1.7294980506399918e+18,-0.0052862693555653095,-0.015477679669857025,-11.273163795471191
1.729498050648992e+18,-0.04092966020107269,-0.030380630865693092,-11.209675788879395
1.7294980506579922e+18,0.018128301948308945,-0.035826027393341064,-11.106002807617188
1.7294980506639923e+18,-0.04155677556991577,-0.007210136856883764,-11.122081756591797
1.7294980506729925e+18,0.018886273726820946,-0.04407390579581261,-11.151264190673828
1.7294980506789926e+18,0.10537754744291306,0.02192966267466545,-11.067864418029785
1.7294980506879928e+18,0.007708132266998291,-0.022500311955809593,-10.995089530944824
1.729498050696993e+18,-0.008378107100725174,0.04375901445746422,-11.013940811157227
1.7294980507059932e+18,0.016637928783893585,0.04401331767439842,-11.013398170471191
1.7294980507149934e+18,-0.005319316405802965,0.04884594306349754,-10.976980209350586
1.7294980507209935e+18,-0.06940996646881104,-0.023726196959614754,-10.946779251098633
1.7294980507299937e+18,0.008698836900293827,-0.0446082167327404,-10.923508644104004
1.729498050738994e+18,-0.03249218314886093,0.0230800099670887,-10.866165161132812
1.729498050744994e+18,0.06017216295003891,0.0690917894244194,-10.834832191467285
1.7294980507539942e+18,0.025435851886868477,0.027874894440174103,-10.808738708496094
1.7294980507599944e+18,0.012514332309365273,0.09444338828325272,-10.80642032623291
1.7294980507689946e+18,-0.01652548275887966,-0.0070241903886199,-10.803041458129883
1.7294980507779948e+18,0.005104908719658852,0.02104777842760086,-10.745128631591797
1.729498050783995e+18,-0.01263685617595911,0.031691621989011765,-10.78402328491211
1.729498050792995e+18,-0.011425571516156197,-0.018099376931786537,-10.773421287536621
1.7294980507989952e+18,0.07819289714097977,-0.027692262083292007,-10.694411277770996
1.7294980508079954e+18,-0.03493410721421242,0.04728659242391586,-10.706000328063965
1.7294980508169956e+18,-0.03352333605289459,-0.0014265365898609161,-10.699183464050293
1.7294980508229957e+18,-0.011380007490515709,-0.04894514009356499,-10.718182563781738
1.729498050831996e+18,-0.04915879666805267,-0.050815943628549576,-10.61460018157959
1.729498050837996e+18,0.07666011154651642,-0.0039125652983784676,-10.703251838684082
1.7294980508469962e+18,-0.03935547545552254,-0.02427060902118683,-10.624277114868164
1.7294980508559964e+18,-0.0033333722967654467,-0.006213917396962643,-10.562766075134277
1.7294980508619965e+18,-0.0011316983727738261,0.08367373794317245,-10.552992820739746
1.7294980508709967e+18,-0.06098273769021034,0.03515351563692093,-10.589038848876953
1.7294980508769969e+18,0.0020782402716577053,0.005248415283858776,-10.58363151550293
1.729498050885997e+18,-0.03564319387078285,0.018477914854884148,-10.486870765686035
1.7294980508919972e+18,-0.013856828212738037,0.03478221967816353,-10.509442329406738
1.7294980509009974e+18,-0.02860388718545437,0.014953620731830597,-10.422733306884766
1.7294980509099976e+18,0.0073846979066729546,-0.07303602993488312,-10.53670883178711
1.7294980509159977e+18,-0.002377839293330908,0.02105344459414482,-10.525303840637207
1.729498050924998e+18,-0.036388248205184937,-0.11816855520009995,-10.475763320922852
1.729498050933998e+18,0.05179588124155998,0.00799889862537384,-10.522157669067383
1.7294980509429983e+18,-0.0036864904686808586,0.0023431526497006416,-10.416577339172363
1.7294980509489984e+18,0.05180343985557556,0.0037148199044167995,-10.378096580505371
1.7294980509579986e+18,-0.07728054374456406,-0.06827694177627563,-10.427002906799316
1.7294980509669988e+18,-0.013493302278220654,-0.04915967583656311,-10.40833568572998
1.729498050972999e+18,-0.09895996004343033,-0.005950511898845434,-10.451436042785645
1.729498050981999e+18,-0.019705181941390038,-0.06560558825731277,-10.382529258728027
1.7294980509909993e+18,0.021563831716775894,0.03333152458071709,-10.35104751586914
1.7294980509969994e+18,0.17922911047935486,0.012869591824710369,-10.391032218933105
1.7294980510059996e+18,0.06676261872053146,0.014868630096316338,-10.33947467803955
1.7294980510149998e+18,0.04817427322268486,-0.0715736448764801,-10.315828323364258
1.729498051024e+18,-0.0010890255216509104,0.009847434237599373,-10.318551063537598
1.7294980510330002e+18,0.03249721974134445,-0.03538573533296585,-10.298927307128906
1.7294980510420004e+18,-0.03582703694701195,-0.11770294606685638,-10.292096138000488
1.7294980510480005e+18,-0.016197940334677696,0.016450315713882446,-10.279926300048828
1.7294980510570007e+18,0.012332471087574959,0.047790851444005966,-10.313015937805176
1.729498051066001e+18,-0.019741328433156013,-0.001312422682531178,-10.234356880187988
1.729498051072001e+18,-0.03599555417895317,0.021464865654706955,-10.25937557220459
1.7294980510810012e+18,-0.02808777429163456,0.031847499310970306,-10.26240062713623
1.7294980510900014e+18,-0.026501085609197617,0.024998238310217857,-10.256589889526367
1.7294980510960015e+18,0.05467510223388672,-0.07123575359582901,-10.217307090759277
1.7294980511050017e+18,0.04791923239827156,-0.0132070267572999,-10.234509468078613
1.729498051114002e+18,0.035994160920381546,0.03594852611422539,-10.192615509033203
1.729498051123002e+18,-0.03571772575378418,-0.07364757359027863,-10.130748748779297
1.7294980511290022e+18,-0.03807744383811951,0.033053040504455566,-10.1835298538208
1.7294980511380024e+18,-0.030185377225279808,0.013762539252638817,-10.056113243103027
1.7294980511470026e+18,-0.030830925330519676,-0.012384300120174885,-10.128288269042969
1.7294980511530028e+18,-0.005028133746236563,-0.03435966745018959,-10.196773529052734
1.729498051162003e+18,-0.0044842008501291275,-0.0447939895093441,-10.190777778625488
1.7294980511710031e+18,-0.00820168387144804,-0.11542224138975143,-10.048407554626465
1.7294980511770033e+18,-0.009473669342696667,-0.02443535439670086,-10.163187980651855
1.7294980511860035e+18,0.08212389051914215,-0.01453985646367073,-10.07270622253418
1.7294980511950036e+18,-0.05385725945234299,0.0893050879240036,-10.116518020629883
1.7294980512010038e+18,0.011008227244019508,-0.005532501265406609,-10.143335342407227
1.729498051213004e+18,-0.027744842693209648,-0.0091269975528121,-10.060282707214355
1.7294980512190042e+18,0.04317864403128624,0.037048306316137314,-10.053999900817871
1.7294980512280044e+18,0.00026338486350141466,-0.015315758064389229,-10.047542572021484
1.7294980512370045e+18,-0.021430764347314835,0.033721841871738434,-10.086153984069824
1.7294980512430047e+18,-0.03450600057840347,-0.06699344515800476,-10.112748146057129
1.7294980512520049e+18,0.007230576127767563,0.050339698791503906,-10.051233291625977
1.729498051261005e+18,0.07050402462482452,0.013405312784016132,-10.115226745605469
1.7294980512670052e+18,0.014136360958218575,-0.007622969336807728,-10.009344100952148
1.7294980512760054e+18,0.03098318539559841,0.0746566578745842,-10.01204776763916
1.7294980512850056e+18,0.05987030267715454,0.0008738812757655978,-10.0524263381958
1.7294980512910057e+18,0.003858736716210842,-0.012532050721347332,-10.023472785949707
1.729498051300006e+18,-0.05607686564326286,0.015480437316000462,-10.039351463317871
1.729498051309006e+18,0.04335381090641022,0.02767729014158249,-10.060664176940918
1.7294980513150062e+18,0.0781230553984642,0.01411998551338911,-10.017407417297363
1.7294980513240064e+18,-0.013738561421632767,-0.08977898210287094,-9.980314254760742
1.7294980513330066e+18,0.011541957035660744,0.05454659461975098,-9.953063011169434
1.7294980513420068e+18,-0.019522450864315033,0.02025098353624344,-9.945504188537598
1.729498051348007e+18,-0.005138866137713194,-0.032115548849105835,-9.94723129272461
1.729498051357007e+18,0.001668700366280973,0.07987922430038452,-9.976776123046875
1.7294980513660073e+18,0.017660463228821754,0.03550092130899429,-9.980735778808594
1.7294980513720074e+18,-0.029075099155306816,0.0141043895855546,-9.977253913879395
1.7294980513810076e+18,0.003808882785961032,0.05668451264500618,-9.924100875854492
1.7294980513870077e+18,0.07878294587135315,-0.02286270633339882,-9.978615760803223
1.729498051399008e+18,0.04356951266527176,0.04217866063117981,-10.007657051086426
1.7294980514050081e+18,0.023348461836576462,-0.002939643571153283,-9.879711151123047
1.7294980514140083e+18,0.043719854205846786,0.00832007173448801,-9.862689018249512
1.7294980514230085e+18,0.060983408242464066,0.0001224091392941773,-9.835530281066895
1.7294980514290086e+18,0.006071488838642836,-0.03254558518528938,-9.897980690002441
1.7294980514380088e+18,-0.06489478051662445,-0.050368886440992355,-9.923644065856934
1.729498051447009e+18,-0.0014231016393750906,0.008550134487450123,-9.855100631713867
1.7294980514560092e+18,0.006561151705682278,-0.019734591245651245,-9.931290626525879
1.7294980514650094e+18,-0.02712790109217167,0.03425024077296257,-9.866938591003418
1.7294980514710095e+18,-0.016487829387187958,-0.04121878743171692,-9.866480827331543
1.7294980514800097e+18,-0.023800445720553398,0.06029554083943367,-9.862100601196289
1.72949805149501e+18,0.05269727110862732,0.018845796585083008,-9.915207862854004
1.7294980515070103e+18,0.053977034986019135,0.026459552347660065,-9.943991661071777
1.7294980515160105e+18,0.0019896687008440495,-0.037252094596624374,-9.901314735412598
1.7294980515250107e+18,-0.0308636873960495,-0.051054708659648895,-9.849847793579102
1.729498051534011e+18,-0.03098105452954769,0.021751031279563904,-9.883838653564453
1.729498051540011e+18,0.017262885347008705,-0.03044184297323227,-9.818121910095215
1.7294980515490112e+18,0.007958780974149704,0.02697758749127388,-9.865063667297363
1.7294980515580114e+18,0.0316489115357399,0.02596500888466835,-9.935357093811035
1.7294980515670116e+18,-0.043413493782281876,0.05289096757769585,-9.847064971923828
1.7294980515730117e+18,0.018798207864165306,-0.020154602825641632,-9.787396430969238
1.729498051582012e+18,0.05525887757539749,-0.019149044528603554,-9.8436918258667
1.729498051591012e+18,0.021003395318984985,-0.012715932913124561,-9.808547019958496
1.7294980515970122e+18,-0.03131042793393135,-0.0629451647400856,-9.862967491149902
1.7294980516060124e+18,0.013269693590700626,0.010972026735544205,-9.877117156982422
1.7294980516120125e+18,0.08833494037389755,-0.08247023075819016,-9.838055610656738
1.7294980516210127e+18,-0.04703609645366669,0.05719609558582306,-9.880477905273438
1.7294980516270129e+18,0.018949778750538826,0.009446967393159866,-9.83251953125
1.729498051636013e+18,-0.03601512312889099,-0.004864444024860859,-9.851737976074219
1.7294980516420132e+18,0.020126821473240852,0.03337230905890465,-9.798627853393555
1.7294980516510134e+18,0.04785926267504692,0.006652963813394308,-9.776754379272461
1.7294980516600136e+18,0.021850693970918655,-0.004035084508359432,-9.700821876525879
1.7294980516660137e+18,0.016950633376836777,0.05488356947898865,-9.75409984588623
1.7294980516720138e+18,-0.006385024171322584,-0.020439350977540016,-9.828163146972656
1.729498051681014e+18,0.0073786042630672455,-0.025577345862984657,-9.810465812683105
1.7294980516900142e+18,0.03482719883322716,0.0007881573401391506,-9.741663932800293
1.7294980516960143e+18,0.02050515078008175,0.007811375893652439,-9.763066291809082
1.7294980517050145e+18,-0.09034635126590729,-0.020009011030197144,-9.821932792663574
1.7294980517140147e+18,-0.04034031555056572,0.008387081325054169,-9.768142700195312
1.729498051723015e+18,-0.0025345527101308107,0.1026599183678627,-9.776701927185059
1.729498051729015e+18,-0.007263218984007835,-0.011586782522499561,-9.78175163269043
1.7294980517380152e+18,0.02766677550971508,0.02520471252501011,-9.813350677490234
1.7294980517470154e+18,-0.0009324575075879693,0.048508502542972565,-9.876457214355469
1.7294980517560156e+18,-0.020153703168034554,-0.008729211986064911,-9.779481887817383
1.7294980517650158e+18,-0.019061466678977013,-0.012660438194870949,-9.818693161010742
1.729498051771016e+18,0.02568049356341362,-0.031101340427994728,-9.788970947265625
1.729498051780016e+18,0.01499240193516016,-0.04416143149137497,-9.72216796875
1.7294980517860163e+18,0.08908133208751678,-0.004163683392107487,-9.74085521697998
1.7294980517950164e+18,-0.015769990161061287,-0.004653030540794134,-9.762425422668457
1.7294980518040166e+18,0.06430617719888687,0.033746253699064255,-9.841081619262695
1.7294980518100168e+18,-0.005612545646727085,0.002835039049386978,-9.707719802856445
1.729498051819017e+18,-0.02142418548464775,0.0010486477985978127,-9.796415328979492
1.729498051825017e+18,0.04714364930987358,0.001011092565022409,-9.747568130493164
1.7294980518340173e+18,0.08224404603242874,0.006240723188966513,-9.797717094421387
1.7294980518400174e+18,0.04505649209022522,0.016389572992920876,-9.721569061279297
1.7294980518490176e+18,-0.041321057826280594,0.0046676406636834145,-9.784879684448242
1.7294980518580178e+18,-0.09460742026567459,0.02565709501504898,-9.767389297485352
1.729498051864018e+18,0.006761237513273954,0.017241820693016052,-9.755022048950195
1.729498051873018e+18,-0.011935988441109657,-0.015023201704025269,-9.728785514831543
1.7294980518790182e+18,-0.010253576561808586,0.012094489298760891,-9.789735794067383
1.7294980518880184e+18,0.0521710067987442,0.025659088045358658,-9.747806549072266
1.7294980518970186e+18,0.05191933736205101,-0.012720868922770023,-9.736952781677246
1.7294980519030188e+18,0.013393589295446873,-0.021078433841466904,-9.713885307312012
1.729498051912019e+18,0.04864264652132988,0.01906798966228962,-9.718040466308594
1.7294980519270193e+18,0.011588098481297493,0.01964113488793373,-9.718899726867676
1.7294980519360195e+18,-0.06715366244316101,-0.040063582360744476,-9.82120132446289
1.7294980519450196e+18,-0.027075447142124176,-0.053658921271562576,-9.69221019744873
1.7294980519510198e+18,-0.06407401710748672,-0.05997510999441147,-9.714553833007812
1.72949805196002e+18,0.006260289810597897,-0.03434490039944649,-9.704439163208008
1.7294980519690202e+18,-0.00940978154540062,0.05946410447359085,-9.738451957702637
1.7294980519780204e+18,-0.0014514426002278924,0.012744994834065437,-9.82242202758789
1.7294980519840205e+18,-0.03395484387874603,0.07090426236391068,-9.713794708251953
1.7294980519930207e+18,0.056003671139478683,-0.003800296690315008,-9.7385892868042
1.7294980520020209e+18,-0.058952003717422485,0.0012058705324307084,-9.765707969665527
1.729498052008021e+18,-3.295725036878139e-05,-0.049080926924943924,-9.701738357543945
1.7294980520170212e+18,0.026671240106225014,0.05632643774151802,-9.791786193847656
1.7294980520260214e+18,-0.023977432399988174,-0.031786419451236725,-9.896035194396973
1.7294980520350216e+18,0.06909654289484024,-0.02867314964532852,-9.862781524658203
1.7294980520440218e+18,0.0021417082753032446,-0.035193588584661484,-9.856977462768555
1.729498052050022e+18,-0.04759545996785164,-0.018066272139549255,-9.819901466369629
1.729498052059022e+18,-0.04050007089972496,0.069273442029953,-9.870295524597168
1.7294980520680223e+18,0.03292533755302429,0.03742494806647301,-9.839021682739258
1.7294980520770225e+18,-0.011087645776569843,-0.03193746507167816,-9.766931533813477
1.7294980520830226e+18,0.03041590191423893,0.021122584119439125,-9.843636512756348
1.7294980520920228e+18,-0.027531670406460762,0.006849209778010845,-9.80119514465332
1.729498052101023e+18,-0.05563490837812424,0.03798741474747658,-9.806675910949707
1.7294980521100232e+18,-0.1070050373673439,-0.06815504282712936,-9.78105640411377
1.7294980521160233e+18,0.025537598878145218,0.01455717533826828,-9.797707557678223
1.7294980521250235e+18,-0.0012407931499183178,-0.038040533661842346,-9.794110298156738
1.7294980521340237e+18,-0.028014671057462692,0.053268902003765106,-9.865633964538574
1.7294980521430239e+18,0.05772187188267708,-0.005497564096003771,-9.813702583312988
1.729498052152024e+18,-0.052736200392246246,-0.061801258474588394,-9.713946342468262
1.7294980521580242e+18,-0.04481247439980507,-0.0021550168748944998,-9.76075553894043
1.7294980521670244e+18,0.002855705562978983,0.018333299085497856,-9.829497337341309
1.7294980521760246e+18,-0.06147671863436699,-0.0418214276432991,-9.83651065826416
1.7294980521850248e+18,-0.041565123945474625,-0.015175750479102135,-9.876371383666992
1.729498052194025e+18,-0.07144585996866226,-0.006561790592968464,-9.79010009765625
1.729498052200025e+18,-0.02824505977332592,0.031154200434684753,-9.775928497314453
1.7294980522090253e+18,0.023053836077451706,-0.05380295217037201,-9.781241416931152
1.7294980522180255e+18,0.04134117811918259,-0.002346573630347848,-9.762398719787598
1.7294980522240256e+18,0.03210633248090744,0.049825165420770645,-9.700469970703125
1.7294980522330258e+18,-0.008350882679224014,0.036808643490076065,-9.807591438293457
1.729498052239026e+18,0.03305269032716751,0.00371682271361351,-9.74700927734375
1.729498052248026e+18,0.013725116848945618,-0.026082539930939674,-9.789608001708984
1.7294980522570263e+18,-0.027384987100958824,0.029710659757256508,-9.702361106872559
1.7294980522630264e+18,0.02273968607187271,-0.02860814891755581,-9.743424415588379
1.7294980522720266e+18,-0.014007212594151497,0.021127263084053993,-9.754229545593262
1.7294980522780268e+18,0.0200557392090559,0.05235294625163078,-9.797968864440918
1.729498052287027e+18,0.012696475721895695,-0.023230137303471565,-9.81076431274414
1.7294980522960271e+18,0.051515087485313416,0.05650394409894943,-9.78799057006836
1.7294980523020273e+18,0.014150288887321949,0.07345987111330032,-9.744959831237793
1.7294980523110275e+18,-0.0007103108800947666,-0.05032062530517578,-9.743664741516113
1.7294980523200276e+18,-0.017988676205277443,-0.013766174204647541,-9.684252738952637
1.7294980523290278e+18,-0.013062403537333012,-0.03764083981513977,-9.784660339355469
1.729498052335028e+18,-0.11122138798236847,0.04164685681462288,-9.758082389831543
1.7294980523440282e+18,-0.03126008063554764,0.05230884253978729,-9.737062454223633
1.7294980523530284e+18,0.009504756890237331,0.07699134200811386,-9.685800552368164
1.7294980523590285e+18,-0.0031999112106859684,0.003421069821342826,-9.734405517578125
1.7294980523680287e+18,0.055350448936223984,0.02910589799284935,-9.745821952819824
1.7294980523770289e+18,0.028416920453310013,-0.009805243462324142,-9.854897499084473
1.729498052383029e+18,0.0042918529361486435,-0.01620638370513916,-9.78929615020752
1.7294980523920292e+18,0.02335282415151596,0.026200147345662117,-9.812540054321289
1.7294980524010294e+18,-0.02573997713625431,-0.04287188500165939,-9.857516288757324
1.7294980524070295e+18,0.000510499463416636,0.03794199600815773,-9.784456253051758
1.7294980524190298e+18,0.0538380891084671,-0.01734173484146595,-9.74118423461914
1.72949805243103e+18,-0.09482971578836441,-0.02296447940170765,-9.7577543258667
1.7294980524370301e+18,0.01689179055392742,0.04455746337771416,-9.686575889587402
1.7294980524460303e+18,0.011803662404417992,-0.013403898105025291,-9.75418472290039
1.7294980524550305e+18,-0.017330903559923172,0.022061096504330635,-9.700709342956543
1.7294980524640307e+18,-0.0833674743771553,0.04771305248141289,-9.707666397094727
1.7294980524700308e+18,0.008339389227330685,0.007326830644160509,-9.735601425170898
1.729498052479031e+18,-0.0036934134550392628,-0.040379948914051056,-9.817683219909668
1.7294980524880312e+18,0.0071144262328743935,-0.053310640156269073,-9.795284271240234
1.7294980524940314e+18,0.009152240119874477,-0.06883599609136581,-9.74549674987793
1.7294980525030316e+18,0.005322866607457399,0.02018822357058525,-9.782588005065918
1.7294980525090317e+18,-0.07305758446455002,0.01832357421517372,-9.718287467956543
1.729498052518032e+18,0.019447486847639084,0.0654597207903862,-9.733199119567871
1.729498052527032e+18,0.013195749372243881,-0.0017095520161092281,-9.716630935668945
1.7294980525330322e+18,-0.015217579901218414,0.021464304998517036,-9.721772193908691
1.7294980525420324e+18,-0.05017489567399025,-0.02296307682991028,-9.775032043457031
1.7294980525510326e+18,0.019538545981049538,-0.02299758605659008,-9.646222114562988
1.7294980525570327e+18,-0.004235297907143831,-0.0015934593975543976,-9.760445594787598
1.729498052566033e+18,-0.010401718318462372,-0.033213868737220764,-9.669964790344238
1.729498052575033e+18,-0.004463109187781811,-0.006839655339717865,-9.717107772827148
1.7294980525840333e+18,-0.05256121978163719,0.049584466964006424,-9.744108200073242
1.7294980525900334e+18,0.017932748422026634,-0.03326436132192612,-9.751585960388184
1.7294980525990336e+18,0.021656913682818413,-0.02793102338910103,-9.659795761108398
1.7294980526080338e+18,-0.016725746914744377,0.012065103277564049,-9.765533447265625
1.729498052614034e+18,-0.0396740660071373,-0.01219848357141018,-9.71467113494873
1.729498052623034e+18,-0.014189550653100014,-0.06765396893024445,-9.807418823242188
1.7294980526290342e+18,0.025077782571315765,-0.035141121596097946,-9.757648468017578
1.7294980526380344e+18,0.05923035368323326,0.02022632211446762,-9.757095336914062
1.7294980526470346e+18,0.014232016168534756,-0.05256667360663414,-9.707347869873047
1.7294980526530348e+18,-0.059249937534332275,-0.03222372382879257,-9.709842681884766
1.729498052662035e+18,0.08520863205194473,0.0451335608959198,-9.788902282714844
1.7294980526710351e+18,-0.016269465908408165,-0.007546097040176392,-9.740588188171387
1.7294980526770353e+18,-0.0018910369835793972,0.02152460627257824,-9.800997734069824
1.7294980526860355e+18,0.004871421959251165,-0.06207818165421486,-9.759794235229492
1.7294980526950356e+18,0.053859781473875046,-0.04963002726435661,-9.655200958251953
1.7294980527010358e+18,-0.040152959525585175,0.01534795481711626,-9.71243953704834
1.729498052710036e+18,0.011984894052147865,0.01100180298089981,-9.733329772949219
1.7294980527190362e+18,0.031765177845954895,0.016963709145784378,-9.711132049560547
1.7294980527280364e+18,0.001931064180098474,-0.04588092491030693,-9.773675918579102
1.7294980527340365e+18,0.13886050879955292,0.00242893910035491,-9.755081176757812
1.7294980527430367e+18,-0.06900298595428467,-0.026689404621720314,-9.698416709899902
1.7294980527520369e+18,-0.009950918145477772,-0.03643934056162834,-9.731247901916504
1.729498052761037e+18,0.03638402372598648,0.011864553205668926,-9.707266807556152
1.7294980527670372e+18,0.05769949406385422,0.039396923035383224,-9.761927604675293
1.7294980527760374e+18,0.09479892253875732,0.07431387901306152,-9.781222343444824
1.7294980527850376e+18,0.03658132627606392,-0.020843978971242905,-9.709943771362305
1.7294980527940378e+18,-0.005816284567117691,-0.01231478527188301,-9.706671714782715
1.729498052800038e+18,-0.03780467063188553,0.08574973046779633,-9.746867179870605
1.729498052809038e+18,-0.0034666606225073338,0.004317378159612417,-9.771218299865723
1.7294980528180383e+18,0.0453675203025341,0.04004313424229622,-9.689103126525879
1.7294980528240384e+18,-0.04820314422249794,-0.025303669273853302,-9.725959777832031
1.7294980528330386e+18,-0.05422303080558777,-0.03343609347939491,-9.717619895935059
1.7294980528420388e+18,0.026323571801185608,-0.07269462198019028,-9.723363876342773
1.729498052851039e+18,0.0026099844835698605,-0.0037760597188025713,-9.808576583862305
1.729498052857039e+18,0.02684919722378254,-0.05477852374315262,-9.735818862915039
1.7294980528660393e+18,-0.03826477378606796,0.02859945222735405,-9.779210090637207
1.7294980528750395e+18,0.10713799297809601,0.00047295523108914495,-9.767861366271973
1.7294980528840397e+18,0.000971824920270592,-0.10667946934700012,-9.672054290771484
1.7294980528900398e+18,-0.06561947613954544,0.04431089758872986,-9.709383964538574
1.72949805289904e+18,0.012616397812962532,-0.03359255567193031,-9.783282279968262
1.7294980529080402e+18,-0.023212609812617302,-0.043693047016859055,-9.73001480102539
1.7294980529140403e+18,-0.03383794054389,0.026142219081521034,-9.7339448928833
1.7294980529230405e+18,-0.006005419418215752,-0.05895448103547096,-9.717543601989746
1.7294980529320407e+18,-0.015001025050878525,0.014019542373716831,-9.740586280822754
1.7294980529380408e+18,0.07284709066152573,-0.03892102092504501,-9.741044998168945
1.729498052947041e+18,0.02665230818092823,-0.09862461686134338,-9.690407752990723
1.7294980529560412e+18,0.04489194229245186,-0.02455783449113369,-9.755620002746582
1.7294980529650414e+18,0.009977048262953758,0.012352917343378067,-9.793498992919922
1.7294980529710415e+18,-0.08000541478395462,-0.014446510002017021,-9.743768692016602
1.7294980529800417e+18,0.008450252003967762,0.002208696212619543,-9.672918319702148
1.729498052989042e+18,0.00822388008236885,-0.020698189735412598,-9.80327033996582
1.7294980530010422e+18,-0.04550887644290924,0.023326482623815536,-9.729447364807129
1.7294980530100424e+18,0.04095553979277611,0.043677181005477905,-9.708779335021973
1.7294980530190426e+18,-0.019342368468642235,0.000389107852242887,-9.751307487487793
1.7294980530250427e+18,-0.041426535695791245,-0.01521242968738079,-9.754809379577637
1.729498053034043e+18,0.06571866571903229,0.03760218247771263,-9.75361442565918
1.729498053043043e+18,-0.0041031441651284695,0.12057774513959885,-9.698150634765625
1.7294980530490432e+18,-0.009721004404127598,0.05282846465706825,-9.734888076782227
1.7294980530580434e+18,0.03569599613547325,0.058010321110486984,-9.70238971710205
1.7294980530670436e+18,-0.045890048146247864,0.001954246312379837,-9.699305534362793
1.7294980530730437e+18,-0.06899344176054001,0.0038781086914241314,-9.778956413269043
1.729498053082044e+18,-0.08933733403682709,-0.016209280118346214,-9.763738632202148
1.729498053091044e+18,0.014573396183550358,0.0064692930318415165,-9.708127975463867
1.7294980531000443e+18,-0.04835904762148857,0.026978520676493645,-9.715178489685059
1.7294980531060444e+18,-0.0038634450174868107,-0.006691218353807926,-9.735810279846191
1.7294980531150446e+18,0.049514900892972946,0.009884570725262165,-9.74705696105957
1.7294980531240448e+18,-0.015134226530790329,0.007265897933393717,-9.760583877563477
1.729498053133045e+18,0.05051189288496971,-0.006223840173333883,-9.813552856445312
1.729498053139045e+18,-0.018367908895015717,-0.07667853683233261,-9.693756103515625
1.7294980531480453e+18,0.0005594666581600904,0.045828379690647125,-9.645177841186523
1.7294980531570455e+18,0.0011540122795850039,-0.00524720037356019,-9.719178199768066
1.7294980531630456e+18,-0.012868673540651798,0.021877912804484367,-9.735074996948242
1.7294980531720458e+18,0.06527724117040634,0.005850484594702721,-9.696455955505371
1.729498053178046e+18,-0.04029529541730881,0.07094249874353409,-9.754372596740723
1.7294980531870461e+18,0.002884429879486561,0.04678988829255104,-9.708999633789062
1.7294980531960463e+18,-0.016531163826584816,0.052913714200258255,-9.854065895080566
1.7294980532020465e+18,-0.047226615250110626,0.10026214271783829,-9.817144393920898
1.7294980532110467e+18,0.0238274447619915,0.015391837805509567,-9.784785270690918
1.7294980532200468e+18,0.04314012452960014,-0.016321567818522453,-9.709845542907715
1.729498053226047e+18,0.0017629364738240838,-0.023396281525492668,-9.629606246948242
1.7294980532350472e+18,-0.029470913112163544,-0.02404817007482052,-9.72021484375
1.7294980532470474e+18,-0.004901497159153223,0.08288200944662094,-9.718208312988281
1.7294980532560476e+18,0.01647413894534111,-0.0065847113728523254,-9.759395599365234
1.7294980532650478e+18,0.004738509189337492,0.0568632036447525,-9.71074104309082
1.729498053271048e+18,0.02833971008658409,0.027173565700650215,-9.777974128723145
1.729498053280048e+18,0.05233593285083771,0.0330314114689827,-9.783802032470703
1.7294980532890483e+18,0.037973202764987946,0.07879514992237091,-9.768166542053223
1.7294980532950484e+18,0.0006996662123128772,0.024904683232307434,-9.722633361816406
1.7294980533040486e+18,0.05412474647164345,-0.04173845797777176,-9.780630111694336
1.7294980533130488e+18,0.0061882901936769485,0.021834194660186768,-9.6611328125
1.729498053319049e+18,0.07846185564994812,0.016335567459464073,-9.840195655822754
1.7294980533280492e+18,-0.016149869188666344,-0.016505548730492592,-9.778589248657227
1.7294980533370493e+18,-0.023179953917860985,-0.010425219312310219,-9.748103141784668
1.7294980533490496e+18,0.10150078684091568,-0.03825164958834648,-9.736879348754883
1.7294980533580498e+18,-0.04032106697559357,0.004630710929632187,-9.789522171020508
1.72949805336705e+18,-0.005890861619263887,0.009071827866137028,-9.769826889038086
1.7294980533760502e+18,-0.0038343484047800303,0.05789738893508911,-9.7964506149292
1.7294980533820503e+18,0.010732127353549004,-0.043488144874572754,-9.766600608825684
1.7294980533910505e+18,0.04453502222895622,0.008756309747695923,-9.708027839660645
1.7294980533970506e+18,-0.02231277897953987,0.0821835920214653,-9.725468635559082
1.7294980534060508e+18,0.023159774020314217,0.04785412549972534,-9.78441333770752
1.729498053415051e+18,0.04898339509963989,0.016560733318328857,-9.739861488342285
1.7294980534210511e+18,-0.03967219963669777,0.027338135987520218,-9.789274215698242
1.7294980534300513e+18,0.04049806296825409,0.007417998742312193,-9.747716903686523
1.7294980534390515e+18,-0.031842056661844254,0.07478153705596924,-9.788712501525879
1.7294980534450516e+18,0.024034302681684494,-0.05616850033402443,-9.814446449279785
1.7294980534540518e+18,0.02796987257897854,-0.013246510177850723,-9.77358341217041
1.729498053466052e+18,0.011703026480972767,-0.03022327646613121,-9.776926040649414
1.7294980534750523e+18,0.0031051612459123135,-0.031761836260557175,-9.720233917236328
1.7294980534810524e+18,0.01102710235863924,0.09303613007068634,-9.78467082977295
1.7294980534900526e+18,-0.025378938764333725,0.050168246030807495,-9.730724334716797
1.7294980534990528e+18,0.024668298661708832,-0.051237527281045914,-9.767180442810059
1.729498053508053e+18,-0.026136524975299835,0.017279790714383125,-9.81627368927002
1.729498053514053e+18,0.039983976632356644,0.02963564172387123,-9.811983108520508
1.7294980535230533e+18,0.03852730616927147,0.024902958422899246,-9.738320350646973
1.7294980535290534e+18,0.04681442305445671,-0.019067900255322456,-9.717159271240234
1.7294980535380536e+18,-0.008719638921320438,-0.015760470181703568,-9.74765396118164
1.7294980535470538e+18,-0.02628551796078682,-0.018047291785478592,-9.787038803100586
1.729498053559054e+18,0.007017766125500202,-0.02730262652039528,-9.774263381958008
1.7294980535680543e+18,-0.0490582250058651,0.056051719933748245,-9.84148120880127
1.7294980535740544e+18,0.064719058573246,-0.031936898827552795,-9.803768157958984
1.7294980535830546e+18,-0.0244568083435297,0.013460090383887291,-9.836966514587402
1.7294980535920548e+18,0.026247823610901833,0.005622858181595802,-9.73595905303955
1.729498053598055e+18,-0.08144763112068176,-0.005458316765725613,-9.734267234802246
1.729498053607055e+18,0.100469209253788,0.04352259263396263,-9.798898696899414
1.7294980536160553e+18,0.007386379409581423,-0.014791497960686684,-9.686319351196289
1.7294980536220554e+18,0.010922543704509735,-0.022395392879843712,-9.772098541259766
1.7294980536310556e+18,0.0489371120929718,-0.03677789121866226,-9.789701461791992
1.7294980536400558e+18,0.06762325018644333,-0.04209739714860916,-9.756265640258789
1.729498053646056e+18,-0.059820350259542465,-0.0728093832731247,-9.826074600219727
1.7294980536550561e+18,-0.06464046239852905,-0.005267225205898285,-9.752607345581055
1.7294980536610563e+18,0.09244144707918167,-0.10289020836353302,-9.72203540802002
1.7294980536700564e+18,-0.05111967772245407,0.0641598328948021,-9.728201866149902
1.7294980536790566e+18,-0.0450691394507885,-0.009709261357784271,-9.769689559936523
1.7294980536880568e+18,-0.0018118483712896705,-0.04218319058418274,-9.778020858764648
1.729498053694057e+18,0.014405608177185059,0.06971542537212372,-9.785922050476074
1.7294980537030572e+18,-0.07306092977523804,-0.0838528722524643,-9.781429290771484
1.7294980537120573e+18,-0.03774213045835495,0.04367334395647049,-9.754432678222656
1.7294980537180575e+18,0.010114418342709541,0.05023324117064476,-9.728080749511719
1.7294980537270577e+18,0.010177239775657654,-0.04587780311703682,-9.766451835632324
1.7294980537360579e+18,0.026864897459745407,-0.020844990387558937,-9.746326446533203
1.729498053745058e+18,0.009700759314000607,-0.028779437765479088,-9.797348022460938
1.7294980537510582e+18,-0.002986236708238721,-0.062186285853385925,-9.761357307434082
1.7294980537600584e+18,0.028251362964510918,0.09309009462594986,-9.72563362121582
1.7294980537660585e+18,-0.020431920886039734,-0.015071245841681957,-9.719392776489258
1.7294980537750587e+18,0.0020517450757324696,-0.04525027424097061,-9.770231246948242
1.7294980537810588e+18,-0.00749241653829813,-0.06736927479505539,-9.785056114196777
1.729498053790059e+18,0.02630523033440113,0.0022571703884750605,-9.783442497253418
1.7294980537990592e+18,0.0767892375588417,0.04618553817272186,-9.753548622131348
1.7294980538080594e+18,-0.01965731754899025,0.040954239666461945,-9.708024024963379
1.7294980538140595e+18,0.04806748032569885,-0.0487947091460228,-9.84074878692627
1.7294980538230597e+18,0.07025161385536194,0.02141006477177143,-9.751466751098633
1.72949805383206e+18,-0.018591204658150673,-0.03401414304971695,-9.801918029785156
1.72949805383806e+18,0.03821897506713867,0.06272319704294205,-9.798948287963867
1.7294980538470602e+18,-0.006986812688410282,0.03109975904226303,-9.78684139251709
1.7294980538560604e+18,-0.02150668017566204,-0.05186296999454498,-9.783470153808594
1.7294980538650606e+18,0.03470208868384361,0.01596546545624733,-9.832413673400879
1.7294980538740608e+18,0.0005603694589808583,0.022306781262159348,-9.80862808227539
1.729498053880061e+18,-0.08708386868238449,0.045634474605321884,-9.815866470336914
1.729498053889061e+18,-0.007199845742434263,0.019205553457140923,-9.732415199279785
1.7294980538980613e+18,-0.019594060257077217,-0.023186320438981056,-9.806869506835938
1.7294980539070615e+18,-0.0014543603174388409,-0.049119677394628525,-9.670965194702148
1.7294980539130616e+18,0.003159487387165427,-0.027206145226955414,-9.793392181396484
1.7294980539220618e+18,-0.0002408194268355146,0.009693295694887638,-9.782175064086914
1.729498053928062e+18,-0.02645774371922016,0.04207364842295647,-9.814979553222656
1.7294980539370621e+18,-0.04379909485578537,-0.006138872820883989,-9.85289478302002
1.7294980539460623e+18,0.029601741582155228,-0.022041473537683487,-9.834992408752441
1.7294980539550625e+18,0.07673655450344086,-0.03196818754076958,-9.84522819519043
1.7294980539610627e+18,-0.023576654493808746,0.010500658303499222,-9.772109031677246
1.7294980539700628e+18,-0.03942153602838516,0.000604954781010747,-9.787151336669922
1.729498053979063e+18,-0.07656455785036087,-0.005452114623039961,-9.834832191467285
1.7294980539850632e+18,-0.05391167849302292,0.02154066599905491,-9.741416931152344
1.7294980539940634e+18,-0.030972730368375778,0.022983403876423836,-9.786848068237305
1.7294980540030636e+18,0.04013144597411156,0.08115282654762268,-9.73576831817627
1.7294980540090637e+18,-0.08210277557373047,-0.0008279140456579626,-9.75388240814209
1.729498054018064e+18,0.009308419190347195,0.0007208529859781265,-9.697104454040527
1.729498054027064e+18,-0.0037830332294106483,-0.0067974780686199665,-9.805858612060547
1.7294980540360643e+18,0.05388561636209488,0.08675272762775421,-9.83694839477539
1.7294980540420644e+18,0.0280377846211195,0.033679187297821045,-9.827176094055176
1.7294980540510646e+18,-0.03579660505056381,0.004780957475304604,-9.734722137451172
1.7294980540600648e+18,0.013899109326303005,-0.017885148525238037,-9.671690940856934
1.729498054069065e+18,0.011359209194779396,0.006289878860116005,-9.783724784851074
1.7294980540780652e+18,-0.04579836502671242,0.0008873429032973945,-9.824039459228516
1.7294980540840653e+18,-0.03905496001243591,0.0011073896894231439,-9.808140754699707
1.7294980540930655e+18,-0.08816219866275787,-0.08641214668750763,-9.78394603729248
1.7294980541020657e+18,-0.030956558883190155,-0.01593838818371296,-9.797592163085938
1.7294980541080658e+18,-0.040416453033685684,0.02757043018937111,-9.720558166503906
1.729498054117066e+18,-0.03683758154511452,-0.042512211948633194,-9.837393760681152
1.7294980541260662e+18,-0.03194935992360115,0.010382337495684624,-9.772477149963379
1.7294980541350664e+18,0.002282527042552829,-0.0037524057552218437,-9.862112045288086
1.7294980541410665e+18,-0.05573255941271782,-0.02058418281376362,-9.767459869384766
1.7294980541500667e+18,-0.012207659892737865,-0.04087686538696289,-9.802730560302734
1.729498054159067e+18,0.005068548955023289,-0.037764351814985275,-9.849546432495117
1.729498054165067e+18,-0.11640344560146332,-0.08258610963821411,-9.771756172180176
1.7294980541740672e+18,0.014213740825653076,0.06253822892904282,-9.73705768585205
1.7294980541800673e+18,0.004554183688014746,-0.0003455640689935535,-9.798622131347656
1.7294980541890675e+18,-0.07787024974822998,-0.027683759108185768,-9.727819442749023
1.7294980541980677e+18,-0.08971580862998962,0.009866581298410892,-9.788698196411133
1.7294980542040678e+18,-0.040586866438388824,-0.013804909773170948,-9.800257682800293
1.729498054213068e+18,-0.022717881947755814,-0.038190532475709915,-9.753355979919434
1.7294980542220682e+18,-0.03603495657444,0.005600612610578537,-9.760313987731934
1.7294980542310684e+18,-0.005699434317648411,0.0504254549741745,-9.792916297912598
1.7294980542370685e+18,-0.04845844954252243,0.019540654495358467,-9.767361640930176
1.7294980542460687e+18,0.03169029951095581,0.14469173550605774,-9.769207000732422
1.7294980542520689e+18,-0.01972237043082714,-0.00245521473698318,-9.768378257751465
1.729498054261069e+18,-0.04166176915168762,0.0556049570441246,-9.822067260742188
1.7294980542700692e+18,0.03775840997695923,0.005668117664754391,-9.843979835510254
1.7294980542760694e+18,-0.11322224885225296,0.02515322156250477,-9.873733520507812
1.7294980542850696e+18,-0.05580533668398857,-0.025776773691177368,-9.786197662353516
1.7294980542940698e+18,0.015119649469852448,0.06138653680682182,-9.852006912231445
1.72949805430007e+18,0.01101897656917572,-0.019708609208464622,-9.703887939453125
1.72949805430907e+18,-0.03411096706986427,0.04594934359192848,-9.845736503601074
1.7294980543180703e+18,0.027200987562537193,-0.01071690022945404,-9.752135276794434
1.7294980543270705e+18,-0.01605137623846531,-0.00883492548018694,-9.724495887756348
1.7294980543330706e+18,0.058904748409986496,-0.04867679998278618,-9.718879699707031
1.7294980543420708e+18,0.040430061519145966,-0.040344782173633575,-9.755101203918457
1.729498054351071e+18,-0.003165700938552618,-0.04549669846892357,-9.83420467376709
1.729498054357071e+18,0.010769958607852459,-0.04566088691353798,-9.700167655944824
1.7294980543660713e+18,0.029037194326519966,0.08081059902906418,-9.790090560913086
1.7294980543750715e+18,0.01767633482813835,0.034208014607429504,-9.823932647705078
1.7294980543810716e+18,-0.006097785662859678,-0.05123421922326088,-9.824915885925293
1.7294980543900718e+18,-0.037447117269039154,-0.02530975639820099,-9.829887390136719
1.729498054399072e+18,-0.027726173400878906,-0.008983312174677849,-9.826784133911133
1.7294980544050721e+18,0.038620058447122574,0.019924255087971687,-9.714498519897461
1.7294980544140723e+18,0.00871341209858656,0.029955539852380753,-9.720158576965332
1.7294980544200724e+18,-0.02287026308476925,-0.0906306728720665,-9.753212928771973
1.7294980544290726e+18,0.0322573222219944,-0.022318430244922638,-9.741509437561035
1.7294980544350728e+18,0.047575365751981735,0.06368733197450638,-9.797508239746094
1.729498054444073e+18,0.05905165150761604,-0.044628240168094635,-9.753398895263672
1.7294980544530732e+18,-0.004418254364281893,-0.013318062759935856,-9.775232315063477
1.7294980544590733e+18,-0.061536755412817,0.014263961464166641,-9.734298706054688
1.7294980544680735e+18,-0.006211054045706987,-0.005923992022871971,-9.970754623413086
1.7294980544770737e+18,0.0032026292756199837,0.02632521465420723,-9.780410766601562
1.7294980544830738e+18,0.012819758616387844,0.02215029112994671,-9.831585884094238
1.729498054492074e+18,-0.025661328807473183,0.040498893707990646,-9.783724784851074
1.729498054498074e+18,0.023864757269620895,0.01654748246073723,-9.748994827270508
1.7294980545070743e+18,0.07169849425554276,-0.031416796147823334,-9.826077461242676
1.7294980545160745e+18,-0.004925173707306385,0.058096401393413544,-9.8579740524292
1.7294980545250747e+18,0.003623661585152149,0.010293187573552132,-9.843000411987305
1.7294980545310748e+18,-0.025705935433506966,-0.05742523819208145,-9.877703666687012
1.729498054540075e+18,0.0013769767247140408,-0.052836380898952484,-9.869829177856445
1.7294980545490752e+18,-0.08547811955213547,0.024240851402282715,-9.78770923614502
1.7294980545580754e+18,0.008456647396087646,-0.03324151411652565,-9.774813652038574
1.7294980545670756e+18,-0.01907309517264366,0.03566674143075943,-9.760198593139648
1.7294980545760758e+18,0.05097650736570358,0.029490195214748383,-9.763348579406738
1.729498054582076e+18,-0.03865627571940422,-0.013068926520645618,-9.825024604797363
1.729498054591076e+18,0.0376737117767334,-0.050384972244501114,-9.818053245544434
1.7294980546000763e+18,0.011396248824894428,0.032905224710702896,-9.802204132080078
1.7294980546090765e+18,-0.10814223438501358,0.06561565399169922,-9.754716873168945
1.7294980546150766e+18,-0.018795548006892204,0.0016709747724235058,-9.701430320739746
1.7294980546240768e+18,-0.04986684024333954,0.006535559426993132,-9.812788009643555
1.729498054633077e+18,0.03961917757987976,0.007201686501502991,-9.879605293273926
1.729498054639077e+18,0.0005931283230893314,-0.022892676293849945,-9.74843978881836
1.7294980546480773e+18,0.024461034685373306,-0.03256743401288986,-9.864137649536133
1.7294980546570775e+18,-0.04409797862172127,0.021609636023640633,-9.794864654541016
1.7294980546630776e+18,0.06808764487504959,0.06183217093348503,-9.759331703186035
1.7294980546720778e+18,-0.05001117289066315,0.04552104324102402,-9.872539520263672
1.729498054678078e+18,0.011304422281682491,-0.04356837272644043,-9.866113662719727
1.7294980546870781e+18,-0.045005664229393005,-0.07794614136219025,-9.82088851928711
1.7294980546960783e+18,0.008431046269834042,-0.019696705043315887,-9.786262512207031
1.7294980547020785e+18,-0.023715956136584282,-0.04992061108350754,-9.777313232421875
1.7294980547140787e+18,-0.021340370178222656,-0.002390578854829073,-9.762344360351562
1.729498054723079e+18,0.03150435537099838,-0.07191196829080582,-9.779172897338867
1.729498054732079e+18,-0.026604484766721725,0.047024935483932495,-9.825875282287598
1.7294980547380792e+18,0.01671735942363739,0.005325597710907459,-9.803555488586426
1.7294980547500795e+18,-0.0555436834692955,-0.0171674732118845,-9.856695175170898
1.7294980547590797e+18,-3.906243000528775e-05,0.03291565179824829,-9.80482006072998
1.72949805477108e+18,-0.0038025234825909138,0.09757871180772781,-9.751411437988281
1.72949805478008e+18,0.019620003178715706,-0.07047417759895325,-9.780656814575195
1.7294980547860803e+18,-0.01366385631263256,-0.005088758189231157,-9.815103530883789
1.7294980547980805e+18,0.05284229293465614,0.07642395794391632,-9.733120918273926
1.7294980548070807e+18,0.016724692657589912,0.06109711900353432,-9.826550483703613
1.729498054816081e+18,0.04107663407921791,-0.02522638812661171,-9.799181938171387
1.729498054822081e+18,0.03582998737692833,-0.045660413801670074,-9.76990032196045
1.7294980548310812e+18,0.017127646133303642,0.05587881803512573,-9.818230628967285
1.7294980548370813e+18,-0.02992502599954605,0.06382428854703903,-9.772516250610352
1.7294980548460815e+18,0.003332585096359253,-0.0950624868273735,-9.823237419128418
1.7294980548550817e+18,0.07442477345466614,0.05128876119852066,-9.780320167541504
1.7294980548610819e+18,0.08574293553829193,-0.07484893500804901,-9.741439819335938
1.729498054873082e+18,-0.029087606817483902,-0.04527291655540466,-9.772669792175293
1.7294980548820823e+18,0.0228459220379591,0.006986468564718962,-9.747634887695312
1.7294980548880824e+18,0.011705025099217892,0.009699836373329163,-9.800519943237305
1.7294980548970826e+18,-0.019758280366659164,0.06249011307954788,-9.76379108428955
1.7294980549060828e+18,-0.002192070009186864,-0.04195152968168259,-9.820172309875488
1.729498054912083e+18,0.04815587401390076,0.051922306418418884,-9.876830101013184
1.7294980549210831e+18,-0.016021450981497765,0.061229027807712555,-9.793478965759277
1.7294980549300833e+18,0.06561855226755142,0.04864582046866417,-9.784941673278809
1.7294980549360835e+18,0.022417031228542328,-0.0845065638422966,-9.830702781677246
1.7294980549450836e+18,-0.03700564056634903,-0.06960471719503403,-9.722729682922363
1.7294980549510838e+18,-0.007720105350017548,0.011974979192018509,-9.804783821105957
1.729498054960084e+18,0.038953252136707306,-0.015583663247525692,-9.830842018127441
1.7294980549690842e+18,0.0467800609767437,0.08102688938379288,-9.848745346069336
1.7294980549780844e+18,-0.08083730936050415,0.0071166642010211945,-9.866092681884766
1.7294980549840845e+18,0.0261096004396677,0.039900775998830795,-9.779315948486328
1.7294980549930847e+18,0.056350670754909515,0.009201877750456333,-9.832169532775879
1.7294980549990848e+18,0.006411960814148188,0.06268154829740524,-9.745884895324707
1.729498055008085e+18,-0.013966763392090797,0.06869790703058243,-9.850399017333984
1.7294980550170852e+18,-0.07169635593891144,0.008726743049919605,-9.725019454956055
1.7294980550260854e+18,-0.03933146595954895,-0.046767838299274445,-9.832453727722168
1.7294980550320855e+18,0.007360351737588644,-0.05009874701499939,-9.825072288513184
1.7294980550410857e+18,0.045812275260686874,0.003965291660279036,-9.828791618347168
1.729498055050086e+18,-0.04882151633501053,-0.02305733785033226,-9.80735969543457
1.729498055056086e+18,-0.035738151520490646,0.03262226656079292,-9.889012336730957
1.7294980550650862e+18,0.043559182435274124,-0.013290979899466038,-9.792080879211426
1.7294980550710863e+18,0.04507499188184738,-0.05489841476082802,-9.792659759521484
1.7294980550800865e+18,0.035527586936950684,-0.02745305560529232,-9.857335090637207
1.7294980550890867e+18,0.027492674067616463,0.010039088316261768,-9.756542205810547
1.7294980550950868e+18,-0.07153035700321198,0.03441408649086952,-9.757973670959473
1.729498055104087e+18,-0.009725322015583515,0.004494187422096729,-9.801017761230469
1.7294980551130872e+18,-0.0011577915865927935,-0.047438256442546844,-7.45185661315918
1.7294980551190874e+18,0.07783342897891998,-0.024260573089122772,-7.122897624969482
1.7294980551280876e+18,0.03823356330394745,0.03218033164739609,-6.576368808746338
1.7294980551370877e+18,0.023281598463654518,-0.004588432610034943,-6.446287631988525
1.729498055146088e+18,0.04181690514087677,0.0030858702957630157,-5.954683303833008
1.729498055152088e+18,0.0469694621860981,0.03178217262029648,-6.124127388000488
1.7294980551610883e+18,0.054823532700538635,0.17030657827854156,-6.085292816162109
1.7294980551670884e+18,0.028868544846773148,0.020732726901769638,-6.159643650054932
1.7294980551760886e+18,0.042768917977809906,0.052647512406110764,-6.351474285125732
1.7294980551850888e+18,0.007217953912913799,0.03239430487155914,-6.023333549499512
1.729498055191089e+18,-0.019661087542772293,0.15633124113082886,-6.029900550842285
1.729498055200089e+18,-0.011307811364531517,0.02334653213620186,-6.209364414215088
1.7294980552090893e+18,0.025634262710809708,0.05843614414334297,-6.213040351867676
1.7294980552150894e+18,0.0578758604824543,0.059053368866443634,-6.3238701820373535
1.7294980552240896e+18,-0.01846112683415413,0.031530871987342834,-6.40087890625
1.7294980552330898e+18,0.05152081698179245,0.13856886327266693,-6.129922866821289
1.72949805523909e+18,-0.04437198489904404,0.024852320551872253,-6.05051326751709
1.72949805524809e+18,0.008844448253512383,0.13777823746204376,-6.161850929260254
1.7294980552570903e+18,0.04996697977185249,0.07758308947086334,-6.061809062957764
1.7294980552630904e+18,-0.005799120292067528,-0.00553237646818161,-5.88418436050415
1.7294980552720906e+18,-0.015240419656038284,0.004866518080234528,-6.020755290985107
1.7294980552810908e+18,-0.01508990116417408,0.01567305624485016,-6.0982818603515625
1.729498055287091e+18,-0.060359835624694824,0.043826162815093994,-6.252163410186768
1.7294980552960911e+18,0.02772078476846218,0.08165411651134491,-4.647602558135986
1.7294980553050913e+18,0.025102870538830757,0.03910258412361145,-4.41179084777832
1.7294980553110915e+18,-0.01214025728404522,0.06903200596570969,-4.345362186431885
1.7294980553200916e+18,-0.013246778398752213,0.08386170864105225,-4.352256774902344
1.7294980553290918e+18,0.0792386457324028,-0.04902901500463486,-4.432772159576416
1.729498055335092e+18,0.05667372792959213,0.014055835083127022,-4.379051685333252
1.7294980553440922e+18,-0.03440297767519951,-0.005036763846874237,-4.457365989685059
1.7294980553530924e+18,0.03128249943256378,0.04695701599121094,-4.679495334625244
1.7294980553590925e+18,-0.02560250274837017,0.014658957719802856,-4.759632587432861
1.7294980553680927e+18,0.04094061255455017,-0.01863204501569271,-5.02495813369751
1.7294980553740928e+18,-0.030283626168966293,-0.01589919812977314,-5.020238876342773
1.729498055383093e+18,0.01444714143872261,0.021089524030685425,-5.271553039550781
1.7294980553920932e+18,0.08617303520441055,0.03088494762778282,-5.470836162567139
1.7294980553980933e+18,0.052356041967868805,-0.065056212246418,-5.6241068840026855
1.7294980554070935e+18,-0.09083561599254608,0.005283992737531662,-5.724841117858887
1.7294980554160937e+18,-0.012582290917634964,-0.015125975012779236,-5.821227550506592
1.729498055425094e+18,0.04547804221510887,0.03981783613562584,-6.0451836585998535
1.729498055434094e+18,-0.008334786631166935,0.027332652360200882,-6.072721004486084
1.7294980554430943e+18,-0.0406329371035099,0.020976021885871887,-6.297040939331055
1.7294980554490944e+18,-0.01434970460832119,-0.01463356427848339,-6.423769950866699
1.7294980554580946e+18,0.026739513501524925,-0.03592386096715927,-6.47385311126709
1.7294980554670948e+18,-0.009052189998328686,0.0037782839499413967,-6.549540996551514
1.729498055476095e+18,0.051832154393196106,-0.06626477092504501,-6.6853132247924805
1.7294980554850952e+18,-0.008270956575870514,0.038563065230846405,-6.724560737609863
1.7294980554910953e+18,-0.02856951765716076,0.06651661545038223,-6.815886974334717
1.7294980555000955e+18,-0.06480549275875092,-0.07942688465118408,-6.978450298309326
1.7294980555090957e+18,0.004090658389031887,0.011763537302613258,-7.07955265045166
1.7294980555150958e+18,-0.016867779195308685,0.03544040396809578,-7.290938854217529
1.729498055524096e+18,0.057023316621780396,-0.09119054675102234,-7.303229808807373
1.7294980555330962e+18,-0.015392192639410496,0.026607438921928406,-7.339578151702881
1.7294980555390963e+18,-0.04886581003665924,-0.0551120825111866,-7.440291404724121
1.7294980555480965e+18,-0.012389779090881348,-0.0271897092461586,-7.585899829864502
1.7294980555540966e+18,0.0009431946091353893,-0.05782846733927727,-7.5653605461120605
1.7294980555630968e+18,0.02901751548051834,0.07596711814403534,-7.6190185546875
1.729498055572097e+18,0.04111359640955925,-0.01084887981414795,-7.654678821563721
1.7294980555780972e+18,0.018387679010629654,-0.018788188695907593,-7.7891950607299805
1.7294980555870973e+18,-0.00787306111305952,-0.07288817316293716,-7.825555324554443
1.7294980555960975e+18,-0.058240536600351334,0.018870128318667412,-7.963339805603027
1.7294980556050977e+18,0.012536436319351196,-0.017265528440475464,-8.031952857971191
1.7294980556110979e+18,0.02085573598742485,-0.02834060788154602,-8.040790557861328
1.729498055620098e+18,-0.05240657925605774,0.013142144307494164,-8.103461265563965
1.7294980556290982e+18,-0.03251086175441742,-0.07223357260227203,-8.212172508239746
1.7294980556350984e+18,-0.06129293143749237,0.05254907160997391,-8.195070266723633
1.7294980556440986e+18,-0.05770391970872879,0.070264533162117,-8.275177955627441
1.7294980556530988e+18,0.03201765939593315,0.008373366668820381,-8.317025184631348
1.729498055662099e+18,-0.09949813783168793,-0.017899703234434128,-8.387149810791016
1.729498055668099e+18,-0.011566177941858768,-0.029628310352563858,-8.526984214782715
1.7294980556770993e+18,-0.004730394575744867,-0.003062066389247775,-8.466368675231934
1.7294980556860995e+18,0.03223709762096405,0.011145513504743576,-8.44512939453125
1.7294980556920996e+18,0.03837836906313896,-0.04463297501206398,-8.56226634979248
1.7294980557010998e+18,0.011175785213708878,-0.05436956137418747,-8.648414611816406
1.7294980557101e+18,0.034358568489551544,-0.034593984484672546,-8.681882858276367
1.7294980557221002e+18,-0.030340280383825302,-0.08464518934488297,-8.717097282409668
1.7294980557281004e+18,-0.05452926456928253,-0.010189146734774113,-8.840587615966797
1.7294980557371005e+18,-0.015092859975993633,0.015564586967229843,-8.79800033569336
1.7294980557461007e+18,0.005961901508271694,-0.052800484001636505,-8.918766021728516
1.7294980557521009e+18,-0.09300611913204193,0.0022830863017588854,-8.902817726135254
1.729498055761101e+18,-0.03351850062608719,-0.0027676664758473635,-8.935973167419434
1.7294980557701012e+18,0.03771475329995155,0.040508124977350235,-8.95166301727295
1.7294980557761014e+18,0.024211915209889412,0.01161235198378563,-8.924368858337402
1.7294980557851016e+18,-0.0575462281703949,-0.004910792224109173,-9.027616500854492
1.7294980557941018e+18,-0.0016040861373767257,-0.0104925986379385,-9.08712100982666
1.729498055800102e+18,0.004458056762814522,0.04719812050461769,-9.013616561889648
1.729498055809102e+18,0.002527276985347271,0.043926648795604706,-9.031560897827148
1.7294980558151022e+18,-0.039384596049785614,0.04602418467402458,-9.083795547485352
