timestamp,gyro_x,gyro_y,gyro_z
1.7294980440038502e+18,0.0010308175114914775,0.0023962208069860935,-0.0013668008614331484
1.7294980440128504e+18,-0.0011591045185923576,0.0020312557462602854,-0.002627309877425432
1.7294980440188506e+18,-0.002095084171742201,-0.002478318987414241,0.000695877184625715
1.7294980440278508e+18,0.0011134030064567924,-0.0010277796536684036,0.0007399771129712462
1.729498044036851e+18,-9.199175838148221e-05,0.0007846102816984057,-0.0013767690397799015
1.7294980440458511e+18,-0.0019348693313077092,-0.00030353874899446964,-0.0018380649853497744
1.7294980440548513e+18,-0.001265449682250619,-0.0003233572351746261,-0.0010491113644093275
1.7294980440638515e+18,-0.0011872306931763887,0.00021053923410363495,0.0012914962135255337
1.7294980440698516e+18,7.091075531207025e-05,-0.0007477823528461158,-0.0007365141646005213
1.7294980440788518e+18,0.001067791017703712,-0.0034484807401895523,0.0003522865881677717
1.729498044087852e+18,-0.003066031727939844,-0.0008304531802423298,-0.0001605651923455298
1.7294980440938522e+18,0.0017470002640038729,-0.0017633031820878386,-0.001375542487949133
1.7294980441028524e+18,0.0001512804883532226,-0.000704122066963464,5.7571643992559984e-05
1.7294980441118525e+18,-0.00019371150119695812,-0.0015105101047083735,0.0021866329479962587
1.7294980441208527e+18,-0.0006466155755333602,0.0019617474172264338,-0.0004180750111117959
1.729498044132853e+18,-0.0028435576241463423,0.003579747164621949,-0.0008377808262594044
1.7294980441418532e+18,-0.0020464148838073015,0.0011990619823336601,0.001595099805854261
1.7294980441478533e+18,0.0008555487729609013,-0.00039050800842233,0.0019067057874053717
1.7294980441568535e+18,0.0018191657727584243,0.002501199021935463,0.0015676392940804362
1.7294980441628536e+18,0.00034876068821176887,0.0012777929659932852,0.0003847566549666226
1.7294980441718538e+18,-0.0002471528423484415,-0.0005917380913160741,-0.001514900359325111
1.729498044180854e+18,-0.0005073729553259909,0.0022259328979998827,-0.0022233922500163317
1.7294980441898542e+18,0.0015728503931313753,4.455020643945318e-06,-0.0010671622585505247
1.7294980441958543e+18,0.0017697507282719016,-0.0015702409436926246,0.0014499668031930923
1.7294980442048545e+18,-0.0021738859359174967,-0.0015314226038753986,-0.001274029491469264
1.7294980442108547e+18,0.002383484272286296,-0.0015580619219690561,0.00022459514730144292
1.7294980442198548e+18,0.0005776535253971815,3.152958925056737e-06,0.00023588872863911092
1.729498044228855e+18,-0.001841231482103467,0.0015289997681975365,0.0014767540851607919
1.7294980442348552e+18,0.0005728565156459808,-0.0013005975633859634,-1.0098592611029744e-06
1.7294980442438554e+18,0.0015742371324449778,-0.0018118041334673762,-0.001011327258311212
1.7294980442528556e+18,0.0003281748795416206,0.0008661093888804317,-0.0024285537656396627
1.7294980442618557e+18,-0.00072035554330796,-0.002309188712388277,0.0016948739066720009
1.729498044270856e+18,-0.0031129412818700075,-0.0013516646577045321,-0.002097531221807003
1.729498044279856e+18,0.0013416698202490807,-0.0005482484702952206,-0.0007462612120434642
1.7294980442858563e+18,0.0017493783961981535,0.0007205911097116768,-0.0012948373332619667
1.7294980442948564e+18,0.001625048229470849,0.0021564061753451824,-0.0009478313731960952
1.7294980443038566e+18,-0.0013443456264212728,-0.0011852311436086893,-0.0014022818068042397
1.7294980443098568e+18,-0.0005753334844484925,0.0009955838322639465,0.0012102891923859715
1.729498044318857e+18,-0.002099353587254882,0.00031586174736730754,-0.0010266066528856754
1.7294980443278572e+18,0.002386938314884901,0.00047719961730763316,0.0020103412680327892
1.7294980443338573e+18,0.0009671341977082193,-0.0017115791561082006,0.003885830519720912
1.7294980443428575e+18,-0.00018752497271634638,0.0001724182948237285,0.0022129362914711237
1.7294980443518577e+18,0.0005526697495952249,0.0011155260726809502,0.0023158551193773746
1.7294980443578578e+18,-0.0006257736822590232,-0.002259113360196352,0.0019426626386120915
1.729498044366858e+18,-0.0009084104676730931,0.0007661537965759635,-0.0007273299852386117
1.7294980443758582e+18,-0.0012161231134086847,0.001668255659751594,0.0011310601839795709
1.7294980443818583e+18,-0.0008827344863675535,-0.00037331125349737704,-0.00015567149966955185
1.7294980443908585e+18,0.000889687507878989,0.0005448241136036813,-0.002517867833375931
1.7294980443968586e+18,-0.0008730231784284115,-0.0003025421465281397,0.0007840475300326943
1.7294980444058588e+18,0.0025712032802402973,0.001054722466506064,0.0007912605069577694
1.729498044414859e+18,-4.5152512029744685e-05,0.0027916061226278543,-0.0043572233989834785
1.7294980444208591e+18,0.0017362853977829218,-0.0006744936690665781,-0.00045875931391492486
1.7294980444298593e+18,0.0015017776750028133,-0.0032021678052842617,-0.002023831708356738
1.7294980444358595e+18,-0.0012509026564657688,0.0022069199476391077,0.00024387321900576353
1.7294980444448596e+18,0.0013257856480777264,0.00010878316970774904,-0.0014741818886250257
1.7294980444538598e+18,0.0021188093814998865,-0.0012884876923635602,-0.0029115427751094103
1.72949804445986e+18,0.0014311110135167837,0.0004001810448244214,-7.704082236159593e-05
1.7294980444688602e+18,-0.0026899101212620735,-0.0011349656851962209,0.0011005369015038013
1.7294980444778604e+18,0.000409927946748212,-0.0007694292580708861,0.00220099207945168
1.7294980444838605e+18,-0.0008516564266756177,0.002781591145321727,0.0011513781500980258
1.7294980444928607e+18,0.0010818032315000892,0.001274876412935555,0.0008204585174098611
1.7294980444988608e+18,0.0012983514461666346,-0.0029584779404103756,-0.0005958068068139255
1.729498044507861e+18,-0.0007625818834640086,-0.0008871028549037874,-0.0008632080280221999
1.729498044513861e+18,0.0016967401606962085,0.0017327204113826156,-0.0022418524604290724
1.7294980445228613e+18,-0.0003436623956076801,-0.0005720052868127823,0.0011121274437755346
1.7294980445318615e+18,-0.0005989582277834415,-0.0010495907627046108,0.0007072295993566513
1.7294980445408617e+18,0.0017938301898539066,-0.0004884230438619852,0.000934712472371757
1.7294980445468618e+18,-8.7791595433373e-05,0.001206861576065421,-0.00128219835460186
1.729498044555862e+18,2.852713987522293e-05,-0.002379072131589055,0.0010085032554343343
1.7294980445618621e+18,0.0012003571027889848,0.0006590686389245093,0.00021676794858649373
1.7294980445708623e+18,0.0014047466684132814,-0.00035747585934586823,0.0003589342813938856
1.7294980445768625e+18,0.0011678176233544946,-6.745009159203619e-05,9.091704123420641e-05
1.7294980445858627e+18,-0.00011317594908177853,-0.0007902712095528841,-0.0007865130319260061
1.7294980445948628e+18,1.9695969967870042e-05,0.00011678320879582316,0.001298889983445406
1.729498044600863e+18,-0.00030627520754933357,0.0006726454012095928,-0.00012922730820719153
1.7294980446098632e+18,-0.0008605967741459608,6.142954953247681e-05,-0.0004072041774634272
1.7294980446188634e+18,0.0003973651910200715,0.0002990583307109773,0.004066382069140673
1.7294980446248635e+18,0.0005296950112096965,-0.00031634297920390964,-0.003101760521531105
1.7294980446338637e+18,0.0017172141233459115,0.0016989330761134624,0.0011221874738112092
1.7294980446428639e+18,0.0010297840926796198,-0.0009054454858414829,-0.0004234704247210175
1.729498044651864e+18,0.000659413228277117,0.0018091528909280896,0.0009994333377107978
1.7294980446608643e+18,-0.0021568569354712963,-0.0006687351851724088,-0.0006430197390727699
1.7294980446698644e+18,0.0006103578489273787,-0.0012774046044796705,9.583082282915711e-05
1.7294980446788646e+18,0.000657609838526696,-0.0015841244021430612,-0.0008221319294534624
1.7294980446848648e+18,9.408820915268734e-06,0.003918356262147427,-0.00011627914500422776
1.729498044696865e+18,0.0001275229878956452,-0.0017607760382816195,0.00018969122902490199
1.7294980447058652e+18,-0.0022643140982836485,0.0008865623967722058,-0.0017156858230009675
1.7294980447118653e+18,0.0018428473267704248,0.0036815751809626818,0.0006751430337317288
1.7294980447208655e+18,-0.001923146890476346,-0.0002773286832962185,0.0010511487489566207
1.7294980447268657e+18,0.0010059907799586654,0.0005042755510658026,-0.0010655359365046024
1.7294980447358659e+18,-0.0005379547365009785,-0.0015200040070340037,0.00034028771915473044
1.729498044741866e+18,-0.0017081922851502895,-0.0004939871723763645,-0.00025657928199507296
1.7294980447508662e+18,0.000339093676302582,0.00019976271141786128,0.0008089537732303143
1.7294980447598664e+18,0.00014253090193960816,0.001440456253476441,-0.0012476190458983183
1.7294980447688666e+18,0.00017749762628227472,0.0006340498221106827,-0.0006133269635029137
1.7294980447748667e+18,8.125765452859923e-05,-0.0012364558642730117,-0.001825862331315875
1.729498044783867e+18,0.0007835655123926699,-0.0007499950588680804,-0.0007828559610061347
1.729498044792867e+18,0.0031870759557932615,0.0014659387525171041,2.698928801692091e-05
1.7294980447988672e+18,-0.0009544651256874204,-0.000970109598711133,0.0018610602710396051
1.7294980448078674e+18,-0.0016097025945782661,-0.001201584585942328,0.00032735176500864327
1.7294980448138675e+18,0.0002568959607742727,-0.002768136328086257,0.0011049391468986869
1.7294980448228677e+18,-0.0025139786303043365,-0.002024356508627534,0.0011756692547351122
1.729498044831868e+18,-0.0004726286861114204,-0.0005767143447883427,-0.001819626777432859
1.729498044840868e+18,0.0021717494819313288,-0.0013883440988138318,-0.0006497331196442246
1.7294980448468682e+18,0.002363387029618025,-0.0003084577328991145,0.0013830611715093255
1.7294980448558684e+18,0.00011591775546548888,-7.778176222927868e-05,-0.00032330615795217454
1.7294980448618685e+18,0.0005320135969668627,-0.00031993267475627363,0.0005768617847934365
1.7294980448708687e+18,0.001144487876445055,0.00015106317005120218,0.0009762066183611751
1.729498044879869e+18,0.0005345673998817801,-0.0033392314799129963,-0.0003131766861770302
1.729498044885869e+18,-0.0003357796522323042,0.0030364543199539185,0.0016187028959393501
1.7294980448948692e+18,-0.0003817425458692014,-0.001024494064040482,-0.0030809484887868166
1.7294980449038694e+18,-0.0005972582148388028,0.0011376526672393084,0.0034656201023608446
1.7294980449098696e+18,0.0011122466530650854,-0.0004484904929995537,-0.0013813654659315944
1.7294980449218698e+18,-0.0015613544965162873,-0.0007379910093732178,0.0018198294565081596
1.72949804492787e+18,0.0005336756003089249,0.0003035421250388026,0.00043045071652159095
1.7294980449368701e+18,0.0005349135026335716,0.0003671307349577546,-0.002532406011596322
1.7294980449458703e+18,0.002793834311887622,-9.746598516358063e-05,0.00013320433208718896
1.7294980449548705e+18,-1.7103011487051845e-05,0.0025704423896968365,0.00036860202089883387
1.7294980449608707e+18,0.00046352611389011145,0.000390602188417688,-1.8467766494723037e-05
1.7294980449698708e+18,0.0015946882776916027,-0.002297180937603116,0.0008173437090590596
1.729498044978871e+18,0.00013491848949342966,-0.0003603850200306624,-0.002036360325291753
1.7294980449878712e+18,0.0010003589559346437,0.0008668509544804692,-0.000522130576428026
1.7294980449938714e+18,0.0035247690975666046,-0.001962713897228241,0.002014096360653639
1.7294980450028716e+18,-0.00364932743832469,0.00010156053031096235,-0.0013818065635859966
1.7294980450088717e+18,0.0014663744950667024,-0.00017164101882372051,0.0021874019876122475
1.729498045017872e+18,-0.0009496774873696268,0.00032061850652098656,0.0013965755933895707
1.729498045023872e+18,-0.0007141269161365926,-0.002216487191617489,-0.0002646037901286036
1.7294980450328722e+18,-0.0002343970991205424,-0.0024095189291983843,0.0015027698827907443
1.7294980450418724e+18,-0.000988114858046174,-0.0005814054165966809,-0.0029184885788708925
1.7294980450478725e+18,-0.0027585916686803102,0.00025869006640277803,-0.0008676400175318122
1.7294980450568727e+18,-0.0015537285944446921,0.0016859438037499785,-0.0012279347283765674
1.729498045065873e+18,0.0005001442041248083,0.00022739135602023453,0.00039567481144331396
1.729498045071873e+18,-0.002944058971479535,0.0005871986504644156,-0.0007543700630776584
1.7294980450808732e+18,0.0017589215422049165,-0.0012479735305532813,0.001324865617789328
1.7294980450898734e+18,-0.00042742371442727745,0.0003314671921543777,-0.0008839446236379445
1.7294980450988736e+18,-0.0012543881312012672,0.0011599207064136863,0.0007602180703543127
1.7294980451078738e+18,-0.003097834764048457,-0.001713027129881084,-0.0011558803962543607
1.729498045113874e+18,-0.0015646199462935328,-0.0020043880213052034,0.0021515677217394114
1.729498045122874e+18,0.0025714945513755083,-0.001074734260328114,-0.001870417851023376
1.7294980451318743e+18,-0.0013117784401401877,-0.0018118073930963874,-0.0002562279987614602
1.7294980451408745e+18,0.0006052834214642644,-0.0004138941294513643,-0.0006602786015719175
1.7294980451528748e+18,-0.002271118341013789,0.0015382439596578479,-0.00018549992819316685
1.729498045158875e+18,8.619289292255417e-05,0.0018240660429000854,-0.0008960488485172391
1.729498045167875e+18,-0.0006551179103553295,-0.004591881763190031,0.00039917806861922145
1.7294980451738752e+18,-0.0021031959913671017,-0.0005057499511167407,-0.0012264831457287073
1.7294980451828754e+18,0.0009390489431098104,0.0002924284490291029,-0.003750013653188944
1.7294980451888755e+18,-0.0008409455767832696,1.5778994566062465e-05,-0.000742551579605788
1.7294980451978757e+18,-0.0018866437021642923,0.0007146315183490515,-0.00041200791019946337
1.729498045206876e+18,0.0017211439553648233,0.0005510704941116273,0.0006172495195642114
1.729498045215876e+18,6.31098446319811e-05,0.0008367443806491792,8.938858809415251e-05
1.7294980452248763e+18,-0.0022708899341523647,0.0027420276310294867,0.00020965847943443805
1.7294980452308764e+18,-0.0009166280506178737,-0.002049332484602928,0.0006999967154115438
1.7294980452398766e+18,0.0006008659838698804,-0.0004500431823544204,-0.0007916538743302226
1.7294980452488768e+18,-0.0004522877570707351,0.0017463061958551407,0.00025716444361023605
1.729498045254877e+18,-0.00021814687352161855,0.0005172258825041354,-0.000991538050584495
1.729498045263877e+18,0.0015572874108329415,-0.0008331839926540852,-0.0018297882052138448
1.7294980452728773e+18,0.0009838908445090055,-0.0013986985431984067,0.0019280642736703157
1.7294980452848776e+18,-0.0008152849623002112,0.0022284709848463535,0.0013560156803578138
1.7294980452908777e+18,-0.002961702411994338,0.0008995970711112022,-0.001678940374404192
1.729498045299878e+18,8.158171112881973e-05,0.001390752149745822,-0.0009721973328851163
1.7294980453148782e+18,0.00011296589946141466,-0.00019947598048020154,0.0021650695707648993
1.7294980453268785e+18,0.002021373249590397,-0.0016155558405444026,0.0005885328282602131
1.7294980453328786e+18,-0.00032372906571254134,-0.00017615879187360406,-0.0001441033382434398
1.7294980453418788e+18,-0.0021848848555237055,5.561311627388932e-05,-0.0024825024884194136
1.729498045350879e+18,0.0009894444374367595,0.002393909264355898,-0.0036209668032824993
1.729498045356879e+18,-0.0015492192469537258,0.0016514643793925643,0.0007469297270290554
1.7294980453658793e+18,0.0026310228276997805,-0.002701329533010721,-0.00012886679905932397
1.7294980453748795e+18,-0.0006835118401795626,0.00010751289664767683,0.0018498635618016124
1.7294980453838797e+18,0.0001401237241225317,-5.765476817032322e-05,0.0018378233071416616
1.7294980453898798e+18,0.000620566657744348,-0.0015686042606830597,-0.0012534362031146884
1.72949804539888e+18,0.0001057363988365978,0.004365842789411545,0.0007219469407573342
1.7294980454048801e+18,0.0014886067947372794,-0.0009634870802983642,0.0006823669536970556
1.7294980454138803e+18,-3.951152029912919e-05,-0.003182196756824851,0.0003292397304903716
1.7294980454228805e+18,-0.0009489153744652867,0.0016556308837607503,0.0021361138205975294
1.7294980454288806e+18,-0.0013072596630081534,0.0008322782232426107,6.867837510071695e-05
1.7294980454378808e+18,-0.0028995501343160868,0.003290984546765685,0.0026634549722075462
1.729498045443881e+18,0.0006417811382561922,9.716780186863616e-05,-0.0020409284625202417
1.7294980454528812e+18,0.00011461337271612138,-0.0011188334319740534,-0.0005099292029626667
1.7294980454618813e+18,0.0008535473025403917,-0.002353264484554529,0.0006065124762244523
1.7294980454678815e+18,-0.00048528568004257977,0.0012693809112533927,0.0012840906856581569
1.7294980454768817e+18,0.0016461414052173495,-0.0018770894967019558,0.0008037977386265993
1.7294980454828818e+18,0.001714633428491652,0.0022609669249504805,0.0025778133422136307
1.729498045491882e+18,-0.0011265621287748218,0.0013728875201195478,-0.00033360690576955676
1.7294980455008822e+18,0.0012018538545817137,0.0021353636402636766,0.000213515420909971
1.7294980455068823e+18,0.002620113082230091,0.00011549810005817562,0.0010218258248642087
1.7294980455158825e+18,0.00037737362436018884,0.0007388277444988489,-0.0018330867169424891
1.7294980455218826e+18,-0.0006837210385128856,-3.380210546310991e-05,-0.0008541910210624337
1.7294980455308828e+18,0.001328434911556542,-0.0010695417877286673,0.0019082381622865796
1.729498045536883e+18,-8.500710100634024e-05,-0.001800693105906248,0.001788718975149095
1.7294980455458831e+18,-0.0013622057158499956,-0.0009569129324518144,0.0014049074379727244
1.7294980455548833e+18,0.001564785954542458,-0.0020461606327444315,-0.003285016166046262
1.7294980455608835e+18,-0.001628146623261273,0.001016779337078333,0.0007512479787692428
1.7294980455698836e+18,0.0018780636601150036,0.0005265087820589542,-0.0008434621850028634
1.7294980455788838e+18,0.0013224497670307755,-0.0006387651665136218,-0.0012709987349808216
1.729498045584884e+18,-0.0012997773010283709,-0.0007253390504047275,0.0003661459486465901
1.7294980455938842e+18,-0.0012713245814666152,-0.0012131227413192391,0.0014881775714457035
1.7294980456028844e+18,-0.0017996152164414525,0.00032860186183825135,0.0013079275377094746
1.7294980456088845e+18,0.0005776489851996303,-0.0015736258355900645,-0.00116490270011127
1.7294980456178847e+18,0.0008545777527615428,0.0020012231543660164,-0.0004901295760646462
1.7294980456238848e+18,0.005042129196226597,0.0032538853120058775,-0.002208466874435544
1.729498045632885e+18,-0.0020170207135379314,0.0003587330866139382,0.00040641252417117357
1.7294980456418852e+18,0.0002679688041098416,-0.0021397757809609175,0.0018134975107386708
1.7294980456478853e+18,0.0018131135730072856,-0.0012884184252470732,-0.000563283683732152
1.7294980456568855e+18,-0.0016665090806782246,0.00040919496677815914,-3.927078432752751e-05
1.7294980456628856e+18,0.0003839577257167548,0.0011659699957817793,0.0011294115101918578
1.7294980456718858e+18,0.00046739165554754436,-0.0013214899227023125,-0.0013120946241542697
1.729498045677886e+18,0.001325669582001865,0.0015575522556900978,0.0013498535845428705
1.7294980456868861e+18,-0.0002541738795116544,-0.003208973677828908,-0.0008366322726942599
1.7294980456958863e+18,-0.001695613726042211,-0.0008900807006284595,0.000513965031132102
1.7294980457018865e+18,8.409997826674953e-05,7.667936006328091e-05,-0.0023665211629122496
1.7294980457108867e+18,0.00034141784999519587,0.0016662353882566094,-0.0014623202150687575
1.7294980457198868e+18,0.0011378803756088018,0.00013215912622399628,-0.0016372761456295848
1.729498045725887e+18,0.00041789482929743826,-0.00040164103847928345,-0.00021871946228202432
1.7294980457348872e+18,-0.001133016194216907,-0.0007533807074651122,-0.0003414491075091064
1.7294980457438874e+18,-0.0022022102493792772,0.001376659027300775,-0.002721548778936267
1.7294980457498875e+18,-0.0014692069962620735,0.0033750515431165695,0.0008391019073314965
1.7294980457588877e+18,0.0011471540201455355,-0.0017305443761870265,0.0017463789554312825
1.7294980457648878e+18,-0.00016495959425810724,0.0007863219943828881,-0.00015631811402272433
1.729498045773888e+18,-9.792272612685338e-05,-8.536542009096593e-05,0.0018338192021474242
1.7294980457828882e+18,-0.00034012150717899203,-0.00036119925789535046,0.0033825917635113
1.7294980457888883e+18,-0.002913994248956442,-0.0006177102332003415,-0.0005573767703026533
1.7294980457978885e+18,4.039800842292607e-05,-0.0004881808999925852,-0.0004641238774638623
1.7294980458098888e+18,-0.0005008954904042184,-0.0011869522277265787,-0.002444227458909154
1.729498045818889e+18,-0.00024257588665932417,-0.002620865823701024,0.001965590752661228
1.729498045824889e+18,0.00022625629208050668,-0.0032935873605310917,0.002488183556124568
1.7294980458338893e+18,0.0024955072440207005,-0.0016246057348325849,0.0009202574146911502
1.7294980458428895e+18,-0.0018153137061744928,0.0007658945978619158,0.00020480596867855638
1.7294980458488896e+18,0.0010251811472699046,-0.00030633597634732723,0.0006901809829287231
1.7294980458578898e+18,0.00230978662148118,0.004667102359235287,-0.001706387265585363
1.72949804586389e+18,-0.0015011586947366595,0.0010089637944474816,-0.0003995212900917977
1.72949804587289e+18,0.002840261207893491,-0.0015707758720964193,0.0005193396937102079
1.7294980458788902e+18,0.00011430125596234575,-0.0003260151715949178,0.00010189442400587723
1.7294980458878904e+18,-0.0013260318664833903,-0.0009741865214891732,0.00020502156985457987
1.7294980458968906e+18,0.0036652707494795322,-0.0002558263950049877,-0.0015792621998116374
1.7294980459028908e+18,0.0022809940855950117,0.0014901525573804975,-0.00037027965299785137
1.729498045911891e+18,0.0005439997185021639,0.0006283293478190899,0.00040910131065174937
1.7294980459208911e+18,-0.003211945528164506,0.00514304731041193,0.002120501361787319
1.7294980459268913e+18,0.0020789001137018204,0.0013555424520745873,-0.0019607655704021454
1.7294980459358915e+18,0.0025124067906290293,0.0026927462313324213,0.00011424989497754723
1.7294980459448916e+18,-0.0027825345750898123,-0.0010973060270771384,-0.0003511049726512283
1.7294980459508918e+18,-0.0014671364333480597,0.0005034682108089328,-0.0014785142848268151
1.729498045959892e+18,0.0010861424962058663,-0.001620192895643413,-0.0015574258286505938
1.729498045965892e+18,0.002894411329180002,-0.0004027574323117733,0.0012199990451335907
1.7294980459748923e+18,0.0012153559364378452,-0.0003469225484877825,-0.0006686302949674428
1.7294980459838925e+18,-0.0007238652906380594,0.0008038156083784997,1.4174745956552215e-05
1.7294980459898926e+18,0.0012226172257214785,-5.966563185211271e-05,0.00022357783745974302
1.7294980459988928e+18,0.000368729728506878,0.00032504828413948417,-0.0027456972748041153
1.729498046007893e+18,-0.00011314470611978322,-0.0010341474553570151,0.0005539242993108928
1.729498046013893e+18,-0.0008804468670859933,0.0006574359722435474,-0.00018497288692742586
1.7294980460228933e+18,-0.000603598658926785,0.00011686178186209872,-0.0007917199400253594
1.7294980460288934e+18,0.0011294572614133358,0.0008546776371076703,0.0002502903516869992
1.7294980460378936e+18,0.00022218446247279644,-0.0006083863554522395,0.0006495391135104001
1.7294980460468938e+18,0.00028348792693577707,0.00291262473911047,-0.0018406871240586042
1.729498046055894e+18,-6.659318751189858e-05,-0.00021767364523839206,0.001024635974317789
1.7294980460648942e+18,0.0008390480652451515,-0.00011834148608613759,-0.0009132056147791445
1.7294980460708943e+18,0.0007806828944012523,-0.0007874534348957241,0.0011177592677995563
1.7294980460798945e+18,-0.0032797798048704863,-0.0015276474878191948,0.0004597273073159158
1.7294980460888947e+18,0.001696779509074986,0.0014422489330172539,-7.7946693636477e-05
1.7294980460948948e+18,-0.0015813325298950076,-0.0025505900848656893,-0.00045180253800936043
1.729498046103895e+18,0.0036338011268526316,0.0012393168872222304,0.0017696620197966695
1.7294980461098952e+18,0.0002776412293314934,-0.0022785866167396307,0.0022370668593794107
1.7294980461188954e+18,-0.0011364809470251203,-0.0029577377717942,-0.0007210537442006171
1.7294980461278956e+18,-0.0011893459595739841,-0.0018618585309013724,0.00018222513608634472
1.7294980461338957e+18,-0.0015175433363765478,-0.003102869028225541,-0.0007695532403886318
1.7294980461428959e+18,0.0005532338400371373,0.0004848586686421186,0.0007004280923865736
1.729498046151896e+18,-0.0013151151360943913,-0.0008268033270724118,3.846957770292647e-05
1.7294980461578962e+18,-0.0006240904913283885,0.00021608923270832747,0.00023741013137623668
1.7294980461668964e+18,0.002227478427812457,0.002008917508646846,0.00300611462444067
1.7294980461728965e+18,-0.0007825175998732448,-0.0013116681948304176,-0.0008432214963249862
1.7294980461818967e+18,0.0005247646477073431,0.0021951317321509123,-0.00014205332263372838
1.7294980461878968e+18,0.0029099879320710897,-0.0006197293405421078,-0.0030653751455247402
1.729498046196897e+18,0.00016021360352169722,0.0020837970077991486,-5.7399356592213735e-06
1.7294980462058972e+18,-0.0019619723316282034,0.0018916134722530842,-0.0003632633597590029
1.7294980462118973e+18,-0.0011075841030105948,0.0009468496427871287,9.410412530996837e-06
1.7294980462208975e+18,0.0018661676440387964,-0.000898032623808831,-0.002670814748853445
1.7294980462268977e+18,-0.003208942711353302,0.00039990837103687227,-0.0018328025471419096
1.7294980462358979e+18,-0.0008554160012863576,-0.0011804337846115232,0.0007112489547580481
1.729498046241898e+18,0.00043192479643039405,-0.00042841743561439216,-9.774682257557288e-05
1.7294980462508982e+18,-0.0009247757261618972,-0.0028846466448158026,-0.001689158147200942
1.7294980462598984e+18,0.0006725200801156461,-3.677377389976755e-05,-0.0002201460301876068
1.7294980462658985e+18,-0.0020370471756905317,0.0014703177148476243,0.00204129284247756
1.7294980462748987e+18,-0.001364081515930593,0.0002287377428729087,8.633064135210589e-05
1.729498046283899e+18,0.001872914843261242,0.00016715544916223735,0.00037844531470909715
1.729498046289899e+18,-0.000323509651934728,-0.00046234665205702186,-0.001040877541527152
1.7294980462988992e+18,0.0006097186706028879,0.0006717078504152596,0.0006018388667143881
1.7294980463048993e+18,-0.0005963888252153993,-0.000702714896760881,-0.0007580859237350523
1.7294980463138995e+18,-0.002090591238811612,0.002638203091919422,-0.003809921210631728
1.7294980463228997e+18,0.0006049991934560239,0.002509691985324025,0.0011920187389478087
1.7294980463288998e+18,0.0024456370156258345,-0.0018792602932080626,-0.0002431851753499359
1.7294980463379e+18,0.002181146526709199,-0.0012959085870534182,-0.0002708912070374936
1.7294980463469002e+18,-0.0006206705584190786,0.003064218210056424,-0.00045170815428718925
1.7294980463529004e+18,0.0006710575544275343,0.00024126778589561582,0.001071809558197856
1.7294980463619005e+18,0.0007750844233669341,8.325510134454817e-05,0.0005938317044638097
1.7294980463709007e+18,-0.0007541207014583051,1.8248359992867336e-05,-0.0037360333371907473
1.7294980463769009e+18,0.0005313934525474906,0.0019052948337048292,-0.00394120579585433
1.729498046385901e+18,0.0015075737610459328,-0.0005991030484437943,-0.002207283629104495
1.7294980463919012e+18,-0.001132593140937388,0.00036849622847512364,-0.0023196686524897814
1.7294980464009014e+18,-0.0011931866174563766,-0.0008250995306298137,-0.002378366654738784
1.7294980464069015e+18,-0.0006455029943026602,0.0004519156937021762,-0.0017146160826086998
1.7294980464159017e+18,0.165614053606987,-0.023225778713822365,0.0002860274980776012
1.7294980464219018e+18,0.29858243465423584,-0.048419706523418427,0.0017073763301596045
1.729498046430902e+18,0.49133872985839844,-0.07479570806026459,-0.0013620152603834867
1.7294980464399022e+18,0.6162317991256714,-0.0951530933380127,0.0006563098868355155
1.7294980464489024e+18,0.6261622309684753,-0.10360904783010483,-0.0008037019288167357
1.7294980464549025e+18,0.5781672596931458,-0.09652959555387497,0.00023922539548948407
1.7294980464639027e+18,0.46428948640823364,-0.08732477575540543,-0.0027028049807995558
1.7294980464699028e+18,0.402543842792511,-0.08009526133537292,-0.0021793125197291374
1.729498046478903e+18,0.35229769349098206,-0.07650469243526459,0.0019683775026351213
1.7294980464879032e+18,0.37987813353538513,-0.07992798835039139,-0.0006837885593995452
1.7294980464939034e+18,0.4256858825683594,-0.08122141659259796,-0.0015664396341890097
1.7294980465029036e+18,0.4942229688167572,-0.08608902990818024,0.0018325971905142069
1.7294980465089037e+18,0.5187346935272217,-0.08973202854394913,-0.0021327370777726173
1.729498046517904e+18,0.4962693154811859,-0.0845252275466919,-0.0018170566763728857
1.729498046523904e+18,0.44413667917251587,-0.07846616208553314,-0.0012470365036278963
1.7294980465329042e+18,0.33461058139801025,-0.07355132699012756,-0.001785319996997714
1.7294980465419044e+18,0.23309504985809326,-0.05907348915934563,0.0002876198850572109
1.7294980465479045e+18,0.18862569332122803,-0.05173381417989731,-0.00469608511775732
1.7294980465569047e+18,0.16972802579402924,-0.048122912645339966,-0.0020744996145367622
1.7294980465629048e+18,0.18496786057949066,-0.04441997781395912,-0.0013181380927562714
1.729498046571905e+18,0.21484047174453735,-0.043133173137903214,-0.0021447709295898676
1.7294980465809052e+18,0.22159793972969055,-0.03868167847394943,-0.0015498424181714654
1.7294980465869053e+18,0.206234410405159,-0.03576541319489479,-0.0002193948021158576
1.7294980465959055e+18,0.14089219272136688,-0.02785349264740944,0.0023074238561093807
1.7294980466049057e+18,0.061964891850948334,-0.01841704733669758,-0.004017839673906565
1.7294980466109059e+18,0.009492063894867897,-0.013789638876914978,-0.0027158951852470636
1.729498046619906e+18,-0.03944656252861023,-0.0048895664513111115,-1.8802005797624588e-05
1.7294980466289062e+18,-0.04921988397836685,-0.002353819552809,-0.0007491478463634849
1.7294980466349064e+18,-0.041914671659469604,0.002737724455073476,-0.0022555983159691095
1.7294980466439066e+18,-0.02279217168688774,0.003630678867921233,-0.0033562856260687113
1.7294980466499067e+18,-0.01568637415766716,0.007296058349311352,0.0016872943378984928
1.729498046658907e+18,-0.031573206186294556,0.011784628964960575,-0.0031777620315551758
1.729498046667907e+18,-0.07431701570749283,0.013793791644275188,-0.0017750539118424058
1.7294980466739072e+18,-0.11163483560085297,0.015628475695848465,-0.0024080188013613224
1.7294980466829074e+18,-0.15712054073810577,0.021737728267908096,-0.002354847965762019
1.7294980466919076e+18,-0.1854623407125473,0.024598902091383934,-0.0024721426889300346
1.7294980467009078e+18,-0.18388110399246216,0.02809036150574684,-0.003081511240452528
1.729498046706908e+18,-0.1763676106929779,0.02933458425104618,-0.00042949116323143244
1.729498046715908e+18,-0.15717513859272003,0.02972765825688839,-0.0034307753667235374
1.7294980467219082e+18,-0.1508953720331192,0.029368991032242775,-0.0018503610044717789
1.7294980467309084e+18,-0.1563102751970291,0.028369050472974777,0.0007216951344162226
1.7294980467399086e+18,-0.17749527096748352,0.030747564509510994,-0.003997665364295244
1.7294980467459087e+18,-0.19491814076900482,0.032416921108961105,-0.0008653743425384164
1.729498046754909e+18,-0.21830964088439941,0.033955954015254974,-0.001398333697579801
1.729498046760909e+18,-0.2295539379119873,0.032115638256073,-0.0004421302000992
1.7294980467699092e+18,-0.2250363677740097,0.038045935332775116,0.0015948484651744366
1.7294980467789094e+18,-0.20878282189369202,0.03573765605688095,-0.0009402266587130725
1.7294980467849096e+18,-0.20019936561584473,0.039745889604091644,-0.00042362496606074274
1.7294980467939098e+18,-0.18327872455120087,0.038296621292829514,-0.0017906499560922384
1.72949804680291e+18,-0.18628153204917908,0.03815619647502899,-0.0005176726845093071
1.72949804680891e+18,-0.18719930946826935,0.03759819641709328,0.00046931247925385833
1.7294980468179103e+18,-0.20173338055610657,0.036734599620103836,0.00039831630419939756
1.7294980468239104e+18,-0.2087077498435974,0.034718502312898636,-0.0003437527921050787
1.7294980468329106e+18,-0.21147748827934265,0.0397830531001091,0.004187408834695816
1.7294980468419108e+18,-0.2047480344772339,0.03915074095129967,1.3905519153922796e-05
1.729498046847911e+18,-0.1944689303636551,0.04101097211241722,-0.0013303550658747554
1.729498046856911e+18,-0.1798141747713089,0.03788812831044197,-0.0008017629152163863
1.7294980468659113e+18,-0.17151474952697754,0.03773059695959091,-0.0022740960121154785
1.7294980468719114e+18,-0.16631513833999634,0.036907609552145004,-0.0008820402435958385
1.7294980468779116e+18,-0.1670617014169693,0.03714374452829361,0.0014421346131712198
1.7294980468869117e+18,-0.17481876909732819,0.03696213290095329,-0.0008080803090706468
1.729498046895912e+18,-0.17486180365085602,0.03810149431228638,0.0006688088178634644
1.7294980469049121e+18,-0.17486390471458435,0.03691554442048073,-0.0006610976997762918
1.7294980469109123e+18,-0.17189648747444153,0.03768805414438248,-0.0009580808691680431
1.7294980469199124e+18,-0.16102638840675354,0.03213977813720703,0.0005299882614053786
1.7294980469289126e+18,-0.14394690096378326,0.033367738127708435,0.0023820216301828623
1.7294980469349128e+18,-0.13951817154884338,0.031968649476766586,0.0018703923560678959
1.729498046943913e+18,-0.1366875320672989,0.03161357715725899,-7.061584619805217e-05
1.7294980469529132e+18,-0.13497966527938843,0.03394689783453941,0.0014540053671225905
1.7294980469589133e+18,-0.13531887531280518,0.030373692512512207,0.0011866440763697028
1.7294980469679135e+18,-0.1428849995136261,0.030991438776254654,0.0008494069334119558
1.7294980469739136e+18,-0.1403825879096985,0.02984675206243992,-0.00030620989855378866
1.7294980469829138e+18,-0.13676615059375763,0.027857307344675064,-0.0018984540365636349
1.729498046991914e+18,-0.12970611453056335,0.026480581611394882,-0.0003439711290411651
1.7294980470009142e+18,-0.11873508244752884,0.025752536952495575,0.0031137580517679453
1.7294980470099144e+18,-0.10889668762683868,0.02256493829190731,0.002180031267926097
1.7294980470189146e+18,-0.10787422209978104,0.021307943388819695,0.0016509252600371838
1.7294980470279148e+18,-0.10916490852832794,0.022647634148597717,8.979457197710872e-05
1.729498047036915e+18,-0.10792124271392822,0.023336287587881088,0.0011120246490463614
1.729498047042915e+18,-0.10713115334510803,0.020683377981185913,0.002782236784696579
1.7294980470519153e+18,-0.10574713349342346,0.02173009142279625,0.001909408369101584
1.7294980470609155e+18,-0.1025313213467598,0.018711963668465614,0.0004043044173158705
1.7294980470699156e+18,-0.09644518792629242,0.01744203455746174,0.0016244446160271764
1.7294980470789158e+18,-0.08985473215579987,0.01743992045521736,0.003297777846455574
1.729498047087916e+18,-0.08346455544233322,0.018561892211437225,0.0019370773807168007
1.7294980470939162e+18,-0.08483473211526871,0.016048410907387733,-0.000922667677514255
1.7294980471029164e+18,-0.08412999659776688,0.015573697164654732,0.001152291428297758
1.7294980471119165e+18,-0.08684027940034866,0.01719263568520546,0.001023107673972845
1.7294980471179167e+18,-0.08670366555452347,0.014954792335629463,-0.0015500204171985388
1.7294980471269169e+18,-0.08815295249223709,0.012497832998633385,0.001571197179146111
1.729498047135917e+18,-0.08823075890541077,0.012414953671395779,0.0006189117557369173
1.7294980471449172e+18,-0.08093852549791336,0.010066278278827667,-0.0008015912026166916
1.7294980471539174e+18,-0.07584641873836517,0.01193507481366396,0.001768538262695074
1.7294980471629176e+18,-0.06946735084056854,0.012178889475762844,0.0029965746216475964
1.729498047174918e+18,-0.07337239384651184,0.013417907059192657,0.0025563430972397327
1.729498047183918e+18,-0.06970469653606415,0.014026117511093616,0.0002620250452309847
1.7294980471959183e+18,-0.0699235275387764,0.013963124714791775,0.004240172915160656
1.7294980472139187e+18,-0.0665251761674881,0.009611610323190689,0.004058247432112694
1.729498047222919e+18,-0.06445695459842682,0.01053837314248085,0.0007926203543320298
1.729498047231919e+18,-0.06231904402375221,0.01060661394149065,-0.0011965240119025111
1.7294980472409193e+18,-0.060423534363508224,0.009767835959792137,0.0016577336937189102
1.7294980472469194e+18,-0.06255853176116943,0.009574946016073227,0.0013256041565909982
1.7294980472559196e+18,-0.06468377262353897,0.011061513796448708,0.004551037680357695
1.7294980472649198e+18,-0.06528371572494507,0.009805654175579548,0.0013726246543228626
1.72949804727392e+18,-0.0652502253651619,0.011512864381074905,0.004818323999643326
1.72949804727992e+18,-0.06405753642320633,0.008783861994743347,0.0014292208943516016
1.7294980472889203e+18,-0.06237905099987984,0.0106674674898386,-0.00031868484802544117
1.7294980472979205e+18,-0.05721640586853027,0.009334933012723923,0.0034316792152822018
1.7294980473069207e+18,-0.05553055554628372,0.0065449196845293045,0.0025916993618011475
1.7294980473129208e+18,-0.05516205355525017,0.009676470421254635,0.0028284727595746517
1.729498047321921e+18,-0.054877571761608124,0.008330109529197216,0.0038699088618159294
1.7294980473309212e+18,-0.05549182370305061,0.010462039150297642,0.0030667008832097054
1.7294980473399214e+18,-0.05179990828037262,0.009153003804385662,0.0015496700070798397
1.7294980473459215e+18,-0.05286855250597,0.009571430273354053,0.0007038407493382692
1.7294980473549217e+18,-0.05123784393072128,0.009112926200032234,-0.0010921317152678967
1.729498047363922e+18,-0.050390638411045074,0.007945405319333076,0.0032740007154643536
1.7294980473759222e+18,-0.047700490802526474,0.0069702197797596455,0.0017278852174058557
1.7294980473849224e+18,-0.047168780118227005,0.009916113689541817,0.000628688489086926
1.7294980473939226e+18,-0.04708150401711464,0.007665267679840326,0.001692520803771913
1.7294980474029228e+18,-0.04324089735746384,0.01298539713025093,0.0014626940246671438
1.729498047411923e+18,-0.04741257429122925,0.0077392831444740295,0.0011946640443056822
1.729498047417923e+18,-0.042653635144233704,0.007809776812791824,0.0037905629724264145
1.7294980474269233e+18,-0.04646392911672592,0.006416682619601488,0.0025837691500782967
1.7294980474359235e+18,-0.04181873798370361,0.008566703647375107,0.0002242290647700429
1.7294980474449236e+18,-0.040325913578271866,0.006357079837471247,0.0021642884239554405
1.7294980474539238e+18,-0.04128279164433479,0.006630468647927046,0.0009783469140529633
1.729498047465924e+18,-0.03973143920302391,0.006549257785081863,0.003031740430742502
1.7294980474749243e+18,-0.04011028632521629,0.007475776597857475,0.0020511015318334103
1.7294980474809244e+18,-0.03689054399728775,0.008641389198601246,0.002518061548471451
1.7294980474899246e+18,-0.03580876812338829,0.006844112183898687,0.001883565098978579
1.7294980474989248e+18,-0.03173340484499931,0.006951850838959217,0.0017089988104999065
1.729498047507925e+18,-0.030412346124649048,0.00679339375346899,0.0005471567274071276
1.7294980475169252e+18,-0.02991090901196003,0.009096390567719936,0.002157431561499834
1.7294980475259254e+18,-0.03168854862451553,0.0076594105921685696,0.0029332672711461782
1.7294980475319255e+18,-0.03163813054561615,0.00739168981090188,-0.001289140316657722
1.7294980475409257e+18,-0.02678450010716915,0.008811697363853455,-0.0009092718828469515
1.729498047552926e+18,-0.02666095644235611,0.007430540397763252,-0.00024744431721046567
1.7294980475619261e+18,-0.02279254049062729,0.00743205938488245,-0.00012014272942906246
1.7294980475709263e+18,-0.024050220847129822,0.003893553512170911,-0.002916839672252536
1.7294980475799265e+18,-0.02373054251074791,0.003278791904449463,1.1698721209540963e-06
1.7294980475889267e+18,-0.025073040276765823,0.0055125560611486435,-0.0022976379841566086
1.729498047597927e+18,-0.02683352492749691,0.007802351377904415,-0.0016367037314921618
1.729498047606927e+18,-0.025545526295900345,0.005850090645253658,-0.002021249383687973
1.7294980476159273e+18,-0.027772599831223488,0.003422082867473364,-0.00036371691385284066
1.7294980476249275e+18,-0.020676923915743828,0.003815994830802083,0.0016510600689798594
1.7294980476339277e+18,-0.021039025858044624,0.004923837725073099,0.0002752487489487976
1.7294980476429279e+18,-0.018092544749379158,0.0020836577750742435,0.0025368742644786835
1.7294980476549281e+18,-0.019600020721554756,0.006228703074157238,-0.0018770289607346058
1.7294980476639283e+18,-0.01849806122481823,0.008462551049888134,8.257280569523573e-05
1.7294980476729285e+18,-0.020351147279143333,0.006776006892323494,-0.00041201984276995063
1.7294980476819287e+18,-0.021585827693343163,0.006234752479940653,0.000496344524435699
1.729498047690929e+18,-0.01640935055911541,0.00474234763532877,-0.002661744598299265
1.729498047699929e+18,-0.016827285289764404,0.0059173316694796085,-0.001913135638460517
1.7294980477089293e+18,-0.013389759697020054,0.00479234429076314,0.0005677284207195044
1.7294980477179295e+18,-0.013365844264626503,0.002273307181894779,-0.0009136456064879894
1.7294980477269297e+18,-0.015133251436054707,0.003826806088909507,0.0010967794805765152
1.7294980477359299e+18,-0.01417599804699421,0.006100528407841921,-0.0011347696417942643
1.72949804774493e+18,-0.012932660058140755,0.007238206919282675,0.0014953950885683298
1.7294980477539302e+18,-0.014790605753660202,0.006720107514411211,-0.0031542927026748657
1.7294980477629304e+18,-0.013809950090944767,0.0040352619253098965,-0.0015245618997141719
1.7294980477719306e+18,-0.013202602975070477,-0.0004318332066759467,-0.002890100236982107
1.7294980477809308e+18,-0.01202987227588892,0.0013377397553995252,-0.001460172003135085
1.729498047789931e+18,-0.010674583725631237,-0.0026942994445562363,-0.0027258051559329033
1.7294980478139315e+18,-0.010307904332876205,0.0016559517243877053,-0.0039835721254348755
1.7294980478229317e+18,-0.006277221255004406,-0.0033958503045141697,-0.0040571074932813644
1.729498047834932e+18,-0.007180558517575264,0.0012683873064815998,-0.0038598841056227684
1.7294980478439322e+18,-0.00736435828730464,0.0012487969361245632,-0.001778924372047186
1.7294980478529324e+18,-0.006674551405012608,-0.0005042647244408727,-0.0034023101907223463
1.7294980478619325e+18,-0.007068560924381018,0.0017058191588148475,-0.004860675893723965
1.7294980478679327e+18,-0.006041060201823711,-0.0023874961771070957,-0.002085421234369278
1.7294980478769329e+18,-0.007167249917984009,0.00021989340893924236,-0.0028850864619016647
1.729498047885933e+18,-0.0025738670956343412,-0.0008320778142660856,-0.0035307675134390593
1.7294980478949332e+18,-0.004974445328116417,-0.0037395867984741926,-0.004501155111938715
1.7294980479039334e+18,-0.0037645306438207626,0.0022372615057975054,-0.0029879100620746613
1.7294980479129336e+18,-0.0035786908119916916,0.0005315401358529925,-0.005131223239004612
1.7294980479219338e+18,-0.0016592012252658606,0.00034644571132957935,-0.002258012071251869
1.729498047930934e+18,-0.0005166418850421906,-0.0007956539047881961,-0.0024424795992672443
1.7294980479399342e+18,-0.0019644517451524734,0.001396964187733829,0.0001247685868293047
1.7294980479489344e+18,-0.003168498631566763,0.001268913270905614,-0.002324754372239113
1.7294980479579346e+18,-0.001905656885355711,0.001121192122809589,-0.0030914684757590294
1.7294980479909353e+18,0.0034985500387847424,-0.0009474721737205982,-0.0019233092898502946
1.7294980480029356e+18,0.0012778756208717823,0.0019180208910256624,-0.003944386728107929
1.7294980480149358e+18,0.002932933857664466,-0.001625780831091106,-0.00566538330167532
1.729498048023936e+18,0.0015571712283417583,-0.00012014168896712363,-0.006387247703969479
1.729498048029936e+18,0.0032194843515753746,-0.0023629155475646257,-0.0036086442414671183
1.7294980480389363e+18,0.005188061855733395,-0.000210129888728261,-0.002457099501043558
1.7294980480479365e+18,0.0020487152505666018,0.0019412918481975794,-0.0025641662068665028
1.729498048068937e+18,0.006481118034571409,-0.003040130017325282,-0.0032351126428693533
1.7294980480959375e+18,0.009160797111690044,-0.004122575744986534,-0.00681438110768795
1.7294980481079378e+18,0.006336412858217955,-0.0016855769790709019,-0.0027832339983433485
1.729498048116938e+18,0.008099888451397419,-0.004076741635799408,-0.002467713551595807
1.7294980481259382e+18,0.012333950027823448,-0.0015658591873943806,-0.004585065878927708
1.7294980481349384e+18,0.009950743988156319,-0.004828170873224735,-0.0025099823251366615
1.7294980481469386e+18,0.0093300249427557,-1.9713043002411723e-05,-0.0032811544369906187
1.7294980481559388e+18,0.010185519233345985,-0.00034860626328736544,-0.0035459783393889666
1.729498048164939e+18,0.010206859558820724,-0.00015480798901990056,-0.006157386116683483
1.7294980481709391e+18,0.009114932268857956,-0.0025901258923113346,-0.0016523693921044469
1.7294980481799393e+18,0.009118523448705673,-0.003214332042261958,-0.0019942999351769686
1.7294980481889395e+18,0.008695005439221859,-0.0019377656280994415,0.000872321892529726
1.7294980481979397e+18,0.00829636212438345,-0.0013312982628121972,-0.0014813605230301619
1.72949804820694e+18,0.009484738111495972,-0.004897396080195904,-0.004259133245795965
1.72949804821594e+18,0.011381912976503372,-0.0031963777728378773,-0.002738421782851219
1.7294980482249403e+18,0.012120651081204414,-0.005016373936086893,-0.0015554259298369288
1.7294980482339405e+18,0.0131832892075181,-0.0030259788036346436,-0.0037617392372339964
1.7294980482429407e+18,0.013635862618684769,-0.005631073843687773,-0.006455053575336933
1.7294980482519409e+18,0.01589576154947281,-0.0005283316131681204,-0.004154408350586891
1.729498048257941e+18,0.014671661891043186,-0.0016287167090922594,0.0005004564300179482
1.7294980482669412e+18,0.013133013620972633,-0.005979723297059536,-0.0033106005284935236
1.7294980482759414e+18,0.012485017068684101,-0.00712095620110631,-0.005023732781410217
1.7294980482849416e+18,0.016309022903442383,-0.005829086061567068,-0.004623202607035637
1.7294980482939418e+18,0.019073475152254105,-0.006188365165144205,-0.0025085494853556156
1.729498048302942e+18,0.015769796445965767,-0.0038227944169193506,-0.004223138093948364
1.7294980483119421e+18,0.017950890585780144,-0.0027785678394138813,-0.003926158882677555
1.7294980483209423e+18,0.016292281448841095,-0.003398554865270853,-0.002754253800958395
1.7294980483299425e+18,0.012133348733186722,-0.004878944717347622,-0.003660778980702162
1.7294980483389427e+18,0.012550467625260353,-0.0029437111224979162,-0.0049920775927603245
1.729498048347943e+18,0.017519021406769753,-0.0035103955306112766,-0.003538126591593027
1.7294980483599432e+18,0.018281366676092148,-0.004746008664369583,-0.0039506456814706326
1.7294980483689434e+18,0.01584140583872795,-0.004931852221488953,-0.0050191618502140045
1.7294980483779436e+18,0.017697732895612717,-0.007876137271523476,-0.004058257210999727
1.7294980483839437e+18,0.015941675752401352,-0.005799786187708378,-0.0018821514677256346
1.7294980483929439e+18,0.01663769781589508,-0.0028917028103023767,-0.005467604845762253
1.729498048401944e+18,0.015630070120096207,-0.0049749515019357204,-0.0022748163901269436
1.7294980484109443e+18,0.01708206720650196,-0.004686128348112106,-0.0007922360673546791
1.7294980484229445e+18,0.02171233668923378,-0.005923759192228317,-0.001161804422736168
1.7294980484319447e+18,0.020244717597961426,-0.002006681403145194,-0.00629831338301301
1.729498048440945e+18,0.02397790178656578,0.00027810106985270977,-0.004145684652030468
1.729498048449945e+18,0.01873425953090191,-0.0008553058141842484,-0.0061868103221058846
1.7294980484589453e+18,0.01762353628873825,-0.002779443748295307,-0.003598922397941351
1.7294980484679455e+18,0.020968742668628693,-0.0067155491560697556,-0.0032054465264081955
1.7294980484769457e+18,0.019340738654136658,-0.006732291541993618,-0.003911066334694624
1.7294980484859459e+18,0.022069845348596573,-0.004259876441210508,-0.00472508417442441
1.729498048494946e+18,0.021213509142398834,-0.004811110906302929,-0.00447989022359252
1.7294980485039462e+18,0.022662991657853127,-0.0009643859229981899,-0.0028003850020468235
1.7294980485129464e+18,0.022276584059000015,-0.0018154117278754711,-0.006238375790417194
1.7294980485219466e+18,0.02151959016919136,-0.0001233941875398159,-0.0046142702922225
1.7294980485309468e+18,0.021998345851898193,-0.0064493450336158276,-0.004469483625143766
1.729498048536947e+18,0.02485937625169754,-0.0053313677199184895,-0.0035391002893447876
1.7294980485459471e+18,0.021244484931230545,-0.004808871541172266,-0.004964624997228384
1.7294980485549473e+18,0.022801654413342476,-0.002667697612196207,-0.004304124973714352
1.7294980485639475e+18,0.020915724337100983,-0.005351472645998001,-0.005789424758404493
1.7294980485759478e+18,0.025238724425435066,-0.006220552138984203,-0.005047690588980913
1.729498048584948e+18,0.02584783360362053,-0.005095829255878925,-0.004338609986007214
1.729498048590948e+18,0.025941304862499237,-0.00860355794429779,-0.005316135007888079
1.7294980485999483e+18,0.02277512475848198,-0.006935467012226582,-0.0056546819396317005
1.7294980486089485e+18,0.023618312552571297,-0.0030237792525440454,-0.007160946726799011
1.7294980486179487e+18,0.020747551694512367,-0.003918741829693317,-0.004932952579110861
1.7294980486269489e+18,0.02474585548043251,-0.005072924308478832,-0.005227185320109129
1.729498048635949e+18,0.021749237552285194,-0.005695472937077284,-0.00765350554138422
1.7294980486449492e+18,0.020864715799689293,-0.004643699619919062,-0.0018544795457273722
1.7294980486539494e+18,0.019716907292604446,-0.004983775783330202,-0.007901163771748543
1.7294980486629496e+18,0.019929315894842148,-0.004484661389142275,-0.004956678953021765
1.7294980486719498e+18,0.02171274460852146,-0.004325652960687876,-0.0038141177501529455
1.72949804868095e+18,0.02329847402870655,-0.0013168412260711193,-0.005130577366799116
1.7294980486869501e+18,0.01863297075033188,-0.006674675270915031,-0.003887023776769638
1.7294980486959503e+18,0.02366761676967144,-0.004606890957802534,-0.00607182364910841
1.7294980487049505e+18,0.02336454577744007,-0.00495978444814682,-0.004551233723759651
1.7294980487139507e+18,0.02096336893737316,-0.0016768317436799407,-0.004223810508847237
1.729498048722951e+18,0.0267544724047184,0.0005130593199282885,-0.004925581160932779
1.729498048728951e+18,0.025518059730529785,-0.0035482277162373066,-0.005591433960944414
1.7294980487379512e+18,0.029019005596637726,-0.004785774741321802,-0.0033678016625344753
1.7294980487469514e+18,0.02839534915983677,-0.0038736218120902777,-0.0069729480892419815
1.7294980487559516e+18,0.02429984323680401,-0.0033928584307432175,-0.006506788544356823
1.7294980487619517e+18,0.020994791761040688,-0.0024791283067315817,-0.006912346929311752
1.729498048770952e+18,0.023568376898765564,-0.001107631018385291,-0.003458537859842181
1.729498048779952e+18,0.02160550467669964,0.0015266725094988942,-0.004855034407228231
1.7294980487859523e+18,0.025046898052096367,0.0004994409391656518,-0.004478238523006439
1.7294980487949524e+18,0.02488761767745018,-4.1981838876381516e-05,-0.0048027075827121735
1.7294980488039526e+18,0.02913057990372181,-0.0004160508397035301,-0.006309024058282375
1.7294980488129528e+18,0.02818898670375347,0.00037529366090893745,-0.005974819418042898
1.729498048818953e+18,0.024913959205150604,-0.0011673683766275644,-0.007364657707512379
1.7294980488279532e+18,0.02926805429160595,-0.002629823051393032,-0.011463155969977379
1.7294980488369533e+18,0.025285862386226654,0.01046180073171854,-0.023857180029153824
1.7294980488459535e+18,0.02818913757801056,0.016085855662822723,-0.04262160137295723
1.7294980488549537e+18,0.02975982427597046,0.01875394955277443,-0.04428301751613617
1.7294980488609539e+18,0.03292815759778023,0.017488138750195503,-0.04446761682629585
1.729498048869954e+18,0.03236021474003792,0.011988227255642414,-0.042463645339012146
1.7294980488789542e+18,0.02813078463077545,0.008341164328157902,-0.045662712305784225
1.7294980488879544e+18,0.02934824489057064,0.0019670119509100914,-0.041812457144260406
1.7294980488969546e+18,0.02889842540025711,0.0030133305117487907,-0.04515655338764191
1.7294980489029548e+18,0.02838439866900444,0.0003596954047679901,-0.04594734311103821
1.729498048911955e+18,0.02854199893772602,0.008200287818908691,-0.044720109552145004
1.7294980489209551e+18,0.031153179705142975,0.011837923899292946,-0.04792093485593796
1.7294980489299553e+18,0.029325678944587708,0.013011974282562733,-0.048234570771455765
1.7294980489359555e+18,0.026658933609724045,0.010349640622735023,-0.04972359538078308
1.7294980489449556e+18,0.03131864219903946,0.007902790792286396,-0.048286061733961105
1.7294980489539558e+18,0.02944953925907612,0.00243340409360826,-0.049119431525468826
1.729498048962956e+18,0.029793892055749893,0.0021675070747733116,-0.04883486405014992
1.7294980489689562e+18,0.028672169893980026,0.001651583006605506,-0.05088955909013748
1.7294980489779564e+18,0.03038068860769272,0.003600572468712926,-0.05052103102207184
1.7294980489869565e+18,0.030732501298189163,0.0035875989124178886,-0.05223698541522026
1.7294980489959567e+18,0.03196805343031883,0.0027697389014065266,-0.05708833783864975
1.7294980490019569e+18,0.030871598049998283,0.003809028770774603,-0.053041353821754456
1.729498049010957e+18,0.027822241187095642,0.0005305977538228035,-0.05360710620880127
1.7294980490199572e+18,0.02717248909175396,-0.004578103311359882,-0.05666080862283707
1.7294980490259574e+18,0.02940262481570244,-0.004598843399435282,-0.05699705705046654
1.7294980490349576e+18,0.027913076803088188,-0.007126514334231615,-0.0539306215941906
1.7294980490409577e+18,0.025891199707984924,-0.0066599552519619465,-0.05790797248482704
1.729498049049958e+18,0.026193568482995033,-0.0036747227422893047,-0.05771011859178543
1.729498049055958e+18,0.023514294996857643,-0.003919058479368687,-0.0596124492585659
1.7294980490649582e+18,0.028597714379429817,-0.006606441922485828,-0.05906692147254944
1.7294980490739584e+18,0.03194134309887886,-0.0027421461418271065,-0.057021934539079666
1.7294980490799585e+18,0.028034308925271034,-0.005358944647014141,-0.06016460806131363
1.7294980490889587e+18,0.028279578313231468,-0.009151589125394821,-0.05714040622115135
1.729498049097959e+18,0.02453540824353695,-0.008203761652112007,-0.0567120760679245
1.729498049103959e+18,0.02542445808649063,-0.011708269827067852,-0.055517248809337616
1.7294980491129592e+18,0.025512490421533585,-0.012022623792290688,-0.055828750133514404
1.7294980491189594e+18,0.02219473198056221,-0.015200437977910042,-0.05795444920659065
1.7294980491279596e+18,0.023354696109890938,-0.0157555490732193,-0.05454256013035774
1.7294980491369597e+18,0.024303242564201355,-0.016843996942043304,-0.05469449236989021
1.7294980491429599e+18,0.02713335119187832,-0.015571833588182926,-0.054294418543577194
1.72949804915196e+18,0.025196261703968048,-0.016101930290460587,-0.055857446044683456
1.7294980491579602e+18,0.026899658143520355,-0.01638653874397278,-0.052956316620111465
1.7294980491669604e+18,0.024770693853497505,-0.016171066090464592,-0.04928210750222206
1.7294980491729605e+18,0.021784266456961632,-0.01777939684689045,-0.04992130398750305
1.7294980491819607e+18,0.023586735129356384,-0.018262015655636787,-0.049027085304260254
1.729498049190961e+18,0.022118015214800835,-0.018369557335972786,-0.04523033648729324
1.729498049196961e+18,0.023620618507266045,-0.017657514661550522,-0.04072071239352226
1.7294980492059612e+18,0.028502892702817917,-0.021202465519309044,-0.03833308443427086
1.7294980492119613e+18,0.028112690895795822,-0.019165676087141037,-0.03600824996829033
1.7294980492209615e+18,0.028570491820573807,-0.01745477318763733,-0.03558206185698509
1.7294980492299617e+18,0.02419585920870304,-0.020016679540276527,-0.029248908162117004
1.7294980492359619e+18,0.022669997066259384,-0.019580870866775513,-0.03037220984697342
1.729498049244962e+18,0.025043213739991188,-0.021127920597791672,-0.025137145072221756
1.7294980492539622e+18,0.023586435243487358,-0.015751227736473083,-0.020903972908854485
1.7294980492629624e+18,0.02166580781340599,-0.020678438246250153,-0.01980108767747879
1.7294980492689626e+18,0.024849282577633858,-0.019056733697652817,-0.0211038701236248
1.7294980492779628e+18,0.026097171008586884,-0.020967651158571243,-0.00996389053761959
1.729498049286963e+18,0.022301077842712402,-0.019113531336188316,-0.01026118639856577
1.7294980492959631e+18,0.02323722094297409,-0.018172772601246834,-0.005894138943403959
1.7294980493019633e+18,0.02283715270459652,-0.01814868673682213,-0.0032644018065184355
1.7294980493109635e+18,0.02213933877646923,-0.016874227672815323,0.0003910367959178984
1.7294980493199636e+18,0.021114490926265717,-0.017662288621068,0.004312352277338505
1.7294980493259638e+18,0.022745313122868538,-0.015482061542570591,0.00846021343022585
1.729498049334964e+18,0.021844711154699326,-0.013961242511868477,0.009953386150300503
1.7294980493469642e+18,0.021419521421194077,-0.016078343614935875,0.015245707705616951
1.7294980493589645e+18,0.023693416267633438,-0.012609463185071945,0.02302408777177334
1.7294980493679647e+18,0.024888886138796806,-0.01350588258355856,0.02555081993341446
1.7294980493739648e+18,0.023449787870049477,-0.012496192939579487,0.028280379250645638
1.729498049382965e+18,0.02230004221200943,-0.01288292184472084,0.030618853867053986
1.7294980493919652e+18,0.027545463293790817,-0.01434824988245964,0.03592723235487938
1.7294980493979653e+18,0.02387046255171299,-0.010777096264064312,0.03755144402384758
1.7294980494069655e+18,0.023289984092116356,-0.00688198022544384,0.041671980172395706
1.7294980494129656e+18,0.02268168143928051,-0.008163764141499996,0.04624193534255028
1.7294980494219658e+18,0.01965106464922428,-0.0066943117417395115,0.049386125057935715
1.729498049430966e+18,0.020751530304551125,-0.01175660453736782,0.05024655908346176
1.7294980494369661e+18,0.02562781795859337,-0.008025306276977062,0.05218382179737091
1.7294980494459663e+18,0.025139058008790016,-0.006464752834290266,0.05801301822066307
1.7294980494549665e+18,0.02412913180887699,-0.006589898839592934,0.06187643110752106
1.7294980494609667e+18,0.02278127521276474,-0.0059265694580972195,0.06270018219947815
1.7294980494699668e+18,0.022305013611912727,-0.007810290902853012,0.06837575137615204
1.729498049478967e+18,0.020611250773072243,-0.004382899031043053,0.07253604382276535
1.7294980494849672e+18,0.01685512438416481,-0.006092670373618603,0.07360909134149551
1.7294980494939674e+18,0.019887233152985573,-0.0035271174274384975,0.07634267210960388
1.7294980495029676e+18,0.023927366361021996,-0.00249898131005466,0.08250677585601807
1.7294980495089677e+18,0.021069709211587906,-0.0034207752905786037,0.08428110927343369
1.729498049520968e+18,0.02248322032392025,-0.005014725960791111,0.08307557553052902
1.729498049529968e+18,0.025406887754797935,-0.003430673386901617,0.08547279238700867
1.7294980495359683e+18,0.026269150897860527,-0.004002762027084827,0.08705183863639832
1.7294980495449684e+18,0.024241089820861816,-0.005210160277783871,0.0926470085978508
1.7294980495509686e+18,0.022687027230858803,-0.004173409193754196,0.09482845664024353
1.7294980495629688e+18,0.022916048765182495,0.0004215049557387829,0.09452410042285919
1.729498049571969e+18,0.020684542134404182,-0.0035250289365649223,0.09677370637655258
1.7294980495779692e+18,0.021152278408408165,-0.005362106021493673,0.09828100353479385
1.7294980495869693e+18,0.02316296100616455,-0.005566728767007589,0.10223587602376938
1.7294980495959695e+18,0.026838010177016258,-0.0025647906586527824,0.10511454939842224
1.7294980496019697e+18,0.02802577242255211,-0.0021498987916857004,0.10550383478403091
1.7294980496109699e+18,0.02432292141020298,-0.0011901315301656723,0.10702136904001236
1.72949804961697e+18,0.02053815871477127,-0.003671885235235095,0.10891743749380112
1.7294980496259702e+18,0.024152427911758423,-0.003587255720049143,0.10536541044712067
1.7294980496349704e+18,0.022277146577835083,-0.00259606447070837,0.11232544481754303
1.7294980496409705e+18,0.019851095974445343,-0.003052541520446539,0.11144271492958069
1.7294980496499707e+18,0.021493375301361084,-0.0031987277325242758,0.11393743008375168
1.7294980496559708e+18,0.02456418238580227,-0.004381990060210228,0.11245010793209076
1.729498049664971e+18,0.02281303144991398,-0.0005497483070939779,0.1153431162238121
1.7294980496739712e+18,0.02409280836582184,-0.0027186290826648474,0.11636320501565933
1.7294980496799713e+18,0.022844713181257248,-0.002626492641866207,0.11400207877159119
1.7294980496889715e+18,0.024954361841082573,-0.006668415851891041,0.11673550307750702
1.7294980496949716e+18,0.022950122132897377,-0.005171570926904678,0.11717723309993744
1.7294980497039718e+18,0.018745288252830505,-0.002660337369889021,0.120060995221138
1.729498049709972e+18,0.014396848157048225,-0.004220149479806423,0.12197724729776382
1.7294980497189722e+18,0.01869364269077778,-0.0029346200171858072,0.11926261335611343
1.7294980497249723e+18,0.016534749418497086,-0.0048805102705955505,0.1202223002910614
1.7294980497339725e+18,0.017590632662177086,-0.0052897389978170395,0.12166795879602432
1.7294980497429727e+18,0.01685679703950882,-0.000763281132094562,0.12192945182323456
1.7294980497519729e+18,0.0157204307615757,-0.0013367761857807636,0.12258465588092804
1.729498049757973e+18,0.014685808680951595,0.0002801318187266588,0.12078049033880234
1.7294980497669732e+18,0.016817469149827957,-0.0024985347408801317,0.11950524896383286
1.7294980497729733e+18,0.017049837857484818,-0.006194713991135359,0.12182286381721497
1.7294980497819735e+18,0.014692876487970352,-0.0028789150528609753,0.11882764846086502
1.7294980497909737e+18,0.01823793537914753,-0.004417501389980316,0.11606205999851227
1.729498049799974e+18,0.0191698856651783,-0.0016308043850585818,0.11898688226938248
1.729498049805974e+18,0.020922698080539703,-0.0033667057286947966,0.11843107640743256
1.7294980498149742e+18,0.018922986462712288,-0.003992100711911917,0.1188301146030426
1.7294980498239744e+18,0.020732367411255836,-0.002420341596007347,0.11974118649959564
1.7294980498329746e+18,0.01543248351663351,-0.0051845465786755085,0.11978943645954132
1.7294980498389747e+18,0.01627124287188053,-0.004246465861797333,0.11911838501691818
1.729498049847975e+18,0.016579631716012955,-0.00526073481887579,0.11895532160997391
1.729498049856975e+18,0.015934687107801437,-0.0015776490326970816,0.11797657608985901
1.7294980498629752e+18,0.01494994293898344,-0.0016319246497005224,0.11734604090452194
1.7294980498719754e+18,0.01246683206409216,-0.0015682532684877515,0.11458659172058105
1.7294980498809756e+18,0.012255805544555187,-0.003691567573696375,0.11556454002857208
1.7294980498869757e+18,0.012711882591247559,-0.002503733616322279,0.11289554089307785
1.729498049895976e+18,0.010784812271595001,-0.005707893520593643,0.11441226303577423
1.7294980499049761e+18,0.009501297026872635,-0.0009159799665212631,0.11318983137607574
1.7294980499109763e+18,0.01361886877566576,-0.002190088387578726,0.10885712504386902
1.7294980499199764e+18,0.012939199805259705,-0.0050126598216593266,0.1090526357293129
1.7294980499289766e+18,0.012982863932847977,-0.0031075351871550083,0.10966037213802338
1.7294980499349768e+18,0.013746543787419796,-0.0031953586731106043,0.11030161380767822
1.729498049943977e+18,0.0103364959359169,-0.00516389450058341,0.10917439311742783
1.7294980499529772e+18,0.014212646521627903,-0.0061139934696257114,0.10777546465396881
1.7294980499589773e+18,0.01172555424273014,-0.0009915605187416077,0.1053854301571846
1.7294980499679775e+18,0.012464672327041626,-0.009087708778679371,0.10700049996376038
1.7294980499769777e+18,0.012912938371300697,-0.007535305805504322,0.10357525944709778
1.7294980499829778e+18,0.0189416091889143,-0.007951231673359871,0.10310710966587067
1.729498049991978e+18,0.03343755751848221,-0.009302385151386261,0.10164058953523636
1.7294980500009782e+18,0.050160862505435944,-0.008093651384115219,0.10057754069566727
1.7294980500069783e+18,0.05788054317235947,-0.006304467096924782,0.09529335796833038
1.7294980500159785e+18,0.06687716394662857,-0.007428937125951052,0.09637441486120224
1.7294980500219786e+18,0.06588860601186752,-0.005708606448024511,0.0911930650472641
1.7294980500309788e+18,0.06187184900045395,-0.009743954055011272,0.09140636771917343
1.729498050039979e+18,0.05405523627996445,-0.009531945921480656,0.08806482702493668
1.7294980500459791e+18,0.0522422268986702,-0.015185697004199028,0.08742766827344894
1.7294980500549793e+18,0.0589279979467392,-0.011357697658240795,0.0849994644522667
1.7294980500639795e+18,0.06638344377279282,-0.0126644317060709,0.08439755439758301
1.7294980500699796e+18,0.06760234385728836,-0.010841747745871544,0.08401607722043991
1.7294980500789798e+18,0.07153645902872086,-0.008472352288663387,0.08137540519237518
1.72949805008498e+18,0.06942523270845413,-0.011408361606299877,0.08281929790973663
1.7294980500939802e+18,0.06825156509876251,-0.0112662548199296,0.08224057406187057
1.7294980501029804e+18,0.06162511184811592,-0.010442162863910198,0.08132109045982361
1.7294980501089805e+18,0.05468554049730301,-0.011192768812179565,0.0749795213341713
1.7294980501179807e+18,0.05363510176539421,-0.011875869706273079,0.07213310152292252
1.7294980501269809e+18,0.05053635686635971,-0.011642503552138805,0.07406332343816757
1.729498050132981e+18,0.05382154509425163,-0.011441733688116074,0.07279641181230545
1.7294980501419812e+18,0.05671842768788338,-0.010235934518277645,0.07117579877376556
1.7294980501509814e+18,0.057384055107831955,-0.011308003216981888,0.07077766209840775
1.7294980501569815e+18,0.05611220747232437,-0.01344460342079401,0.06729742139577866
1.7294980501659817e+18,0.054764557629823685,-0.009601032361388206,0.06658986210823059
1.7294980501719818e+18,0.048998985439538956,-0.011665250174701214,0.061953432857990265
1.729498050180982e+18,0.04528600722551346,-0.011205554939806461,0.0657552182674408
1.7294980501899822e+18,0.03594590350985527,-0.009361754171550274,0.06369023025035858
1.7294980501959823e+18,0.030359309166669846,-0.009469274431467056,0.0623297393321991
1.7294980502049825e+18,0.029523395001888275,-0.008257409557700157,0.062151629477739334
1.7294980502109827e+18,0.026771454140543938,-0.006703456398099661,0.06066097691655159
1.7294980502199828e+18,0.028637586161494255,-0.007817993871867657,0.059526171535253525
1.729498050228983e+18,0.02813183143734932,-0.007480002008378506,0.05707883462309837
1.7294980502379832e+18,0.02553464099764824,-0.004419643897563219,0.056179534643888474
1.7294980502439834e+18,0.02621356025338173,-0.006621522828936577,0.05476154759526253
1.7294980502529836e+18,0.02224363014101982,-0.004850171972066164,0.056555166840553284
1.7294980502589837e+18,0.018803441897034645,-0.0054132877849042416,0.05488415062427521
1.729498050267984e+18,0.014261292293667793,-0.005878832191228867,0.05483953654766083
1.729498050276984e+18,0.009648402221500874,-0.004434787202626467,0.05274995416402817
1.7294980502829842e+18,0.012293978594243526,-0.00661668973043561,0.05070667713880539
1.7294980502919844e+18,0.009148740209639072,-0.005276685580611229,0.05271882563829422
1.7294980503009846e+18,0.008398938924074173,-0.003868582658469677,0.04704411327838898
1.7294980503069847e+18,0.008366716094315052,-0.005080138333141804,0.04657689109444618
1.729498050315985e+18,0.0071984995156526566,-0.0062850480899214745,0.046598248183727264
1.729498050324985e+18,0.0060830493457615376,-0.00944142322987318,0.04651046544313431
1.7294980503309852e+18,0.00869182962924242,-0.004261957947164774,0.044843174517154694
1.7294980503399854e+18,0.008321371860802174,-0.005765278358012438,0.04500323534011841
1.7294980503459855e+18,0.0034758462570607662,-0.0077345664612948895,0.042733266949653625
1.7294980503549857e+18,0.0006586050731129944,-0.0021600164473056793,0.04171741008758545
1.729498050363986e+18,-0.000199864647584036,-0.00260142725892365,0.042334701865911484
1.729498050369986e+18,0.0032107168808579445,-0.004197514615952969,0.037745364010334015
1.7294980503789862e+18,0.0030931751243770123,-0.001556349452584982,0.03841780871152878
1.7294980503879864e+18,0.0017548729665577412,-0.00441020168364048,0.041554808616638184
1.7294980503939866e+18,-0.0006971911061555147,-0.005387423560023308,0.037887874990701675
1.7294980504029868e+18,-0.00046278376248665154,-0.003798901801928878,0.03834572061896324
1.729498050411987e+18,0.00017853121971711516,-0.003700198605656624,0.03476352617144585
1.729498050417987e+18,-0.0020541627891361713,-0.002881949534639716,0.03634744882583618
1.7294980504269873e+18,-0.004792402032762766,-0.0004080407088622451,0.035703860223293304
1.7294980504359875e+18,-0.0012335318606346846,0.0005549184279516339,0.035840798169374466
1.7294980504449876e+18,-0.0043068439699709415,8.086947491392493e-05,0.03599518537521362
1.7294980504509878e+18,-0.0019196433713659644,0.0008265889482572675,0.03565569967031479
1.729498050459988e+18,0.0008610356599092484,-0.0038071039598435163,0.034428324550390244
1.729498050465988e+18,-0.008281262591481209,-0.009814698249101639,0.030992768704891205
1.7294980504749883e+18,-0.008739328011870384,-0.0033090077340602875,0.03179336339235306
1.7294980504839885e+18,-0.009072375483810902,-0.0026879238430410624,0.029762493446469307
1.7294980504899886e+18,-0.007991827093064785,-0.00222473475150764,0.03278930485248566
1.7294980504989888e+18,-0.007906570099294186,-0.002423268975690007,0.028049811720848083
1.729498050504989e+18,-0.00838660541921854,0.0004149703017901629,0.030804505571722984
1.729498050513989e+18,-0.005327345337718725,0.001484797103330493,0.027768131345510483
1.7294980505229893e+18,-0.00835166871547699,0.0018555449787527323,0.029643435031175613
1.7294980505319895e+18,-0.005432893056422472,0.00035730330273509026,0.024809349328279495
1.7294980505379896e+18,-0.011065342463552952,-0.001161761931143701,0.02616119384765625
1.7294980505469898e+18,-0.009113403968513012,0.00035623268922790885,0.028291556984186172
1.72949805055299e+18,-0.011190515011548996,-0.003766822163015604,0.025691555812954903
1.7294980505619901e+18,-0.009469046257436275,0.003672537859529257,0.02364211156964302
1.7294980505709903e+18,-0.008272825740277767,0.0021963310427963734,0.021195009350776672
1.7294980505769905e+18,-0.00899400282651186,0.003909131977707148,0.02725166454911232
1.7294980505859907e+18,-0.006231451407074928,0.002815614454448223,0.019918059930205345
1.7294980505949908e+18,-0.006218294147402048,0.004018749576061964,0.021802084520459175
1.729498050600991e+18,-0.010422216728329659,0.0020111952908337116,0.02288217470049858
1.7294980506099912e+18,-0.009863386861979961,-0.00018772704061120749,0.02227744646370411
1.7294980506159913e+18,-0.01034555397927761,0.00020352762658149004,0.02072323113679886
1.7294980506249915e+18,-0.006990321446210146,0.0005400254158303142,0.019916677847504616
1.7294980506339917e+18,-0.01040842104703188,0.0032337892334908247,0.019987553358078003
1.7294980506399918e+18,-0.009734398685395718,0.0013636096846312284,0.01991468295454979
1.729498050648992e+18,-0.008941630832850933,0.004930900409817696,0.02037743106484413
1.7294980506579922e+18,-0.009317212738096714,0.0049338573589921,0.01725144311785698
1.7294980506639923e+18,-0.009863694198429585,0.005816610995680094,0.019534453749656677
1.7294980506729925e+18,-0.009145980700850487,0.0019096150062978268,0.01732114888727665
1.7294980506789926e+18,-0.009999331086874008,0.007161854300647974,0.016228124499320984
1.7294980506879928e+18,-0.007715930696576834,0.005116444546729326,0.020474255084991455
1.729498050696993e+18,-0.009873297065496445,0.0035850834101438522,0.016015218570828438
1.7294980507059932e+18,-0.011459903791546822,0.00494032446295023,0.014177531935274601
1.7294980507149934e+18,-0.01149060670286417,0.0054830582812428474,0.015390666201710701
1.7294980507209935e+18,-0.010700044222176075,0.0030437393579632044,0.01519591361284256
1.7294980507299937e+18,-0.012259547598659992,0.00801155436784029,0.017541229724884033
1.729498050738994e+18,-0.011099573224782944,0.008773957379162312,0.011995009146630764
1.729498050744994e+18,-0.010623902082443237,0.00891391932964325,0.01504311989992857
1.7294980507539942e+18,-0.011569351889193058,0.009309187531471252,0.012223396450281143
1.7294980507599944e+18,-0.014200595207512379,0.009129507467150688,0.013622169382870197
1.7294980507689946e+18,-0.015507884323596954,0.007996665313839912,0.011199593544006348
1.7294980507779948e+18,-0.016514403745532036,0.008177468553185463,0.010937269777059555
1.729498050783995e+18,-0.019102491438388824,0.007245228625833988,0.015042591840028763
1.729498050792995e+18,-0.021331025287508965,0.0067056515254080296,0.014002375304698944
1.7294980507989952e+18,-0.017841704189777374,0.005825675092637539,0.012394933961331844
1.7294980508079954e+18,-0.0175325870513916,0.008380381390452385,0.014449682086706161
1.7294980508169956e+18,-0.019881214946508408,0.004503590054810047,0.010619369335472584
1.7294980508229957e+18,-0.024075521156191826,0.007219912484288216,0.01084899716079235
1.729498050831996e+18,-0.024184947833418846,0.008929399773478508,0.009126107208430767
1.729498050837996e+18,-0.02617555484175682,0.009270500391721725,0.009907767176628113
1.7294980508469962e+18,-0.026758158579468727,0.00825347751379013,0.010147249326109886
1.7294980508559964e+18,-0.02492225542664528,0.006840168498456478,0.009044338949024677
1.7294980508619965e+18,-0.024901174008846283,0.007161404471844435,0.009402337484061718
1.7294980508709967e+18,-0.02276584878563881,0.006581458728760481,0.01013532280921936
1.7294980508769969e+18,-0.021067773923277855,0.007971418090164661,0.007862290367484093
1.729498050885997e+18,-0.023530056700110435,0.007344346027821302,0.010403112508356571
1.7294980508919972e+18,-0.023708514869213104,0.006230718456208706,0.010745416395366192
1.7294980509009974e+18,-0.027050970122218132,0.008695114403963089,0.008290641941130161
1.7294980509099976e+18,-0.02793537639081478,0.007474164478480816,0.007298603188246489
1.7294980509159977e+18,-0.025625187903642654,0.009847319684922695,0.009947421960532665
1.729498050924998e+18,-0.02608575113117695,0.008032183162868023,0.008514766581356525
1.729498050933998e+18,-0.022498494014143944,0.006449495442211628,0.007316383998841047
1.7294980509429983e+18,-0.02557808719575405,0.007813413627445698,0.003762159263715148
1.7294980509489984e+18,-0.024992216378450394,0.010529352352023125,0.008815490640699863
1.7294980509579986e+18,-0.02299703285098076,0.008508782833814621,0.010563166812062263
1.7294980509669988e+18,-0.021482091397047043,0.007211691699922085,0.007806607987731695
1.729498050972999e+18,-0.02573794312775135,0.00756650697439909,0.00719183124601841
1.729498050981999e+18,-0.028854595497250557,0.007671374827623367,0.006091396324336529
1.7294980509909993e+18,-0.030659528449177742,0.008455578237771988,0.005990472622215748
1.7294980509969994e+18,-0.03137437254190445,0.00797809287905693,0.006151616107672453
1.7294980510059996e+18,-0.02668621763586998,0.009172413498163223,0.005164389032870531
1.7294980510149998e+18,-0.02590085193514824,0.011078187264502048,0.005256848409771919
1.729498051024e+18,-0.02412528358399868,0.011169212870299816,0.006689995061606169
1.7294980510330002e+18,-0.020762057974934578,0.0077473013661801815,0.003242668230086565
1.7294980510420004e+18,-0.027401570230722427,0.008345560170710087,0.0029906483832746744
1.7294980510480005e+18,-0.02828076295554638,0.005580855067819357,0.0041150981560349464
1.7294980510570007e+18,-0.033102743327617645,0.008169416338205338,0.0031236065551638603
1.729498051066001e+18,-0.03415370732545853,0.010089077055454254,0.0028872303664684296
1.729498051072001e+18,-0.032270628958940506,0.009618674404919147,0.0037142683286219835
1.7294980510810012e+18,-0.031477730721235275,0.011513297446072102,0.005955330096185207
1.7294980510900014e+18,-0.02631065621972084,0.01393158733844757,0.002391607966274023
1.7294980510960015e+18,-0.030459139496088028,0.010571254417300224,0.003493155585601926
1.7294980511050017e+18,-0.030050991103053093,0.01000797189772129,0.0028132086154073477
1.729498051114002e+18,-0.03066962957382202,0.007990646176040173,0.0027262819930911064
1.729498051123002e+18,-0.03223567456007004,0.0099229970946908,0.0044047636911273
1.7294980511290022e+18,-0.033643271774053574,0.008498703129589558,0.003534614806994796
1.7294980511380024e+18,-0.03364633396267891,0.011671485379338264,0.001730295829474926
1.7294980511470026e+18,-0.033629484474658966,0.012865530326962471,0.003860917640849948
1.7294980511530028e+18,-0.03340495377779007,0.012923185713589191,-0.0005191895179450512
1.729498051162003e+18,-0.026852922514081,0.010239980183541775,0.002433081390336156
1.7294980511710031e+18,-0.029951464384794235,0.009504291228950024,0.0016126607079058886
1.7294980511770033e+18,-0.02868572436273098,0.0075063155964016914,0.004293798469007015
1.7294980511860035e+18,-0.03077111952006817,0.01282015722244978,-0.001916935434564948
1.7294980511950036e+18,-0.03065294586122036,0.009396633133292198,0.0024853069335222244
1.7294980512010038e+18,-0.03486482799053192,0.009586001746356487,-0.001904857694171369
1.729498051213004e+18,-0.032387085258960724,0.012654826045036316,-0.003372096922248602
1.7294980512190042e+18,-0.03312740474939346,0.009732325561344624,-0.00021068507339805365
1.7294980512280044e+18,-0.032798826694488525,0.011797670274972916,0.0008969020564109087
1.7294980512370045e+18,-0.030992569401860237,0.01106070913374424,-0.0009150051046162844
1.7294980512430047e+18,-0.027313001453876495,0.012759551405906677,-0.001075488398782909
1.7294980512520049e+18,-0.03315909951925278,0.012500664219260216,0.0007696837419643998
1.729498051261005e+18,-0.029994480311870575,0.015141644515097141,0.0011747460812330246
1.7294980512670052e+18,-0.03255539387464523,0.012090489268302917,0.0027204768266528845
1.7294980512760054e+18,-0.030747588723897934,0.012844658456742764,-0.0030459880363196135
1.7294980512850056e+18,-0.033177077770233154,0.01300852745771408,-0.00041382297058589756
1.7294980512910057e+18,-0.029711956158280373,0.01067272573709488,-0.0008042911649681628
1.729498051300006e+18,-0.033735744655132294,0.012006601318717003,0.002497120061889291
1.729498051309006e+18,-0.03474709764122963,0.012632157653570175,-0.0007776768179610372
1.7294980513150062e+18,-0.03345954790711403,0.012276627123355865,-0.00044078248902224004
1.7294980513240064e+18,-0.03252391517162323,0.013010798022150993,0.001547497813589871
1.7294980513330066e+18,-0.031556516885757446,0.008457997813820839,0.0024531702511012554
1.7294980513420068e+18,-0.03395356237888336,0.011286921799182892,-0.0008981256978586316
1.729498051348007e+18,-0.03359513357281685,0.012009907513856888,0.0018651934806257486
1.729498051357007e+18,-0.030941737815737724,0.010581606067717075,0.0004411748959682882
1.7294980513660073e+18,-0.03444572165608406,0.011117257177829742,0.001426386646926403
1.7294980513720074e+18,-0.033457256853580475,0.009503616020083427,-0.0029675448313355446
1.7294980513810076e+18,-0.03448159992694855,0.011523119173943996,-0.00033673178404569626
1.7294980513870077e+18,-0.0320575125515461,0.009797856211662292,-0.0028923419304192066
1.729498051399008e+18,-0.03563619777560234,0.012598622590303421,-0.0014328962424769998
1.7294980514050081e+18,-0.035185668617486954,0.01136563066393137,-0.0004163755802437663
1.7294980514140083e+18,-0.03169853240251541,0.010586230084300041,-0.0031737759709358215
1.7294980514230085e+18,-0.028093108907341957,0.011905376799404621,0.000360212754458189
1.7294980514290086e+18,-0.028802581131458282,0.011462043039500713,-0.004642231855541468
1.7294980514380088e+18,-0.028830084949731827,0.010831080377101898,-0.0008796106558293104
1.729498051447009e+18,-0.02847929485142231,0.012212244793772697,-0.0013025267980992794
1.7294980514560092e+18,-0.03354334086179733,0.010300944559276104,-0.0018954799743369222
1.7294980514650094e+18,-0.03748170658946037,0.011892744340002537,-0.00209895521402359
1.7294980514710095e+18,-0.03759853169322014,0.011970127001404762,-0.003033123444765806
1.7294980514800097e+18,-0.03677496314048767,0.014238825999200344,-0.0034741824492812157
1.72949805149501e+18,-0.02956959791481495,0.015604016371071339,-0.0016673571662977338
1.7294980515070103e+18,-0.02893020212650299,0.013384008780121803,-0.004401725716888905
1.7294980515160105e+18,-0.02921111136674881,0.012863235548138618,-0.0017176350811496377
1.7294980515250107e+18,-0.0355122946202755,0.013972973451018333,-0.002247139811515808
1.729498051534011e+18,-0.0382685586810112,0.009804815985262394,-0.0022041809279471636
1.729498051540011e+18,-0.03748423233628273,0.008762181736528873,-0.0008385975379496813
1.7294980515490112e+18,-0.036449529230594635,0.010546507313847542,0.00025183544494211674
1.7294980515580114e+18,-0.03140505403280258,0.012882472947239876,-0.002421532990410924
1.7294980515670116e+18,-0.02904334105551243,0.011048260144889355,-0.0016707059694454074
1.7294980515730117e+18,-0.027078254148364067,0.0110160568729043,-0.005215429235249758
1.729498051582012e+18,-0.02309662662446499,0.009038111194968224,-0.0030480637215077877
1.729498051591012e+18,-0.026887543499469757,0.010325994342565536,-0.0023538987152278423
1.7294980515970122e+18,-0.029871279373764992,0.014171300455927849,-0.004237667191773653
1.7294980516060124e+18,-0.03239792212843895,0.009061459451913834,-0.0019257030216977
1.7294980516120125e+18,-0.03433532267808914,0.012641524896025658,-0.0006454791873693466
1.7294980516210127e+18,-0.03593671694397926,0.011372535489499569,-0.001734204008243978
1.7294980516270129e+18,-0.03611218184232712,0.012203695252537727,-0.0028587295673787594
1.729498051636013e+18,-0.029198063537478447,0.01326482743024826,0.0003366459859535098
1.7294980516420132e+18,-0.02850281074643135,0.01331472210586071,-0.0022310821805149317
1.7294980516510134e+18,-0.02491832710802555,0.012733562849462032,-0.0018230495043098927
1.7294980516600136e+18,-0.02109794318675995,0.012917747721076012,-0.0024183662608265877
1.7294980516660137e+18,-0.02206720970571041,0.014222580939531326,-0.0007721990114077926
1.7294980516720138e+18,-0.029151396825909615,0.009371442720293999,-0.003442715387791395
1.729498051681014e+18,-0.03517452999949455,0.00889535527676344,-0.0008185508195310831
1.7294980516900142e+18,-0.03394129127264023,0.010599680244922638,-0.0007572026224806905
1.7294980516960143e+18,-0.036644335836172104,0.014158650301396847,0.0011217917781323195
1.7294980517050145e+18,-0.03397591784596443,0.013173393905162811,-0.0026816334575414658
1.7294980517140147e+18,-0.028188306838274002,0.01141342893242836,0.0007692975923418999
1.729498051723015e+18,-0.0237716156989336,0.014221999794244766,-0.002926279092207551
1.729498051729015e+18,-0.023033980280160904,0.011787681840360165,-0.000734984059818089
1.7294980517380152e+18,-0.023995468392968178,0.011877649463713169,-0.0045440057292580605
1.7294980517470154e+18,-0.027001451700925827,0.012808148749172688,0.00039941584691405296
1.7294980517560156e+18,-0.03191353753209114,0.01199099700897932,-0.003666879143565893
1.7294980517650158e+18,-0.03571544215083122,0.010117302648723125,-0.002172604203224182
1.729498051771016e+18,-0.03667750954627991,0.006366455927491188,-0.004265790339559317
1.729498051780016e+18,-0.030135327950119972,0.009938038885593414,-2.4118460714817047e-05
1.7294980517860163e+18,-0.02705623395740986,0.009894121438264847,-0.0036185546778142452
1.7294980517950164e+18,-0.023175261914730072,0.013823004439473152,-0.0006093091797083616
1.7294980518040166e+18,-0.018301477655768394,0.01178165152668953,-0.004190145060420036
1.7294980518100168e+18,-0.019226012751460075,0.01172315701842308,7.912050932645798e-05
1.729498051819017e+18,-0.02370021492242813,0.007856175303459167,-0.005087972618639469
1.729498051825017e+18,-0.027279619127511978,0.009060322307050228,-0.0022185456473380327
1.7294980518340173e+18,-0.030818158760666847,0.005330341402441263,0.0006634010933339596
1.7294980518400174e+18,-0.028058059513568878,0.00819267239421606,0.0022914742585271597
1.7294980518490176e+18,-0.028156165033578873,0.00855468213558197,-0.001132147153839469
1.7294980518580178e+18,-0.0230841226875782,0.010897341184318066,-0.00491190142929554
1.729498051864018e+18,-0.021380146965384483,0.008645478636026382,-0.002282487927004695
1.729498051873018e+18,-0.02195822261273861,0.01117069460451603,-0.005807418376207352
1.7294980518790182e+18,-0.020543262362480164,0.0110005559399724,-0.0017250229138880968
1.7294980518880184e+18,-0.020792854949831963,0.009669961407780647,-0.004499784670770168
1.7294980518970186e+18,-0.021053841337561607,0.005523020401597023,-0.000558600528165698
1.7294980519030188e+18,-0.023992158472537994,0.004651312716305256,-0.0013664414873346686
1.729498051912019e+18,-0.02207842469215393,0.008256691507995129,-0.0029134503565728664
1.7294980519270193e+18,-0.025550086051225662,0.005898144096136093,-0.0029008626006543636
1.7294980519360195e+18,-0.024922771379351616,0.007140693254768848,-0.0023775692097842693
1.7294980519450196e+18,-0.021675188094377518,0.007397352252155542,-0.001597835449501872
1.7294980519510198e+18,-0.022685933858156204,0.006705014035105705,-0.00537062156945467
1.72949805196002e+18,-0.01947777345776558,0.006251178216189146,-0.003216847311705351
1.7294980519690202e+18,-0.019389988854527473,0.005620697047561407,0.0006013328675180674
1.7294980519780204e+18,-0.019442478194832802,0.006715873256325722,-0.0034131023567169905
1.7294980519840205e+18,-0.01617324724793434,0.0034639104269444942,-0.0008476359071210027
1.7294980519930207e+18,-0.018721692264080048,0.0006413527298718691,-0.00043633615132421255
1.7294980520020209e+18,-0.01528235338628292,0.0027277932967990637,-0.007101817522197962
1.729498052008021e+18,-0.01635144092142582,0.0031856924761086702,-0.0010889015393331647
1.7294980520170212e+18,-0.01738445647060871,0.001538457814604044,-0.001344400690868497
1.7294980520260214e+18,-0.015446297824382782,0.0025765043683350086,-0.0021901936270296574
1.7294980520350216e+18,-0.012170670554041862,0.006071056704968214,-0.0018196030287072062
1.7294980520440218e+18,-0.017912156879901886,0.005366978235542774,-0.002362797735258937
1.729498052050022e+18,-0.01425778679549694,0.00209574936889112,-0.0021390074398368597
1.729498052059022e+18,-0.016407808288931847,0.001683920854702592,-0.0017156652174890041
1.7294980520680223e+18,-0.0145214032381773,0.003956262953579426,-0.0035769478417932987
1.7294980520770225e+18,-0.01685955934226513,0.0031577404588460922,-7.151719182729721e-05
1.7294980520830226e+18,-0.013732904568314552,0.0035119091626256704,-0.0017771606799215078
1.7294980520920228e+18,-0.013641145080327988,0.005158605985343456,0.0007791882380843163
1.729498052101023e+18,-0.01770320162177086,0.0026547613088041544,-0.002341235987842083
1.7294980521100232e+18,-0.01644917018711567,0.004491269122809172,-0.0026768639218062162
1.7294980521160233e+18,-0.015100262127816677,0.0018814189825206995,-0.004390173591673374
1.7294980521250235e+18,-0.015430628322064877,0.00044078470091335475,0.0007214685901999474
1.7294980521340237e+18,-0.01565883308649063,-0.000866662070620805,-0.004271078389137983
1.7294980521430239e+18,-0.013926055282354355,-0.0021245491225272417,-0.002548303920775652
1.729498052152024e+18,-0.012295517139136791,-0.0013243850553408265,-0.002542541129514575
1.7294980521580242e+18,-0.006774722132831812,0.0002318165497854352,-0.0027746097184717655
1.7294980521670244e+18,-0.00812186487019062,-0.0035784211941063404,-0.0036358677316457033
1.7294980521760246e+18,-0.010669747367501259,0.004429355263710022,-0.0031026487704366446
1.7294980521850248e+18,-0.011941986158490181,0.0009517405414953828,-0.00302784307859838
1.729498052194025e+18,-0.009579566307365894,0.00014322230708785355,-0.0027883597649633884
1.729498052200025e+18,-0.012927361764013767,-0.0009763450361788273,-0.006348268128931522
1.7294980522090253e+18,-0.006440993398427963,-0.0030085588805377483,-4.162406548857689e-05
1.7294980522180255e+18,-0.0032403150107711554,0.0034968622494488955,-0.0011909609893336892
1.7294980522240256e+18,0.0008325758390128613,-0.0003384831070434302,-0.0030209601391106844
1.7294980522330258e+18,-0.0035324888303875923,0.00349520705640316,-0.004165571182966232
1.729498052239026e+18,-0.0010545969707891345,0.003741874825209379,-0.004435653332620859
1.729498052248026e+18,-0.0017443575197830796,0.0026066366117447615,-0.0033887550234794617
1.7294980522570263e+18,-0.006532988045364618,0.0007554470212198794,-0.0038845231756567955
1.7294980522630264e+18,-0.0075332364067435265,0.002548963762819767,-0.0005101996939629316
1.7294980522720266e+18,-0.004595655016601086,0.002135966904461384,-0.0005543201696127653
1.7294980522780268e+18,-0.00556226959452033,0.005052189342677593,-0.0008375991601496935
1.729498052287027e+18,0.0003067736979573965,0.0006067214999347925,-0.0024671657010912895
1.7294980522960271e+18,-0.003847479820251465,0.002245050622150302,-0.001111538615077734
1.7294980523020273e+18,-0.0008246974321082234,0.0026728822849690914,-0.0024480666033923626
1.7294980523110275e+18,-0.0031579192727804184,0.000411535263992846,-0.004460865631699562
1.7294980523200276e+18,-0.004510524682700634,-0.0017415918409824371,-0.004649108741432428
1.7294980523290278e+18,-0.0053388518281280994,0.001771916402503848,0.0008097582031041384
1.729498052335028e+18,-0.005442958325147629,0.003649018704891205,-0.001106004579924047
1.7294980523440282e+18,-0.009218607097864151,0.003281709738075733,-0.0026657446287572384
1.7294980523530284e+18,-0.00466703437268734,0.003719334490597248,-0.001490870607085526
1.7294980523590285e+18,-0.0013535928446799517,0.005562887992709875,-0.003875215072184801
1.7294980523680287e+18,-0.0006111956899985671,0.005633416585624218,-0.003693403210490942
1.7294980523770289e+18,0.003276592353358865,0.005008315667510033,-0.0037320402916520834
1.729498052383029e+18,0.0019122541416436434,0.002836825791746378,-0.003486284054815769
1.7294980523920292e+18,-5.1075126975774765e-05,0.0024972616229206324,-0.003051594365388155
1.7294980524010294e+18,-0.0019241877598688006,0.0024263770319521427,-0.0039748940616846085
1.7294980524070295e+18,0.0012993249110877514,0.00653286837041378,-0.003455154364928603
1.7294980524190298e+18,-0.0032184694427996874,0.0026149949990212917,-0.004532903432846069
1.72949805243103e+18,-0.00117688428144902,0.004216304048895836,-0.00694109033793211
1.7294980524370301e+18,0.0009835372911766171,0.005744890309870243,-0.0029312819242477417
1.7294980524460303e+18,0.0036138808354735374,-0.0015824807342141867,-0.0008838009089231491
1.7294980524550305e+18,0.005353418178856373,0.0027014524675905704,-0.0051037585362792015
1.7294980524640307e+18,0.004260769579559565,0.0006468637147918344,-0.0031767759937793016
1.7294980524700308e+18,0.0013332933885976672,0.003841288620606065,-0.002997153904289007
1.729498052479031e+18,0.004504939541220665,0.002233739010989666,-0.00207818066701293
1.7294980524880312e+18,0.001533027389086783,0.0033726554829627275,-0.0031870482489466667
1.7294980524940314e+18,0.0023216374684125185,0.0003013234818354249,-0.003110462101176381
1.7294980525030316e+18,0.0037743612192571163,-0.001191773102618754,-0.0011700482573360205
1.7294980525090317e+18,0.0034998245537281036,0.0005910857580602169,-0.0044583166018128395
1.729498052518032e+18,0.005426956340670586,-0.003686258802190423,-0.0036922073923051357
1.729498052527032e+18,0.004065440036356449,-0.0014502136036753654,-0.005460203625261784
1.7294980525330322e+18,0.004452924244105816,0.0007168278098106384,-0.0038528700824826956
1.7294980525420324e+18,0.008601323701441288,0.0004112672177143395,-0.005056681577116251
1.7294980525510326e+18,0.0069925845600664616,0.002430270193144679,-0.004158140625804663
1.7294980525570327e+18,0.008736194111406803,0.00036763143725693226,2.627214416861534e-05
1.729498052566033e+18,0.006874552462249994,-0.0017117533134296536,-0.003308610524982214
1.729498052575033e+18,0.007570815272629261,-0.0006804020958952606,-0.0028732535429298878
1.7294980525840333e+18,0.009167935699224472,9.009987115859985e-05,-0.0020910613238811493
1.7294980525900334e+18,0.0068997652269899845,-0.0007720169960521162,-0.004304143600165844
1.7294980525990336e+18,0.012963587418198586,0.0019420144381001592,-0.0014480440877377987
1.7294980526080338e+18,0.01493213139474392,0.00028096960159018636,-0.0018421814311295748
1.729498052614034e+18,0.01276672724634409,-0.0010469211265444756,-0.00300595723092556
1.729498052623034e+18,0.012595092877745628,-0.000911042676307261,-0.004952610470354557
1.7294980526290342e+18,0.011630247347056866,-0.0001996556529775262,-0.005691791884601116
1.7294980526380344e+18,0.011202163994312286,-0.0012604811927303672,-0.000347670866176486
1.7294980526470346e+18,0.008594714105129242,-0.002482776762917638,-0.002072590868920088
1.7294980526530348e+18,0.010066216811537743,-0.0020166265312582254,-0.004389150533825159
1.729498052662035e+18,0.008617657236754894,-0.0033089308999478817,-0.002534592291340232
1.7294980526710351e+18,0.012211838737130165,0.0026143211871385574,-0.004812278319150209
1.7294980526770353e+18,0.015091830864548683,-0.0011040454264730215,-0.003845482598990202
1.7294980526860355e+18,0.015405518934130669,0.00017464469419792295,-0.002856954000890255
1.7294980526950356e+18,0.014626145362854004,-0.001383066875860095,-0.004383103456348181
1.7294980527010358e+18,0.015188492834568024,0.0028134717140346766,-0.003242544364184141
1.729498052710036e+18,0.01116428803652525,-0.002370217116549611,-0.0013857048470526934
1.7294980527190362e+18,0.011258028447628021,-0.0028093105647712946,-0.0013509683776646852
1.7294980527280364e+18,0.013147525489330292,-0.0025932269636541605,-0.0032380972988903522
1.7294980527340365e+18,0.017538083717226982,-0.003254774957895279,-0.002107016509398818
1.7294980527430367e+18,0.019645605236291885,-0.005228179506957531,-0.0029193884693086147
1.7294980527520369e+18,0.013476083055138588,-0.0007810811512172222,-0.005724078509956598
1.729498052761037e+18,0.016306694597005844,-0.0017692396650090814,-0.001398731954395771
1.7294980527670372e+18,0.016188520938158035,-0.0018869976047426462,-0.0028557474724948406
1.7294980527760374e+18,0.014198772609233856,-0.0016268746694549918,-0.0016558694187551737
1.7294980527850376e+18,0.016225120052695274,-3.59491677954793e-05,-0.003129818942397833
1.7294980527940378e+18,0.017428813502192497,-0.004812697414308786,-0.004670458845794201
1.729498052800038e+18,0.01877976581454277,-0.004682336933910847,-0.0016245091101154685
1.729498052809038e+18,0.02024024911224842,-0.004061817657202482,-0.002484954660758376
1.7294980528180383e+18,0.01983245462179184,-0.003337692003697157,-0.004007858689874411
1.7294980528240384e+18,0.019241228699684143,0.00023959053214639425,-0.002133872825652361
1.7294980528330386e+18,0.013478130102157593,-0.0033265473321080208,-0.0008158728014677763
1.7294980528420388e+18,0.013505282811820507,-0.004130603279918432,-0.0036147707141935825
1.729498052851039e+18,0.012478131800889969,0.001726588699966669,-0.0018640226917341352
1.729498052857039e+18,0.015517003834247589,0.0008286338998004794,-0.00334335514344275
1.7294980528660393e+18,0.016452161595225334,-0.0014784705126658082,-0.0014746610540896654
1.7294980528750395e+18,0.02040388248860836,-0.003025947604328394,-0.003458517836406827
1.7294980528840397e+18,0.02231188304722309,-0.006172945257276297,-0.00560617633163929
1.7294980528900398e+18,0.0180720966309309,-0.007827997207641602,-0.003070635488256812
1.72949805289904e+18,0.0181693397462368,-0.005298877600580454,-0.002398063661530614
1.7294980529080402e+18,0.013340933248400688,-0.006770788226276636,-0.0036611699033528566
1.7294980529140403e+18,0.01134173758327961,-0.005214749835431576,-0.005833358503878117
1.7294980529230405e+18,0.01288491953164339,-0.0037244532722979784,-0.00256027327850461
1.7294980529320407e+18,0.017324291169643402,-0.006548075471073389,-0.0028578739147633314
1.7294980529380408e+18,0.017903799191117287,-0.0050544231198728085,-0.006558350753039122
1.729498052947041e+18,0.024590903893113136,-0.005737106315791607,-0.0010778701398521662
1.7294980529560412e+18,0.02093643508851528,-0.007036291528493166,-0.0008322745561599731
1.7294980529650414e+18,0.017670519649982452,-0.008469183929264545,-0.001155729521997273
1.7294980529710415e+18,0.016370020806789398,-0.0077627552673220634,-0.004429621621966362
1.7294980529800417e+18,0.013933751732110977,-0.009834705851972103,-0.003509584115818143
1.729498052989042e+18,0.01375561486929655,-0.008833267726004124,-0.0012444943422451615
1.7294980530010422e+18,0.02032437175512314,-0.005955882836133242,-0.00039552710950374603
1.7294980530100424e+18,0.021758662536740303,-0.004359778948128223,-0.003829110413789749
1.7294980530190426e+18,0.022263942286372185,-0.004473850596696138,-0.0027559595182538033
1.7294980530250427e+18,0.02124480903148651,-0.00926090870052576,-0.0012203413061797619
1.729498053034043e+18,0.021986568346619606,-0.011819679290056229,-0.002848378848284483
1.729498053043043e+18,0.019552627578377724,-0.010987864807248116,-0.0049902889877557755
1.7294980530490432e+18,0.017561618238687515,-0.010980379767715931,-0.004387021996080875
1.7294980530580434e+18,0.020825786516070366,-0.009491540491580963,-0.0002244291827082634
1.7294980530670436e+18,0.021551266312599182,-0.009649419225752354,-0.0029518664814531803
1.7294980530730437e+18,0.02075381577014923,-0.006616771686822176,-8.489703759551048e-06
1.729498053082044e+18,0.021000828593969345,-0.0034632438328117132,-0.0041997404769063
1.729498053091044e+18,0.021977925673127174,-0.007670319639146328,-0.0028186405543237925
1.7294980531000443e+18,0.012647842988371849,-0.0065672677010297775,-0.004495739005506039
1.7294980531060444e+18,0.01479655783623457,-0.007947947829961777,-0.0041081253439188
1.7294980531150446e+18,0.016994602978229523,-0.005103409755975008,-0.002921604784205556
1.7294980531240448e+18,0.013827008195221424,-0.0039871446788311005,-0.0017039377707988024
1.729498053133045e+18,0.015023441053926945,-0.0043227230198681355,-0.004177446477115154
1.729498053139045e+18,0.018006516620516777,-0.0017927747685462236,-0.004824070725589991
1.7294980531480453e+18,0.016739971935749054,-0.00700381537899375,-0.00459858076646924
1.7294980531570455e+18,0.018630456179380417,-0.005416397470980883,-0.0038086343556642532
1.7294980531630456e+18,0.01767117716372013,-0.007706651464104652,-0.003026702208444476
1.7294980531720458e+18,0.019074339419603348,-0.0061188205145299435,-0.00042946613393723965
1.729498053178046e+18,0.019794030115008354,-0.007126679643988609,-0.001679185195825994
1.7294980531870461e+18,0.016544021666049957,-0.0030039516277611256,-0.005177103448659182
1.7294980531960463e+18,0.01912524364888668,-0.0005473997443914413,-0.002720801392570138
1.7294980532020465e+18,0.017086662352085114,-0.00568576343357563,-0.0015469386707991362
1.7294980532110467e+18,0.018031401559710503,-0.005497870501130819,-0.002854337217286229
1.7294980532200468e+18,0.02049531228840351,-0.006449601612985134,-0.004354468546807766
1.729498053226047e+18,0.021087918430566788,-0.008448798209428787,-0.0037405050825327635
1.7294980532350472e+18,0.021408239379525185,-0.005763306748121977,-0.0038430483546108007
1.7294980532470474e+18,0.020469412207603455,-0.007465433329343796,-0.0028014681302011013
1.7294980532560476e+18,0.017163224518299103,-0.003225854365155101,-0.0016476688906550407
1.7294980532650478e+18,0.013960007578134537,-0.004091756884008646,-0.004892679397016764
1.729498053271048e+18,0.01719418168067932,-0.007078554946929216,-0.0010134454350918531
1.729498053280048e+18,0.01938253827393055,-0.004791966173797846,0.0009620515629649162
1.7294980532890483e+18,0.01691233366727829,-0.004125055391341448,-0.0015302473912015557
1.7294980532950484e+18,0.01905261166393757,-0.003982029855251312,-0.005896242801100016
1.7294980533040486e+18,0.022164911031723022,-0.002711175475269556,-0.003453456098213792
1.7294980533130488e+18,0.01462180819362402,-0.0051030986942350864,-0.0009866456966847181
1.729498053319049e+18,0.01623241975903511,-0.004703672602772713,-0.00459554698318243
1.7294980533280492e+18,0.01111568696796894,-0.003214506432414055,-0.0029191672801971436
1.7294980533370493e+18,0.011946424841880798,-0.004709027707576752,-0.004749679937958717
1.7294980533490496e+18,0.011094754561781883,-0.0008518823888152838,-0.0021806200966238976
1.7294980533580498e+18,0.016897909343242645,-0.0007894241716712713,-0.00394649850204587
1.72949805336705e+18,0.016781305894255638,0.0009568817913532257,-0.0028553043957799673
1.7294980533760502e+18,0.018519816920161247,-0.0011431570164859295,-0.0008099018596112728
1.7294980533820503e+18,0.016053665429353714,-0.003221428021788597,-0.0030475077219307423
1.7294980533910505e+18,0.01821286976337433,-0.003883081953972578,-0.0032584976870566607
1.7294980533970506e+18,0.017271490767598152,-0.00581286009401083,-0.0042450642213225365
1.7294980534060508e+18,0.017166178673505783,-0.004861301742494106,-0.002666119486093521
1.729498053415051e+18,0.019116530194878578,-0.0022906160447746515,-0.005072178319096565
1.7294980534210511e+18,0.01817651465535164,-0.001314329681918025,-0.0019737929105758667
1.7294980534300513e+18,0.01859256811439991,-0.003676328808069229,-0.0028868545778095722
1.7294980534390515e+18,0.01719748228788376,-0.0025276916567236185,-0.0011520370608195662
1.7294980534450516e+18,0.023391863331198692,-0.003026028862223029,-0.003418902400881052
1.7294980534540518e+18,0.02186431549489498,-0.005166538059711456,-0.0016629984602332115
1.729498053466052e+18,0.019667038694024086,-0.00492296414449811,-0.005687670782208443
1.7294980534750523e+18,0.021655961871147156,-0.005038420204073191,-0.0006645709509029984
1.7294980534810524e+18,0.018188072368502617,-0.005136274732649326,-0.0037987297400832176
1.7294980534900526e+18,0.015900075435638428,-0.001487837522290647,-0.004242662340402603
1.7294980534990528e+18,0.01583179086446762,-0.000620602979324758,-0.0003944528289139271
1.729498053508053e+18,0.016655243933200836,-0.0028348190244287252,-0.0028044418431818485
1.729498053514053e+18,0.019439149647951126,-0.0015466953627765179,-0.0016426920192316175
1.7294980535230533e+18,0.01943047344684601,-0.004601723048835993,-0.0010803742334246635
1.7294980535290534e+18,0.020638635382056236,-0.005121479742228985,-0.0012808969477191567
1.7294980535380536e+18,0.020041126757860184,-0.005912210792303085,-0.0028543195221573114
1.7294980535470538e+18,0.01627696491777897,-0.0063646952621638775,-0.005953943356871605
1.729498053559054e+18,0.01728031598031521,-0.0008134907111525536,-0.0024290806613862514
1.7294980535680543e+18,0.017682652920484543,-0.005889959633350372,-0.002191186649724841
1.7294980535740544e+18,0.019781265407800674,-0.006261250004172325,-0.00493069551885128
1.7294980535830546e+18,0.020449569448828697,-0.0068101175129413605,4.650629125535488e-05
1.7294980535920548e+18,0.01874072290956974,-0.0036974181421101093,-0.00263687944971025
1.729498053598055e+18,0.022023500874638557,-0.002569447970017791,-0.005618277937173843
1.729498053607055e+18,0.022409876808524132,-0.003344113240018487,-0.0028486698865890503
1.7294980536160553e+18,0.0227506086230278,-0.0051254150457680225,-0.0021817509550601244
1.7294980536220554e+18,0.02403130941092968,-0.00451821181923151,-0.0032275058329105377
1.7294980536310556e+18,0.022702064365148544,-0.007693864870816469,-0.0010087393457069993
1.7294980536400558e+18,0.025355033576488495,-0.00405128812417388,-0.0007436799351125956
1.729498053646056e+18,0.020557105541229248,-0.006481635384261608,-0.001485084998421371
1.7294980536550561e+18,0.021062809973955154,-0.006636437959969044,-0.002417732262983918
1.7294980536610563e+18,0.020055433735251427,-0.007383880205452442,-0.0015656205359846354
1.7294980536700564e+18,0.021684806793928146,-0.006154135335236788,8.419784717261791e-05
1.7294980536790566e+18,0.023491252213716507,-0.007153773680329323,0.0001958825159817934
1.7294980536880568e+18,0.024337079375982285,-0.007315086666494608,-0.004421597346663475
1.729498053694057e+18,0.02473103627562523,-0.006557675544172525,-0.004083659499883652
1.7294980537030572e+18,0.0246514193713665,-0.003948670346289873,-0.002769165439531207
1.7294980537120573e+18,0.021673263981938362,-0.005097305402159691,-0.0009107614168897271
1.7294980537180575e+18,0.018989410251379013,-0.004156036302447319,9.232200682163239e-05
1.7294980537270577e+18,0.023387441411614418,-0.007808628026396036,-0.002621879568323493
1.7294980537360579e+18,0.024434436112642288,-0.008504951372742653,-0.00361618516035378
1.729498053745058e+18,0.017583325505256653,-0.006564135197550058,-0.0017324552172794938
1.7294980537510582e+18,0.0243290476500988,-0.005234345328062773,-0.0034387419000267982
1.7294980537600584e+18,0.01967877894639969,-0.0039399368688464165,-0.0028144174721091986
1.7294980537660585e+18,0.01763967238366604,-0.00757060619071126,-0.000821778317913413
1.7294980537750587e+18,0.020200826227664948,-0.005560437683016062,-0.0025248585734516382
1.7294980537810588e+18,0.019570335745811462,-0.005616346374154091,-0.001836937153711915
1.729498053790059e+18,0.018596917390823364,-0.007674558088183403,-0.000602482701651752
1.7294980537990592e+18,0.022917045280337334,-0.008790441788733006,-0.0023796118330210447
1.7294980538080594e+18,0.01958552561700344,-0.008745713159441948,0.0008274579886347055
1.7294980538140595e+18,0.019538162276148796,-0.008245909586548805,-0.0006246515549719334
1.7294980538230597e+18,0.019331572577357292,-0.0047584958374500275,-0.0004316788399592042
1.72949805383206e+18,0.0187948290258646,-0.001130435150116682,-0.0009611170971766114
1.72949805383806e+18,0.019413495436310768,-0.006522101350128651,-0.0043292236514389515
1.7294980538470602e+18,0.020595407113432884,-0.0009132395498454571,-0.0028665000572800636
1.7294980538560604e+18,0.020833078771829605,-0.0031520293559879065,-0.0020425752736628056
1.7294980538650606e+18,0.018618682399392128,-0.006199261173605919,-0.0016523131635040045
1.7294980538740608e+18,0.01718495972454548,-0.005689496174454689,-0.004175242036581039
1.729498053880061e+18,0.01914813369512558,-0.007259874604642391,-0.002649473026394844
1.729498053889061e+18,0.016313590109348297,-0.008497430011630058,-0.0006001244764775038
1.7294980538980613e+18,0.01828083023428917,-0.004337641876190901,-0.003741789609193802
1.7294980539070615e+18,0.015998097136616707,-0.006374516524374485,-0.005816696211695671
1.7294980539130616e+18,0.017755666747689247,-0.004062081687152386,-0.0029626628383994102
1.7294980539220618e+18,0.017524337396025658,-0.008527975529432297,-0.0034539313055574894
1.729498053928062e+18,0.01641758345067501,-0.0031767901964485645,-0.004502135328948498
1.7294980539370621e+18,0.014640472829341888,-0.008003927767276764,-0.004288582131266594
1.7294980539460623e+18,0.01493109855800867,-0.004395368974655867,-0.001544266240671277
1.7294980539550625e+18,0.012780249118804932,-0.0066421153023839,-0.0034104683436453342
1.7294980539610627e+18,0.014620163477957249,-0.00608331523835659,-0.002043325686827302
1.7294980539700628e+18,0.012766094878315926,-0.008115697652101517,-0.0009663775563240051
1.729498053979063e+18,0.012592474929988384,-0.0034114958252757788,-0.003619713243097067
1.7294980539850632e+18,0.011977453716099262,-0.009364532306790352,-0.0022733293008059263
1.7294980539940634e+18,0.01029471680521965,-0.004633900243788958,-0.003288016654551029
1.7294980540030636e+18,0.008503730408847332,-0.0028346930630505085,-0.000902256928384304
1.7294980540090637e+18,0.010725655592978,-0.00556473433971405,-0.0030411670450121164
1.729498054018064e+18,0.012681977823376656,-0.004583333153277636,-0.0016970576252788305
1.729498054027064e+18,0.01532832533121109,-0.007386193610727787,-0.0058648670092225075
1.7294980540360643e+18,0.013880588114261627,-0.0050706104375422,-0.00270329718478024
1.7294980540420644e+18,0.013527993112802505,-0.00907079502940178,0.000569966621696949
1.7294980540510646e+18,0.008474532514810562,-0.005975903943181038,-0.0013028518296778202
1.7294980540600648e+18,0.009727440774440765,-0.005580596625804901,-0.0028986975084990263
1.729498054069065e+18,0.009598597884178162,-0.009504052810370922,-0.0020905479323118925
1.7294980540780652e+18,0.01044782530516386,-0.005617653485387564,-0.00040666363202035427
1.7294980540840653e+18,0.011475262232124805,-0.0075317202135920525,0.000937603646889329
1.7294980540930655e+18,0.012457052245736122,-0.004228599369525909,0.0005687912926077843
1.7294980541020657e+18,0.011806794442236423,-0.006186663173139095,-0.003387654200196266
1.7294980541080658e+18,0.012096485123038292,-0.0031367505434900522,-0.0035691955126821995
1.729498054117066e+18,0.00797156523913145,-0.004598106723278761,0.001224272302351892
1.7294980541260662e+18,0.006701376289129257,-0.004468675237149,-0.0012584697687998414
1.7294980541350664e+18,0.006118975579738617,-0.00882713682949543,-0.0004773790715262294
1.7294980541410665e+18,0.008414624258875847,-0.00727397296577692,-0.00100183195900172
1.7294980541500667e+18,0.008766476064920425,-0.004202761221677065,-0.0035625353921204805
1.729498054159067e+18,0.01014090795069933,-0.005932746455073357,-0.003507340559735894
1.729498054165067e+18,0.012080991640686989,-0.004873880185186863,-0.002931273076683283
1.7294980541740672e+18,0.011487716808915138,-0.0047493744641542435,-0.002602561842650175
1.7294980541800673e+18,0.01254858449101448,-0.007053398061543703,-0.0038365754298865795
1.7294980541890675e+18,0.007461021654307842,-0.008027156814932823,-0.0025134370662271976
1.7294980541980677e+18,0.009577910415828228,-0.009027441032230854,-0.0016704851295799017
1.7294980542040678e+18,0.0071958499029278755,-0.006680365651845932,-0.0030115963891148567
1.729498054213068e+18,0.010575269348919392,-0.005424109287559986,-0.0012845000019297004
1.7294980542220682e+18,0.013231204822659492,-0.006258259527385235,-0.0021523870527744293
1.7294980542310684e+18,0.01466631144285202,-0.00606446573510766,-0.00398830184713006
1.7294980542370685e+18,0.013885040767490864,-0.006855879910290241,-0.0019041247433051467
1.7294980542460687e+18,0.013606296852231026,-0.009327925741672516,-0.0014742633793503046
1.7294980542520689e+18,0.012688048183918,-0.008464381098747253,-0.002684103325009346
1.729498054261069e+18,0.009799301624298096,-0.007262174505740404,-0.0011594609823077917
1.7294980542700692e+18,0.006438221782445908,-0.009597019292414188,-0.003149815835058689
1.7294980542760694e+18,0.002278091385960579,-0.008898376487195492,-0.002484951401129365
1.7294980542850696e+18,0.004806851968169212,-0.006732080597430468,-0.002616280224174261
1.7294980542940698e+18,0.007125479634851217,-0.002682262333109975,-0.0029756021685898304
1.72949805430007e+18,0.01100843958556652,-0.005596969276666641,-0.0062974561005830765
1.72949805430907e+18,0.009381513111293316,-0.0012924240436404943,0.0010261893039569259
1.7294980543180703e+18,0.006836417596787214,-0.004205177538096905,-0.0017819487256929278
1.7294980543270705e+18,0.00047049205750226974,-0.006701188161969185,-0.000118959229439497
1.7294980543330706e+18,0.002932319650426507,-0.005864964798092842,-0.0030592449475079775
1.7294980543420708e+18,-0.002130284206941724,-0.009546544402837753,-0.0029776529408991337
1.729498054351071e+18,0.0013728758785873652,-0.011528831906616688,0.0002442275872454047
1.729498054357071e+18,0.0037151281721889973,-0.010268453508615494,-0.0033032612409442663
1.7294980543660713e+18,0.005046161822974682,-0.007878950797021389,-0.001099583925679326
1.7294980543750715e+18,0.010156875476241112,-0.006725627463310957,-0.0013623546110466123
1.7294980543810716e+18,0.002756903413683176,-0.004192176274955273,0.0005628792569041252
1.7294980543900718e+18,0.0006852776277810335,-0.005303260870277882,-0.0031547697726637125
1.729498054399072e+18,0.0006845741299912333,-0.003318953327834606,-0.003102232702076435
1.7294980544050721e+18,0.0008543251315131783,-0.006175326183438301,-0.002582693938165903
1.7294980544140723e+18,0.00037992745637893677,-0.008674567565321922,-0.0007165494607761502
1.7294980544200724e+18,4.749046638607979e-05,-0.008507613092660904,-0.0025093373842537403
1.7294980544290726e+18,0.0038295499980449677,-0.00956670194864273,0.0007168727461248636
1.7294980544350728e+18,0.006823746953159571,-0.006463275756686926,0.0010369394440203905
1.729498054444073e+18,0.004279079847037792,-0.0068836817517876625,-0.0016726416070014238
1.7294980544530732e+18,0.0027412138879299164,-0.003232952207326889,-0.0005129353376105428
1.7294980544590733e+18,0.0015034722164273262,-0.0009450085926800966,-0.00048632267862558365
1.7294980544680735e+18,-0.00211607594974339,0.00014840788207948208,-0.0031135897152125835
1.7294980544770737e+18,0.0014398477505892515,-0.004538202192634344,-0.0030500818975269794
1.7294980544830738e+18,-0.0007719102432020009,-0.006190281827002764,-0.002594092395156622
1.729498054492074e+18,-0.0004348854999989271,-0.005499947816133499,0.0010635590879246593
1.729498054498074e+18,0.0023052417673170567,-0.003140299115329981,0.0001659955596551299
1.7294980545070743e+18,0.0034717777743935585,-0.0018682332010939717,-0.0006930861272849143
1.7294980545160745e+18,0.0013119203504174948,-0.002802196890115738,-0.0014808395644649863
1.7294980545250747e+18,0.003177538514137268,0.002702310448512435,-0.0025005806237459183
1.7294980545310748e+18,0.0032985685393214226,-0.001431566895917058,-0.0025358612183481455
1.729498054540075e+18,0.003999946638941765,0.0010029387194663286,-0.0015949680237099528
1.7294980545490752e+18,-0.00040135986637324095,-0.0005372673622332513,-0.00387944420799613
1.7294980545580754e+18,0.0014955176739022136,-0.0014983853325247765,-0.0026084240525960922
1.7294980545670756e+18,0.0009232867159880698,-0.0014535371446982026,-0.002048019552603364
1.7294980545760758e+18,-0.0009969320381060243,-0.002024614717811346,0.0019861278124153614
1.729498054582076e+18,0.0006635172758251429,-0.0015680643264204264,-0.0007364001357927918
1.729498054591076e+18,0.0016418161103501916,-0.0008521837880834937,0.001082320581190288
1.7294980546000763e+18,0.00029837340116500854,-0.003308055689558387,-0.001667198957875371
1.7294980546090765e+18,-0.0007686688331887126,-0.0007320811273530126,-0.0029826737008988857
1.7294980546150766e+18,0.0010362195316702127,-0.0007300869910977781,-0.0006076910067349672
1.7294980546240768e+18,-0.0029122591949999332,-0.0019800637383013964,-0.0025685003492981195
1.729498054633077e+18,-0.0025764345191419125,-2.1918338461546227e-05,-0.004151634871959686
1.729498054639077e+18,-0.002881724387407303,0.0013141162926331162,-0.001327881240285933
1.7294980546480773e+18,-0.003980524372309446,0.002837692853063345,-0.0029818699695169926
1.7294980546570775e+18,-0.005813594441860914,0.0023523124400526285,-0.0027786174323409796
1.7294980546630776e+18,-0.004657634999603033,3.1299510737881064e-05,-0.002559719607234001
1.7294980546720778e+18,-0.00783009734004736,-0.0020313384011387825,-0.0014847697457298636
1.729498054678078e+18,-0.006087167654186487,-0.003747794311493635,-0.001958611886948347
1.7294980546870781e+18,-0.002595172030851245,-0.0009236957412213087,-0.0031933444552123547
1.7294980546960783e+18,-0.004582216031849384,0.00029954290948808193,-0.0031640371307730675
1.7294980547020785e+18,-0.003147067269310355,-0.0028170375153422356,-0.002983398037031293
1.7294980547140787e+18,-0.0004138567019253969,-0.001398361986503005,0.0007587812142446637
1.729498054723079e+18,-0.005918032955378294,0.0016244853613898158,-0.004206257406622171
1.729498054732079e+18,-0.00307121011428535,-0.0028155981563031673,0.00014990847557783127
1.7294980547380792e+18,-0.005102008115500212,-0.0013149692676961422,-0.0013483529910445213
1.7294980547500795e+18,-0.00569730531424284,-0.0019394087139517069,-0.0009219733183272183
1.7294980547590797e+18,-0.0033565436024218798,-0.007436295971274376,-0.0003723280970007181
1.72949805477108e+18,-0.00568833202123642,-0.002232419326901436,-0.001672379206866026
1.72949805478008e+18,-0.008474675938487053,-0.0002766879042610526,-0.0006736533832736313
1.7294980547860803e+18,-0.00751662440598011,-0.0029921839013695717,-0.00015192234423011541
1.7294980547980805e+18,-0.006041512358933687,0.0014845730038359761,-0.0013491648714989424
1.7294980548070807e+18,-0.005844400264322758,0.0006237162742763758,0.0005859908415004611
1.729498054816081e+18,-0.005834296345710754,0.0009097590809687972,-0.001512955641373992
1.729498054822081e+18,-0.005599034018814564,-0.001310982508584857,-4.674436058849096e-05
1.7294980548310812e+18,-0.012130645103752613,-0.0038931029848754406,-0.003490043105557561
1.7294980548370813e+18,-0.01074409019201994,-0.004069466609507799,-0.00414352398365736
1.7294980548460815e+18,-0.0065360721200704575,-0.0026961129624396563,-0.0024480363354086876
1.7294980548550817e+18,-0.008995894342660904,0.000594313838519156,-0.0011920896358788013
1.7294980548610819e+18,-0.007817015051841736,0.00047648706822656095,0.001126377610489726
1.729498054873082e+18,-0.006324815563857555,0.0004114573821425438,-0.0007203505374491215
1.7294980548820823e+18,-0.008174959570169449,0.0017617002595216036,-0.0009779268875718117
1.7294980548880824e+18,-0.007780181709676981,0.000143709679832682,-0.0028259879909455776
1.7294980548970826e+18,-0.010924654081463814,-0.00012150133989052847,-0.002954691182821989
1.7294980549060828e+18,-0.010349813848733902,-0.0004881960921920836,-0.0011293106945231557
1.729498054912083e+18,-0.009418981149792671,0.0020626764744520187,-1.5905709005892277e-05
1.7294980549210831e+18,-0.006861850153654814,-0.0014040982350707054,-0.0011978443944826722
1.7294980549300833e+18,-0.0069732870906591415,0.002827557036653161,-0.0014821826480329037
1.7294980549360835e+18,-0.0030538756400346756,0.0029415155295282602,-0.004509547259658575
1.7294980549450836e+18,-0.007437665015459061,0.00249166926369071,-0.0017842936795204878
1.7294980549510838e+18,-0.010962322354316711,0.003621270414441824,-0.002080509439110756
1.729498054960084e+18,-0.010323910042643547,-0.0006029953947290778,0.0003200732171535492
1.7294980549690842e+18,-0.011672171764075756,0.0006009791977703571,-0.0011800081701949239
1.7294980549780844e+18,-0.01086865458637476,0.00010863051284104586,-0.0006050327210687101
1.7294980549840845e+18,-0.00711564626544714,0.0028795695398002863,0.0018027510959655046
1.7294980549930847e+18,-0.009531088173389435,0.000976915587671101,-0.00025929987896233797
1.7294980549990848e+18,-0.006486871279776096,0.003319936338812113,0.0005319251213222742
1.729498055008085e+18,-0.004768701270222664,0.004039077553898096,0.00015945336781442165
1.7294980550170852e+18,-0.00910821184515953,0.0026380536146461964,-0.003093646140769124
1.7294980550260854e+18,-0.01025589182972908,0.003974351566284895,-0.002951474394649267
1.7294980550320855e+18,-0.011751731857657433,0.001260519726201892,-0.0023237434215843678
1.7294980550410857e+18,-0.014748495072126389,-0.0011995771201327443,-0.00312810973264277
1.729498055050086e+18,-0.01728493720293045,-0.00046634519821964204,-0.0009065448539331555
1.729498055056086e+18,-0.01267839316278696,-0.00042346585541963577,0.0013707425678148866
1.7294980550650862e+18,-0.013982657343149185,-0.0003900915617123246,3.249861765652895e-05
1.7294980550710863e+18,-0.008449715562164783,-0.0011818690691143274,-0.0008065840229392052
1.7294980550800865e+18,-0.006100117694586515,-0.0004285929026082158,-0.0022256001830101013
1.7294980550890867e+18,-0.005713151767849922,-0.0017748442478477955,-0.0017723869532346725
1.7294980550950868e+18,-0.006829684134572744,0.0005572112277150154,-0.0032169492915272713
1.729498055104087e+18,-0.006515522953122854,-0.003135828534141183,-0.0016387223731726408
1.7294980551130872e+18,-0.27570027112960815,0.2292562574148178,0.0018512809183448553
1.7294980551190874e+18,-0.5795236229896545,0.4974927008152008,0.006420121993869543
1.7294980551280876e+18,-1.0218337774276733,0.9265663623809814,0.015385882928967476
1.7294980551370877e+18,-1.5185261964797974,1.298746109008789,0.02374083548784256
1.729498055146088e+18,-2.1462411880493164,1.4815700054168701,0.03235357627272606
1.729498055152088e+18,-2.541745662689209,1.4988707304000854,0.041018858551979065
1.7294980551610883e+18,-3.0061590671539307,1.4124335050582886,0.052165016531944275
1.7294980551670884e+18,-3.210649251937866,1.3324713706970215,0.05669616535305977
1.7294980551760886e+18,-3.3331198692321777,1.2380396127700806,0.064826600253582
1.7294980551850888e+18,-3.318591594696045,1.2271220684051514,0.07842423021793365
1.729498055191089e+18,-3.289205312728882,1.2686876058578491,0.08315439522266388
1.729498055200089e+18,-3.2736098766326904,1.351810336112976,0.0947660505771637
1.7294980552090893e+18,-3.301891565322876,1.409042239189148,0.1012173593044281
1.7294980552150894e+18,-3.3374135494232178,1.4062250852584839,0.10743792355060577
1.7294980552240896e+18,-3.394413948059082,1.3426705598831177,0.11762699484825134
1.7294980552330898e+18,-3.366481065750122,1.2174110412597656,0.1256135106086731
1.72949805523909e+18,-3.2818284034729004,1.1235018968582153,0.1305835247039795
1.72949805524809e+18,-3.076536178588867,1.0066789388656616,0.13759224116802216
1.7294980552570903e+18,-2.833557367324829,0.9329155683517456,0.1439598947763443
1.7294980552630904e+18,-2.6666386127471924,0.9071764945983887,0.14620688557624817
1.7294980552720906e+18,-2.4573416709899902,0.8749290704727173,0.15269583463668823
