timestamp,accel_x,accel_y,accel_z
1.729495956415316e+18,0.05148923397064209,0.06957896053791046,-9.816835403442383
1.7294959564243162e+18,-0.053172145038843155,0.003052318003028631,-9.822674751281738
1.7294959564303163e+18,-0.01886890083551407,-0.002294279169291258,-9.722197532653809
1.7294959564393165e+18,-0.026719998568296432,-0.04199390858411789,-9.760004043579102
1.7294959564453166e+18,-0.07251893728971481,0.036433830857276917,-9.832732200622559
1.7294959564543168e+18,0.009408802725374699,0.005675894673913717,-9.749860763549805
1.729495956463317e+18,-0.04504339396953583,0.03745540231466293,-9.79299545288086
1.729495956469317e+18,0.02973702736198902,0.011787609197199345,-9.813570976257324
1.7294959564783173e+18,0.033005110919475555,0.005381220020353794,-9.75236701965332
1.7294959564873175e+18,-0.03858058899641037,0.13156121969223022,-9.816186904907227
1.7294959564963177e+18,0.009315797127783298,0.05457034707069397,-9.810626983642578
1.7294959565023178e+18,0.04337327182292938,-0.007910674437880516,-9.832324028015137
1.729495956511318e+18,0.013404903933405876,0.06130877509713173,-9.857827186584473
1.7294959565203182e+18,-0.03297626972198486,-0.013555212877690792,-9.763994216918945
1.7294959565263183e+18,0.005771473050117493,-0.007478049490600824,-9.794437408447266
1.7294959565353185e+18,-0.012242967262864113,-0.0022064121440052986,-9.819084167480469
1.7294959565413187e+18,-0.06331431865692139,-0.03519817441701889,-9.840804100036621
1.7294959565503188e+18,0.048710066825151443,0.022662686184048653,-9.897472381591797
1.729495956559319e+18,-0.06085927039384842,-0.04128943756222725,-9.72272777557373
1.7294959565653192e+18,0.08969321846961975,0.05986810103058815,-9.816194534301758
1.7294959565743194e+18,-0.008924818597733974,0.08143077790737152,-9.82351016998291
1.7294959565803195e+18,0.029517989605665207,0.051804713904857635,-9.745357513427734
1.7294959565893197e+18,-0.014705067500472069,0.004061121493577957,-9.879467964172363
1.7294959565983199e+18,-0.02456285059452057,-0.035304825752973557,-9.827406883239746
1.72949595660432e+18,-0.028806114569306374,-0.04368201643228531,-9.764227867126465
1.7294959566163203e+18,0.024873554706573486,0.05290279909968376,-9.76806926727295
1.7294959566253204e+18,-0.009514110162854195,-0.030411968007683754,-9.754559516906738
1.7294959566313206e+18,0.0006833031075075269,0.02877197600901127,-9.77018928527832
1.7294959566403208e+18,0.000900980259757489,-0.03634960204362869,-9.774552345275879
1.729495956649321e+18,0.004538536537438631,-0.07515053451061249,-9.813502311706543
1.729495956655321e+18,0.020952561870217323,-0.08001324534416199,-9.819350242614746
1.7294959566643213e+18,-0.012900772504508495,0.07825931906700134,-9.887063980102539
1.7294959566733215e+18,-0.00873792078346014,-0.004977753851562738,-9.834229469299316
1.7294959566793216e+18,0.04180062189698219,-0.021228721365332603,-9.858835220336914
1.7294959566883218e+18,-0.02084195427596569,0.08491498976945877,-9.774282455444336
1.729495956694322e+18,-0.024296265095472336,0.01594715565443039,-9.886360168457031
1.729495956703322e+18,0.004985691513866186,-0.09969592839479446,-9.871731758117676
1.7294959567123223e+18,-0.04144296795129776,0.10433327406644821,-9.841658592224121
1.7294959567183224e+18,0.006186258513480425,-0.02479424700140953,-9.78207778930664
1.7294959567273226e+18,0.04128428176045418,-0.00397029984742403,-9.763388633728027
1.7294959567333228e+18,0.0236666202545166,0.07750089466571808,-9.849884033203125
1.729495956742323e+18,0.01373265776783228,0.005381307099014521,-9.826339721679688
1.7294959567513231e+18,0.038336947560310364,-0.03275527060031891,-9.841782569885254
1.7294959567603233e+18,-0.05102204158902168,0.0067495303228497505,-9.723824501037598
1.7294959567663235e+18,0.040814101696014404,0.07847840338945389,-9.805251121520996
1.7294959567753236e+18,0.083765909075737,0.0317673496901989,-9.754013061523438
1.7294959567843238e+18,-0.058672916144132614,-0.051275208592414856,-9.803168296813965
1.729495956790324e+18,0.04018724337220192,-0.02655811980366707,-9.812252044677734
1.7294959567993242e+18,-0.0036892385687679052,0.003779829014092684,-9.821915626525879
1.7294959568083244e+18,0.04840202257037163,-0.027123326435685158,-9.817008972167969
1.7294959568143245e+18,-0.06766439229249954,-0.11115807294845581,-9.800861358642578
1.7294959568233247e+18,0.07049275934696198,-0.0477822981774807,-9.759237289428711
1.7294959568323249e+18,-0.02786828577518463,-0.027860645204782486,-9.690335273742676
1.729495956838325e+18,0.06120825186371803,-0.012076382525265217,-9.804736137390137
1.7294959568473252e+18,0.049616020172834396,0.005781176034361124,-9.810413360595703
1.7294959568563254e+18,0.02163897454738617,0.017982643097639084,-9.852622985839844
1.7294959568623255e+18,-0.006555907428264618,0.035131752490997314,-9.858013153076172
1.7294959568713257e+18,0.0716569796204567,-0.06061885505914688,-9.864225387573242
1.729495956880326e+18,-0.035180751234292984,-0.01923239603638649,-9.805368423461914
1.729495956886326e+18,-0.06123830005526543,0.05466578155755997,-9.847710609436035
1.7294959568953262e+18,0.0075176008976995945,-0.012309703044593334,-9.811258316040039
1.7294959569043264e+18,0.039300791919231415,-0.009701224975287914,-9.796789169311523
1.7294959569103265e+18,0.0019330636132508516,-0.054065704345703125,-9.803118705749512
1.7294959569193267e+18,-0.05285795032978058,-0.057132624089717865,-9.807995796203613
1.729495956928327e+18,-0.03275448456406593,0.04225911200046539,-9.820755004882812
1.729495956934327e+18,-0.06747277826070786,0.011198950000107288,-9.734622955322266
1.7294959569433272e+18,0.07331521064043045,0.01469988003373146,-9.804455757141113
1.7294959569523274e+18,-0.027521423995494843,-0.000765337492339313,-9.834519386291504
1.7294959569583276e+18,0.01027723215520382,-0.03853306919336319,-9.78408432006836
1.7294959569673277e+18,0.0613277442753315,0.05366639420390129,-9.877937316894531
1.729495956976328e+18,0.030339550226926804,-0.004279048647731543,-9.84354305267334
1.729495956982328e+18,-0.01901502162218094,-0.02921201102435589,-9.779160499572754
1.7294959569913283e+18,-0.05500635877251625,0.015176918357610703,-9.790470123291016
1.7294959570003284e+18,-0.04353225976228714,-0.053524646908044815,-9.805658340454102
1.7294959570063286e+18,-0.05986771732568741,-0.05460740253329277,-9.819686889648438
1.7294959570153288e+18,-0.04857790842652321,0.007535881362855434,-9.775218963623047
1.729495957021329e+18,-0.026591062545776367,-0.014721919782459736,-9.777373313903809
1.729495957030329e+18,-0.024263573810458183,-0.009903455153107643,-9.778729438781738
1.7294959570363292e+18,-0.0028732067439705133,0.01841624453663826,-9.880717277526855
1.7294959570453294e+18,-0.0030580954626202583,0.012318920344114304,-9.846505165100098
1.7294959570543296e+18,-0.09592857956886292,-0.0038289069198071957,-9.752503395080566
1.7294959570603297e+18,0.017847441136837006,0.03352515771985054,-9.77453899383545
1.72949595706933e+18,0.044371847063302994,-0.016834713518619537,-9.781996726989746
1.72949595707533e+18,-0.05052896589040756,0.046672895550727844,-9.790169715881348
1.7294959570843302e+18,0.010738407261669636,-0.04175405576825142,-9.757953643798828
1.7294959570903304e+18,-0.005472497548907995,-0.02076905034482479,-9.828739166259766
1.7294959570993306e+18,0.016564292833209038,0.022773636505007744,-9.805609703063965
1.7294959571083308e+18,0.0671892762184143,0.0012847429607063532,-9.752574920654297
1.729495957117331e+18,0.007471531163901091,0.03228161856532097,-9.790231704711914
1.729495957123331e+18,0.01763221248984337,-0.02937040850520134,-9.873859405517578
1.7294959571323313e+18,-0.008870484307408333,0.06778987497091293,-9.847125053405762
1.7294959571383314e+18,0.021123256534337997,0.05479918420314789,-9.906318664550781
1.7294959571473316e+18,-0.10582118481397629,0.052639253437519073,-9.844613075256348
1.7294959571563318e+18,-0.08014777302742004,0.025493737310171127,-9.820784568786621
1.729495957162332e+18,0.07990845292806625,0.032905738800764084,-9.811838150024414
1.729495957171332e+18,-0.09769325703382492,0.03651043027639389,-9.74803352355957
1.7294959571803323e+18,0.030309896916151047,0.012196499854326248,-9.783374786376953
1.7294959571863324e+18,-0.028720127418637276,0.02420671284198761,-9.785667419433594
1.7294959571953326e+18,-0.021702749654650688,0.08237650990486145,-9.836331367492676
1.7294959572013327e+18,-0.03200402855873108,-0.02713567391037941,-9.88099193572998
1.729495957210333e+18,0.06357469409704208,-0.01572706177830696,-9.786070823669434
1.729495957216333e+18,0.03498055040836334,0.05272616073489189,-9.789301872253418
1.7294959572253332e+18,0.04909040033817291,0.00974204484373331,-9.815186500549316
1.7294959572343334e+18,-0.031950678676366806,0.028175096958875656,-9.790349960327148
1.7294959572433336e+18,0.038508061319589615,0.038342639803886414,-9.857152938842773
1.7294959572493338e+18,-0.025230901315808296,0.08230143040418625,-9.747485160827637
1.729495957258334e+18,0.029612043872475624,-0.009541608393192291,-9.76977825164795
1.7294959572673341e+18,-0.009017459116876125,0.0003355113440193236,-9.83351993560791
1.7294959572733343e+18,0.021567950025200844,0.00990716740489006,-9.76119327545166
1.7294959572823345e+18,-0.005673143547028303,-0.04328447952866554,-9.783136367797852
1.7294959572913347e+18,-0.01842745579779148,0.02134730853140354,-9.816669464111328
1.7294959572973348e+18,-0.018699349835515022,0.01707424968481064,-9.7982177734375
1.729495957306335e+18,0.045951828360557556,-0.04166029393672943,-9.882616996765137
1.729495957312335e+18,0.022688785567879677,0.0014180124271661043,-9.834131240844727
1.7294959573213353e+18,0.05083969235420227,0.03316793963313103,-9.86284065246582
1.7294959573273354e+18,-0.022181088104844093,0.007291843648999929,-9.870965003967285
1.7294959573363356e+18,0.023103205487132072,0.029722118750214577,-9.777185440063477
1.7294959573453358e+18,0.042769137769937515,0.009629456326365471,-9.757577896118164
1.729495957351336e+18,0.0031143254600465298,0.00926902610808611,-9.7266845703125
1.7294959573603361e+18,0.03866945952177048,0.0159163698554039,-9.772160530090332
1.7294959573663363e+18,0.01306919101625681,0.02815207466483116,-9.876338005065918
1.7294959573753364e+18,0.04614672437310219,-0.014778855256736279,-9.798639297485352
1.7294959573843366e+18,0.11510301381349564,-0.007049670908600092,-9.66618537902832
1.7294959573903368e+18,-0.04741689935326576,0.03635747358202934,-9.782135009765625
1.729495957399337e+18,0.03364640101790428,0.004058226477354765,-9.822296142578125
1.729495957405337e+18,0.001521509257145226,0.07995911687612534,-9.812893867492676
1.7294959574143373e+18,0.012441050261259079,-0.01584504544734955,-9.82324504852295
1.7294959574203374e+18,-0.023008348420262337,-0.0015971781685948372,-9.790192604064941
1.7294959574293376e+18,-0.005955469328910112,0.018671143800020218,-9.805253028869629
1.7294959574353377e+18,-0.020165886729955673,-0.003676183521747589,-9.807373046875
1.729495957444338e+18,0.0009656061301939189,-0.030174551531672478,-9.721770286560059
1.729495957453338e+18,-0.0006417795666493475,0.0008042987901717424,-9.722318649291992
1.7294959574593382e+18,-0.03988650441169739,-0.05385490506887436,-9.841012001037598
1.7294959574683384e+18,0.02455906756222248,-0.02008705958724022,-9.836151123046875
1.7294959574773386e+18,0.019563283771276474,0.0001935895998030901,-9.821826934814453
1.7294959574833388e+18,0.04309661686420441,-0.05090176314115524,-9.810067176818848
1.729495957492339e+18,-0.0017521962290629745,0.08271478116512299,-9.798426628112793
1.7294959575013391e+18,0.0006845036405138671,-0.06609131395816803,-9.785065650939941
1.7294959575073393e+18,-0.04880206286907196,0.016446629539132118,-9.767233848571777
1.7294959575163395e+18,0.02108641527593136,0.05123034119606018,-9.805866241455078
1.7294959575253396e+18,-0.00808026734739542,-0.06550825387239456,-9.752882957458496
1.7294959575313398e+18,0.01656320132315159,-0.0169855784624815,-9.821829795837402
1.72949595754034e+18,-0.07292323559522629,-0.07819516956806183,-9.746845245361328
1.72949595754634e+18,0.010039040818810463,0.01594242826104164,-9.797780990600586
1.7294959575553403e+18,0.09317563474178314,0.0031649423763155937,-9.820222854614258
1.7294959575643405e+18,-0.001555376686155796,-0.07422874867916107,-9.713203430175781
1.7294959575703406e+18,-0.028182977810502052,0.056442126631736755,-9.725336074829102
1.7294959575793408e+18,0.04663411155343056,8.780418284004554e-05,-9.767061233520508
1.729495957588341e+18,-0.05214361473917961,-0.002761965384706855,-9.795272827148438
1.7294959575973412e+18,-0.0015383366262540221,-0.0941220298409462,-9.862004280090332
1.7294959576063414e+18,0.042348120361566544,-0.012537682428956032,-9.808253288269043
1.7294959576153416e+18,-0.007263542152941227,-0.06310102343559265,-9.82426929473877
1.7294959576213417e+18,-0.03275521099567413,0.03395692631602287,-9.750337600708008
1.729495957630342e+18,-0.03993485867977142,0.02700171060860157,-9.876238822937012
1.729495957636342e+18,0.002837051171809435,-0.06210147961974144,-9.858128547668457
1.7294959576453422e+18,-0.01475960947573185,-0.045383255928754807,-9.7412109375
1.7294959576513423e+18,-0.006720634642988443,0.027688823640346527,-9.74807357788086
1.7294959576603425e+18,-0.022219672799110413,-0.041928481310606,-9.809886932373047
1.7294959576693427e+18,-0.005361379589885473,-0.010854355990886688,-9.767865180969238
1.7294959576753428e+18,0.021739454939961433,0.0043397764675319195,-9.846435546875
1.729495957684343e+18,-0.02716020867228508,-0.052205972373485565,-9.826339721679688
1.7294959576933432e+18,-0.021229641512036324,-0.037366826087236404,-9.77273941040039
1.7294959577023434e+18,-0.0037752233911305666,0.035712216049432755,-9.785110473632812
1.7294959577083436e+18,-0.0763959139585495,0.020992962643504143,-9.83692455291748
1.7294959577173437e+18,-0.032232616096735,0.11031962186098099,-9.781291961669922
1.729495957726344e+18,-0.03312678262591362,-0.026735179126262665,-9.80614948272705
1.729495957732344e+18,-0.0068689980544149876,-0.015046853572130203,-9.766705513000488
1.7294959577413443e+18,0.020821111276745796,-0.0014211101224645972,-9.832083702087402
1.7294959577503444e+18,-0.01757405512034893,0.02785417251288891,-9.820659637451172
1.7294959577563446e+18,0.0017925718566402793,-0.0537872388958931,-9.746370315551758
1.7294959577653448e+18,-0.03537735342979431,-0.027127312496304512,-9.78311538696289
1.729495957774345e+18,0.02486778050661087,0.004098210949450731,-9.76233959197998
1.729495957780345e+18,-0.05560857802629471,0.008933068253099918,-9.762773513793945
1.7294959577893453e+18,-0.01268722303211689,0.012816592119634151,-9.80578327178955
1.7294959577983455e+18,0.02607318013906479,-0.014065111987292767,-9.827762603759766
1.7294959578073457e+18,-0.02508624829351902,-0.007820052094757557,-9.824858665466309
1.7294959578133458e+18,-0.06348824501037598,0.06635154783725739,-9.788498878479004
1.729495957822346e+18,0.013958211988210678,-0.05067260563373566,-9.802411079406738
1.7294959578313462e+18,-0.008269831538200378,0.03325531259179115,-9.79028034210205
1.7294959578373463e+18,0.06038334220647812,-0.05229153484106064,-9.867488861083984
1.7294959578463465e+18,-0.02248300611972809,-0.07998892664909363,-9.822537422180176
1.7294959578553467e+18,-0.00896655023097992,0.024844231083989143,-9.770406723022461
1.729495957864347e+18,-0.028975021094083786,0.015024813823401928,-9.835936546325684
1.729495957870347e+18,0.04952765628695488,-0.030742378905415535,-9.8284330368042
1.7294959578823473e+18,0.07380043715238571,-0.036066386848688126,-9.896615982055664
1.7294959578883474e+18,0.01952982507646084,-0.021031983196735382,-9.844056129455566
1.7294959578973476e+18,0.021086489781737328,-0.007459586951881647,-9.77039623260498
1.7294959579063478e+18,-0.0013739906717091799,0.02106461115181446,-9.800785064697266
1.729495957915348e+18,-0.003824802814051509,-0.02380426600575447,-9.774483680725098
1.7294959579243482e+18,0.07079355418682098,-0.03160669654607773,-9.77312183380127
1.7294959579333484e+18,-0.0084393210709095,-0.009055020287632942,-9.74774169921875
1.7294959579393485e+18,0.03949287533760071,0.03466004505753517,-9.810091018676758
1.7294959579483487e+18,-0.0038879518397152424,-0.06108346953988075,-9.846516609191895
1.7294959579573489e+18,-0.032956283539533615,0.007351662032306194,-9.802261352539062
1.729495957966349e+18,-0.01770804636180401,-0.048107296228408813,-9.749651908874512
1.7294959579723492e+18,0.012798499315977097,0.04398341104388237,-9.802116394042969
1.7294959579813494e+18,-0.06940215080976486,-0.03948404639959335,-9.715322494506836
1.7294959579903496e+18,-0.023696033284068108,-0.024927647784352303,-9.80378532409668
1.7294959579963497e+18,0.018070397898554802,0.05837542563676834,-9.746524810791016
1.72949595800835e+18,0.05151062086224556,0.0005759011837653816,-9.801067352294922
1.7294959580173501e+18,0.056268367916345596,-0.008471524342894554,-9.788488388061523
1.7294959580263503e+18,0.09550820291042328,-0.03177128732204437,-9.75448226928711
1.7294959580323505e+18,-0.023847898468375206,-0.028921565040946007,-9.829755783081055
1.7294959580413507e+18,-0.007214193698018789,-0.01367689948529005,-9.780078887939453
1.7294959580503508e+18,0.0012348189484328032,0.062238965183496475,-9.83884048461914
1.729495958056351e+18,-0.053155142813920975,-0.0007878397591412067,-9.891966819763184
1.7294959580653512e+18,0.035170502960681915,0.04610290750861168,-9.823432922363281
1.7294959580713513e+18,-0.029690995812416077,0.036021724343299866,-9.849944114685059
1.7294959580803515e+18,0.04586253687739372,0.027854369953274727,-9.818636894226074
1.7294959580893517e+18,-0.034674469381570816,0.0334923155605793,-9.72385311126709
1.7294959580983519e+18,0.09186787158250809,0.012280839495360851,-9.839395523071289
1.729495958104352e+18,0.033823590725660324,0.040882859379053116,-9.764009475708008
1.7294959581133522e+18,-0.0035813446156680584,0.04791994020342827,-9.808189392089844
1.7294959581223524e+18,-0.02084694243967533,-0.038993168622255325,-9.807442665100098
1.7294959581313526e+18,-0.04337728023529053,0.006748255342245102,-9.88005256652832
1.7294959581373527e+18,-0.06256618350744247,-0.04423699155449867,-9.850578308105469
1.729495958146353e+18,-0.0008404632681049407,0.01402211468666792,-9.786221504211426
1.729495958155353e+18,0.035901036113500595,-0.032357849180698395,-9.847867012023926
1.7294959581643533e+18,-0.039868660271167755,0.004546763841062784,-9.840473175048828
1.7294959581703534e+18,0.03767314553260803,0.019621774554252625,-9.814712524414062
1.7294959581793536e+18,-0.04712782800197601,0.05148809775710106,-9.724015235900879
1.7294959581883538e+18,0.028218291699886322,0.06224703788757324,-9.739447593688965
1.729495958197354e+18,0.001973286736756563,-0.018202202394604683,-9.803869247436523
1.7294959582063542e+18,0.029386384412646294,-0.0477866530418396,-9.763903617858887
1.7294959582123543e+18,0.06605449318885803,-0.05567407235503197,-9.846390724182129
1.7294959582213545e+18,-0.025262748822569847,0.014879084192216396,-9.761457443237305
1.7294959582273546e+18,0.00027373633929528296,0.055007483810186386,-9.742744445800781
1.7294959582363548e+18,-0.059071775525808334,-0.08081702142953873,-9.823081016540527
1.729495958245355e+18,-0.031994786113500595,0.023752529174089432,-9.682707786560059
1.7294959582543552e+18,0.06623126566410065,0.0789119303226471,-9.773337364196777
1.7294959582603553e+18,0.0011705150827765465,0.01328294537961483,-9.832294464111328
1.7294959582693555e+18,-0.009946795180439949,0.0035102753899991512,-9.764891624450684
1.7294959582783557e+18,-0.042031366378068924,0.02742835320532322,-9.834412574768066
1.7294959582843558e+18,-0.004480225499719381,-0.010260982438921928,-9.868246078491211
1.729495958293356e+18,-0.03376772627234459,0.0023883243557065725,-9.826035499572754
1.7294959582993562e+18,0.021217666566371918,-0.01269195694476366,-9.795342445373535
1.7294959583083564e+18,-0.001387529424391687,0.026439232751727104,-9.780348777770996
1.7294959583143565e+18,-0.03398735821247101,0.10429498553276062,-9.84650707244873
1.7294959583233567e+18,-0.010592123493552208,0.002257846761494875,-9.806662559509277
1.7294959583323569e+18,0.0005729403928853571,-0.049695346504449844,-9.831436157226562
1.729495958338357e+18,-0.03732200711965561,0.007381748873740435,-9.787942886352539
1.7294959583473572e+18,0.02974586747586727,-0.01606443151831627,-9.799941062927246
1.7294959583563574e+18,0.014431508257985115,-0.04501427337527275,-9.750646591186523
1.7294959583653576e+18,-0.038277123123407364,0.017528662458062172,-9.848289489746094
1.7294959583713577e+18,0.068256676197052,0.016153691336512566,-9.847762107849121
1.729495958380358e+18,0.013731739483773708,0.05878613889217377,-9.785233497619629
1.729495958389358e+18,-0.005265306681394577,0.048257820308208466,-9.781991004943848
1.7294959583983583e+18,-0.03967896103858948,0.07358767092227936,-9.839153289794922
1.7294959584073585e+18,-0.01078172866255045,0.016191644594073296,-9.881147384643555
1.7294959584133586e+18,0.06078588590025902,-0.01470427867025137,-9.831332206726074
1.7294959584223588e+18,0.04275098815560341,0.08409516513347626,-9.882532119750977
1.729495958431359e+18,0.007410477381199598,0.01519536692649126,-9.768495559692383
1.7294959584403592e+18,0.022239552810788155,-0.08624622970819473,-9.78683853149414
1.7294959584463593e+18,0.04021172970533371,-0.0017199043650180101,-9.783373832702637
1.7294959584553595e+18,0.01770777627825737,-0.05265933275222778,-9.799720764160156
1.7294959584643597e+18,-0.02775093913078308,0.012854316271841526,-9.840721130371094
1.72949595847336e+18,0.030279409140348434,0.04559294879436493,-9.748916625976562
1.72949595848236e+18,-0.03172881901264191,-0.048110231757164,-9.849863052368164
1.7294959584883602e+18,0.032277513295412064,0.017966143786907196,-9.777493476867676
1.7294959584973604e+18,-0.08081673830747604,0.04348159581422806,-9.850896835327148
1.7294959585063606e+18,0.01961159147322178,0.047910772264003754,-9.871676445007324
1.7294959585153608e+18,-0.053314562886953354,-0.03329426795244217,-9.83416748046875
1.729495958524361e+18,0.02108372561633587,0.006368670146912336,-9.790468215942383
1.7294959585333612e+18,0.040031254291534424,0.004292197059839964,-9.73333740234375
1.7294959585393613e+18,-0.03880348056554794,-0.05935104563832283,-9.767620086669922
1.7294959585483615e+18,-0.0003275653871241957,0.015882154926657677,-9.860282897949219
1.7294959585543616e+18,-0.015054421499371529,0.005871734581887722,-9.826528549194336
1.7294959585633618e+18,-0.032392680644989014,0.021333392709493637,-9.801668167114258
1.729495958572362e+18,-0.06712634116411209,0.05410359799861908,-9.793378829956055
1.729495958578362e+18,-0.0016054123407229781,-0.05347251892089844,-9.923059463500977
1.7294959585873623e+18,-0.017300326377153397,-0.005257848184555769,-9.741436004638672
1.7294959585933624e+18,-0.07283196598291397,-0.03159435838460922,-9.781126976013184
1.7294959586023626e+18,-0.04419562965631485,-0.050924722105264664,-9.81444263458252
1.7294959586113628e+18,0.09127306193113327,0.049597449600696564,-9.84972858428955
1.729495958620363e+18,0.005924868397414684,0.05454455316066742,-9.787566184997559
1.7294959586293632e+18,0.003551145549863577,0.03698393702507019,-9.796487808227539
1.7294959586353633e+18,0.004286525305360556,-0.023149166256189346,-9.866456031799316
1.7294959586443635e+18,-0.096492700278759,-0.0047117238864302635,-9.896364212036133
1.7294959586533637e+18,-0.048118289560079575,0.042570337653160095,-9.838899612426758
1.729495958662364e+18,0.010568303056061268,0.03523445874452591,-9.850601196289062
1.729495958668364e+18,0.04750418663024902,0.0649205893278122,-9.76961612701416
1.7294959586773642e+18,0.0115470290184021,-0.004988210741430521,-9.82149887084961
1.7294959586833644e+18,-0.05710287392139435,0.04270187392830849,-9.788731575012207
1.7294959586923645e+18,-0.03770088031888008,-0.02963270992040634,-9.857008934020996
1.7294959587013647e+18,0.010473877191543579,-0.03808862715959549,-9.779319763183594
1.7294959587073649e+18,-0.008012496866285801,-0.0941629484295845,-9.8247709274292
1.729495958716365e+18,0.004930942319333553,0.023754306137561798,-9.820820808410645
1.7294959587253652e+18,-0.05464428290724754,0.029721790924668312,-9.845632553100586
1.7294959587313654e+18,0.01439789030700922,0.07715121656656265,-9.76816177368164
1.7294959587403656e+18,0.06350302696228027,-0.028483916074037552,-9.784244537353516
1.7294959587493658e+18,-0.07024287432432175,-0.03601492941379547,-9.773962020874023
1.729495958755366e+18,-0.0629437044262886,0.038886528462171555,-9.822000503540039
1.729495958764366e+18,-0.10826179385185242,0.04566105082631111,-9.860304832458496
1.7294959587703662e+18,-0.06807570904493332,-0.13111275434494019,-9.829914093017578
1.7294959587793664e+18,-0.11014114320278168,-0.04132866859436035,-9.761466026306152
1.7294959587943667e+18,0.02738066017627716,-0.03133023902773857,-9.786916732788086
1.729495958803367e+18,-0.06330950558185577,-0.03102249838411808,-9.839219093322754
1.729495958812367e+18,-0.003886463353410363,-0.004314360674470663,-9.80526351928711
1.7294959588183672e+18,-0.030711578205227852,-0.026371793821454048,-9.843619346618652
1.7294959588273674e+18,0.04269077628850937,0.038026608526706696,-9.831183433532715
1.7294959588363676e+18,0.07326288521289825,-0.013064044527709484,-9.813549995422363
1.7294959588423677e+18,0.05410953238606453,-0.00019979296484962106,-9.821308135986328
1.729495958851368e+18,0.026635851711034775,-0.01737976260483265,-9.831998825073242
1.7294959588603681e+18,0.019879084080457687,0.06621266901493073,-9.890933990478516
1.7294959588693683e+18,-0.026185596361756325,0.009139733389019966,-9.916495323181152
1.7294959588783685e+18,0.020207911729812622,-0.03786503151059151,-9.907792091369629
1.7294959588843686e+18,0.03407221660017967,0.043723925948143005,-9.930585861206055
1.7294959588933688e+18,-0.023719580844044685,0.0005748787662014365,-9.969971656799316
1.729495958902369e+18,-0.011449899524450302,0.026504697278141975,-9.912506103515625
1.7294959589083692e+18,0.10299935191869736,-0.02102908119559288,-10.015836715698242
1.7294959589173693e+18,-0.02925633080303669,-0.02798149734735489,-9.963802337646484
1.7294959589263695e+18,-0.0019300204003229737,0.005988605320453644,-9.967792510986328
1.7294959589323697e+18,-0.030653059482574463,0.006906447000801563,-10.037714004516602
1.7294959589413699e+18,0.0516185462474823,0.012623324058949947,-10.060162544250488
1.72949595895037e+18,-0.004845784977078438,-0.002289624884724617,-10.035395622253418
1.7294959589563702e+18,-0.038770273327827454,0.03084362857043743,-10.097661972045898
1.7294959589683704e+18,0.027172788977622986,-0.0649249479174614,-10.226677894592285
1.7294959589773706e+18,0.03271039202809334,0.060658685863018036,-10.132706642150879
1.7294959589863708e+18,-0.023376714438199997,-0.003093153238296509,-10.177499771118164
1.729495958995371e+18,-0.02792391926050186,-0.04261830449104309,-10.08643913269043
1.7294959590043712e+18,0.09795663505792618,0.02379007078707218,-10.34333610534668
1.7294959590133714e+18,-0.029593242332339287,0.021098319441080093,-10.454407691955566
1.7294959590223716e+18,0.08302873373031616,0.007819486781954765,-10.529828071594238
1.7294959590283717e+18,-0.06762099266052246,0.00919980276376009,-10.419189453125
1.729495959037372e+18,0.03814849257469177,-0.02691500633955002,-10.584344863891602
1.729495959046372e+18,-0.008584873750805855,0.009082088246941566,-10.503277778625488
1.7294959590553723e+18,0.010759313590824604,-0.004363131709396839,-10.586421012878418
1.7294959590613724e+18,-0.00213870732113719,-0.00017648817447479814,-10.584214210510254
1.7294959590703726e+18,0.021130725741386414,-0.02525404468178749,-10.53154182434082
1.7294959590793728e+18,0.037934668362140656,0.08213364332914352,-10.53909969329834
1.729495959085373e+18,-0.0076591987162828445,0.026719270274043083,-10.4706449508667
1.729495959094373e+18,-0.003796905279159546,0.03108450584113598,-10.594141006469727
1.7294959591033733e+18,0.001547986175864935,0.043064966797828674,-10.491650581359863
1.7294959591123735e+18,-0.026558220386505127,0.03216779977083206,-10.583123207092285
1.7294959591213737e+18,0.0007625942816957831,-0.030454251915216446,-10.501748085021973
1.7294959591273738e+18,-0.0011477163061499596,-0.032885871827602386,-10.524068832397461
1.729495959136374e+18,0.020499948412179947,0.03209273889660835,-10.58322525024414
1.7294959591453742e+18,0.012773165479302406,-0.02334746904671192,-10.54922866821289
1.7294959591513743e+18,-0.016218123957514763,0.0010829033562913537,-10.543961524963379
1.7294959591603745e+18,0.0013141741510480642,-0.017396826297044754,-10.57816219329834
1.7294959591693747e+18,0.046063683927059174,0.07905936241149902,-10.48214340209961
1.7294959591753748e+18,-0.004972703289240599,0.048310182988643646,-10.551359176635742
1.729495959184375e+18,-0.09325506538152695,0.010640636086463928,-10.655532836914062
1.7294959591933752e+18,0.06345498561859131,-0.0021410537883639336,-10.614847183227539
1.7294959592023754e+18,0.009195047430694103,-0.04082082584500313,-10.539421081542969
1.7294959592083756e+18,0.04855479672551155,0.017028579488396645,-10.58316707611084
1.7294959592173757e+18,-0.0944349467754364,-0.035144027322530746,-10.604402542114258
1.729495959226376e+18,-0.023953290656208992,-0.05495928227901459,-10.600451469421387
1.729495959232376e+18,-0.04188093915581703,-0.039729904383420944,-10.521368980407715
1.7294959592413763e+18,-0.04698529839515686,-0.004486375022679567,-10.606122016906738
1.7294959592473764e+18,-0.050644390285015106,0.026804504916071892,-10.624948501586914
1.7294959592563766e+18,0.009486960247159004,-0.03592664748430252,-10.545356750488281
1.7294959592623767e+18,-0.08203999698162079,0.01673603430390358,-10.658825874328613
1.729495959271377e+18,-0.03258081153035164,0.051592886447906494,-10.592227935791016
1.729495959280377e+18,-0.01954944059252739,-0.012444696389138699,-10.580345153808594
1.7294959592863772e+18,0.0858757421374321,0.039343852549791336,-10.60992431640625
1.7294959592953774e+18,-0.026376569643616676,-0.0003397708060219884,-10.490110397338867
1.7294959593043776e+18,-0.05569004267454147,0.056825101375579834,-10.583148002624512
1.7294959593103777e+18,0.03471317142248154,-0.0024939703289419413,-10.556769371032715
1.729495959319378e+18,0.05833316966891289,0.022755442187190056,-10.61563777923584
1.729495959328378e+18,0.0008895022328943014,0.02775394916534424,-10.60049819946289
1.7294959593373783e+18,0.025898020714521408,-0.051240142434835434,-10.67199420928955
1.7294959593433784e+18,-0.011594690382480621,0.019809851422905922,-10.635329246520996
1.7294959593523786e+18,0.02370082587003708,-0.03779442608356476,-10.569832801818848
1.7294959593613788e+18,0.04503774270415306,-0.06496691703796387,-10.606963157653809
1.729495959367379e+18,-0.006488895043730736,-0.03936581686139107,-10.636002540588379
1.7294959593763791e+18,0.018409505486488342,-0.025561317801475525,-10.6054105758667
1.7294959593853793e+18,0.08801665157079697,0.08481331914663315,-10.58710765838623
1.7294959593913795e+18,-0.020351599901914597,-0.03356458991765976,-10.548903465270996
1.7294959594003796e+18,-0.0240134596824646,-0.1228836253285408,-10.537386894226074
1.7294959594093798e+18,-0.02841968834400177,-0.006822886876761913,-10.686592102050781
1.72949595941538e+18,-0.012649312615394592,0.018969718366861343,-10.609742164611816
1.7294959594243802e+18,0.042160872370004654,0.06874734908342361,-10.65477180480957
1.7294959594303803e+18,0.0012665694812312722,-0.009764106944203377,-10.593889236450195
1.7294959594393805e+18,0.05120374634861946,0.03996744379401207,-10.601783752441406
1.7294959594453806e+18,0.027237584814429283,-0.029874442145228386,-10.56552505493164
1.7294959594543808e+18,-0.04737777262926102,-0.006141627673059702,-10.526846885681152
1.729495959463381e+18,-0.008299795910716057,-0.007386508863419294,-10.587540626525879
1.7294959594723812e+18,-0.014595100656151772,0.07891640812158585,-10.557626724243164
1.7294959594783813e+18,0.04398779571056366,0.04193088784813881,-10.586883544921875
1.7294959594873815e+18,-0.004423827864229679,-0.03546939045190811,-10.657464027404785
1.7294959594963817e+18,-0.002666265470907092,-0.04235449805855751,-10.582082748413086
1.7294959595023818e+18,-0.08206711709499359,0.027039704844355583,-10.589301109313965
1.729495959511382e+18,0.030472714453935623,0.03779366984963417,-10.586662292480469
1.7294959595203822e+18,-0.025854453444480896,-0.030406411737203598,-10.690446853637695
1.7294959595263823e+18,-0.04636812582612038,-0.04327165335416794,-10.605027198791504
1.7294959595353825e+18,-0.027093326672911644,0.03244931623339653,-10.55733585357666
1.7294959595413827e+18,-0.024472035467624664,0.002756287343800068,-10.634233474731445
1.7294959595503828e+18,-0.08360004425048828,-0.004744970239698887,-10.628610610961914
1.729495959556383e+18,0.06903263926506042,0.018990131095051765,-10.596681594848633
1.7294959595653832e+18,0.022827118635177612,0.011792055331170559,-10.564879417419434
1.7294959595743834e+18,0.03181222826242447,0.012903804890811443,-10.588081359863281
1.7294959595833836e+18,-0.03461959958076477,-0.03387894853949547,-10.59570026397705
1.7294959595923837e+18,0.006588050629943609,-0.0008108989568427205,-10.586347579956055
1.729495959601384e+18,-0.03605017438530922,0.006043225061148405,-10.53995132446289
1.7294959596103841e+18,-0.03933005407452583,-0.08203353732824326,-10.636489868164062
1.7294959596163843e+18,0.016342945396900177,0.07529319822788239,-10.634586334228516
1.7294959596253844e+18,0.05445076525211334,-0.030626652762293816,-10.633296966552734
1.7294959596343846e+18,-0.01734425313770771,0.06173383444547653,-10.604744911193848
1.7294959596433848e+18,-0.006178270094096661,0.049803439527750015,-10.553215980529785
1.729495959649385e+18,0.024516521021723747,-0.0075536915101110935,-10.573814392089844
1.7294959596583852e+18,-0.008771398104727268,-0.017623575404286385,-10.581007957458496
1.7294959596643853e+18,0.0067968242801725864,-0.04334027320146561,-10.638021469116211
1.7294959596733855e+18,-0.012471618130803108,-0.07358849793672562,-10.618277549743652
1.7294959596823857e+18,-0.02980545163154602,0.01021682657301426,-10.587183952331543
1.7294959596883858e+18,-0.012344288639724255,0.010538174770772457,-10.670867919921875
1.729495959697386e+18,0.0011647441424429417,0.024801885709166527,-10.584799766540527
1.7294959597063862e+18,0.004872563295066357,0.038385726511478424,-10.644275665283203
1.7294959597123863e+18,0.03724260628223419,0.06971035897731781,-10.584820747375488
1.7294959597213865e+18,0.09109033644199371,0.035269204527139664,-10.677191734313965
1.7294959597303867e+18,-0.06948360055685043,0.06055000424385071,-10.64055347442627
1.7294959597363868e+18,-0.004348025657236576,-0.0037997616454958916,-10.556503295898438
1.729495959745387e+18,-0.033269889652729034,0.054703239351511,-10.581160545349121
1.7294959597513871e+18,0.07956118136644363,0.061889052391052246,-10.560077667236328
1.7294959597603873e+18,0.04372704029083252,-0.037608448415994644,-10.618298530578613
1.7294959597693875e+18,0.09090487658977509,0.010686025023460388,-10.641112327575684
1.7294959597753876e+18,-0.002240650122985244,-0.042444441467523575,-10.563138008117676
1.7294959597843878e+18,0.015516786836087704,-0.029241925105452538,-10.572571754455566
1.729495959793388e+18,-0.07613847404718399,-0.0472596175968647,-10.680529594421387
1.7294959597993882e+18,0.012752396054565907,-0.03574690222740173,-10.603747367858887
1.7294959598083884e+18,0.019860554486513138,0.0716806948184967,-10.580480575561523
1.7294959598173885e+18,0.005749688483774662,0.06418390572071075,-10.579577445983887
1.7294959598233887e+18,-0.04673364758491516,-0.05819728970527649,-10.588500022888184
1.7294959598323889e+18,-0.06350808590650558,0.02914089523255825,-10.540349960327148
1.729495959841389e+18,-0.04089894890785217,-0.011140597984194756,-10.546180725097656
1.7294959598473892e+18,0.13862651586532593,-0.010727275162935257,-10.616029739379883
1.7294959598563894e+18,-0.01428504753857851,0.026814239099621773,-10.486737251281738
1.7294959598623895e+18,0.0021963079925626516,0.010671721771359444,-10.508888244628906
1.7294959598713897e+18,0.06710604578256607,0.021858805790543556,-10.590563774108887
1.72949595988039e+18,-0.01791740022599697,-0.04618494585156441,-10.548835754394531
1.72949595988639e+18,-0.025454144924879074,-0.00048163882456719875,-10.602505683898926
1.7294959598953902e+18,-0.06861764937639236,-0.020331038162112236,-10.601692199707031
1.7294959599043904e+18,-0.027133652940392494,-0.011345507577061653,-10.575248718261719
1.7294959599103905e+18,0.007982088252902031,-0.0011037905933335423,-10.620842933654785
1.7294959599193907e+18,0.007518559694290161,-0.010243400931358337,-10.667198181152344
1.7294959599253908e+18,-0.054738424718379974,-0.07339327037334442,-10.551466941833496
1.729495959934391e+18,0.03852741792798042,-0.061819545924663544,-10.610819816589355
1.7294959599433912e+18,0.00425169849768281,-0.06866466253995895,-10.606911659240723
1.7294959599493914e+18,0.025878796353936195,-0.0028161557856947184,-10.639760971069336
1.7294959599583916e+18,0.061271145939826965,0.04963604733347893,-10.526750564575195
1.7294959599673917e+18,0.022472158074378967,0.015818286687135696,-10.574048042297363
1.729495959973392e+18,-0.07297378778457642,0.017616497352719307,-10.51298713684082
1.729495959982392e+18,0.00864532683044672,-0.05189031735062599,-10.599993705749512
1.7294959599913923e+18,-0.02584002912044525,0.02161571756005287,-10.545761108398438
1.7294959599973924e+18,0.007357697002589703,0.061954695731401443,-10.56789779663086
1.7294959600063926e+18,0.04380437359213829,0.009442593902349472,-10.502644538879395
1.7294959600123927e+18,0.02186420187354088,0.005618524271994829,-10.604781150817871
1.729495960021393e+18,0.03442871570587158,0.035321708768606186,-10.58369255065918
1.729495960027393e+18,-0.03790481388568878,0.0029955729842185974,-10.52924919128418
1.7294959600363932e+18,-0.0240473672747612,0.026414409279823303,-10.609091758728027
1.7294959600453934e+18,0.012994748540222645,-0.021125953644514084,-10.724246978759766
1.7294959600543936e+18,-0.0948510617017746,0.04476302117109299,-10.610493659973145
1.7294959600603937e+18,0.03071642853319645,-0.0531902015209198,-10.512248039245605
1.729495960069394e+18,-0.02114289440214634,-0.04312976077198982,-10.601863861083984
1.729495960075394e+18,-0.04064783453941345,-0.0744319036602974,-10.476177215576172
1.7294959600843942e+18,-0.00898803398013115,-0.08725734800100327,-10.540509223937988
1.7294959600933944e+18,-0.02042943425476551,-0.051608696579933167,-10.527578353881836
1.7294959600993946e+18,-0.023742027580738068,0.01377927977591753,-10.599340438842773
1.7294959601083948e+18,0.016209295019507408,-0.010934577323496342,-10.500784873962402
1.729495960114395e+18,0.01228950172662735,-0.03002646192908287,-10.549836158752441
1.729495960123395e+18,0.025170985609292984,-0.07822439819574356,-10.602197647094727
1.7294959601323953e+18,0.01884772628545761,0.010823610238730907,-10.578380584716797
1.7294959601413955e+18,-0.03925947844982147,-0.049082059413194656,-10.58829402923584
1.7294959601473956e+18,-0.015708349645137787,-0.0940568670630455,-10.507223129272461
1.7294959601563958e+18,-0.043774593621492386,-0.061022087931632996,-10.529414176940918
1.729495960165396e+18,-0.05134854465723038,0.03890823945403099,-10.513992309570312
1.729495960171396e+18,-0.049841538071632385,0.06694997847080231,-10.549261093139648
1.7294959601803963e+18,0.01036364957690239,0.005216395482420921,-10.50776481628418
1.7294959601863964e+18,-0.02025146409869194,0.11382963508367538,-10.559091567993164
1.7294959601953966e+18,-0.0011660333257168531,-0.06497164070606232,-10.593820571899414
1.7294959602043968e+18,0.04525071009993553,-0.06355767697095871,-10.60747241973877
1.729495960210397e+18,-0.10733617842197418,0.03129323199391365,-10.535387992858887
1.729495960219397e+18,-0.04118431732058525,0.013480921275913715,-10.551281929016113
1.7294959602283973e+18,0.12279395014047623,-0.008009172044694424,-10.500724792480469
1.7294959602373975e+18,0.041206493973731995,0.01152358390390873,-10.540103912353516
1.7294959602463977e+18,0.03986476734280586,0.04586201533675194,-10.499604225158691
1.729495960255398e+18,0.06880975514650345,-0.08293107897043228,-10.538268089294434
1.729495960261398e+18,-0.004458166658878326,0.034387361258268356,-10.53392219543457
1.7294959602703982e+18,-0.012369921430945396,0.04330478608608246,-10.559932708740234
1.7294959602793984e+18,0.07075941562652588,0.04128013923764229,-10.493255615234375
1.7294959602883986e+18,0.0022149314172565937,0.03238517418503761,-10.549602508544922
1.7294959602973988e+18,-0.01130608282983303,-0.018892446532845497,-10.464642524719238
1.729495960306399e+18,-0.031646478921175,0.05926388129591942,-10.42831802368164
1.729495960312399e+18,0.06937800347805023,0.06325016170740128,-10.433608055114746
1.7294959603213993e+18,-0.004976351745426655,0.07988112419843674,-10.497180938720703
1.7294959603303995e+18,-0.0056428429670631886,-0.028926478698849678,-10.332609176635742
1.7294959603393997e+18,-0.04630396142601967,0.06613709032535553,-10.39374828338623
1.7294959603453998e+18,0.02607249654829502,-0.06304892897605896,-10.391740798950195
1.7294959603544e+18,-0.013770748861134052,0.0386611633002758,-10.292366981506348
1.7294959603634002e+18,-0.013625635765492916,0.0006005206378176808,-10.231244087219238
1.7294959603694003e+18,0.057737164199352264,0.010282007046043873,-10.352041244506836
1.7294959603784005e+18,-0.02827436849474907,-0.06547453999519348,-10.178101539611816
1.7294959603844006e+18,-0.029343534260988235,0.04432707279920578,-10.203869819641113
1.7294959603934008e+18,-0.031613271683454514,0.022631432861089706,-10.147631645202637
1.729495960402401e+18,-0.09090857952833176,0.025578757748007774,-10.148847579956055
1.7294959604084012e+18,0.001177548198029399,0.06950660049915314,-10.161895751953125
1.7294959604174013e+18,-0.02091761864721775,-0.008036477491259575,-10.143341064453125
1.7294959604234015e+18,-0.03464815765619278,0.05606710910797119,-10.106374740600586
1.7294959604324017e+18,-0.030220627784729004,0.029902709648013115,-10.026348114013672
1.7294959604414019e+18,0.08081329613924026,0.01310696080327034,-10.049276351928711
1.729495960447402e+18,-0.0318637378513813,0.04181607812643051,-9.982959747314453
1.7294959604564022e+18,-0.07394862174987793,0.03860701248049736,-9.97644329071045
1.7294959604624023e+18,-0.07629606127738953,-0.03246023878455162,-9.9987154006958
1.7294959604714025e+18,0.03990057110786438,-0.09579210728406906,-9.98055648803711
1.7294959604804027e+18,0.00965087115764618,-0.012810900807380676,-9.874024391174316
1.7294959604864028e+18,0.07939055562019348,-0.1253451555967331,-9.912712097167969
1.729495960495403e+18,-0.003086546203121543,-0.016909193247556686,-9.846399307250977
1.7294959605014031e+18,0.034807343035936356,0.0032473793253302574,-9.877826690673828
1.7294959605104033e+18,-0.05237268656492233,0.014956269413232803,-9.775768280029297
1.7294959605194035e+18,-0.05135487765073776,-0.06486482173204422,-9.71049976348877
1.7294959605254036e+18,-0.06225265562534332,-0.004443238489329815,-9.785988807678223
1.7294959605314038e+18,-0.02279849722981453,-0.013082724064588547,-9.73513126373291
1.729495960540404e+18,0.07586557418107986,0.04929378256201744,-9.737571716308594
1.7294959605494042e+18,-0.0768529549241066,-0.01985974609851837,-9.685152053833008
1.7294959605584044e+18,-0.014241612516343594,-0.03608563542366028,-9.727090835571289
1.7294959605644045e+18,-0.01823287643492222,0.007917655631899834,-9.758896827697754
1.7294959605734047e+18,-0.0002834142651408911,-0.00667291134595871,-9.681439399719238
1.7294959605824049e+18,0.026509428396821022,0.03596733137965202,-9.66433048248291
1.729495960591405e+18,0.02075616829097271,-0.06211428344249725,-9.66845703125
1.7294959605974052e+18,0.025351498275995255,-0.02400524728000164,-9.602275848388672
1.7294959606064054e+18,0.015330163761973381,-0.006049286108464003,-9.666236877441406
1.7294959606124055e+18,0.06134885177016258,-0.0427817702293396,-9.656942367553711
1.7294959606214057e+18,0.0689268559217453,0.024524221196770668,-9.695090293884277
1.729495960630406e+18,0.03345993906259537,0.030002301558852196,-9.65113353729248
1.729495960639406e+18,-0.0023681188467890024,0.0192173533141613,-9.720361709594727
1.7294959606454062e+18,-0.08127325028181076,0.03299489617347717,-9.702066421508789
1.7294959606544064e+18,-0.055714987218379974,0.007965647615492344,-9.762331008911133
1.7294959606604065e+18,-0.027385449036955833,-0.020996542647480965,-9.701600074768066
1.7294959606694067e+18,0.043051332235336304,0.06749381124973297,-9.739373207092285
1.7294959606754068e+18,0.04304562881588936,-0.01355015393346548,-9.692895889282227
1.729495960684407e+18,0.04238985478878021,0.005438574589788914,-9.57021427154541
1.7294959606934072e+18,-0.02829618752002716,0.017333852127194405,-9.617818832397461
1.7294959606994074e+18,0.05896637588739395,0.04847313091158867,-9.712977409362793
1.7294959607084076e+18,0.041260600090026855,0.06612751632928848,-9.698020935058594
1.7294959607144077e+18,-0.005713343154639006,-0.06359375268220901,-9.704177856445312
1.729495960723408e+18,0.02363315038383007,-0.02253122441470623,-9.651043891906738
1.729495960732408e+18,0.056997910141944885,-0.0038954014889895916,-9.651022911071777
1.7294959607384082e+18,-0.006538890302181244,-0.024145934730768204,-9.662602424621582
1.7294959607474084e+18,0.0779866874217987,-0.028578873723745346,-9.617551803588867
1.7294959607564086e+18,-0.033670470118522644,0.029251284897327423,-9.700568199157715
1.7294959607624087e+18,-0.0022390265949070454,-0.0022890022955834866,-9.659290313720703
1.729495960771409e+18,-0.04955563694238663,0.021817078813910484,-9.708076477050781
1.729495960777409e+18,-0.09781922399997711,-0.024119354784488678,-9.677445411682129
1.7294959607864092e+18,0.040461182594299316,0.07268980145454407,-9.659618377685547
1.7294959607924093e+18,0.009424498304724693,-0.020656075328588486,-9.610184669494629
1.7294959608014095e+18,0.03061787225306034,-0.010860088281333447,-9.702512741088867
1.7294959608074097e+18,-0.01476246677339077,0.04484167695045471,-9.718547821044922
1.7294959608164099e+18,-0.0655173510313034,0.0041374219581484795,-9.633818626403809
1.72949596082541e+18,-0.0008926945738494396,-0.052207786589860916,-9.718134880065918
1.7294959608314102e+18,-0.006706289015710354,0.02255038544535637,-9.708402633666992
1.7294959608404104e+18,-0.0036076493561267853,0.04123099520802498,-9.593535423278809
1.7294959608494106e+18,-0.018572665750980377,0.007721602451056242,-9.606406211853027
1.7294959608554107e+18,-0.02820535935461521,-0.007389687467366457,-9.68456745147705
1.729495960864411e+18,0.07016067206859589,-0.04291612282395363,-9.625309944152832
1.729495960870411e+18,0.09270740300416946,0.03431887552142143,-9.638860702514648
1.7294959608794112e+18,-0.009098748676478863,-0.057106856256723404,-9.709684371948242
1.7294959608854113e+18,-0.020648591220378876,0.013498169369995594,-9.65478229522705
1.7294959608944115e+18,-0.010817645117640495,0.013211539015173912,-9.631272315979004
1.7294959609004116e+18,-0.04432138055562973,0.008248628117144108,-9.62507152557373
1.7294959609094118e+18,0.01511613093316555,0.0055168974213302135,-9.639005661010742
1.729495960918412e+18,0.08158638328313828,0.013170916587114334,-9.619051933288574
1.7294959609274122e+18,0.028030620887875557,0.08995065093040466,-9.63453197479248
1.7294959609334124e+18,0.029369531199336052,0.04312414675951004,-9.642995834350586
1.7294959609424125e+18,-0.06467761844396591,-0.029439585283398628,-9.587236404418945
1.7294959609514127e+18,-0.01510854996740818,-0.02824809029698372,-9.572379112243652
1.7294959609574129e+18,-0.003199610160663724,0.04013628140091896,-9.63843822479248
1.729495960966413e+18,0.023172695189714432,0.03320157155394554,-9.615099906921387
1.7294959609754132e+18,-0.029948923736810684,0.05079630762338638,-9.592546463012695
1.7294959609844134e+18,0.027220934629440308,0.03103986196219921,-9.586150169372559
1.7294959609904136e+18,-0.039263781160116196,0.07728227972984314,-9.63944149017334
1.7294959609994138e+18,0.04085380211472511,-0.07948505878448486,-9.703619003295898
1.729495961005414e+18,0.006224246695637703,0.02366538904607296,-9.532831192016602
1.729495961014414e+18,0.030161244794726372,0.020907795056700706,-9.54061508178711
1.7294959610204142e+18,-0.07371716946363449,-0.08065195381641388,-9.569023132324219
1.7294959610294144e+18,0.003345802426338196,0.023973455652594566,-9.56998348236084
1.7294959610384146e+18,0.0010741862934082747,-0.03884641453623772,-9.638757705688477
1.7294959610444147e+18,-0.005471307784318924,0.01473461464047432,-9.625436782836914
1.729495961053415e+18,-0.046674683690071106,-0.03400959074497223,-9.626708984375
1.729495961059415e+18,-0.04935459420084953,0.051041509956121445,-9.513506889343262
1.7294959610684152e+18,-0.052460018545389175,-0.06415677815675735,-9.661232948303223
1.7294959610774154e+18,0.012048969976603985,-0.057540349662303925,-9.519477844238281
1.7294959610834156e+18,-0.03830960392951965,-0.004395863972604275,-9.623025894165039
1.7294959610924157e+18,-0.06063033267855644,-0.0487014465034008,-9.626197814941406
1.7294959610984159e+18,0.009912370704114437,0.007456087041646242,-9.588937759399414
1.729495961107416e+18,0.014920639805495739,-0.04812811687588692,-9.54439640045166
1.7294959611134162e+18,-0.028230896219611168,0.017650874331593513,-9.541449546813965
1.7294959611224164e+18,-0.03480003401637077,-0.016108114272356033,-9.634892463684082
1.7294959611314166e+18,0.037276674062013626,-0.008343714289367199,-9.547466278076172
1.7294959611404168e+18,-0.02782878838479519,0.017845582216978073,-9.590636253356934
1.729495961146417e+18,-0.02049514465034008,-0.011552994139492512,-9.562040328979492
1.729495961155417e+18,-0.015582706779241562,-0.02282847836613655,-9.622862815856934
1.7294959611614172e+18,0.008957242593169212,0.014431716874241829,-9.560385704040527
1.7294959611704174e+18,0.03283480927348137,0.027036473155021667,-9.587922096252441
1.7294959611764175e+18,-0.05244044214487076,-0.059155046939849854,-9.60354995727539
1.7294959611854177e+18,-0.0047035180032253265,-0.03650501370429993,-9.605062484741211
1.729495961194418e+18,-0.018964625895023346,-0.04718247801065445,-9.556046485900879
1.729495961200418e+18,0.051008276641368866,-0.06858327239751816,-9.49748420715332
1.7294959612094182e+18,-0.0001013619257719256,0.002992503810673952,-9.583786010742188
1.7294959612154184e+18,0.062275614589452744,0.01061251387000084,-9.518336296081543
1.7294959612244186e+18,0.04652027413249016,0.07790026813745499,-9.59709644317627
1.7294959612304187e+18,0.026257392019033432,0.09757421910762787,-9.534496307373047
1.729495961239419e+18,-0.10481831431388855,0.0524263009428978,-9.602337837219238
1.729495961245419e+18,-0.06293078511953354,0.03202390298247337,-9.645733833312988
1.7294959612544192e+18,-0.0051461998373270035,0.013293860480189323,-9.481226921081543
1.7294959612634194e+18,0.005617376416921616,-0.05309092998504639,-9.521345138549805
1.7294959612694195e+18,0.01189448032528162,0.05947817489504814,-9.427746772766113
1.7294959612784197e+18,-0.02823750488460064,-0.0207980889827013,-9.503588676452637
1.72949596128742e+18,0.050003454089164734,0.03458237648010254,-9.564726829528809
1.72949596129342e+18,-0.08048275113105774,0.045368507504463196,-9.552897453308105
1.7294959613024202e+18,0.02914111502468586,-0.018953900784254074,-9.540328979492188
1.7294959613114204e+18,-0.04512543976306915,0.03416506573557854,-9.583695411682129
1.7294959613174205e+18,-0.05401866137981415,-0.051619745790958405,-9.544219970703125
1.7294959613264207e+18,-0.05364440008997917,-0.006020951084792614,-9.532761573791504
1.729495961335421e+18,-0.048701439052820206,0.00401543453335762,-9.54461669921875
1.729495961344421e+18,-0.017881369218230247,-0.011721077375113964,-9.498257637023926
1.7294959613564214e+18,0.027288302779197693,-0.036279816180467606,-9.509894371032715
1.7294959613654216e+18,-0.011189139448106289,-0.004385457374155521,-9.50916576385498
1.7294959613744218e+18,-0.03179232403635979,-0.00826750136911869,-9.488861083984375
1.729495961383422e+18,0.044384196400642395,-0.012952910736203194,-9.539449691772461
1.7294959613924221e+18,-0.0120140565559268,0.02690865844488144,-9.548645973205566
1.7294959614014223e+18,0.047386106103658676,0.006017785985022783,-9.588225364685059
1.7294959614104225e+18,-0.043279100209474564,0.11710815131664276,-9.54059886932373
1.7294959614194227e+18,-0.01139852125197649,0.03399089723825455,-9.543386459350586
1.729495961428423e+18,-0.05628187954425812,-0.1335592269897461,-9.53216552734375
1.729495961437423e+18,0.07067307084798813,-0.043817318975925446,-9.573371887207031
1.7294959614464233e+18,0.05118840932846069,-0.006646948866546154,-9.552204132080078
1.7294959614554235e+18,-0.02642853744328022,-0.0447109155356884,-9.606712341308594
1.7294959614644237e+18,0.030742626637220383,-0.00020042556570842862,-9.470182418823242
1.729495961473424e+18,-0.015069173648953438,0.039645031094551086,-9.52082347869873
1.729495961482424e+18,0.01215899083763361,-0.10662758350372314,-9.495899200439453
1.7294959614914243e+18,0.0151723837479949,0.02159384824335575,-9.459405899047852
1.7294959615004244e+18,-0.039791759103536606,0.08026520907878876,-9.409916877746582
1.7294959615094246e+18,0.05336648225784302,-0.01303012203425169,-9.505597114562988
1.7294959615154248e+18,0.017438452690839767,0.034194592386484146,-9.496054649353027
1.729495961524425e+18,0.009698075242340565,-0.0012994643766433,-9.525896072387695
1.7294959615334252e+18,0.005829688161611557,-0.04650018364191055,-9.438652992248535
1.7294959615394253e+18,0.017862632870674133,0.03383609652519226,-9.570646286010742
1.7294959615484255e+18,0.011745535768568516,-0.013270017690956593,-9.517325401306152
1.7294959615574257e+18,-0.018431559205055237,0.01619209162890911,-9.503578186035156
1.7294959615664259e+18,0.04821452498435974,0.026291975751519203,-9.491485595703125
1.729495961575426e+18,-0.01761268451809883,0.04902252182364464,-9.4746675491333
1.7294959615844262e+18,0.05020681768655777,0.006517128553241491,-9.457945823669434
1.7294959615934264e+18,0.056434985250234604,0.04269029200077057,-9.397075653076172
1.7294959616024266e+18,-0.049255043268203735,-0.049684420228004456,-9.470355033874512
1.7294959616114268e+18,-0.02422378957271576,-0.082941934466362,-9.5460786819458
1.729495961620427e+18,-0.050820935517549515,-0.08255750685930252,-9.461173057556152
1.7294959616264271e+18,-0.08388765156269073,-0.08025027811527252,-9.460928916931152
1.7294959616354273e+18,0.023897940292954445,0.04353390634059906,-9.4464693069458
1.7294959616444275e+18,0.01956106722354889,0.019134430214762688,-9.487836837768555
1.7294959616564278e+18,-0.012096191756427288,0.036775410175323486,-9.407978057861328
1.729495961665428e+18,0.057321060448884964,-0.05449236184358597,-9.473040580749512
1.7294959616744282e+18,0.021553784608840942,0.004100676625967026,-9.475264549255371
1.7294959616804283e+18,-0.001985756913200021,0.0468168668448925,-9.44726848602295
1.7294959616924285e+18,0.027299409732222557,0.02958834171295166,-9.580167770385742
1.7294959617014287e+18,0.07717223465442657,-0.06551481038331985,-9.434467315673828
1.7294959617074289e+18,-0.028115805238485336,0.049350738525390625,-9.457542419433594
1.729495961716429e+18,-0.01617254503071308,0.005788333714008331,-9.518599510192871
1.7294959617254292e+18,-0.023896945640444756,-0.07527437806129456,-9.451247215270996
1.7294959617344294e+18,0.08969062566757202,-0.03249865025281906,-9.461697578430176
1.7294959617434296e+18,-0.06724775582551956,-0.032166678458452225,-9.484872817993164
1.7294959617524298e+18,0.04241945222020149,0.020086146891117096,-9.455609321594238
1.72949596176143e+18,-0.0016918191686272621,-0.024839937686920166,-9.449742317199707
1.7294959617704302e+18,-0.016279365867376328,-0.060256004333496094,-9.473748207092285
1.7294959617794304e+18,0.018875911831855774,0.010586232878267765,-9.406003952026367
1.7294959617884306e+18,-0.01760489121079445,-0.032725922763347626,-9.417441368103027
1.7294959617944307e+18,-0.022035136818885803,-0.03555840998888016,-9.461163520812988
1.729495961803431e+18,-0.04313453659415245,0.04081331938505173,-9.514902114868164
1.729495961812431e+18,0.04556368291378021,-0.033620208501815796,-9.440040588378906
1.7294959618214313e+18,-0.04969681799411774,-0.07418131083250046,-9.479682922363281
1.7294959618304315e+18,-0.028279082849621773,0.02083890698850155,-9.534482955932617
1.7294959618394317e+18,0.01930452510714531,-0.017960526049137115,-9.455253601074219
1.7294959618484319e+18,0.05259228125214577,0.01886846497654915,-9.465664863586426
1.729495961857432e+18,0.012183083221316338,0.044975802302360535,-9.441872596740723
1.7294959618664323e+18,0.04475494101643562,-0.03668903186917305,-9.413204193115234
1.7294959618754324e+18,-0.05003291368484497,0.005483381915837526,-9.438597679138184
1.7294959618814326e+18,-0.009612694382667542,0.03254280611872673,-9.431648254394531
1.7294959618904328e+18,-0.06569962948560715,0.0463864766061306,-9.465907096862793
1.729495961899433e+18,-0.11664492636919022,0.009234805591404438,-9.511429786682129
1.7294959619084332e+18,-0.012027091346681118,0.050934914499521255,-9.422325134277344
1.7294959619174333e+18,0.023986127227544785,-0.06690286844968796,-9.454520225524902
1.7294959619264335e+18,0.06862165778875351,-0.018004631623625755,-9.486455917358398
1.7294959619324337e+18,-0.005804942920804024,-0.011549039743840694,-9.365285873413086
1.7294959619414339e+18,-0.006909810937941074,-0.014188983477652073,-9.400126457214355
1.729495961950434e+18,-0.0233464315533638,0.03759661689400673,-9.421133041381836
1.7294959619564342e+18,0.0027887083124369383,-0.050147831439971924,-9.458818435668945
1.7294959619654344e+18,0.048828694969415665,0.037842895835638046,-9.421487808227539
1.7294959619744346e+18,0.0003274200716987252,-0.00503579480573535,-9.404172897338867
1.7294959619834348e+18,0.03874438628554344,-0.0794631615281105,-9.472601890563965
1.729495961989435e+18,0.04600764438509941,0.05332130938768387,-9.359399795532227
1.729495961998435e+18,0.012531333602964878,-0.032766226679086685,-9.399927139282227
1.7294959620074353e+18,-0.026359044015407562,0.06127051264047623,-9.340059280395508
1.7294959620164355e+18,-0.013437093235552311,-0.011043734848499298,-9.344416618347168
1.7294959620224356e+18,-0.03674265742301941,-0.01893320307135582,-9.233380317687988
1.7294959620314358e+18,0.025768660008907318,0.06681273132562637,-9.340657234191895
1.729495962040436e+18,-0.048579029738903046,0.00922335870563984,-9.279273986816406
1.7294959620494362e+18,-0.006417922209948301,0.011831595562398434,-9.11316204071045
1.7294959620584364e+18,0.035787396132946014,0.021020468324422836,-9.177800178527832
1.7294959620644365e+18,0.03677957132458687,0.03757293149828911,-9.149203300476074
1.7294959620734367e+18,0.09467747807502747,0.020229989662766457,-9.135456085205078
1.7294959620824369e+18,-0.0022135567851364613,-0.013723929412662983,-9.18555736541748
1.729495962088437e+18,-0.06983473896980286,0.021058496087789536,-9.043011665344238
1.7294959620974372e+18,-0.06023012101650238,0.005897691939026117,-9.043160438537598
1.7294959621064374e+18,-0.030360983684659004,0.018569331616163254,-9.010969161987305
1.7294959621124375e+18,-0.01643826998770237,0.03129810467362404,-8.970097541809082
1.7294959621214377e+18,-0.008815957233309746,-0.02651227079331875,-8.99156379699707
1.729495962130438e+18,0.0861838087439537,0.04806791618466377,-8.931746482849121
1.729495962139438e+18,0.004772685002535582,0.012363722547888756,-8.917759895324707
1.7294959621454382e+18,0.00500216381624341,-0.07107732445001602,-8.91494369506836
1.7294959621544384e+18,0.03435675427317619,0.08611641079187393,-8.919878959655762
1.7294959621634386e+18,0.11026870459318161,0.07052024453878403,-8.789668083190918
1.7294959621724388e+18,0.040719062089920044,-0.059506822377443314,-8.833344459533691
1.729495962178439e+18,-0.0706935003399849,-0.021981805562973022,-8.895665168762207
1.729495962187439e+18,-0.01356239803135395,-0.023876117542386055,-8.74768352508545
1.7294959621964393e+18,-0.03068610653281212,-0.006344016641378403,-8.787607192993164
1.7294959622054395e+18,-0.029741918668150902,-0.017307911068201065,-8.619393348693848
1.7294959622114396e+18,0.02397019788622856,-0.02901218831539154,-8.696035385131836
1.7294959622204398e+18,-0.003334101988002658,0.04208645224571228,-8.631217002868652
1.72949596222944e+18,-0.054533664137125015,-0.12536945939064026,-8.579558372497559
1.7294959622384402e+18,0.04676166921854019,-0.04828561469912529,-8.562301635742188
1.7294959622474404e+18,0.05915644019842148,0.12586545944213867,-8.660186767578125
1.7294959622564406e+18,0.08541563153266907,-0.01038501039147377,-8.629302978515625
1.7294959622624407e+18,0.014857020229101181,-0.016198335215449333,-8.60159969329834
1.729495962271441e+18,-0.055966366082429886,-0.015889829024672508,-8.609004020690918
1.729495962280441e+18,0.020801464095711708,0.06605716794729233,-8.728854179382324
1.7294959622864412e+18,0.06466368585824966,-0.03234433755278587,-8.636090278625488
1.7294959622954414e+18,-0.03213964402675629,-0.005791957955807447,-8.679353713989258
1.7294959623044416e+18,-0.05908968672156334,0.006912312936037779,-8.692682266235352
1.7294959623104417e+18,0.037105146795511246,-0.04796701297163963,-8.631175994873047
1.729495962319442e+18,0.02859381213784218,0.007619304582476616,-8.717984199523926
1.729495962328442e+18,-0.0914498046040535,-0.009607991203665733,-8.789867401123047
1.7294959623344422e+18,0.03554825484752655,-0.01738710142672062,-8.757290840148926
1.7294959623434424e+18,0.04488231614232063,0.017418354749679565,-8.698837280273438
1.7294959623524426e+18,-0.011566509492695332,0.02075890079140663,-8.82765007019043
1.7294959623614428e+18,0.044834673404693604,0.004717326257377863,-8.784273147583008
1.729495962370443e+18,0.05089527741074562,0.033053208142519,-8.839459419250488
1.7294959623794432e+18,-0.026295267045497894,-0.023593351244926453,-8.767500877380371
1.7294959623884434e+18,-0.03312637656927109,-0.007503570057451725,-8.90226936340332
1.7294959623974436e+18,0.012016664259135723,0.05636825039982796,-8.898055076599121
1.7294959624034437e+18,0.026961036026477814,-0.010065067559480667,-8.813275337219238
1.729495962412444e+18,-0.060951508581638336,-0.023734107613563538,-14.966643333435059
1.729495962418444e+18,0.052295658737421036,0.03139841929078102,-15.890033721923828
1.7294959624274442e+18,0.011738749220967293,0.015102709643542767,-16.278074264526367
1.7294959624364444e+18,0.008704358711838722,0.0012993981363251805,-16.18231773376465
1.7294959624424445e+18,0.04438438639044762,-0.08164654672145844,-16.274974822998047
1.7294959624514447e+18,0.006456416565924883,-0.009761015884578228,-16.29286766052246
1.729495962460445e+18,-0.019020920619368553,-0.014760960824787617,-16.19403648376465
1.729495962469445e+18,0.015327590517699718,-0.01843857951462269,-16.06328582763672
1.7294959624784453e+18,0.008268855512142181,-0.029945477843284607,-16.013975143432617
1.7294959624844454e+18,-0.003785311011597514,0.033326368778944016,-15.861844062805176
1.7294959624934456e+18,-0.02152216248214245,0.016703734174370766,-15.645256996154785
1.7294959624994458e+18,0.013212381862103939,-0.04192552715539932,-15.661341667175293
1.729495962508446e+18,-0.0491536408662796,-0.03910225257277489,-15.471424102783203
1.7294959625174461e+18,-0.007253715768456459,0.014256058260798454,-15.27890396118164
1.7294959625264463e+18,-0.005035406909883022,-0.020379316061735153,-15.150349617004395
1.7294959625324465e+18,0.03491067513823509,-0.07311854511499405,-15.115675926208496
1.7294959625414467e+18,-0.010572083294391632,0.015137062408030033,-14.997421264648438
1.7294959625504468e+18,-0.05915559455752373,0.032160498201847076,-14.915120124816895
1.729495962556447e+18,0.09047137945890427,0.01346112322062254,-14.874316215515137
1.7294959625654472e+18,-0.06097901985049248,-0.05754413455724716,-14.678175926208496
1.7294959625744474e+18,-0.04278599098324776,-0.03196083754301071,-14.603316307067871
1.7294959625864476e+18,-0.00971186999231577,0.00697802659124136,-14.472625732421875
1.7294959625924477e+18,0.11502248793840408,0.0022108587436378,-14.301475524902344
1.729495962601448e+18,0.017555823549628258,-0.017187194898724556,-14.160297393798828
1.729495962607448e+18,0.008098074235022068,0.05412016436457634,-14.1045503616333
1.7294959626164483e+18,-0.06383909285068512,-0.06544620543718338,-13.959382057189941
1.7294959626254484e+18,0.03274835646152496,0.031288307160139084,-13.962828636169434
1.7294959626314486e+18,0.11679628491401672,-0.011784153990447521,-13.835860252380371
1.7294959626404488e+18,0.05948188900947571,-0.0027780565433204174,-13.78588581085205
1.729495962649449e+18,-0.09496284276247025,-0.06547316163778305,-13.689536094665527
1.729495962655449e+18,0.03133754804730415,0.013600857928395271,-13.710179328918457
1.7294959626644493e+18,-0.03527940437197685,-0.03472369909286499,-13.473650932312012
1.7294959626734495e+18,0.06351178884506226,-0.044591885060071945,-13.487232208251953
1.7294959626824497e+18,0.09072882682085037,-0.05087599903345108,-13.449000358581543
1.7294959626914499e+18,-0.017798829823732376,0.01318583358079195,-13.277016639709473
1.72949596270045e+18,0.08836831897497177,-0.008306413888931274,-13.223384857177734
1.7294959627094502e+18,-0.04683830216526985,0.0059654973447322845,-13.0595064163208
1.7294959627154504e+18,-0.013247770257294178,0.011835790239274502,-13.073572158813477
1.7294959627244506e+18,-0.0529911033809185,0.05923030897974968,-13.009894371032715
1.7294959627334508e+18,0.07248346507549286,0.03031771443784237,-12.950215339660645
1.729495962742451e+18,-0.02740233950316906,-0.055536866188049316,-12.839646339416504
1.7294959627514511e+18,-0.018684150651097298,0.07561560720205307,-12.746450424194336
1.7294959627604513e+18,-0.05193192511796951,-0.014499192126095295,-12.723164558410645
1.7294959627664515e+18,0.05462558940052986,0.07703336328268051,-12.666644096374512
1.7294959627754516e+18,-0.0030563080217689276,0.05964804068207741,-12.556591987609863
1.7294959627844518e+18,-0.04375026747584343,0.041552383452653885,-12.535724639892578
1.729495962790452e+18,0.08887158334255219,0.023450788110494614,-12.362235069274902
1.7294959627994522e+18,-0.009298154152929783,-0.05038252845406532,-12.465924263000488
1.7294959628084524e+18,-0.009415295906364918,-0.0017476421780884266,-12.3843355178833
1.7294959628174525e+18,-0.041056595742702484,0.0060968357138335705,-12.2157564163208
1.7294959628234527e+18,-0.022805046290159225,-0.007414040621370077,-12.318172454833984
1.7294959628324529e+18,0.05111841857433319,-0.015221474692225456,-12.241659164428711
1.729495962841453e+18,0.01190384104847908,-0.04278581216931343,-12.107681274414062
1.7294959628474532e+18,0.03532029688358307,-0.01308434084057808,-12.151025772094727
1.7294959628594534e+18,0.009816782549023628,0.0476054772734642,-12.053707122802734
1.7294959628654536e+18,0.03130412846803665,0.04443877562880516,-12.035811424255371
1.7294959628744538e+18,0.028471974655985832,0.011868997476994991,-12.005187034606934
1.729495962883454e+18,0.04920819401741028,0.028501730412244797,-11.915054321289062
1.729495962889454e+18,-0.042098578065633774,0.051226478070020676,-11.94396686553955
1.7294959628984543e+18,-0.025298969820141792,0.03244037181138992,-11.845257759094238
1.7294959629074545e+18,-0.05410159379243851,-0.11749959737062454,-11.718823432922363
1.7294959629164547e+18,-0.023859107866883278,0.017958199605345726,-11.666748046875
1.7294959629224548e+18,-0.042478643357753754,0.03130953013896942,-11.737627029418945
1.729495962931455e+18,-0.02184574119746685,-0.029561031609773636,-11.778939247131348
1.7294959629404552e+18,-0.020420460030436516,-0.055155184119939804,-11.633050918579102
1.7294959629494554e+18,0.0025560047943145037,-0.022117001935839653,-11.625200271606445
1.7294959629554555e+18,-0.04816624894738197,0.035063236951828,-11.621230125427246
1.7294959629644557e+18,0.0028177460189908743,-0.044436968863010406,-11.505725860595703
1.7294959629704558e+18,0.007459298241883516,-0.01409588661044836,-11.533769607543945
1.729495962979456e+18,0.01877918280661106,-0.03268301859498024,-11.540151596069336
1.7294959629884562e+18,0.008399591781198978,-0.04851448908448219,-11.519375801086426
1.7294959629944563e+18,-0.03686908632516861,-0.005073830485343933,-11.432965278625488
1.7294959630034565e+18,0.06974299252033234,-0.0038918752688914537,-11.47689151763916
1.7294959630124567e+18,-0.021876472979784012,-0.01891961321234703,-11.264609336853027
1.7294959630184568e+18,0.04491598904132843,0.0333041250705719,-11.293888092041016
1.729495963027457e+18,0.008186131715774536,-0.004346039146184921,-11.352580070495605
1.7294959630334572e+18,0.03414899855852127,0.04126586392521858,-11.290765762329102
1.7294959630424573e+18,0.03735233098268509,0.04059825465083122,-11.251775741577148
1.7294959630514575e+18,-0.013375962153077126,0.09089963138103485,-11.114136695861816
1.7294959630574577e+18,-0.06230549141764641,-0.060172174125909805,-11.219136238098145
1.7294959630664579e+18,0.027882035821676254,-0.023872632533311844,-11.138236045837402
1.729495963072458e+18,0.05075199529528618,-0.03283189609646797,-11.234389305114746
1.7294959630814582e+18,0.03697214648127556,-0.0009189682896248996,-11.079874992370605
1.7294959630904584e+18,0.011423465795814991,0.05325934663414955,-11.087477684020996
1.7294959630994586e+18,-0.018177121877670288,-0.018626663833856583,-11.108199119567871
1.7294959631084588e+18,0.030738743022084236,0.015530761331319809,-10.990503311157227
1.729495963114459e+18,-0.07448641955852509,0.03737110272049904,-11.02772045135498
1.729495963123459e+18,-0.10538554936647415,0.0061796726658940315,-10.938652992248535
1.7294959631294592e+18,-0.03811192139983177,-0.0652458518743515,-11.01080322265625
1.7294959631384594e+18,-0.0033286870457232,0.022401005029678345,-10.926627159118652
1.7294959631474596e+18,-0.07317514717578888,0.01946970820426941,-10.836197853088379
1.7294959631534597e+18,-0.06340263783931732,0.05078520253300667,-10.90555477142334
1.72949596316246e+18,0.017841417342424393,-0.0067155081778764725,-10.872864723205566
1.72949596317146e+18,0.05517125129699707,0.03338230773806572,-10.87748908996582
1.7294959631804603e+18,-0.029907599091529846,0.019715141505002975,-10.826650619506836
1.7294959631894605e+18,-0.06779033690690994,0.019779304042458534,-10.760190963745117
1.7294959631984607e+18,-0.01897609792649746,-0.08297161757946014,-10.816429138183594
1.7294959632044608e+18,-0.023338792845606804,-0.04139776900410652,-10.771805763244629
1.729495963213461e+18,-0.056963901966810226,-0.00916728563606739,-10.86913776397705
1.7294959632224612e+18,-0.010601562447845936,0.012479730881750584,-10.760483741760254
1.7294959632314614e+18,0.07540297508239746,-0.018474683165550232,-10.74497127532959
1.7294959632404616e+18,0.026283064857125282,-0.06616917997598648,-10.711368560791016
1.7294959632494618e+18,0.018660936504602432,-0.009994124993681908,-10.717534065246582
1.729495963255462e+18,0.01344477478414774,0.051989827305078506,-10.67316722869873
1.729495963264462e+18,0.007190657313913107,-0.07445897907018661,-10.61128044128418
1.7294959632734623e+18,-0.023594219237565994,-0.019389767199754715,-10.60460090637207
1.7294959632794624e+18,0.020926745608448982,-0.002967862179502845,-10.535355567932129
1.7294959632884626e+18,0.03128693997859955,-0.00898283626884222,-10.578533172607422
1.7294959632974628e+18,-0.025301290675997734,0.023602986708283424,-10.606443405151367
1.729495963306463e+18,-0.02949306182563305,-0.08491671830415726,-10.513309478759766
1.729495963312463e+18,-0.005222908221185207,0.06142460182309151,-10.493595123291016
1.7294959633214633e+18,0.05163056403398514,-0.0072705065831542015,-10.5114107131958
1.7294959633304635e+18,-0.0275737214833498,0.05087903514504433,-10.470242500305176
1.7294959633364636e+18,-0.010426954366266727,-0.007146759424358606,-10.556228637695312
1.7294959633454638e+18,-0.02679860033094883,0.009988648816943169,-10.471851348876953
1.729495963351464e+18,0.002496924716979265,0.02901550382375717,-10.417665481567383
1.7294959633604641e+18,0.017847254872322083,0.05408955365419388,-10.446844100952148
1.7294959633724644e+18,0.00244260486215353,0.007749591954052448,-10.464449882507324
1.7294959633784645e+18,-0.003061481984332204,-0.007711916696280241,-10.45291805267334
1.7294959633874647e+18,-0.018963636830449104,0.04263271018862724,-10.423200607299805
1.729495963399465e+18,-0.01982119493186474,-0.005643846467137337,-10.481132507324219
1.7294959634084652e+18,0.008312803693115711,0.06704499572515488,-10.356451034545898
1.7294959634174653e+18,0.00185743672773242,0.06696770340204239,-10.407772064208984
1.7294959634264655e+18,-0.010346529074013233,0.013814992271363735,-10.323043823242188
1.7294959634354657e+18,0.029720783233642578,0.09670338034629822,-10.370499610900879
1.729495963444466e+18,0.07528417557477951,0.059206973761320114,-10.384334564208984
1.729495963450466e+18,-0.0869893729686737,-0.033066023141145706,-10.290509223937988
1.7294959634594662e+18,0.05784909799695015,-0.0007624435238540173,-10.342000961303711
1.7294959634684664e+18,0.06809856742620468,-0.003038444323465228,-10.22046184539795
1.7294959634774666e+18,-0.022559160366654396,0.0077019645832479,-10.212403297424316
1.7294959634864668e+18,-0.010539915412664413,-0.024824729189276695,-10.258488655090332
1.729495963495467e+18,0.0598997101187706,0.032296597957611084,-10.262171745300293
1.7294959635074673e+18,0.033840253949165344,0.07445713877677917,-10.200969696044922
1.7294959635164675e+18,0.043282944709062576,-0.04416147619485855,-10.260744094848633
1.7294959635224676e+18,-0.06405144929885864,0.052407532930374146,-10.203649520874023
1.7294959635314678e+18,-0.05655623599886894,-0.08652363717556,-10.23122787475586
1.729495963540468e+18,-0.015723340213298798,-0.04020274803042412,-10.15548324584961
1.729495963546468e+18,-0.012115448713302612,-0.011970315128564835,-10.217547416687012
1.7294959635554683e+18,-0.016785625368356705,0.011078163981437683,-10.1322660446167
1.7294959635644685e+18,-0.02684972807765007,0.02534950152039528,-10.138805389404297
1.7294959635704686e+18,0.07205177843570709,-0.04454563185572624,-10.173164367675781
1.7294959635794688e+18,0.035462502390146255,0.05353487655520439,-10.152902603149414
1.729495963588469e+18,0.00742309307679534,-0.054661985486745834,-10.125053405761719
1.7294959635974692e+18,-0.05600447952747345,0.02706165425479412,-10.187309265136719
1.7294959636034693e+18,0.07618165016174316,-0.013071578927338123,-10.182083129882812
1.7294959636124695e+18,0.06806585192680359,0.0525289848446846,-10.0927095413208
1.7294959636184696e+18,-0.010128241032361984,-0.061750348657369614,-10.142560958862305
1.7294959636274698e+18,-0.0998624786734581,-0.0640501007437706,-10.034428596496582
1.72949596363647e+18,-0.00447436049580574,-0.014621184207499027,-10.063575744628906
1.7294959636424701e+18,0.07498263567686081,0.04174061492085457,-10.078564643859863
1.7294959636514703e+18,0.011447757482528687,0.031560711562633514,-10.035415649414062
1.7294959636604705e+18,0.019243933260440826,0.01369426865130663,-9.984041213989258
1.7294959636664707e+18,0.009669777005910873,0.05334147810935974,-10.134368896484375
1.7294959636754708e+18,-0.05975595861673355,-0.013120324350893497,-10.047175407409668
1.729495963684471e+18,-0.03950835391879082,0.07457186281681061,-10.026880264282227
1.7294959636934712e+18,-0.04864494875073433,0.028473133221268654,-10.038905143737793
1.7294959636994714e+18,-0.13058313727378845,0.027166182175278664,-10.026505470275879
1.7294959637084716e+18,-0.06803848594427109,0.045651182532310486,-10.036109924316406
1.7294959637174717e+18,0.032832615077495575,-0.01887112483382225,-10.015877723693848
1.729495963726472e+18,-0.015992751345038414,-0.020206032320857048,-9.955060005187988
1.729495963732472e+18,-0.0077889240346848965,-0.029050122946500778,-10.006699562072754
1.7294959637414723e+18,0.03458075225353241,-0.04614018276333809,-10.023205757141113
1.7294959637474724e+18,-0.02548152022063732,-0.06321101635694504,-10.084516525268555
1.7294959637564726e+18,-0.01650000549852848,0.04302515462040901,-9.864148139953613
1.7294959637654728e+18,-0.0157936979085207,-0.05075479671359062,-10.053977012634277
1.729495963771473e+18,-0.053640805184841156,0.026682397350668907,-9.986873626708984
1.729495963780473e+18,0.11209288239479065,0.05323586240410805,-10.005925178527832
1.7294959637894733e+18,0.08597713708877563,0.013836910016834736,-9.9559326171875
1.7294959637954734e+18,0.02960609458386898,0.016321158036589622,-9.902691841125488
1.7294959638044736e+18,-0.02872602455317974,-0.04714701697230339,-9.925837516784668
1.7294959638104737e+18,-0.025291115045547485,-0.060563866049051285,-9.913315773010254
1.729495963819474e+18,0.03538041561841965,-0.0010442286729812622,-10.021203994750977
1.729495963828474e+18,0.037118423730134964,0.03213897719979286,-9.982708930969238
1.7294959638344742e+18,0.007776189129799604,-0.006924805231392384,-9.875834465026855
1.7294959638434744e+18,0.01385398767888546,0.016784243285655975,-9.874002456665039
1.7294959638494746e+18,0.03931574150919914,-0.017713919281959534,-9.954914093017578
1.7294959638584748e+18,0.029547840356826782,0.01690930500626564,-9.911637306213379
1.729495963870475e+18,-0.015209601260721684,-0.012546978890895844,-9.894149780273438
1.7294959638794752e+18,-0.042759526520967484,-0.006137568037956953,-9.952589988708496
1.7294959638854753e+18,-0.0763523206114769,0.03591414913535118,-9.905771255493164
1.7294959638944755e+18,0.04235994070768356,-0.010074378922581673,-9.831801414489746
1.7294959639034757e+18,0.03193909674882889,-0.029569493606686592,-9.891023635864258
1.7294959639094758e+18,-0.020643338561058044,-0.09168544411659241,-9.837003707885742
1.729495963918476e+18,0.05292437970638275,-0.039639949798583984,-9.959921836853027
1.7294959639244762e+18,0.023998519405722618,0.031087886542081833,-9.891057014465332
1.7294959639334764e+18,0.10364298522472382,0.002293209545314312,-9.855356216430664
1.7294959639424765e+18,0.014978731982409954,0.05780685320496559,-9.87518310546875
1.7294959639514767e+18,-0.056556303054094315,-0.04798871651291847,-9.759378433227539
1.729495963960477e+18,-0.00671721575781703,0.057777274399995804,-9.818546295166016
1.729495963966477e+18,-0.028954317793250084,0.03094668686389923,-9.846416473388672
1.7294959639754772e+18,-0.05035647749900818,0.03742016479372978,-9.847033500671387
1.7294959639844774e+18,0.03916339576244354,-0.026063643395900726,-9.835285186767578
1.7294959639904776e+18,-0.015886759385466576,-0.00401528924703598,-9.877689361572266
1.7294959639994778e+18,0.039060160517692566,0.043305084109306335,-9.904129981994629
1.729495964008478e+18,-0.02077350951731205,-0.05617533624172211,-9.904742240905762
1.729495964014478e+18,-0.022263692691922188,0.04883937910199165,-9.767746925354004
1.7294959640234783e+18,0.03699063882231712,0.02204369753599167,-9.858492851257324
1.7294959640324785e+18,-0.0193707887083292,0.005186320748180151,-9.809443473815918
1.7294959640384786e+18,-0.043039463460445404,-0.055389970541000366,-9.873611450195312
1.7294959640474788e+18,-0.04309534654021263,0.023419704288244247,-9.807561874389648
1.729495964056479e+18,0.015522029250860214,-0.027173904702067375,-9.742838859558105
1.7294959640654792e+18,0.007511436939239502,-0.009275471791625023,-9.78647232055664
1.7294959640774794e+18,-0.009125065989792347,0.0047149634920060635,-9.968976974487305
1.7294959640864796e+18,-0.04983355104923248,-0.047578830271959305,-9.860121726989746
1.7294959640954798e+18,0.036474596709012985,-0.01452870387583971,-9.730069160461426
1.72949596410448e+18,0.0625222846865654,0.010281551629304886,-9.697484970092773
1.7294959641104801e+18,0.031607069075107574,-0.021189941093325615,-9.746644020080566
1.7294959641194803e+18,0.019583068788051605,0.015222392044961452,-9.81612491607666
1.7294959641284805e+18,-0.07926564663648605,-0.042354825884103775,-9.765397071838379
1.7294959641374807e+18,0.0001684643648331985,0.03580724075436592,-9.694663047790527
1.729495964146481e+18,-0.05520903319120407,-0.009772059507668018,-9.808001518249512
1.729495964152481e+18,-0.08770545572042465,0.06581374257802963,-9.756155014038086
1.7294959641614812e+18,-0.001200580270960927,0.023398658260703087,-9.795621871948242
1.7294959641674813e+18,0.033510830253362656,-0.03546301648020744,-9.831624984741211
1.7294959641794816e+18,-0.018712889403104782,0.03863198682665825,-9.807077407836914
1.7294959641884818e+18,-0.014972491189837456,-0.00868748128414154,-9.74948787689209
1.729495964197482e+18,0.04067114740610123,-0.021535882726311684,-9.767266273498535
1.7294959642064822e+18,0.016153674572706223,0.04130547121167183,-9.760283470153809
1.7294959642154824e+18,-0.0028796254191547632,-0.036539267748594284,-9.732059478759766
1.7294959642244826e+18,0.06899994611740112,-0.022333599627017975,-9.80341911315918
1.7294959642334828e+18,-0.005161323584616184,-0.01043586153537035,-9.73596477508545
1.729495964239483e+18,-0.10626881569623947,-0.01600808836519718,-9.7882719039917
1.729495964248483e+18,0.039446309208869934,0.05903203412890434,-9.729659080505371
1.7294959642574833e+18,0.004128157626837492,-0.04509422928094864,-9.759848594665527
1.7294959642664835e+18,0.03789925202727318,-0.0022051255218684673,-9.732163429260254
1.7294959642754836e+18,0.0052049048244953156,0.024470791220664978,-9.741582870483398
1.7294959642844838e+18,0.04096538946032524,0.03661016374826431,-9.814595222473145
1.729495964290484e+18,-0.013292013667523861,-0.052682723850011826,-9.71152400970459
1.7294959642994842e+18,-0.00224181916564703,-0.03678905591368675,-9.693151473999023
1.7294959643084844e+18,0.011199370957911015,0.020716290920972824,-9.741403579711914
1.7294959643174845e+18,-0.03808227926492691,0.060986753553152084,-9.798371315002441
1.7294959643264847e+18,-0.08816453814506531,0.011117863468825817,-9.746082305908203
1.729495964335485e+18,-0.056058887392282486,0.1061558872461319,-9.754111289978027
1.7294959643474852e+18,-0.03370416909456253,0.007650001905858517,-9.65604305267334
1.7294959643564854e+18,-0.0645340234041214,-0.031411249190568924,-9.77119255065918
1.7294959643624855e+18,-0.03706718608736992,-0.009819649159908295,-9.734596252441406
1.7294959643714857e+18,-0.000986185041256249,-0.002886008471250534,-9.789003372192383
1.729495964380486e+18,0.003327668411657214,-0.01880630850791931,-9.662551879882812
1.729495964389486e+18,0.01019627507776022,-0.07181995362043381,-9.729195594787598
1.7294959643984863e+18,0.016413310542702675,0.0062376647256314754,-9.62887191772461
1.7294959644044864e+18,0.041697174310684204,0.08522113412618637,-9.824376106262207
1.7294959644134866e+18,-0.00955476239323616,0.03045530803501606,-9.701861381530762
1.7294959644194867e+18,-0.002063336782157421,-0.053488440811634064,-9.742044448852539
1.729495964428487e+18,-0.008069954812526703,-0.056514110416173935,-9.611504554748535
1.729495964437487e+18,0.04937828704714775,0.00985682476311922,-9.657958030700684
1.7294959644464873e+18,-0.045519717037677765,0.01361914910376072,-9.71176528930664
1.7294959644554875e+18,-0.04867994040250778,0.021047480404376984,-9.701717376708984
1.7294959644644877e+18,-0.06097818538546562,-0.02498541958630085,-9.752089500427246
1.7294959644704878e+18,0.07379508763551712,0.03547121584415436,-9.781123161315918
1.729495964479488e+18,0.001077274209819734,0.06377092748880386,-9.823567390441895
1.7294959644884882e+18,-0.008308183401823044,-0.044060055166482925,-9.879096031188965
1.7294959644944883e+18,0.0783117413520813,-0.016430091112852097,-9.851753234863281
1.7294959645034885e+18,-0.04006396606564522,0.05688222125172615,-9.790207862854004
1.7294959645094886e+18,-0.02107066661119461,-0.017933106049895287,-9.867507934570312
1.7294959645184888e+18,-0.030796300619840622,0.11668439954519272,-9.828872680664062
1.729495964527489e+18,0.012106021866202354,0.010164182633161545,-9.856968879699707
1.7294959645334892e+18,0.05131841450929642,-0.02883567474782467,-9.828838348388672
1.7294959645424893e+18,-0.038673143833875656,-0.012957829982042313,-9.716628074645996
1.7294959645484895e+18,0.05190366134047508,0.005580021068453789,-9.809183120727539
1.7294959645574897e+18,0.065202496945858,0.021896392107009888,-9.811321258544922
1.7294959645634898e+18,-0.0018570865504443645,-0.06384649872779846,-9.871200561523438
1.72949596457249e+18,0.06479107588529587,-0.05665336549282074,-9.757039070129395
1.7294959645844902e+18,-0.05645660683512688,-0.059737011790275574,-9.788491249084473
1.7294959645934904e+18,-0.015604176558554173,0.042556021362543106,-9.811991691589355
1.7294959646024906e+18,0.03752729669213295,0.024373281747102737,-9.86098861694336
1.7294959646084908e+18,-0.019218239933252335,0.012848909944295883,-9.88401985168457
1.729495964617491e+18,0.023715723305940628,0.04441547393798828,-9.737519264221191
1.729495964623491e+18,0.002817162312567234,-0.012423913925886154,-9.773313522338867
1.7294959646324913e+18,0.021936586126685143,-0.018011214211583138,-9.76952075958252
1.7294959646414915e+18,0.012017766013741493,-0.05049712210893631,-9.79262924194336
1.7294959646504916e+18,-0.004147314000874758,0.061620283871889114,-9.792744636535645
1.7294959646564918e+18,-0.03891049325466156,-0.00944250077009201,-9.748282432556152
1.729495964665492e+18,0.012577222660183907,0.061701349914073944,-9.783171653747559
1.7294959646744922e+18,0.02215006574988365,-0.0008135048556141555,-9.748682975769043
1.7294959646804923e+18,-0.07334570586681366,-0.08660746365785599,-9.782010078430176
1.7294959646894925e+18,-0.00021627623937092721,-0.035118453204631805,-9.815253257751465
1.7294959646954926e+18,0.03863237053155899,-0.03798643499612808,-9.80417251586914
1.7294959647044928e+18,-0.02226482704281807,-0.06488902866840363,-9.739910125732422
1.729495964713493e+18,0.0150062320753932,0.0048321206122636795,-9.731096267700195
1.729495964719493e+18,-0.034190211445093155,0.025488756597042084,-9.72860050201416
1.7294959647284933e+18,0.0021095327101647854,-0.06288985162973404,-9.763912200927734
1.7294959647344934e+18,-0.00411365507170558,-0.04792109504342079,-9.745400428771973
1.7294959647434936e+18,0.05633131414651871,0.0059638055972754955,-9.654094696044922
1.7294959647524938e+18,-0.0070987665094435215,0.06372060626745224,-9.774760246276855
1.729495964761494e+18,0.03990031033754349,0.03101525455713272,-9.756746292114258
1.7294959647674941e+18,0.0130386957898736,-0.0175901148468256,-9.781185150146484
1.7294959647764943e+18,0.0272815003991127,0.020942941308021545,-9.65356731414795
1.7294959647854945e+18,0.05391089618206024,-0.05096849799156189,-9.76735782623291
1.7294959647914947e+18,-0.04495881497859955,0.010692646726965904,-9.75772762298584
1.7294959648004948e+18,0.00861339457333088,0.008550547063350677,-9.759045600891113
1.729495964809495e+18,-0.0022387844510376453,0.06319635361433029,-9.729923248291016
1.7294959648154952e+18,0.017304865643382072,0.045933470129966736,-9.726876258850098
1.7294959648244954e+18,-0.0516820065677166,0.00032989069586619735,-9.708863258361816
1.7294959648394957e+18,0.07710957527160645,-0.020567307248711586,-9.758902549743652
1.7294959648454958e+18,0.031486403197050095,0.01795787177979946,-9.669218063354492
1.729495964854496e+18,0.030499806627631187,0.03869862109422684,-9.750808715820312
1.7294959648634962e+18,0.08636186271905899,0.030228760093450546,-9.689364433288574
1.7294959648694963e+18,0.0467371828854084,-0.08585330098867416,-9.741792678833008
1.7294959648784965e+18,-0.014552334323525429,-0.05111216753721237,-9.719120979309082
1.7294959648844966e+18,-0.03665582463145256,0.003949769772589207,-9.773723602294922
1.7294959648934968e+18,0.03688877075910568,-0.020337525755167007,-9.765848159790039
1.729495964902497e+18,0.0018963372567668557,-0.042310480028390884,-9.704557418823242
1.7294959649084972e+18,-0.04593488201498985,0.019388247281312943,-9.702177047729492
1.7294959649174973e+18,-0.029341930523514748,0.045207466930150986,-9.75342082977295
1.7294959649264975e+18,-0.07154207676649094,0.005364321172237396,-9.74035930633545
1.7294959649354977e+18,0.06257504969835281,0.0030911508947610855,-9.775738716125488
1.7294959649414979e+18,0.05812729895114899,0.06142495200037956,-9.695558547973633
1.729495964950498e+18,0.11332598328590393,-0.0288474690169096,-9.720597267150879
1.7294959649564982e+18,0.015704920515418053,0.05026717856526375,-9.75940227508545
1.7294959649654984e+18,-0.02351526729762554,-0.0034645639825612307,-9.70817756652832
1.7294959649744986e+18,-0.050837792456150055,-0.014291346073150635,-9.74622631072998
1.7294959649804987e+18,0.05766581371426582,0.008034775033593178,-9.726433753967285
1.729495964989499e+18,0.04500807076692581,0.02354072779417038,-9.769472122192383
1.729495964998499e+18,0.04481155425310135,0.036427438259124756,-9.712686538696289
1.7294959650074993e+18,-0.022048981860280037,-0.1096181645989418,-9.755967140197754
1.7294959650164995e+18,-0.03249884024262428,-0.04424821957945824,-9.705636978149414
1.7294959650254996e+18,-0.05034339800477028,-0.025630950927734375,-9.655364036560059
1.7294959650344998e+18,0.010966590605676174,0.020148655399680138,-9.738689422607422
1.7294959650435e+18,-0.027032071724534035,-0.040501076728105545,-9.7952299118042
1.7294959650495002e+18,-0.046808745712041855,-0.0840478390455246,-9.707210540771484
1.7294959650585004e+18,-0.0005221438477747142,-0.017122749239206314,-9.79215145111084
1.7294959650675005e+18,-0.042503561824560165,0.0003121805493719876,-9.682175636291504
1.7294959650735007e+18,-0.0066387346014380455,-0.011984990909695625,-9.677130699157715
1.7294959650825009e+18,-0.016925489529967308,-0.02842198684811592,-9.779444694519043
1.729495965091501e+18,0.01568732224404812,0.01966843008995056,-9.744405746459961
1.7294959650975012e+18,-0.0005562452133744955,-0.04522496461868286,-9.696850776672363
1.7294959651065014e+18,-0.0030074676033109426,0.01870662160217762,-9.764782905578613
1.7294959651155016e+18,-0.03016553446650505,-0.017864743247628212,-9.693929672241211
1.7294959651245018e+18,-0.054841864854097366,-0.01516025047749281,-9.70013427734375
1.729495965130502e+18,0.020490482449531555,-0.06774839013814926,-9.686127662658691
1.729495965139502e+18,-0.014254036359488964,0.014139915816485882,-9.749612808227539
1.7294959651485023e+18,0.09749078750610352,-0.03908662497997284,-9.725822448730469
1.7294959651545024e+18,0.016973167657852173,0.03254316374659538,-9.787039756774902
1.7294959651635026e+18,-0.0075271776877343655,-0.02429886721074581,-9.699862480163574
1.7294959651725028e+18,0.020903468132019043,0.025752346962690353,-9.756970405578613
1.729495965178503e+18,-0.023081818595528603,-0.014394212514162064,-9.772778511047363
1.729495965187503e+18,0.06142016872763634,0.03859143704175949,-9.746115684509277
1.7294959651965033e+18,-0.03410060331225395,0.03628842905163765,-9.827682495117188
1.7294959652025034e+18,0.04648706689476967,0.05827803537249565,-9.627306938171387
1.7294959652115036e+18,0.05860796943306923,0.09414829313755035,-9.743010520935059
1.7294959652205038e+18,0.07040399312973022,0.024008799344301224,-9.764403343200684
1.729495965229504e+18,0.0638541430234909,-0.04207049310207367,-9.694287300109863
1.7294959652385042e+18,0.03332412615418434,0.050596341490745544,-9.738017082214355
1.7294959652475044e+18,-0.03896481543779373,-0.027346370741724968,-9.647562980651855
1.7294959652535045e+18,0.012551170773804188,0.03892483934760094,-9.64283275604248
1.7294959652625047e+18,0.00693441042676568,0.00849170982837677,-9.668684005737305
1.7294959652685048e+18,0.05691318213939667,0.031888511031866074,-9.734733581542969
1.729495965277505e+18,-0.02740161120891571,-0.005375175271183252,-9.789618492126465
1.7294959652865052e+18,-0.1043194904923439,0.12751831114292145,-9.707253456115723
1.7294959652925053e+18,0.005638331640511751,0.004279713612049818,-9.788639068603516
1.7294959653015055e+18,-0.031931303441524506,0.0017763826763257384,-9.730332374572754
1.7294959653105057e+18,-0.007958348840475082,0.03137047216296196,-9.70652961730957
1.729495965319506e+18,-0.02032027207314968,0.054515209048986435,-9.795500755310059
1.729495965328506e+18,0.01783910021185875,0.020022431388497353,-9.768604278564453
1.7294959653375063e+18,0.0642969161272049,0.07321645319461823,-9.765436172485352
1.7294959653465065e+18,0.010998394340276718,-0.05792108178138733,-9.760826110839844
1.7294959653585068e+18,0.02458140067756176,0.023049134761095047,-9.79576301574707
1.729495965364507e+18,-0.03944080322980881,-0.023636344820261,-9.812440872192383
1.729495965373507e+18,0.06163094937801361,-0.01006267499178648,-9.753003120422363
1.7294959653825073e+18,-0.009967473335564137,0.0012489939108490944,-9.7344388961792
1.7294959653915075e+18,0.00392982829362154,0.005754249636083841,-9.704961776733398
1.7294959653975076e+18,0.003751331241801381,0.004342080559581518,-9.774155616760254
1.7294959654065078e+18,0.008720350451767445,0.0381268747150898,-9.748773574829102
1.729495965412508e+18,-0.02745523303747177,0.02097827009856701,-9.768280982971191
1.729495965421508e+18,-0.047219790518283844,0.06096148118376732,-9.701591491699219
1.7294959654305083e+18,0.0017312302952632308,0.031632304191589355,-9.774539947509766
1.7294959654395085e+18,-0.03796352446079254,-0.021857084706425667,-9.746723175048828
1.7294959654455086e+18,-0.01906890608370304,0.007592251989990473,-9.749058723449707
1.7294959654545088e+18,0.013222738169133663,-0.0783449187874794,-9.761061668395996
1.729495965463509e+18,0.014142079278826714,-0.04631800949573517,-9.678149223327637
1.7294959654725092e+18,0.06361223757266998,0.013563116081058979,-9.766952514648438
1.7294959654815094e+18,0.00418009702116251,-0.09487100690603256,-9.712295532226562
1.7294959654905096e+18,0.017719250172376633,0.041982267051935196,-9.659968376159668
1.7294959654965097e+18,-0.047012943774461746,-0.042453352361917496,-9.744372367858887
1.72949596550551e+18,0.051823362708091736,0.04995857924222946,-9.776925086975098
1.72949596551451e+18,-0.01751548796892166,-0.014960027299821377,-9.646513938903809
1.7294959655235103e+18,0.01373105589300394,0.02588913030922413,-9.778133392333984
1.7294959655295104e+18,-0.0034603963140398264,-0.01340132113546133,-9.747015953063965
1.7294959655385106e+18,0.014361569657921791,-0.044514402747154236,-9.713034629821777
1.7294959655475108e+18,0.08140567690134048,-7.29294988559559e-05,-9.722636222839355
1.729495965556511e+18,0.0342177115380764,0.04301295056939125,-9.770977973937988
1.7294959655655112e+18,0.1476803869009018,-0.022784709930419922,-9.72046947479248
1.7294959655715113e+18,0.004443211946636438,-0.02485078200697899,-9.733059883117676
1.7294959655805115e+18,0.015002585016191006,0.0016399235464632511,-9.711810111999512
1.7294959655895117e+18,-0.018191097304224968,-0.06633546948432922,-9.690864562988281
1.7294959655955118e+18,-0.025352153927087784,-0.009765725582838058,-9.755829811096191
1.729495965604512e+18,-0.040323108434677124,-0.019988447427749634,-9.75544261932373
1.7294959656135122e+18,-0.0994093269109726,0.06693317741155624,-9.730031967163086
1.7294959656195123e+18,-0.020332051441073418,0.026390440762043,-9.779878616333008
1.7294959656285125e+18,-0.06996137648820877,0.023911526426672935,-9.79483699798584
1.7294959656375127e+18,0.03621198982000351,0.06610004603862762,-9.770258903503418
1.7294959656435128e+18,-0.04679962247610092,-0.07650859653949738,-9.818370819091797
1.729495965652513e+18,0.052108634263277054,-0.08084108680486679,-9.755958557128906
1.7294959656585132e+18,0.00032881766674108803,-0.031476542353630066,-9.75108528137207
1.7294959656675133e+18,-0.040321994572877884,-0.042590755969285965,-9.810601234436035
1.7294959656765135e+18,0.0009586866945028305,0.04380593076348305,-9.79922866821289
1.7294959656855137e+18,-0.039810799062252045,0.040157467126846313,-9.661725997924805
1.7294959656915139e+18,-0.04926163703203201,-0.04951368272304535,-9.723535537719727
1.729495965700514e+18,-0.05300804227590561,0.061565741896629333,-9.80492115020752
1.7294959657125143e+18,0.04834723845124245,0.03440222144126892,-9.672868728637695
1.7294959657215145e+18,0.02661963365972042,-0.0339881032705307,-9.663614273071289
1.7294959657305147e+18,0.05331333354115486,0.05133291706442833,-9.791306495666504
1.7294959657365148e+18,0.010221430100500584,0.017964795231819153,-9.695466995239258
1.729495965748515e+18,0.035970401018857956,0.012787009589374065,-9.788238525390625
1.7294959657575153e+18,0.05187064781785011,0.07907658070325851,-9.704656600952148
1.7294959657665155e+18,-0.013953895308077335,0.00356944277882576,-9.77202320098877
1.7294959657755156e+18,-0.04075194522738457,0.0406235009431839,-9.785103797912598
1.7294959657845158e+18,-0.03685251995921135,-0.08789380639791489,-9.753584861755371
1.729495965793516e+18,0.02278636209666729,0.052212122827768326,-9.758711814880371
1.7294959657995162e+18,0.02524716407060623,0.11237258464097977,-9.737421035766602
1.7294959658085164e+18,-0.04006175324320793,0.0426243431866169,-9.748494148254395
1.7294959658175165e+18,0.04464145377278328,-0.08257727324962616,-9.730780601501465
1.7294959658235167e+18,0.1410675197839737,0.03164030611515045,-9.70950698852539
1.7294959658325169e+18,-0.04136933386325836,-0.04202521592378616,-9.807439804077148
1.729495965841517e+18,-0.05651577562093735,-0.09882727265357971,-9.755766868591309
1.7294959658475172e+18,-0.04342951998114586,0.00513684656471014,-9.72364616394043
1.7294959658565174e+18,0.032220374792814255,0.01609744317829609,-9.818811416625977
1.7294959658655176e+18,0.051505472511053085,-0.004004663787782192,-9.713626861572266
1.7294959658715177e+18,-0.014853695407509804,0.03244280070066452,-9.780957221984863
1.729495965880518e+18,-0.07164065539836884,0.029100533574819565,-9.696826934814453
1.729495965889518e+18,-0.0044752671383321285,0.07318229228258133,-9.736148834228516
1.7294959658955182e+18,0.0005466256989166141,0.0167430080473423,-9.728848457336426
1.7294959659045184e+18,0.11044032126665115,-0.010615751147270203,-9.77048397064209
1.7294959659135186e+18,-0.002705533290281892,0.018919743597507477,-9.762260437011719
1.7294959659225188e+18,0.001447431743144989,0.00840793177485466,-9.767294883728027
1.729495965928519e+18,-0.013858593069016933,0.007354723755270243,-9.7467622756958
1.729495965937519e+18,0.002196779241785407,-0.0359770730137825,-9.735735893249512
1.7294959659465193e+18,0.066042460501194,0.07160299271345139,-9.73555850982666
1.7294959659555195e+18,-0.012278556823730469,0.005436864215880632,-9.88232707977295
1.7294959659645197e+18,0.04748246818780899,-0.013181405141949654,-9.755402565002441
1.72949596597352e+18,0.005838590208441019,-0.04444139450788498,-9.760930061340332
1.72949596598252e+18,0.03135864436626434,0.07845652103424072,-9.809346199035645
1.7294959659885202e+18,-0.017560483887791634,0.03002386912703514,-9.72211742401123
1.7294959659975204e+18,-0.003188068512827158,0.058698154985904694,-9.793495178222656
1.7294959660065206e+18,-0.02501898631453514,-0.0014565549790859222,-9.756837844848633
1.7294959660155208e+18,0.04933014139533043,-0.04243873059749603,-9.750970840454102
1.729495966024521e+18,-0.026269923895597458,-0.03653757646679878,-9.7719144821167
1.7294959660335212e+18,0.0076132104732096195,0.03067588061094284,-9.784440994262695
1.7294959660425213e+18,-0.020390385761857033,0.005187613889575005,-9.801328659057617
1.7294959660515215e+18,0.0024550864472985268,0.02678125537931919,-9.795808792114258
1.7294959660575217e+18,-0.018147021532058716,0.0253057312220335,-9.743148803710938
1.7294959660665219e+18,-0.06505653262138367,0.0008561350405216217,-9.724020957946777
1.729495966075522e+18,-0.007205813191831112,0.02470991760492325,-9.75030517578125
1.7294959660845222e+18,0.013390321284532547,-0.0756959468126297,-9.764697074890137
1.7294959660905224e+18,0.04132317751646042,0.006950912997126579,-9.83400821685791
1.7294959660995226e+18,0.09202100336551666,-0.022931385785341263,-9.7290620803833
1.7294959661055227e+18,-0.02261645719408989,-0.11552715301513672,-9.827325820922852
1.729495966114523e+18,0.019248105585575104,0.03319470211863518,-9.779903411865234
1.729495966120523e+18,-0.048517562448978424,-0.03813175857067108,-9.780054092407227
1.7294959661295232e+18,-0.06478674709796906,-0.04302045330405235,-9.790064811706543
1.7294959661385234e+18,0.009447513148188591,0.011835849843919277,-9.812308311462402
1.7294959661445235e+18,-0.038422174751758575,0.08734334260225296,-9.770609855651855
1.7294959661535237e+18,0.025397945195436478,0.03524654358625412,-9.772127151489258
1.7294959661595238e+18,0.0047909109853208065,-0.11484625935554504,-9.824666023254395
1.729495966168524e+18,0.0017662409227341413,-0.14326149225234985,-9.721081733703613
1.7294959661775242e+18,-0.050089579075574875,-0.014401168562471867,-9.808920860290527
1.7294959661835244e+18,-0.06591062992811203,-0.00960929412394762,-9.795524597167969
1.7294959661925245e+18,-0.04566744342446327,-0.06533308327198029,-9.782833099365234
1.7294959662015247e+18,0.04400978237390518,0.022357067093253136,-9.807514190673828
1.7294959662075249e+18,-0.003554461756721139,0.0031500032637268305,-9.776823997497559
1.729495966216525e+18,-0.034243110567331314,-0.03432386368513107,-9.791304588317871
1.7294959662255252e+18,0.05844341591000557,0.022374162450432777,-9.76975154876709
1.7294959662315254e+18,0.07340045273303986,-0.045025356113910675,-9.74769115447998
1.7294959662405256e+18,0.002963403705507517,-0.07619808614253998,-9.776740074157715
1.7294959662465257e+18,-0.01871497556567192,-0.08908316493034363,-9.825562477111816
1.729495966255526e+18,-0.043803732842206955,-0.025760933756828308,-9.800410270690918
1.729495966264526e+18,-0.07003732770681381,0.05203745514154434,-9.766461372375488
1.7294959662735263e+18,-0.006669419817626476,0.10736262053251266,-9.800289154052734
1.7294959662825265e+18,-0.015143516473472118,0.016566909849643707,-9.786050796508789
1.7294959662885266e+18,-0.011071443557739258,-0.025333525612950325,-9.806678771972656
1.7294959662975268e+18,0.021297048777341843,-0.04366310313344002,-9.74183177947998
1.729495966306527e+18,0.014441766776144505,0.01474793627858162,-9.832022666931152
1.7294959663155272e+18,0.0666116401553154,0.019510949030518532,-9.792183876037598
1.7294959663245274e+18,0.07118649035692215,-0.008527655154466629,-9.724055290222168
1.7294959663305275e+18,0.004467348102480173,-0.04387307167053223,-9.68659496307373
1.7294959663395277e+18,-0.021413717418909073,-0.0635727122426033,-9.80980396270752
1.7294959663485279e+18,0.04307693615555763,0.021248802542686462,-9.75717830657959
1.729495966357528e+18,-0.01379451248794794,-0.0025680281687527895,-9.718498229980469
1.7294959663635282e+18,-0.0008459144737571478,-0.026225291192531586,-9.79328441619873
1.7294959663725284e+18,0.06599292159080505,0.001981823006644845,-9.74223518371582
1.7294959663815286e+18,0.05733484402298927,-0.010781746357679367,-9.828238487243652
1.7294959663905288e+18,0.0019578079227358103,-0.05677426978945732,-9.752978324890137
1.729495966399529e+18,0.04181716963648796,-0.021813150495290756,-9.689486503601074
1.729495966405529e+18,-0.055407099425792694,0.0770166665315628,-9.76108455657959
1.7294959664145293e+18,-0.015836939215660095,0.007063448894768953,-9.754341125488281
1.7294959664235295e+18,-0.016705572605133057,0.0321035273373127,-9.846135139465332
1.7294959664295296e+18,-0.005285459104925394,-0.013385321944952011,-9.770039558410645
1.7294959664385298e+18,0.00743689201772213,0.015132223255932331,-9.675605773925781
1.72949596644753e+18,-0.07582779228687286,-0.0009599957265891135,-9.759960174560547
1.7294959664565302e+18,-0.03583919629454613,0.03533831983804703,-9.738790512084961
1.7294959664625303e+18,-0.04941945523023605,0.06540754437446594,-9.723957061767578
1.7294959664715305e+18,-0.0447511188685894,-0.030530573800206184,-9.815324783325195
1.7294959664805307e+18,-0.01274699717760086,0.0268549844622612,-9.87402057647705
1.729495966489531e+18,-0.008666016161441803,-0.03575090318918228,-9.798731803894043
1.729495966498531e+18,0.020847130566835403,-0.041657887399196625,-9.764389991760254
1.7294959665075313e+18,-0.0593133419752121,-0.0013023267965763807,-9.821998596191406
1.7294959665165315e+18,-0.05668852850794792,-0.05778537318110466,-9.82031536102295
1.7294959665255316e+18,-0.026285281404852867,0.05163349583745003,-9.84864330291748
1.729495966537532e+18,-0.00893412996083498,0.008176552131772041,-9.846510887145996
1.7294959665495322e+18,0.012807352468371391,0.010794103145599365,-9.772817611694336
1.7294959665585324e+18,0.023194000124931335,-0.006957884877920151,-9.873466491699219
1.7294959665645325e+18,-0.07375092059373856,0.0344109982252121,-9.785002708435059
1.7294959665735327e+18,0.08808344602584839,0.03351150080561638,-9.80349063873291
1.7294959665825329e+18,-0.03186413273215294,-0.06324238330125809,-9.740025520324707
1.729495966588533e+18,-0.007022470701485872,0.006286502815783024,-9.823171615600586
1.7294959665975332e+18,-0.01875622197985649,0.026398614048957825,-9.766305923461914
1.7294959666065334e+18,-0.03235713392496109,0.0027912750374525785,-9.842763900756836
1.7294959666125335e+18,0.01680845208466053,0.00012771273031830788,-9.842402458190918
1.7294959666215337e+18,-0.02682129293680191,-0.07206277549266815,-9.862353324890137
1.729495966630534e+18,0.016930656507611275,-0.02725478634238243,-9.784646034240723
1.729495966636534e+18,0.06474702805280685,0.1408567875623703,-9.726383209228516
1.7294959666455342e+18,0.020518982782959938,-0.030343037098646164,-9.750332832336426
1.7294959666545344e+18,-0.014675294980406761,-0.01653885468840599,-9.742932319641113
1.7294959666605345e+18,-0.045064881443977356,-0.0023784427903592587,-9.796975135803223
1.7294959666695347e+18,0.011082508601248264,0.03363151103258133,-9.807317733764648
1.729495966678535e+18,0.055675603449344635,-0.027208296582102776,-9.742669105529785
1.729495966684535e+18,-0.06589645147323608,-0.0219061728566885,-9.847756385803223
1.7294959666965353e+18,-0.03406229987740517,0.06779088079929352,-9.783632278442383
1.7294959667115356e+18,0.026771286502480507,0.009050734341144562,-9.821001052856445
1.7294959667175357e+18,0.005657747387886047,-0.05264090374112129,-9.888803482055664
1.729495966726536e+18,-0.04693838953971863,-0.028018010780215263,-9.691171646118164
1.729495966732536e+18,0.036359451711177826,0.03539199382066727,-9.821444511413574
1.7294959667415363e+18,0.03337052837014198,-0.04723283275961876,-9.820058822631836
1.7294959667505364e+18,-0.06303176283836365,-0.08480705320835114,-9.700329780578613
1.7294959667565366e+18,-0.018427563831210136,-0.031305111944675446,-9.765959739685059
1.7294959667655368e+18,-0.05045359209179878,0.0015334985218942165,-9.789899826049805
1.729495966774537e+18,-0.004033586475998163,0.028882713988423347,-9.875397682189941
1.7294959667895373e+18,-0.016666153445839882,0.05582018196582794,-9.83869743347168
1.7294959667985375e+18,-0.034019164741039276,-0.019264349713921547,-9.858281135559082
1.7294959668075377e+18,0.0035987189039587975,-0.027654625475406647,-9.781285285949707
1.7294959668165379e+18,-0.11527805775403976,-0.036523234099149704,-9.814135551452637
1.729495966825538e+18,0.02593693509697914,0.035084690898656845,-9.814642906188965
1.7294959668315382e+18,-0.09644348174333572,-0.004876512568444014,-9.84005069732666
1.7294959668405384e+18,-0.1016925647854805,-0.009499242529273033,-9.817649841308594
1.7294959668495386e+18,0.060437723994255066,0.06988765299320221,-9.866653442382812
1.7294959668555387e+18,0.03398597612977028,0.00997818261384964,-9.831995010375977
1.729495966864539e+18,-0.017521003261208534,-0.031489670276641846,-9.827855110168457
1.729495966870539e+18,-0.02366647869348526,-0.07438595592975616,-9.885106086730957
1.7294959668795392e+18,-0.0744747519493103,-0.007462720852345228,-9.820001602172852
1.7294959668885394e+18,0.031020155176520348,-0.008275408297777176,-9.846041679382324
1.7294959668975396e+18,0.0014365985989570618,-0.03205117583274841,-9.780835151672363
1.7294959669035397e+18,-0.06252290308475494,-0.04893144965171814,-9.80092716217041
1.72949596691254e+18,0.020730620250105858,-0.0077539775520563126,-9.793914794921875
1.72949596692154e+18,-0.025887779891490936,0.0031557728070765734,-9.866036415100098
1.7294959669275402e+18,0.0726543441414833,-0.02244834415614605,-9.805423736572266
1.7294959669365404e+18,-0.0684821605682373,0.03543349355459213,-9.8132905960083
1.7294959669455406e+18,-0.05390133708715439,0.0697699785232544,-9.756077766418457
1.7294959669515407e+18,-0.060012560337781906,-0.060728564858436584,-9.79643726348877
1.729495966960541e+18,0.05132237821817398,-0.057149920612573624,-9.817237854003906
1.729495966966541e+18,-0.00023239076836034656,-0.041885845363140106,-9.861979484558105
1.7294959669755412e+18,0.12051824480295181,-0.02493005245923996,-9.717151641845703
1.7294959669815414e+18,0.010645792819559574,0.016868572682142258,-9.859551429748535
1.7294959669935416e+18,0.005507106892764568,0.10339895635843277,-9.829487800598145
1.7294959670025418e+18,-0.010487614199519157,0.009091312065720558,-9.858695983886719
1.729495967011542e+18,0.03942237049341202,0.06622457504272461,-9.872623443603516
1.7294959670175421e+18,-0.05300947651267052,-0.044837068766355515,-9.746726036071777
1.7294959670265423e+18,0.005826788023114204,0.015390988439321518,-9.862275123596191
1.7294959670355425e+18,0.03784224018454552,-0.06962864845991135,-9.889087677001953
1.7294959670415427e+18,0.06039341539144516,-0.01340088713914156,-9.793978691101074
1.7294959670505428e+18,0.04664941877126694,-0.01902799680829048,-9.828207969665527
1.729495967059543e+18,-0.006377710960805416,-0.0499451607465744,-9.782514572143555
1.7294959670685432e+18,0.04452243447303772,-0.04927283152937889,-9.75692367553711
1.7294959670745434e+18,0.0343419648706913,0.04083644226193428,-9.766439437866211
1.7294959670835436e+18,0.006452883128076792,-0.0007582650287076831,-9.847030639648438
1.7294959670925437e+18,-0.041540492326021194,-0.06824543327093124,-9.834953308105469
1.7294959670985439e+18,0.022519854828715324,-0.012826459482312202,-9.796506881713867
1.729495967107544e+18,0.0822754055261612,-0.06299206614494324,-9.803775787353516
1.7294959671165443e+18,-0.08827506750822067,-0.06534240394830704,-9.784778594970703
1.7294959671255444e+18,-0.02381615713238716,-0.014270203188061714,-9.760407447814941
1.7294959671345446e+18,0.04302113503217697,-0.011664832010865211,-9.82013988494873
1.7294959671405448e+18,-0.04373641312122345,0.04815608263015747,-9.854104042053223
1.729495967149545e+18,0.025773515924811363,0.016594424843788147,-9.846267700195312
1.7294959671585452e+18,-0.07471320778131485,-0.013879707083106041,-9.78713607788086
1.7294959671675453e+18,0.08240412920713425,-0.023946398869156837,-9.767145156860352
1.7294959671765455e+18,-0.08942623436450958,0.08408426493406296,-9.739803314208984
1.7294959671825457e+18,-0.02557362988591194,-0.03185201808810234,-9.829203605651855
1.7294959671915459e+18,-0.037485092878341675,-0.005198442842811346,-9.789304733276367
1.729495967200546e+18,0.007275113370269537,0.025038009509444237,-9.746210098266602
1.7294959672095462e+18,0.045225564390420914,-0.004016307182610035,-9.74091911315918
1.7294959672185464e+18,-0.061316508799791336,0.005930046550929546,-9.771590232849121
1.7294959672275466e+18,0.04172515124082565,-0.007171032018959522,-9.787924766540527
1.7294959672365468e+18,-0.0659426599740982,0.005418908782303333,-9.725040435791016
1.729495967245547e+18,0.05813051015138626,-0.06952579319477081,-9.751264572143555
1.7294959672515471e+18,0.018854616209864616,0.00741513492539525,-9.863656044006348
1.7294959672605473e+18,-0.05854949355125427,0.06870875507593155,-9.78752613067627
1.7294959672665475e+18,0.007639679592102766,0.018097329884767532,-9.824931144714355
1.7294959672755476e+18,-0.07708820700645447,0.039679817855358124,-9.840887069702148
1.7294959672845478e+18,0.012847932986915112,-0.01625151000916958,-9.82550048828125
1.729495967290548e+18,-0.06871672719717026,0.030661091208457947,-9.773036003112793
1.7294959672995482e+18,-0.007886811159551144,0.04851384833455086,-9.77218246459961
1.7294959673055483e+18,-0.01238511223345995,0.08285470306873322,-9.704668998718262
1.7294959673145485e+18,-0.009913318790495396,-0.01944560557603836,-9.817389488220215
1.7294959673205486e+18,0.0796445906162262,-0.011600271798670292,-9.812549591064453
1.7294959673295488e+18,-0.010668618604540825,-0.0362967923283577,-9.8195219039917
1.729495967335549e+18,0.002171047730371356,-0.06366085261106491,-9.78942584991455
1.729495967344549e+18,-0.017340246587991714,0.040368836373090744,-9.741388320922852
1.7294959673535493e+18,-0.024684812873601913,-0.006110201124101877,-9.873384475708008
1.7294959673625495e+18,0.02271401137113571,0.003036307170987129,-9.824951171875
1.7294959673685496e+18,0.013422645628452301,0.008680928498506546,-9.755027770996094
1.7294959673775498e+18,0.009857500903308392,0.0704098716378212,-9.788114547729492
1.72949596738355e+18,-0.035095687955617905,-0.10506413877010345,-9.832563400268555
1.7294959673925501e+18,-0.04916103929281235,-0.024554014205932617,-9.789698600769043
1.7294959674015503e+18,-0.03572411835193634,-0.05215256288647652,-9.809521675109863
1.7294959674105505e+18,-0.07106888294219971,0.1420055776834488,-9.77759838104248
1.7294959674165507e+18,-0.03110411763191223,-0.08439411222934723,-9.854433059692383
1.7294959674255508e+18,-0.04196086525917053,-0.012638677842915058,-9.77005386352539
1.729495967431551e+18,-0.03023669682443142,0.0020490989554673433,-9.783011436462402
1.7294959674405512e+18,-0.006229077465832233,-0.022219564765691757,-9.768305778503418
1.7294959674495514e+18,-0.0605701208114624,-0.056699179112911224,-9.72037124633789
1.7294959674585516e+18,-0.022473899647593498,-0.03590530529618263,-9.82443618774414
1.7294959674645517e+18,0.0217256061732769,0.0585319809615612,-9.738141059875488
1.729495967473552e+18,-0.018261374905705452,-0.005512894596904516,-9.825166702270508
1.729495967482552e+18,0.06123435124754906,-0.02083008363842964,-9.792704582214355
1.7294959674885522e+18,0.019391141831874847,0.07340782135725021,-9.809988021850586
1.7294959674975524e+18,0.0030773193575441837,-0.06422256678342819,-9.77503776550293
1.7294959675065526e+18,-0.07823505252599716,0.03699999302625656,-9.79796314239502
1.7294959675125527e+18,-0.0379004031419754,-0.006797350477427244,-9.784808158874512
1.729495967521553e+18,0.05794944986701012,-0.09529820084571838,-9.84473991394043
1.729495967530553e+18,0.06560305505990982,0.006962001323699951,-9.746231079101562
1.7294959675365532e+18,0.025595830753445625,-0.0028813101816922426,-9.800345420837402
1.7294959675455534e+18,0.017980361357331276,0.008895494975149632,-9.800376892089844
1.7294959675545536e+18,0.05007963627576828,0.019588982686400414,-9.859954833984375
1.7294959675635538e+18,-0.027758438140153885,-0.051491498947143555,-9.806793212890625
1.729495967569554e+18,-0.018371310085058212,0.0034861245658248663,-9.818111419677734
1.729495967578554e+18,-0.026189859956502914,0.030728932470083237,-8.009371757507324
1.7294959675845542e+18,-0.005933704786002636,0.021743258461356163,-7.486510276794434
1.7294959675935544e+18,-0.06361247599124908,0.02053522877395153,-7.325340747833252
1.7294959676025546e+18,-0.05990561097860336,-0.03518827632069588,-7.308882713317871
1.7294959676085548e+18,-0.06036074832081795,0.00046194717288017273,-8.4341402053833
1.729495967617555e+18,-0.16365186870098114,0.019670113921165466,-11.539050102233887
1.7294959676265551e+18,-0.16910718381404877,0.09897026419639587,-12.57045841217041
1.7294959676325553e+18,-0.0867646113038063,0.22324270009994507,-12.430632591247559
1.7294959676415555e+18,-0.13550961017608643,0.161051943898201,-12.412028312683105
1.7294959676505556e+18,-0.1216377541422844,0.046454500406980515,-12.78779125213623
1.7294959676565558e+18,-0.04646958410739899,0.14420828223228455,-12.800776481628418
1.729495967665556e+18,-0.04714092239737511,0.06287472695112228,-12.572602272033691
1.7294959676745562e+18,-0.09677543491125107,0.06319662928581238,-12.587685585021973
1.7294959676835564e+18,-0.05623551830649376,0.12939795851707458,-12.530263900756836
1.7294959676895565e+18,-0.08024942129850388,0.11952099204063416,-12.369406700134277
1.7294959676985567e+18,-0.028259672224521637,0.12289873510599136,-12.179171562194824
1.7294959677045568e+18,-0.06896589696407318,0.06634654849767685,-11.897756576538086
1.729495967713557e+18,-0.07304607331752777,0.0773504450917244,-11.818705558776855
1.7294959677225572e+18,-0.03424973040819168,0.1418081521987915,-11.861031532287598
1.7294959677315574e+18,-0.07077638804912567,0.13733690977096558,-11.814128875732422
1.7294959677375575e+18,-0.049755994230508804,0.07831235229969025,-11.728279113769531
1.7294959677495578e+18,-0.040094297379255295,-0.004255734384059906,-11.570510864257812
1.729495967758558e+18,-0.037681154906749725,-0.03176140785217285,-11.465424537658691
1.7294959677675581e+18,-0.02738424576818943,0.05520709976553917,-11.436670303344727
1.7294959677735583e+18,-0.07856158912181854,0.0724014937877655,-11.354867935180664
1.7294959677825585e+18,-0.02132466621696949,0.04924740269780159,-11.229472160339355
1.7294959677885586e+18,-0.09625004976987839,-0.0017856992781162262,-11.177316665649414
1.7294959677975588e+18,-0.041440848261117935,-0.016748640686273575,-11.199769020080566
1.729495967806559e+18,-0.008853554725646973,0.10201988369226456,-11.129949569702148
1.729495967812559e+18,0.01984775811433792,0.027776626870036125,-10.98132038116455
1.7294959678215593e+18,-0.014540527015924454,0.07922123372554779,-10.962120056152344
1.7294959678305595e+18,0.015346545726060867,0.03816138952970505,-10.913227081298828
1.7294959678395597e+18,-0.028635462746024132,-0.025339212268590927,-10.844208717346191
1.7294959678455598e+18,0.026043053716421127,-0.019110407680273056,-10.852693557739258
1.72949596785456e+18,0.02976140007376671,0.04281814023852348,-10.720705032348633
1.7294959678635602e+18,-0.05543980747461319,0.04335632547736168,-10.784350395202637
1.7294959678695603e+18,0.025814851745963097,-0.012411898002028465,-10.703319549560547
1.7294959678785605e+18,0.07167021930217743,-0.06270519644021988,-10.77662467956543
1.7294959678845606e+18,-0.004570195451378822,0.03811778500676155,-10.689234733581543
1.7294959678935608e+18,-0.018529940396547318,-0.020991813391447067,-10.689218521118164
1.729495967902561e+18,0.027538523077964783,-0.0842878445982933,-10.687419891357422
1.7294959679115612e+18,0.014186415821313858,-0.05619683489203453,-10.595582008361816
1.7294959679175613e+18,-0.0046256547793745995,0.014456294476985931,-10.613626480102539
1.7294959679265615e+18,0.03345165029168129,-0.0057322620414197445,-10.577286720275879
1.7294959679325617e+18,-0.03388826176524162,0.026507321745157242,-10.624869346618652
1.7294959679415619e+18,-0.014926955103874207,0.00465219933539629,-10.627903938293457
1.729495967950562e+18,0.097252756357193,0.025133267045021057,-10.473451614379883
1.7294959679565622e+18,-0.015763090923428535,0.024753786623477936,-10.409308433532715
1.7294959679655624e+18,-0.05723056197166443,0.014680853113532066,-10.325785636901855
1.7294959679745626e+18,0.0032188696786761284,0.04209011793136597,-10.379932403564453
1.7294959679835628e+18,-0.03701658919453621,0.025103222578763962,-10.371418952941895
1.729495967989563e+18,-0.045922815799713135,0.017718499526381493,-10.269902229309082
1.729495967998563e+18,-0.03609992563724518,0.011789320036768913,-10.13290023803711
1.7294959680075633e+18,0.005665193311870098,-0.050191592425107956,-10.212014198303223
1.7294959680135634e+18,0.02426166832447052,0.11053606867790222,-10.189260482788086
1.7294959680225636e+18,0.05328717455267906,-0.011156512424349785,-10.195169448852539
1.7294959680315638e+18,-0.0016516633331775665,0.015344860032200813,-10.164514541625977
1.729495968040564e+18,0.02847808599472046,-0.0815592110157013,-10.001612663269043
1.729495968046564e+18,0.047091294080019,-0.07013969123363495,-10.019917488098145
1.7294959680555643e+18,0.006498104427009821,-0.0473245270550251,-9.914288520812988
1.7294959680645645e+18,-0.050970084965229034,0.05197267234325409,-9.93333625793457
1.7294959680705646e+18,0.016818787902593613,-0.008423959836363792,-9.874252319335938
1.7294959680795648e+18,0.0040901415050029755,-0.004980584140866995,-9.850210189819336
1.729495968088565e+18,-0.002394244074821472,0.030618172138929367,-9.975188255310059
1.729495968094565e+18,0.07512936741113663,0.0019479552283883095,-9.778101921081543
1.7294959681035653e+18,-0.032584697008132935,-0.02684045024216175,-9.818023681640625
1.7294959681125655e+18,0.035603396594524384,0.016996467486023903,-9.895042419433594
1.7294959681185656e+18,-0.03457405045628548,-0.005910757463425398,-9.886734008789062
