timestamp,accel_x,accel_y,accel_z
1.729496739006011e+18,0.02186347171664238,0.030450962483882904,-9.787734985351562
1.729496739012011e+18,-0.011695757508277893,0.020116306841373444,-9.737958908081055
1.7294967390240113e+18,0.056222882121801376,-0.003179201390594244,-9.808907508850098
1.7294967390330115e+18,0.0024028534535318613,-0.04658307880163193,-9.77811336517334
1.7294967390420116e+18,-0.028358956798911095,0.1039355993270874,-9.838370323181152
1.7294967390510118e+18,0.045902252197265625,-0.0007740610162727535,-9.806746482849121
1.729496739060012e+18,-0.0210830420255661,0.051677457988262177,-9.8099365234375
1.7294967390660122e+18,0.068602055311203,0.0007251225179061294,-9.78087329864502
1.7294967390720123e+18,0.0958334282040596,0.027991347014904022,-9.751425743103027
1.7294967390810125e+18,0.030913757160305977,-0.018428558483719826,-9.774954795837402
1.7294967390870126e+18,-0.03351091966032982,-0.0218049343675375,-9.808423042297363
1.7294967390960128e+18,-0.021319251507520676,-0.0451982282102108,-9.773127555847168
1.729496739105013e+18,-0.036997467279434204,-0.005259014666080475,-9.851224899291992
1.7294967391140132e+18,0.02105681411921978,0.00042666090303100646,-9.846497535705566
1.7294967391200133e+18,0.0072156148962676525,-0.07559934258460999,-9.75377082824707
1.7294967391320136e+18,-0.005121741443872452,0.06048102676868439,-9.82540512084961
1.7294967391410138e+18,-0.03936043754220009,-0.004464784637093544,-9.833080291748047
1.729496739150014e+18,-0.006632043514400721,-0.04391193389892578,-9.824652671813965
1.7294967391590141e+18,0.005735447630286217,0.07409686595201492,-9.854155540466309
1.7294967391680143e+18,0.058280959725379944,-0.042916521430015564,-9.800383567810059
1.7294967391770145e+18,-0.002373405499383807,0.08061131834983826,-9.84335994720459
1.7294967391890148e+18,-0.018494639545679092,0.057024996727705,-9.795351028442383
1.729496739198015e+18,-0.049051474779844284,-0.0008025693241506815,-9.844870567321777
1.7294967392070152e+18,0.019105488434433937,-0.03267872333526611,-9.842696189880371
1.7294967392160154e+18,-0.07443631440401077,0.0005016073700971901,-9.897918701171875
1.7294967392220155e+18,0.0015745609998703003,-0.07382221519947052,-9.821887016296387
1.7294967392310157e+18,0.028044672682881355,-0.026890426874160767,-9.795858383178711
1.729496739240016e+18,0.044719140976667404,-0.015729278326034546,-9.846980094909668
1.729496739246016e+18,0.03138967230916023,0.012847279198467731,-9.821114540100098
1.7294967392550162e+18,0.05616316199302673,-0.006552025210112333,-9.775171279907227
1.7294967392640164e+18,0.015367235988378525,0.01602928899228573,-9.735515594482422
1.7294967392730166e+18,0.018957672640681267,0.017965789884328842,-9.787299156188965
1.7294967392820168e+18,0.06135350838303566,0.015506114810705185,-9.767138481140137
1.729496739291017e+18,-0.015895728021860123,-0.06275259703397751,-9.78915023803711
1.7294967393000172e+18,-0.0017586391186341643,-0.024925552308559418,-9.74978256225586
1.7294967393090173e+18,0.03008761815726757,0.023005923256278038,-9.835037231445312
1.7294967393180175e+18,0.003222791710868478,0.03493909910321236,-9.775110244750977
1.7294967393270177e+18,0.04605275020003319,0.08317359536886215,-9.78808307647705
1.729496739336018e+18,0.040150970220565796,0.029529141262173653,-9.860166549682617
1.729496739342018e+18,0.01954973302781582,-0.03791022300720215,-9.851926803588867
1.7294967393510182e+18,0.04249878227710724,0.047634754329919815,-9.771183967590332
1.7294967393570184e+18,-0.03789425268769264,-0.007464987225830555,-9.801051139831543
1.7294967393630185e+18,-0.011085146106779575,-0.023683365434408188,-9.784530639648438
1.7294967393690186e+18,-0.04946975037455559,-0.013127284124493599,-9.787613868713379
1.7294967393750188e+18,-0.037761494517326355,-0.05031142383813858,-9.84109115600586
1.729496739381019e+18,-0.038788020610809326,0.04321008175611496,-9.865900039672852
1.729496739390019e+18,0.03082810342311859,0.007875706069171429,-9.77503490447998
1.7294967393990193e+18,-0.011494366452097893,0.04227668046951294,-9.775894165039062
1.7294967394050194e+18,-0.06966158002614975,-0.10671428591012955,-9.74924373626709
1.7294967394110195e+18,0.020773036405444145,-0.0776960477232933,-9.728423118591309
1.7294967394200197e+18,-0.012119824066758156,0.024354103952646255,-9.811382293701172
1.72949673942902e+18,-0.013046330772340298,0.019603349268436432,-9.884873390197754
1.72949673943502e+18,0.021382883191108704,0.039917781949043274,-9.91086483001709
1.7294967394410202e+18,-0.053781505674123764,0.073720283806324,-9.754966735839844
1.7294967394470203e+18,-9.937061258824542e-05,-0.000650725734885782,-9.801620483398438
1.7294967394560205e+18,0.01950259692966938,-0.15670719742774963,-9.82807731628418
1.7294967394650207e+18,-0.017285838723182678,-0.030297156423330307,-9.774758338928223
1.7294967394710208e+18,0.014101480133831501,-0.00980302318930626,-9.845495223999023
1.729496739477021e+18,-0.0017935187788680196,-0.007223654538393021,-9.812767028808594
1.729496739483021e+18,-0.002907167887315154,-0.04326143488287926,-9.855660438537598
1.7294967394890212e+18,-0.021111223846673965,-0.02900007925927639,-9.848557472229004
1.7294967394980214e+18,0.04252049699425697,0.06639592349529266,-9.811307907104492
1.7294967395070216e+18,0.03702595829963684,0.019497232511639595,-9.803922653198242
1.7294967395160218e+18,-0.012186829932034016,-0.012633484788239002,-9.834861755371094
1.729496739522022e+18,-0.03871540725231171,-0.028398362919688225,-9.852880477905273
1.729496739531022e+18,-0.04659958928823471,-0.02013719081878662,-9.803044319152832
1.7294967395370222e+18,-0.0038055358454585075,0.040654685348272324,-9.776697158813477
1.7294967395400223e+18,0.041039109230041504,0.0033155072014778852,-9.796268463134766
1.7294967395490225e+18,0.017294440418481827,0.023206833750009537,-9.841066360473633
1.7294967395580227e+18,0.007921986281871796,0.051823053508996964,-9.775351524353027
1.7294967395670228e+18,-0.026543227955698967,0.01446881890296936,-9.826171875
1.729496739576023e+18,-0.054585058242082596,0.026741549372673035,-9.868207931518555
1.7294967395850232e+18,0.06967338919639587,0.07062254101037979,-9.793423652648926
1.7294967395910234e+18,-0.019036395475268364,-0.08554244041442871,-9.834439277648926
1.7294967396000236e+18,-0.04157287999987602,0.025694865733385086,-9.850335121154785
1.7294967396090237e+18,0.0044402130879461765,0.052929434925317764,-9.828418731689453
1.7294967396120238e+18,-0.014349804259836674,0.01622750051319599,-9.764791488647461
1.729496739618024e+18,-0.02257094345986843,-0.046577975153923035,-9.815985679626465
1.7294967396270241e+18,0.02013578824698925,-0.0001287475461140275,-9.754504203796387
1.7294967396360243e+18,-0.007430160418152809,-0.042543794959783554,-9.844496726989746
1.7294967396450245e+18,0.017194999381899834,-0.06169945374131203,-9.842339515686035
1.7294967396510246e+18,0.024174978956580162,-0.06410787999629974,-9.842792510986328
1.7294967396600248e+18,0.026578670367598534,0.03252839297056198,-9.905111312866211
1.729496739669025e+18,-0.03843831643462181,-0.01767324097454548,-10.000269889831543
1.7294967396750252e+18,-0.023427795618772507,0.012358800508081913,-9.996702194213867
1.7294967396810253e+18,0.04010049253702164,-0.027007348835468292,-10.045907020568848
1.7294967396900255e+18,-0.0008312800200656056,0.04851923882961273,-10.171992301940918
1.7294967396990257e+18,-0.06290002167224884,-0.0014564471784979105,-10.26110553741455
1.7294967397080259e+18,-0.04106392711400986,0.0441364124417305,-10.175519943237305
1.729496739717026e+18,-0.04298332333564758,0.01989361084997654,-10.238395690917969
1.7294967397260262e+18,0.07210807502269745,0.050297241657972336,-10.257570266723633
1.7294967397350264e+18,-0.028332745656371117,-0.017462559044361115,-10.355865478515625
1.7294967397440266e+18,-0.043615538626909256,0.08892650902271271,-10.322070121765137
1.7294967397500268e+18,-0.06768828630447388,0.054547470062971115,-10.41364860534668
1.729496739756027e+18,-0.009161857888102531,0.0027029700577259064,-10.432290077209473
1.729496739765027e+18,0.0020888105500489473,-0.02052301913499832,-10.577434539794922
1.7294967397710272e+18,0.014750450849533081,0.0022757784463465214,-10.538124084472656
1.7294967397770273e+18,-0.034099943935871124,0.011500392109155655,-10.582669258117676
1.7294967397860275e+18,-0.020078718662261963,-0.06580182164907455,-10.626836776733398
1.7294967397950277e+18,0.028902875259518623,0.046241503208875656,-10.588240623474121
1.729496739804028e+18,0.03741336613893509,0.13466273248195648,-10.666699409484863
1.729496739810028e+18,0.0034066138323396444,-0.003068597987294197,-10.653498649597168
1.7294967398190282e+18,0.002556507708504796,-0.06989464908838272,-10.75226879119873
1.7294967398280284e+18,0.013928258791565895,0.06524986028671265,-10.712492942810059
1.7294967398340285e+18,0.03719925880432129,-0.004121997393667698,-10.781621932983398
1.7294967398430287e+18,-0.08185575902462006,0.000327062705764547,-10.816221237182617
1.729496739852029e+18,-0.014993946999311447,0.14345130324363708,-10.740748405456543
1.7294967398640292e+18,0.07593593746423721,-0.026134490966796875,-10.868669509887695
1.7294967398700293e+18,0.029938820749521255,-0.01461158599704504,-10.932638168334961
1.7294967398790295e+18,0.10644474625587463,0.05039167404174805,-10.936838150024414
1.7294967398880297e+18,0.017625905573368073,0.05532964691519737,-10.934504508972168
1.7294967398940298e+18,-0.03379467502236366,0.02000255696475506,-11.003599166870117
1.72949673990303e+18,0.01823722943663597,-0.03173796460032463,-11.06668758392334
1.7294967399150303e+18,0.09687721729278564,-0.1018054336309433,-11.092610359191895
1.7294967399240305e+18,0.015507056377828121,0.05801766365766525,-11.198318481445312
1.7294967399300306e+18,-0.019991351291537285,-0.012568783015012741,-11.120577812194824
1.7294967399360307e+18,-0.009266674518585205,0.04749840870499611,-11.071393966674805
1.729496739945031e+18,0.008037276566028595,-0.036859165877103806,-11.174433708190918
1.729496739954031e+18,0.0013864747015759349,-0.008223963901400566,-11.256556510925293
1.7294967399630313e+18,-0.048637013882398605,0.028360893949866295,-11.193109512329102
1.7294967399690314e+18,0.03893159702420235,0.07321266084909439,-11.244540214538574
1.7294967399750316e+18,0.05996280908584595,0.0056507219560444355,-11.27301025390625
1.7294967399840317e+18,-0.020564094185829163,-0.01570495218038559,-11.257734298706055
1.729496739990032e+18,-0.07905169576406479,0.0033599399030208588,-11.237789154052734
1.729496739999032e+18,0.021834172308444977,0.016153546050190926,-11.316718101501465
1.7294967400080323e+18,0.0334523543715477,0.055233754217624664,-11.253774642944336
1.7294967400170324e+18,0.039172664284706116,-0.08522778004407883,-11.368897438049316
1.7294967400260326e+18,0.012266624718904495,-0.025851916521787643,-11.410029411315918
1.7294967400350328e+18,-0.0032623535953462124,-0.05557602271437645,-11.437051773071289
1.729496740044033e+18,0.016343342140316963,0.014043895527720451,-11.434492111206055
1.7294967400530332e+18,0.020589446648955345,0.015687406063079834,-11.433629035949707
1.7294967400620334e+18,-0.004155128728598356,-0.014234326779842377,-11.451108932495117
1.7294967400710336e+18,0.015331096015870571,-0.06214749440550804,-11.439215660095215
1.7294967400800338e+18,-0.04506632313132286,-0.022485479712486267,-11.3446683883667
1.729496740092034e+18,-0.043351005762815475,-0.00781961902976036,-11.461050987243652
1.7294967401010342e+18,0.0672135204076767,0.0007191439508460462,-11.550265312194824
1.7294967401100344e+18,0.001970691606402397,0.022425880655646324,-11.587968826293945
1.7294967401190346e+18,-0.03387622907757759,0.021710919216275215,-11.583111763000488
1.7294967401280348e+18,0.040733251720666885,0.036863453686237335,-11.61976146697998
1.729496740137035e+18,-0.004088381305336952,0.03907652571797371,-11.66472339630127
1.7294967401460352e+18,0.04505883529782295,0.033147722482681274,-11.577978134155273
1.7294967401550354e+18,-0.007360801100730896,-0.03614753112196922,-11.663224220275879
1.7294967401640356e+18,-0.07750190794467926,-0.025008099153637886,-11.666947364807129
1.7294967401730358e+18,0.033701829612255096,0.032089561223983765,-11.660717964172363
1.729496740185036e+18,0.047993406653404236,0.03880646824836731,-11.63575553894043
1.7294967401910362e+18,0.005824212916195393,0.04463084414601326,-11.769392013549805
1.7294967402000364e+18,-0.006892784498631954,0.04493722692131996,-11.692538261413574
1.7294967402090365e+18,-0.03698897361755371,-0.020568151026964188,-11.67834186553955
1.7294967402180367e+18,-0.04747848957777023,0.0932152196764946,-11.789539337158203
1.729496740227037e+18,0.05194021016359329,-0.004437915049493313,-11.803675651550293
1.729496740236037e+18,-0.01796271651983261,-0.013957441784441471,-11.715266227722168
1.7294967402450373e+18,0.03224022313952446,-0.00869509857147932,-11.706941604614258
1.7294967402540375e+18,0.0784970298409462,-0.10833369195461273,-11.7374849319458
1.7294967402630377e+18,-0.004494914319366217,0.020678240805864334,-11.79444694519043
1.729496740272038e+18,0.057897403836250305,-0.018642449751496315,-11.84346866607666
1.729496740278038e+18,-0.0541684553027153,-3.48483445122838e-06,-11.819079399108887
1.7294967402870382e+18,0.019085440784692764,0.06401947885751724,-11.852478981018066
1.7294967402960384e+18,-0.03248372673988342,-0.009263262152671814,-11.91080093383789
1.7294967403050386e+18,-0.02715795859694481,0.0010759567376226187,-11.85008430480957
1.7294967403140388e+18,0.021942052990198135,-0.07596290856599808,-11.872088432312012
1.729496740323039e+18,-0.03573360666632652,-0.03412863239645958,-11.879294395446777
1.7294967403320392e+18,-0.0458906888961792,-0.005705219693481922,-11.848483085632324
1.7294967403380393e+18,0.029962988570332527,0.060421187430620193,-11.837921142578125
1.7294967403470395e+18,-0.03351559489965439,-0.009664325974881649,-11.860339164733887
1.7294967403530396e+18,-0.042392097413539886,-0.07315485924482346,-11.874032020568848
1.7294967403620398e+18,-0.022496934980154037,-0.0266877431422472,-11.873482704162598
1.72949674036804e+18,-0.023946430534124374,0.0005538201658055186,-11.902911186218262
1.7294967403770401e+18,-0.05674448981881142,0.023751717060804367,-11.857382774353027
1.7294967403830403e+18,0.02361832745373249,-0.11454105377197266,-11.931464195251465
1.7294967403920404e+18,-0.05014064162969589,-0.13275396823883057,-11.929350852966309
1.7294967403980406e+18,0.041394367814064026,0.006482473108917475,-11.891266822814941
1.7294967404070408e+18,-0.03808791935443878,-0.024625197052955627,-11.852961540222168
1.729496740413041e+18,-0.026164013892412186,0.03874162957072258,-11.901297569274902
1.729496740419041e+18,0.024954842403531075,-0.004633059725165367,-12.017277717590332
1.7294967404250412e+18,-0.007438932545483112,0.06401817500591278,-11.915162086486816
1.7294967404310413e+18,-0.027504194527864456,-0.02721231058239937,-11.912383079528809
1.7294967404370414e+18,0.023426510393619537,-0.014521204866468906,-12.044513702392578
1.7294967404430415e+18,0.0050353496335446835,0.07361674308776855,-11.938520431518555
1.7294967404520417e+18,-0.10263292491436005,-0.12262118607759476,-11.937929153442383
1.729496740461042e+18,-0.013884933665394783,-0.0310896597802639,-11.936150550842285
1.729496740467042e+18,-0.046421587467193604,0.09846582263708115,-12.012421607971191
1.7294967404730422e+18,-0.013324802741408348,-0.0013990242732688785,-11.988920211791992
1.7294967404790423e+18,0.06785990297794342,-0.036985743790864944,-11.923602104187012
1.7294967404850424e+18,-0.042248789221048355,-0.03742728754878044,-11.973731994628906
1.7294967404940426e+18,0.02883530966937542,-0.0037926407530903816,-11.932602882385254
1.7294967405000428e+18,0.011583610437810421,0.01179343182593584,-11.936321258544922
1.729496740509043e+18,0.03998385742306709,-0.013727857731282711,-11.959836959838867
1.729496740512043e+18,-0.1472322642803192,0.006062118336558342,-11.98377799987793
1.7294967405180431e+18,0.041321057826280594,0.02637261152267456,-12.022784233093262
1.7294967405240433e+18,0.07600085437297821,0.08159977197647095,-12.102041244506836
1.7294967405330435e+18,0.025731179863214493,-0.062030013650655746,-11.998564720153809
1.7294967405390436e+18,0.028567710891366005,-0.005970897153019905,-12.012228965759277
1.7294967405450437e+18,-0.05365995317697525,-0.017978524789214134,-11.998688697814941
1.729496740554044e+18,-0.008660977706313133,0.0249550212174654,-11.993780136108398
1.729496740560044e+18,0.05341115593910217,0.044670797884464264,-12.001728057861328
1.7294967405660442e+18,-0.016226977109909058,0.017748385667800903,-12.079113960266113
1.7294967405720443e+18,-0.029011089354753494,0.006124578882008791,-12.080240249633789
1.7294967405780444e+18,-0.013967378996312618,-0.0182885080575943,-12.002470016479492
1.7294967405870446e+18,0.01902180165052414,0.042612552642822266,-12.024824142456055
1.7294967405960448e+18,0.022339753806591034,0.11019279062747955,-12.017640113830566
1.7294967405990449e+18,-0.06883712857961655,0.02822738140821457,-11.910493850708008
1.729496740605045e+18,-0.045688942074775696,-0.034858059138059616,-11.997254371643066
1.7294967406140452e+18,-0.00960262306034565,-0.015574929304420948,-12.028717994689941
1.7294967406200453e+18,0.06022180989384651,0.0461488775908947,-12.000798225402832
1.7294967406260454e+18,0.03786443546414375,0.03797530382871628,-12.010697364807129
1.7294967406350456e+18,0.03237073868513107,0.13469216227531433,-12.047866821289062
1.7294967406440458e+18,0.02163001149892807,-0.043998271226882935,-12.076581001281738
1.729496740650046e+18,-0.031144987791776657,-0.0211190152913332,-11.984594345092773
1.729496740656046e+18,-0.0015555286081507802,0.016677699983119965,-12.028701782226562
1.7294967406650463e+18,-0.03455140069127083,-0.005269947461783886,-11.948628425598145
1.7294967406680463e+18,0.05240115150809288,-0.055403560400009155,-12.016849517822266
1.7294967406770465e+18,-0.035378143191337585,0.02149975299835205,-12.046807289123535
1.7294967406800466e+18,-0.06143072992563248,0.009921075776219368,-12.031418800354004
1.7294967406890468e+18,-0.036766618490219116,0.04110143333673477,-12.00649642944336
1.7294967406920468e+18,-0.040307968854904175,0.04269105941057205,-12.076131820678711
1.729496740701047e+18,0.04551081731915474,0.009092914871871471,-11.998120307922363
1.7294967407100472e+18,-0.10355891287326813,-0.00013589864829555154,-12.03342342376709
1.7294967407190474e+18,-0.03313237801194191,-0.06057130917906761,-11.976653099060059
1.7294967407280476e+18,-0.008417170494794846,0.09962215274572372,-12.007417678833008
1.7294967407370478e+18,0.039078980684280396,0.012509080581367016,-12.037370681762695
1.729496740746048e+18,-0.06768831610679626,-0.010755602270364761,-12.050578117370605
1.7294967407550482e+18,-0.02027084492146969,0.02152154967188835,-11.974498748779297
1.7294967407640484e+18,0.053648147732019424,-0.036783963441848755,-12.027335166931152
1.7294967407700485e+18,-0.059689730405807495,-0.0339088961482048,-12.014342308044434
1.7294967407760486e+18,-0.00413542240858078,0.030859198421239853,-11.969056129455566
1.7294967407820488e+18,-0.029556358233094215,0.08186973631381989,-12.009703636169434
1.729496740788049e+18,-0.055576615035533905,-0.04824548587203026,-12.031540870666504
1.729496740797049e+18,0.05089309439063072,0.003906057681888342,-11.968965530395508
1.7294967408030492e+18,-0.027088111266493797,0.050989799201488495,-11.975898742675781
1.7294967408060493e+18,0.060836296528577805,-0.04723679646849632,-12.05228042602539
1.7294967408120494e+18,0.008743622340261936,-0.10038042068481445,-11.942048072814941
1.7294967408180495e+18,-0.006026295945048332,-0.05699934437870979,-12.03049373626709
1.7294967408240497e+18,0.011542700231075287,0.010039843618869781,-11.994776725769043
1.7294967408270497e+18,0.004471981897950172,-0.01988021656870842,-12.021506309509277
1.72949674083605e+18,0.06355175375938416,0.0706447884440422,-12.029547691345215
1.72949674084205e+18,0.004722157027572393,0.04318380355834961,-12.046902656555176
1.7294967408480502e+18,-0.010770613327622414,0.04941903054714203,-11.960022926330566
1.7294967408540503e+18,0.03596503660082817,0.07794620096683502,-11.968931198120117
1.7294967408630505e+18,-0.005690404679626226,-0.007341380231082439,-11.820154190063477
1.7294967408720507e+18,-0.01997295208275318,0.029430095106363297,-11.741166114807129
1.7294967408780508e+18,-0.019380955025553703,-0.06118273362517357,-11.78573989868164
1.729496740884051e+18,-0.013085565529763699,-0.009753014892339706,-11.75265121459961
1.7294967408930511e+18,0.028436940163373947,-0.01875060610473156,-11.748002052307129
1.7294967408990513e+18,-0.013700434938073158,0.035362813621759415,-11.71773910522461
1.7294967409050514e+18,-0.021168822422623634,-0.007905741222202778,-11.704460144042969
1.7294967409140516e+18,0.057914406061172485,0.032961126416921616,-11.672792434692383
1.7294967409200517e+18,0.03899175301194191,-0.01144479215145111,-11.590039253234863
1.7294967409260518e+18,0.02772250957787037,-0.07551632821559906,-11.617371559143066
1.729496740935052e+18,-0.05520954728126526,0.025857700034976006,-11.487256050109863
1.7294967409440522e+18,0.08436189591884613,0.09104429930448532,-11.48184585571289
1.7294967409530524e+18,0.06710163503885269,0.057447612285614014,-11.458436965942383
1.7294967409620526e+18,-0.10742094367742538,0.09781324118375778,-11.384695053100586
1.7294967409680527e+18,0.09478303790092468,0.0016713585937395692,-11.429298400878906
1.729496740977053e+18,0.05302165076136589,0.006946424953639507,-11.352182388305664
1.729496740983053e+18,-0.07248295843601227,-0.0944816917181015,-11.38989543914795
1.7294967409890532e+18,0.06679633259773254,-0.017632968723773956,-11.298480033874512
1.7294967409980534e+18,0.036435555666685104,0.025910748168826103,-11.400408744812012
1.7294967410070536e+18,-0.018919335678219795,0.04770736023783684,-11.251798629760742
1.7294967410160538e+18,-0.04726366698741913,-0.06539560109376907,-11.283519744873047
1.729496741022054e+18,-0.10746453702449799,0.025132806971669197,-11.195226669311523
1.729496741028054e+18,0.04260949045419693,-0.03579800948500633,-11.218844413757324
1.7294967410370542e+18,0.005555972456932068,-0.011399888433516026,-11.159332275390625
1.7294967410430543e+18,0.013965889811515808,0.03443358838558197,-11.239252090454102
1.7294967410490545e+18,0.05841180309653282,-0.01752663031220436,-11.14903450012207
1.7294967410550546e+18,-0.07288287580013275,0.02895338088274002,-11.062352180480957
1.7294967410640548e+18,0.0430019237101078,-0.046996813267469406,-11.051834106445312
1.729496741070055e+18,-0.01809868775308132,0.04014125093817711,-11.097366333007812
1.729496741079055e+18,0.015121960081160069,0.05320240557193756,-11.111285209655762
1.7294967410850552e+18,-0.02889302186667919,-0.01042204536497593,-11.02241039276123
1.7294967410910554e+18,0.049060650169849396,0.016627643257379532,-10.952703475952148
1.7294967410970555e+18,0.03454388305544853,0.03855608031153679,-10.978062629699707
1.7294967411060557e+18,-0.014059191569685936,-0.005340373143553734,-10.967999458312988
1.7294967411150559e+18,0.03433764725923538,0.02135215885937214,-10.918792724609375
1.729496741121056e+18,0.03554385155439377,-0.010648027062416077,-10.872424125671387
1.7294967411300562e+18,-0.02854170836508274,0.058587271720170975,-10.933505058288574
1.7294967411360563e+18,0.021783974021673203,0.02690986916422844,-10.917255401611328
1.7294967411450565e+18,0.000742147967685014,-0.010583002120256424,-10.840359687805176
1.7294967411540567e+18,0.046271637082099915,-0.008010495454072952,-10.821420669555664
1.729496741163057e+18,-0.033439312130212784,0.027409760281443596,-10.873424530029297
1.729496741172057e+18,-0.01470914576202631,0.01140822283923626,-10.85151481628418
1.7294967411810573e+18,0.06086350604891777,0.06735126674175262,-10.749754905700684
1.7294967411870574e+18,-0.027345754206180573,0.027425598353147507,-10.78066635131836
1.7294967411960576e+18,0.012031277641654015,-0.04798603802919388,-10.817708015441895
1.7294967412050578e+18,0.07866525650024414,-0.01152796484529972,-10.746489524841309
1.729496741214058e+18,-0.008863924071192741,-0.030617743730545044,-10.767598152160645
1.7294967412230582e+18,0.015282410196959972,0.027125678956508636,-10.693827629089355
1.7294967412290583e+18,-0.025452030822634697,-0.02235637977719307,-10.624725341796875
1.7294967412380585e+18,-0.05093841627240181,0.02145286649465561,-10.685826301574707
1.7294967412470587e+18,0.008762410841882229,-0.054186008870601654,-10.664278984069824
1.729496741256059e+18,-0.06620695441961288,-0.05687033012509346,-10.635334968566895
1.729496741265059e+18,0.010939384810626507,-0.041933704167604446,-10.70528507232666
1.7294967412740593e+18,0.011857312172651291,-0.017182879149913788,-10.538219451904297
1.7294967412800594e+18,-0.03916236758232117,0.011166502721607685,-10.61560344696045
1.7294967412890596e+18,-0.06230289861559868,-0.03576872497797012,-10.629590034484863
1.7294967412950597e+18,0.07731704413890839,-0.03220590576529503,-10.571646690368652
1.72949674130406e+18,-0.03051897883415222,-0.06008867546916008,-10.6025972366333
1.72949674131006e+18,-0.10494151711463928,0.02155611477792263,-10.525551795959473
1.7294967413190602e+18,-0.00933097768574953,-0.007160271517932415,-10.557282447814941
1.7294967413280604e+18,-0.001112397643737495,-0.03668634220957756,-10.483925819396973
1.7294967413370606e+18,0.08703476935625076,-0.010445029474794865,-10.4771728515625
1.7294967413490609e+18,0.010915766470134258,0.0010861566988751292,-10.410704612731934
1.729496741358061e+18,-0.08170828968286514,-0.0065271612256765366,-10.470545768737793
1.7294967413670612e+18,-0.031056199222803116,-0.06599152833223343,-10.437654495239258
1.7294967413760614e+18,0.0475010983645916,-0.008476225659251213,-10.40951156616211
1.7294967413880617e+18,-0.0048577748239040375,0.016878195106983185,-10.383480072021484
1.729496741397062e+18,-0.06113281846046448,-0.04411254823207855,-10.447528839111328
1.729496741406062e+18,0.04790743067860603,-0.03796088322997093,-10.392647743225098
1.7294967414150623e+18,0.03760266304016113,0.05924123525619507,-10.332853317260742
1.7294967414240625e+18,-0.12865696847438812,0.05075724422931671,-10.335012435913086
1.7294967414330627e+18,0.020720358937978745,-0.05391472578048706,-10.256704330444336
1.7294967414420628e+18,-0.010227100923657417,-0.06231427565217018,-10.369696617126465
1.729496741451063e+18,-0.06758025288581848,0.018002234399318695,-10.400015830993652
1.7294967414600632e+18,0.05211741849780083,-0.053644388914108276,-10.399764060974121
1.7294967414690634e+18,-0.0028502317145466805,-0.048613544553518295,-10.286364555358887
1.7294967414780636e+18,-0.0072199259884655476,0.019164888188242912,-10.288544654846191
1.7294967414870638e+18,-0.02145059034228325,0.06176949292421341,-10.270776748657227
1.729496741499064e+18,-0.009967777878046036,0.027822978794574738,-10.252959251403809
1.7294967415080643e+18,0.12897036969661713,-0.0652509480714798,-10.258076667785645
1.7294967415170644e+18,0.07966604083776474,0.02701006643474102,-10.170647621154785
1.7294967415260646e+18,-0.038629986345767975,0.00879584439098835,-10.247947692871094
1.7294967415320648e+18,-0.001265888917259872,0.023893233388662338,-10.29216194152832
1.729496741538065e+18,-0.009202214889228344,0.03846535459160805,-10.229047775268555
1.729496741544065e+18,0.07148200273513794,-0.01471114344894886,-10.222334861755371
1.7294967415500652e+18,0.011145906522870064,0.010507741011679173,-10.267516136169434
1.7294967415590653e+18,-0.05697105824947357,-0.06633524596691132,-10.277732849121094
1.7294967415650655e+18,-0.001842786674387753,0.006069052033126354,-10.172797203063965
1.7294967415710656e+18,0.05026228725910187,-0.004563966765999794,-10.2024564743042
1.7294967415770657e+18,-0.10965495556592941,0.0005884732236154377,-10.12415885925293
1.729496741586066e+18,0.02474105916917324,-0.028463102877140045,-10.170659065246582
1.729496741592066e+18,-0.004325047135353088,0.04871881380677223,-10.162181854248047
1.7294967415980662e+18,0.015865568071603775,0.006278889253735542,-10.209420204162598
1.7294967416040663e+18,0.021219555288553238,-0.06383142620325089,-10.150501251220703
1.7294967416130665e+18,0.0025331908836960793,-0.017335839569568634,-10.067290306091309
1.7294967416190666e+18,-0.047565437853336334,0.044325243681669235,-10.154854774475098
1.7294967416280668e+18,-0.03954114019870758,-0.06798895448446274,-10.136261940002441
1.729496741634067e+18,-0.010267119854688644,0.0021584632340818644,-10.107686996459961
1.729496741640067e+18,0.02557455003261566,0.08314355462789536,-10.141560554504395
1.7294967416490673e+18,0.037062060087919235,0.049142178148031235,-10.07987117767334
1.7294967416550674e+18,0.013036769814789295,0.02300833724439144,-10.149210929870605
1.7294967416640676e+18,-0.052468784153461456,-0.094805508852005,-10.107477188110352
1.7294967416700677e+18,-0.0028044278733432293,-0.028254874050617218,-10.147909164428711
1.7294967416760678e+18,0.0398341603577137,-0.015613213181495667,-10.047955513000488
1.729496741685068e+18,-0.007347581442445517,-0.011893120594322681,-10.153289794921875
1.7294967416910682e+18,0.014292070642113686,-0.04278815910220146,-10.072575569152832
1.7294967417000684e+18,0.059649381786584854,-0.03402850776910782,-10.01095962524414
1.7294967417060685e+18,-0.007144093979150057,0.07319650799036026,-10.034805297851562
1.7294967417120686e+18,0.002405265811830759,-0.044399432837963104,-10.186205863952637
1.7294967417180687e+18,0.027624817565083504,0.006327694747596979,-10.012253761291504
1.729496741727069e+18,0.023896506056189537,0.02083655633032322,-10.093048095703125
1.729496741733069e+18,0.015272362157702446,0.05923248082399368,-9.979752540588379
1.7294967417420692e+18,-0.030526230111718178,0.08601761609315872,-9.982438087463379
1.7294967417480694e+18,-0.0017309922259300947,0.02153390645980835,-10.142586708068848
1.7294967417540695e+18,0.04327266663312912,0.06978849321603775,-9.973430633544922
1.7294967417630697e+18,0.010433153249323368,0.02231660857796669,-10.030393600463867
1.7294967417690698e+18,0.08374345302581787,-0.023629916831851006,-10.033306121826172
1.72949674177807e+18,0.0044860015623271465,0.011046189814805984,-10.115811347961426
1.7294967417870702e+18,0.019075259566307068,0.009363268502056599,-9.907842636108398
1.7294967417930703e+18,-0.055343132466077805,-0.043993785977363586,-10.00490665435791
1.7294967418020705e+18,0.04619479551911354,0.011184816248714924,-9.96959114074707
1.7294967418110707e+18,-0.06809931248426437,0.001477849087677896,-10.019087791442871
1.7294967418170708e+18,0.0022568318527191877,0.05657678097486496,-10.028424263000488
1.729496741823071e+18,-0.048713814467191696,0.037578027695417404,-9.967658042907715
1.729496741829071e+18,-0.0515827052295208,0.05769764631986618,-10.040395736694336
1.7294967418350712e+18,-0.018214622512459755,0.018972881138324738,-10.018497467041016
1.7294967418440714e+18,-0.0008899202803149819,0.035524021834135056,-10.043965339660645
1.7294967418530716e+18,-0.0019355375552549958,-0.05246226489543915,-9.934296607971191
1.7294967418590717e+18,-0.05940995365381241,0.0319114588201046,-9.972649574279785
1.7294967418650719e+18,0.02924445830285549,-0.061041317880153656,-9.946772575378418
1.729496741871072e+18,0.028558138757944107,0.008801386691629887,-9.896317481994629
1.7294967418800722e+18,-0.04205029457807541,0.004020860884338617,-9.928860664367676
1.7294967418860723e+18,-0.019598698243498802,0.003792568575590849,-9.946982383728027
1.7294967418920724e+18,0.05370702967047691,-0.06659457087516785,-9.885078430175781
1.7294967418980726e+18,0.037099555134773254,0.01434750109910965,-9.977370262145996
1.7294967419040727e+18,0.014202309772372246,-0.019620461389422417,-9.850406646728516
1.729496741913073e+18,0.07157625257968903,0.007255712058395147,-9.973840713500977
1.729496741922073e+18,-0.0673152506351471,0.02673349902033806,-10.011780738830566
1.7294967419280732e+18,-0.0822501927614212,0.02952025830745697,-9.984285354614258
1.7294967419370734e+18,-0.03256770223379135,-0.007062284741550684,-9.965566635131836
1.7294967419430735e+18,-0.026535440236330032,0.07463029026985168,-9.965108871459961
1.7294967419520737e+18,-0.06287896633148193,-0.011606309562921524,-9.942057609558105
1.729496741961074e+18,0.010211678221821785,0.06288839876651764,-9.91063117980957
1.729496741970074e+18,0.05002310872077942,0.020864900201559067,-10.039512634277344
1.7294967419760742e+18,0.006248041056096554,-0.0011967977043241262,-10.015291213989258
1.7294967419850744e+18,-0.060339655727148056,-0.029867852106690407,-9.902857780456543
1.7294967419940746e+18,-0.013491321355104446,-0.00381127605214715,-9.895889282226562
1.7294967420030748e+18,0.0328453853726387,0.044939883053302765,-9.813055038452148
1.729496742012075e+18,-0.003524462692439556,0.08574750274419785,-9.973150253295898
1.7294967420210752e+18,0.04592835530638695,0.02810348942875862,-9.91232967376709
1.7294967420270753e+18,0.037664663046598434,0.06519821286201477,-9.911992073059082
1.7294967420330755e+18,-0.07625346630811691,-0.1396762728691101,-10.001130104064941
1.7294967420390756e+18,0.01083381287753582,-0.025930073112249374,-9.949692726135254
1.7294967420480758e+18,0.03309984132647514,0.07299894839525223,-10.000296592712402
1.729496742057076e+18,0.00400521419942379,-0.0011570235947147012,-9.888504028320312
1.7294967420660762e+18,-0.021671801805496216,0.03422638773918152,-9.854522705078125
1.7294967420720763e+18,-0.05185505375266075,-0.03633518144488335,-9.930205345153809
1.7294967420780764e+18,-0.0606934130191803,0.01679856888949871,-9.899615287780762
1.7294967420870766e+18,0.10931501537561417,0.005599527154117823,-9.857608795166016
1.7294967420960768e+18,-0.016565967351198196,0.04099557548761368,-9.877318382263184
1.729496742102077e+18,-0.002646505367010832,-0.010226001963019371,-9.849684715270996
1.729496742111077e+18,0.010623399168252945,0.024367567151784897,-9.781914710998535
1.7294967421200773e+18,-0.12369010597467422,0.06796037405729294,-9.83279037475586
1.7294967421290775e+18,0.036872897297143936,-0.04179440066218376,-9.852253913879395
1.7294967421380777e+18,-0.02542722597718239,-0.05721277743577957,-9.896069526672363
1.729496742147078e+18,0.004487304948270321,-0.004300696309655905,-9.907928466796875
1.729496742156078e+18,-0.06356735527515411,0.007729741744697094,-9.822896957397461
1.7294967421620782e+18,-0.005193029996007681,-0.03698118031024933,-9.885208129882812
1.7294967421680783e+18,-0.038672707974910736,-0.011735589243471622,-9.896353721618652
1.7294967421800786e+18,-0.06732958555221558,-0.012000354006886482,-9.849996566772461
1.7294967421830787e+18,0.059155143797397614,0.0008826691773720086,-9.863280296325684
1.7294967421920788e+18,0.027774740010499954,-0.02820560336112976,-9.873103141784668
1.729496742201079e+18,-0.05738857015967369,-0.016163503751158714,-9.890921592712402
1.7294967422100792e+18,0.0498850978910923,-0.05484906584024429,-9.797316551208496
1.7294967422130793e+18,0.050122205168008804,0.008113675750792027,-9.850683212280273
1.7294967422220795e+18,-0.009523319080471992,0.009754057042300701,-9.810188293457031
1.7294967422280796e+18,-0.004632365424185991,-0.027114635333418846,-9.842267990112305
1.7294967422370798e+18,0.059257399290800095,-0.03514435142278671,-9.892023086547852
1.72949674224308e+18,0.006019499618560076,0.046838387846946716,-9.813145637512207
1.72949674224908e+18,0.11254231631755829,-0.029656801372766495,-9.866007804870605
1.7294967422550802e+18,-0.026165859773755074,-0.013030637986958027,-9.921825408935547
1.7294967422610803e+18,-0.01646854542195797,0.033185604959726334,-9.863729476928711
1.7294967422670804e+18,-0.018818996846675873,-0.038003139197826385,-9.898489952087402
1.7294967422730806e+18,0.011919100768864155,0.04409799352288246,-9.755267143249512
1.7294967422790807e+18,0.0371348075568676,0.0016468999674543738,-9.822823524475098
1.7294967422850808e+18,0.06862185150384903,-0.026161296293139458,-9.897576332092285
1.729496742294081e+18,0.04397616907954216,-0.027329105883836746,-9.7864990234375
1.7294967423000812e+18,-0.03401873633265495,0.08020755648612976,-9.770940780639648
1.7294967423060813e+18,0.03940683230757713,0.045849818736314774,-9.832357406616211
1.7294967423150815e+18,0.01731812208890915,-0.03719811141490936,-9.7387056350708
1.7294967423240817e+18,-0.025047818198800087,-0.028330422937870026,-9.85130786895752
1.7294967423300818e+18,0.026325099170207977,0.07378029823303223,-9.81180477142334
1.729496742336082e+18,-0.033662162721157074,0.007073128130286932,-9.80598258972168
1.729496742342082e+18,-0.01433963980525732,0.027252202853560448,-9.829998016357422
1.7294967423480822e+18,0.04523337259888649,-0.028766637668013573,-9.857382774353027
1.7294967423540823e+18,-0.0006358582759276032,0.03931311145424843,-9.784852027893066
1.7294967423630825e+18,0.04134735092520714,-0.021504173055291176,-9.83113956451416
1.7294967423720827e+18,-0.020251164212822914,0.004612130578607321,-9.894007682800293
1.7294967423780828e+18,0.052470721304416656,-0.003309429157525301,-9.90977954864502
1.729496742384083e+18,-0.04462258517742157,-0.014946281909942627,-9.797956466674805
1.7294967423930831e+18,0.008269916288554668,0.023450303822755814,-9.859466552734375
1.7294967424020833e+18,0.011580848135054111,-0.09705234318971634,-9.85590934753418
1.7294967424110835e+18,0.00775796826928854,0.012185206636786461,-9.80636215209961
1.7294967424170836e+18,0.04233340173959732,0.009618706069886684,-9.845071792602539
1.7294967424260838e+18,0.03313957527279854,0.019545018672943115,-9.8568115234375
1.729496742435084e+18,-0.010402826592326164,-0.048228368163108826,-9.855790138244629
1.7294967424410842e+18,-0.038751427084207535,0.02640879899263382,-9.761590957641602
1.7294967424500844e+18,0.007445317693054676,-0.047076862305402756,-9.727034568786621
1.7294967424560845e+18,-0.04793199524283409,0.07943787425756454,-9.882837295532227
1.7294967424620846e+18,0.08316270262002945,-0.046138420701026917,-9.86158561706543
1.7294967424710848e+18,0.03131168335676193,0.04467878118157387,-9.73087215423584
1.729496742480085e+18,0.04907988756895065,0.0884610116481781,-9.78754997253418
1.7294967424890852e+18,-0.005330176558345556,0.0008035244536586106,-9.746774673461914
1.7294967424950853e+18,0.007188935298472643,-0.04375143721699715,-9.885016441345215
1.7294967425040855e+18,0.06706438213586807,-0.040317241102457047,-9.7733736038208
1.7294967425130857e+18,-0.02276460826396942,0.024781648069620132,-9.80556583404541
1.729496742522086e+18,-0.020853297784924507,-0.03833438456058502,-9.751967430114746
1.729496742528086e+18,-0.06603509932756424,-0.024367142468690872,-9.89988899230957
1.7294967425340861e+18,-0.030630895867943764,-0.025495968759059906,-9.87028694152832
1.7294967425430863e+18,0.018377088010311127,0.01011087466031313,-9.800263404846191
1.7294967425520865e+18,-0.022015007212758064,-0.06836556643247604,-9.771495819091797
1.7294967425580867e+18,0.0035532359033823013,-0.013685230165719986,-9.804764747619629
1.7294967425670868e+18,-0.056039806455373764,-0.0017561217537149787,-9.8306884765625
1.729496742573087e+18,-0.023430094122886658,0.014511577785015106,-9.818836212158203
1.7294967425820872e+18,0.0292349886149168,-0.020293794572353363,-9.793888092041016
1.7294967425880873e+18,0.020258842036128044,0.022789690643548965,-9.814634323120117
1.7294967425970875e+18,0.013139603659510612,-0.011017419397830963,-9.805331230163574
1.7294967426030876e+18,0.0619211345911026,0.0133039066568017,-9.829328536987305
1.7294967426120878e+18,0.011730932630598545,-0.023113451898097992,-9.842363357543945
1.729496742618088e+18,-0.0031601220835000277,0.0061399852856993675,-9.744056701660156
1.7294967426270881e+18,-0.050584789365530014,-0.03369949385523796,-9.838302612304688
1.7294967426330883e+18,-0.027342084795236588,-0.006720532663166523,-9.811222076416016
1.7294967426390884e+18,0.03861786052584648,0.07895423471927643,-9.80949878692627
1.7294967426450885e+18,0.0014182552695274353,-0.03478805720806122,-9.829535484313965
1.7294967426540887e+18,-0.022419555112719536,0.01645357720553875,-9.810406684875488
1.729496742663089e+18,0.022118037566542625,0.06037822738289833,-9.786523818969727
1.729496742669089e+18,0.03650476783514023,0.053133949637413025,-9.728983879089355
1.7294967426780892e+18,0.02117227576673031,-0.032283179461956024,-9.768084526062012
1.7294967426870894e+18,0.016833681613206863,-0.0053750574588775635,-9.762612342834473
1.7294967426930895e+18,0.0735694095492363,-0.07335452735424042,-9.806533813476562
1.7294967427020897e+18,0.0426006093621254,-0.03535002842545509,-9.715301513671875
1.7294967427050898e+18,0.022469133138656616,-0.0003910975647158921,-9.819190979003906
1.72949674271709e+18,0.09420058876276016,0.06868152320384979,-9.847338676452637
1.7294967427260902e+18,-0.0694727674126625,-0.04640119895339012,-9.747553825378418
1.7294967427350904e+18,-0.03570134937763214,0.05763126164674759,-9.830504417419434
1.7294967427440906e+18,-0.05215982720255852,-0.06605546921491623,-9.741029739379883
1.7294967427500908e+18,-0.03337763622403145,0.002635982818901539,-9.781574249267578
1.729496742759091e+18,0.00030110328225418925,0.01943785510957241,-9.831744194030762
1.729496742765091e+18,0.006276695989072323,0.09321843832731247,-9.797658920288086
1.7294967427710912e+18,-0.0007622234406881034,0.06663291901350021,-9.795004844665527
1.7294967427800914e+18,0.027290653437376022,-0.012722867541015148,-9.878311157226562
1.7294967427890916e+18,0.00019024853827431798,0.1306845247745514,-9.754742622375488
1.7294967427980918e+18,-0.01118602603673935,0.047025416046381,-9.764999389648438
1.729496742807092e+18,-0.007430568803101778,0.04334095120429993,-9.81783390045166
1.7294967428160922e+18,-0.01023330632597208,0.05366882309317589,-9.930508613586426
1.7294967428220923e+18,-0.023427918553352356,-0.020496733486652374,-9.793196678161621
1.7294967428310925e+18,0.053404103964567184,-0.020344970747828484,-9.76877212524414
1.7294967428370926e+18,-0.007155286148190498,0.048372793942689896,-9.828871726989746
1.7294967428460928e+18,-0.0030880847480148077,0.050891611725091934,-9.669833183288574
1.729496742855093e+18,-0.013470517471432686,0.012871218845248222,-9.741961479187012
1.729496742861093e+18,-0.04180622845888138,-0.06101062521338463,-9.802494049072266
1.7294967428670932e+18,0.05380001291632652,-0.0916590541601181,-9.74876880645752
1.7294967428730934e+18,0.04720405861735344,-0.10116428136825562,-9.890836715698242
1.7294967428820936e+18,0.01131619606167078,-0.00210801069624722,-9.803252220153809
1.7294967428910938e+18,-0.05843516066670418,-0.027848156169056892,-9.802691459655762
1.729496742900094e+18,0.03968416154384613,-0.013706273399293423,-9.790188789367676
1.7294967429090941e+18,0.026267075911164284,0.016599174588918686,-9.76940631866455
1.7294967429180943e+18,-0.06105011701583862,-0.045146483927965164,-9.752002716064453
1.7294967429270945e+18,0.00735441455617547,0.005930785089731216,-9.782973289489746
1.7294967429330947e+18,0.04869502782821655,0.007148881908506155,-9.76415729522705
1.7294967429390948e+18,0.03731182590126991,0.04175373166799545,-9.738351821899414
1.729496742948095e+18,-0.005919186398386955,0.08652347326278687,-9.737142562866211
1.7294967429600952e+18,-0.0674881637096405,0.04515878111124039,-9.77519702911377
1.7294967429690954e+18,-0.01682855933904648,-0.015023899264633656,-9.785072326660156
1.7294967429780956e+18,-0.0419597253203392,-0.0323171392083168,-9.79477596282959
1.7294967429870958e+18,-0.010550882667303085,-0.012310436926782131,-9.758378028869629
1.729496742996096e+18,-0.06544551253318787,-0.023799901828169823,-9.8255615234375
1.7294967430050962e+18,-0.02876327745616436,-0.00440386775881052,-9.81900691986084
1.7294967430140964e+18,0.01065466832369566,-0.08098126202821732,-9.79088306427002
1.7294967430200965e+18,-0.02916092984378338,0.0758502259850502,-9.828629493713379
1.7294967430320968e+18,-0.008124306797981262,0.010731409303843975,-9.794244766235352
1.729496743038097e+18,-0.02040191926062107,-0.06050616875290871,-9.835005760192871
1.729496743047097e+18,0.05312343314290047,-0.03475148230791092,-9.767796516418457
1.7294967430560973e+18,-0.08581658452749252,-0.004728965926915407,-9.853620529174805
1.7294967430650975e+18,0.005202719010412693,-0.02351907640695572,-9.768610000610352
1.7294967430710976e+18,-0.0007700418354943395,-0.13866423070430756,-9.785338401794434
1.7294967430800978e+18,-0.08723431080579758,-0.023459812626242638,-9.854530334472656
1.729496743086098e+18,0.024094408378005028,-0.0060840779915452,-9.717214584350586
1.729496743095098e+18,-0.0350831039249897,-0.031678419560194016,-9.749378204345703
1.7294967431040983e+18,0.011708353646099567,-0.04158419743180275,-9.740293502807617
1.7294967431100984e+18,0.03554713353514671,0.046561166644096375,-9.730813026428223
1.7294967431190986e+18,-0.0023693908005952835,-0.015551242977380753,-9.808409690856934
1.7294967431250988e+18,0.021110201254487038,0.041265036910772324,-9.769648551940918
1.729496743134099e+18,0.04171480983495712,-0.023699404671788216,-9.857080459594727
1.7294967431430991e+18,-0.00357291498221457,-0.01713392697274685,-9.9058198928833
1.7294967431490993e+18,0.05892513692378998,-0.0064812940545380116,-9.803878784179688
1.7294967431580995e+18,-0.131071075797081,0.029375789687037468,-9.780970573425293
1.7294967431670996e+18,-0.01549812126904726,0.013755341060459614,-9.82750415802002
1.7294967431730998e+18,0.07876835018396378,0.016751060262322426,-9.82481861114502
1.7294967431791e+18,0.015006235800683498,0.054069191217422485,-9.918916702270508
1.7294967431881e+18,-0.025610363110899925,-0.015357915312051773,-9.786226272583008
1.7294967431971003e+18,-0.009213844314217567,-0.0018148934468626976,-9.761420249938965
1.7294967432061005e+18,0.0045769307762384415,0.0042365496046841145,-9.763975143432617
1.7294967432151007e+18,-0.047377947717905045,0.011427285149693489,-9.737787246704102
1.7294967432211008e+18,0.031060872599482536,-0.045819152146577835,-9.805037498474121
1.729496743230101e+18,0.02167709358036518,0.044489551335573196,-9.781780242919922
1.7294967432391012e+18,-0.005764678120613098,0.05649825930595398,-9.751871109008789
1.7294967432481014e+18,0.06225714460015297,0.007981237024068832,-9.821640014648438
1.7294967432571016e+18,0.009826499968767166,0.012932385317981243,-9.750293731689453
1.7294967432661018e+18,0.06158067286014557,0.023417487740516663,-9.836324691772461
1.729496743275102e+18,-0.0020766882225871086,-0.011925802566111088,-9.77927303314209
1.7294967432841021e+18,0.05443665012717247,-0.023634200915694237,-9.855917930603027
1.7294967432901023e+18,0.0398561917245388,0.025786111131310463,-9.745521545410156
1.7294967433021025e+18,-0.037256039679050446,-0.09901686012744904,-9.788615226745605
1.7294967433111027e+18,0.01242541242390871,-0.011133464053273201,-9.84201431274414
1.729496743320103e+18,-0.002989994129166007,0.015139694325625896,-9.814270973205566
1.729496743329103e+18,-0.0595138780772686,-0.04617530480027199,-9.807807922363281
1.7294967433351032e+18,0.0020539225079119205,0.0203821063041687,-9.791543960571289
1.7294967433441034e+18,-0.021175473928451538,0.03683295473456383,-9.802740097045898
1.7294967433531036e+18,-0.07120706886053085,0.029941482469439507,-9.738210678100586
1.7294967433621038e+18,0.009181194007396698,-0.027870293706655502,-9.80327033996582
1.729496743371104e+18,-0.00412161648273468,-0.05124041810631752,-9.866108894348145
1.7294967433801042e+18,0.054563529789447784,0.057269252836704254,-9.747584342956543
1.7294967433891044e+18,-0.005668977741152048,-0.022297117859125137,-9.803275108337402
1.7294967433981046e+18,0.006636332720518112,-0.01862572506070137,-9.814458847045898
1.7294967434071048e+18,-0.011490873992443085,-0.01766853779554367,-9.835503578186035
1.729496743416105e+18,-0.04821034520864487,0.0002545986499171704,-9.777600288391113
1.7294967434281052e+18,-0.018290488049387932,-0.010755136609077454,-9.824078559875488
1.7294967434371054e+18,-0.03458742797374725,-0.00802376214414835,-9.774104118347168
1.7294967434431055e+18,0.11311621218919754,-0.026877960190176964,-9.739164352416992
1.7294967434521057e+18,0.0176976528018713,0.004424232989549637,-9.830026626586914
1.729496743461106e+18,0.04276026412844658,-0.06761744618415833,-9.820378303527832
1.7294967434731062e+18,0.05463894456624985,-0.03717486187815666,-9.83775806427002
1.7294967434821064e+18,0.010135122574865818,0.013385340571403503,-9.802127838134766
1.7294967434911066e+18,-0.02192886918783188,0.02616436779499054,-9.811249732971191
1.7294967435031068e+18,-0.053797464817762375,-0.024788642302155495,-9.834991455078125
1.729496743512107e+18,-0.07785674929618835,0.027763642370700836,-9.83731746673584
1.7294967435211072e+18,0.047709159553050995,0.005191749427467585,-9.792683601379395
1.7294967435301074e+18,-0.0056358217261731625,0.02161099575459957,-9.82487964630127
1.7294967435391076e+18,-0.025947943329811096,0.0195427518337965,-9.815491676330566
1.7294967435481078e+18,0.008210048079490662,-0.03651433438062668,-9.766030311584473
1.729496743557108e+18,-0.0037584039382636547,0.026875633746385574,-9.813165664672852
1.7294967435661082e+18,0.06340896338224411,0.008457762189209461,-9.843182563781738
1.7294967435751084e+18,0.0024618199095129967,-0.09542730450630188,-9.739238739013672
1.7294967435871086e+18,0.10207288712263107,0.006068108137696981,-9.790543556213379
1.7294967435961088e+18,-0.020985420793294907,-0.03719204664230347,-9.824338912963867
1.729496743602109e+18,0.10460976511240005,-0.05035277083516121,-9.86362075805664
1.7294967436141092e+18,-0.003867694642394781,-0.0046828193590044975,-9.812895774841309
1.7294967436231094e+18,-0.024723052978515625,0.11911461502313614,-9.786721229553223
1.7294967436321096e+18,-0.01234615407884121,0.018077073618769646,-9.845126152038574
1.7294967436411098e+18,-0.07217254489660263,-0.0540473572909832,-9.803475379943848
1.72949674364711e+18,0.02908209152519703,-0.05598452687263489,-9.858000755310059
1.72949674365611e+18,0.06538418680429459,-0.017533021047711372,-9.787497520446777
1.7294967436651103e+18,0.06839784234762192,0.07463930547237396,-9.829628944396973
1.7294967436741105e+18,-0.016430126503109932,0.07051482051610947,-9.832170486450195
1.7294967436831107e+18,0.04933089390397072,-0.02726869285106659,-9.882269859313965
1.7294967436921108e+18,-0.013861218467354774,0.049253541976213455,-9.831634521484375
1.729496743701111e+18,0.032952386885881424,0.0034092417918145657,-9.873181343078613
1.7294967437071112e+18,-0.022487053647637367,-0.026790356263518333,-9.882955551147461
1.7294967437161114e+18,-0.02950834482908249,0.026733342558145523,-9.689184188842773
1.7294967437221115e+18,-0.10174649953842163,0.04712724685668945,-9.870718955993652
1.7294967437311117e+18,0.02039683423936367,-0.04093942791223526,-9.829360008239746
1.729496743740112e+18,0.050387121737003326,-0.0499696210026741,-9.78523063659668
1.729496743746112e+18,-0.009465407580137253,0.0187209565192461,-9.739374160766602
1.7294967437551122e+18,0.023494388908147812,-0.04600117355585098,-9.789705276489258
1.7294967437641124e+18,-0.042907003313302994,-0.022428598254919052,-9.83866024017334
1.7294967437701125e+18,-0.07443490624427795,-0.003114525694400072,-9.758923530578613
1.7294967437791127e+18,-0.11072026193141937,0.0035442074295133352,-9.863320350646973
1.729496743788113e+18,-0.0057656532153487206,0.000992447487078607,-9.773969650268555
1.729496743794113e+18,0.015392746776342392,-0.06852884590625763,-9.848447799682617
1.7294967438031132e+18,0.0016845352947711945,-0.02853826805949211,-9.759355545043945
1.7294967438121134e+18,-0.00833292119204998,-0.01022306177765131,-9.73973274230957
1.7294967438211136e+18,0.0328432098031044,0.005994828417897224,-9.790706634521484
1.7294967438301138e+18,0.058292265981435776,0.022307319566607475,-9.818693161010742
1.729496743836114e+18,0.009466370567679405,0.03501163050532341,-9.746613502502441
1.729496743845114e+18,-0.05639012157917023,0.06804181635379791,-9.786978721618652
1.7294967438541143e+18,0.005942958407104015,-0.05978279933333397,-9.85511302947998
1.7294967438631145e+18,0.027301091700792313,-0.007945500314235687,-9.833098411560059
1.7294967438721147e+18,-0.0714774802327156,0.04353702813386917,-9.753349304199219
1.729496743881115e+18,-0.06667520850896835,-0.019249841570854187,-9.874446868896484
1.729496743887115e+18,-0.08043111115694046,-0.030805721879005432,-9.831618309020996
1.7294967438961152e+18,0.004408712964504957,0.047074347734451294,-9.788959503173828
1.7294967439051154e+18,-0.01249490026384592,0.08519390225410461,-9.831762313842773
1.7294967439111155e+18,0.012343764305114746,-0.0006231404840946198,-9.878135681152344
1.7294967439201157e+18,0.006945697125047445,0.02140737697482109,-9.842286109924316
1.729496743929116e+18,0.005503390915691853,0.049091652035713196,-9.762025833129883
1.729496743938116e+18,-0.0776638314127922,0.04906455799937248,-9.874813079833984
1.7294967439471163e+18,-0.01939992420375347,-0.046382755041122437,-9.853316307067871
1.7294967439531164e+18,0.04346224665641785,0.0072057172656059265,-9.865012168884277
1.7294967439621166e+18,0.02874584309756756,0.034236177802085876,-9.78006649017334
1.7294967439711168e+18,0.023061634972691536,0.008199097588658333,-9.7808837890625
1.729496743980117e+18,0.0004807467630598694,-0.05859764292836189,-9.85219669342041
1.729496743986117e+18,0.044591933488845825,-0.004182467237114906,-9.8190336227417
1.7294967439921172e+18,-0.011732211336493492,0.046831414103507996,-9.863104820251465
1.7294967440011174e+18,0.010718178935348988,-0.03599744290113449,-9.791744232177734
1.7294967440071176e+18,0.07806456834077835,-0.01790647953748703,-9.835659980773926
1.7294967440161178e+18,-0.06410469114780426,0.05742967128753662,-9.761932373046875
1.729496744022118e+18,0.046475958079099655,-0.04861142858862877,-9.811568260192871
1.729496744031118e+18,-0.030838757753372192,0.011948621831834316,-9.821142196655273
1.7294967440401183e+18,-0.020348064601421356,0.029346594586968422,-9.748862266540527
1.7294967440461184e+18,-0.0003324600402265787,-0.006128523498773575,-9.850600242614746
1.7294967440521185e+18,-0.0253335852175951,-0.045353617519140244,-9.8428373336792
1.7294967440611187e+18,0.04825814068317413,-0.020873434841632843,-9.819016456604004
1.729496744070119e+18,0.015538038685917854,-0.05303546041250229,-9.799637794494629
1.729496744079119e+18,-0.010918805375695229,0.019997192546725273,-9.837459564208984
1.7294967440881193e+18,0.03647831827402115,-0.033627379685640335,-9.808765411376953
1.7294967440971195e+18,0.0010901691857725382,-0.06414017081260681,-9.76018238067627
1.7294967441031196e+18,-0.08222819864749908,-0.035696838051080704,-9.810161590576172
1.7294967441091197e+18,-0.006848438642919064,0.014253688976168633,-9.792476654052734
1.72949674411812e+18,0.01681513711810112,-0.0592476911842823,-9.784331321716309
1.7294967441271201e+18,0.034846242517232895,-0.04533926397562027,-9.834161758422852
1.7294967441361203e+18,-0.04650682955980301,0.03946793079376221,-9.828227996826172
1.7294967441451205e+18,-0.011183890514075756,0.005313151050359011,-9.843859672546387
1.7294967441541207e+18,-0.02775433287024498,-0.06805583834648132,-9.851548194885254
1.729496744163121e+18,0.02937149442732334,0.02743733674287796,-9.794988632202148
1.729496744172121e+18,-0.05592595040798187,0.006469290237873793,-9.74561595916748
1.7294967441841213e+18,0.03321753814816475,0.01738184690475464,-9.838810920715332
1.7294967441931215e+18,-0.02764401026070118,0.0844678282737732,-9.787131309509277
1.7294967442021217e+18,-0.015536927618086338,-0.006209575571119785,-9.813678741455078
1.7294967442081219e+18,0.036045141518116,0.017751313745975494,-9.85693073272705
1.729496744214122e+18,-0.045297764241695404,0.02897191047668457,-9.827404022216797
1.7294967442231222e+18,-0.005361513234674931,0.04209902510046959,-9.765833854675293
1.7294967442321224e+18,-0.0982413962483406,-0.025263328105211258,-9.883746147155762
1.7294967442411226e+18,0.03232484683394432,-0.04076670855283737,-9.763284683227539
1.7294967442501228e+18,0.07298094034194946,-0.011320876888930798,-9.80953311920166
1.729496744259123e+18,0.029313787817955017,0.04572802037000656,-9.826556205749512
1.729496744265123e+18,0.07263196259737015,0.04604598879814148,-9.82953929901123
1.7294967442741233e+18,-0.0015801070258021355,-0.03669620677828789,-9.817353248596191
1.7294967442831235e+18,-0.006280079949647188,-0.047972217202186584,-9.849138259887695
1.7294967442921236e+18,0.03250221908092499,-0.05124609172344208,-9.840740203857422
1.7294967443011238e+18,0.052141740918159485,0.002875223057344556,-9.85637092590332
1.729496744310124e+18,0.0338609516620636,0.014822855591773987,-9.812262535095215
1.7294967443191242e+18,-0.03713885694742203,-0.0025495109148323536,-9.809340476989746
1.7294967443281244e+18,0.0113297700881958,-0.07248686999082565,-9.822413444519043
1.7294967443371246e+18,0.11735136806964874,-0.05426586791872978,-9.788923263549805
1.7294967443431247e+18,-0.032406751066446304,-0.01680942438542843,-9.756641387939453
1.729496744352125e+18,0.058804791420698166,-0.023443982005119324,-9.782130241394043
1.729496744361125e+18,-0.035675108432769775,0.04943316429853439,-9.761582374572754
1.7294967443701253e+18,0.02846536412835121,-0.07389954477548599,-9.826040267944336
1.7294967443761254e+18,-0.002643018029630184,0.08616357296705246,-9.85977840423584
1.7294967443851256e+18,0.002974881324917078,-0.06413981318473816,-9.878884315490723
1.7294967443941258e+18,0.020079243928194046,-0.03537534549832344,-9.868412971496582
1.729496744400126e+18,0.09652936458587646,-0.0016876794397830963,-9.84740161895752
1.7294967444091261e+18,0.016694048419594765,-0.022807497531175613,-9.81303882598877
1.7294967444181263e+18,-6.427313201129436e-05,0.024152878671884537,-9.83588981628418
1.7294967444241265e+18,-0.012604765594005585,-0.027110561728477478,-9.809146881103516
1.7294967444301266e+18,-0.009569944813847542,0.00639741774648428,-9.953670501708984
1.7294967444391268e+18,-0.10647329688072205,0.004738157149404287,-9.862517356872559
1.729496744448127e+18,-0.11063890159130096,0.03731256723403931,-9.83669662475586
1.729496744454127e+18,-0.06283770501613617,-0.012968621216714382,-9.820826530456543
1.7294967444631273e+18,0.0002582924789749086,-0.011320354416966438,-9.827536582946777
1.7294967444691274e+18,-0.013291781768202782,-0.02720324508845806,-9.797122955322266
1.7294967444781276e+18,0.005001823417842388,0.10650015622377396,-9.81694507598877
1.7294967444871278e+18,0.0394342765212059,0.08384033292531967,-9.81108570098877
1.729496744493128e+18,0.00866057351231575,-0.029259495437145233,-9.808849334716797
1.729496744502128e+18,0.0016001348849385977,-0.0032309095840901136,-9.799964904785156
1.7294967445111283e+18,0.014622938819229603,0.0036718775518238544,-9.806540489196777
1.7294967445171284e+18,0.02486572414636612,-0.008671882562339306,-9.767873764038086
1.7294967445291287e+18,0.05602706968784332,0.041544195264577866,-9.856027603149414
1.7294967445351288e+18,-0.02027975581586361,-0.075252465903759,-9.895648956298828
1.729496744547129e+18,-0.07536972314119339,-0.02292860671877861,-9.740604400634766
1.7294967445531292e+18,-0.08963896334171295,0.0030324014369398355,-9.73270034790039
1.7294967445591293e+18,-0.07350412756204605,0.020673109218478203,-9.877882957458496
1.7294967445681295e+18,-0.07772887498140335,0.020755458623170853,-9.76356315612793
1.7294967445771297e+18,0.049683570861816406,-0.07055478543043137,-9.878898620605469
1.72949674458613e+18,0.050435058772563934,-0.013653825037181377,-9.832938194274902
1.72949674459513e+18,-0.06379806250333786,0.07750911265611649,-9.867720603942871
1.7294967446041303e+18,-0.007679050788283348,-0.016275685280561447,-9.850523948669434
1.7294967446101304e+18,0.014509440399706364,0.06804942339658737,-9.790964126586914
1.7294967446191306e+18,-0.02177606150507927,-0.019221795722842216,-9.891407012939453
1.7294967446281308e+18,-0.008486992679536343,0.006961691193282604,-9.76805591583252
1.729496744634131e+18,0.009274223819375038,0.03012857586145401,-9.842955589294434
1.7294967446431311e+18,-0.025036316365003586,0.05236386880278587,-9.855318069458008
1.7294967446521313e+18,-0.0015362135600298643,0.0262843556702137,-9.831074714660645
1.7294967446611315e+18,-0.06550601124763489,-0.06458652019500732,-9.815781593322754
1.7294967446701317e+18,0.003979697357863188,0.06433472037315369,-9.803597450256348
1.729496744679132e+18,0.007962307892739773,-0.01955537497997284,-9.756868362426758
1.729496744688132e+18,0.021936485543847084,0.01365123875439167,-9.86191463470459
1.7294967446971323e+18,-0.028694331645965576,-0.03961898013949394,-9.781007766723633
1.7294967447061325e+18,0.0030106431804597378,0.045599326491355896,-9.812346458435059
1.7294967447151327e+18,-0.014967130497097969,0.046719059348106384,-9.815564155578613
1.7294967447241329e+18,0.061893533915281296,-0.006129480432718992,-9.810620307922363
1.729496744733133e+18,-0.03791632130742073,0.03432326391339302,-9.828628540039062
1.7294967447421332e+18,-0.032797735184431076,-0.06442543119192123,-9.81452465057373
1.7294967447511334e+18,-0.0245777890086174,-0.03933776542544365,-9.882922172546387
1.7294967447601336e+18,0.0596667043864727,-0.03747923672199249,-9.870551109313965
1.7294967447691338e+18,-0.041124388575553894,-0.007388431578874588,-9.808772087097168
1.729496744778134e+18,-0.03403176739811897,0.017303524538874626,-9.75057315826416
1.7294967447901343e+18,-0.022417711094021797,-0.002837526611983776,-9.815688133239746
1.7294967447991345e+18,-0.09909272938966751,-0.03812583163380623,-9.824898719787598
1.7294967448081347e+18,-0.05831107497215271,-0.031607240438461304,-9.7797212600708
1.7294967448171348e+18,-0.04728889837861061,-0.04614714905619621,-9.7894287109375
1.729496744826135e+18,0.05342730134725571,0.06787572801113129,-9.892452239990234
1.7294967448351352e+18,-0.052630938589572906,-0.07566673308610916,-9.853302001953125
1.7294967448441354e+18,0.10367432236671448,-0.0314599946141243,-9.848331451416016
1.7294967448531356e+18,-0.024396374821662903,-0.04573659971356392,-9.808141708374023
1.7294967448621358e+18,0.005204599350690842,0.04685705900192261,-9.861220359802246
1.729496744868136e+18,-0.00573149835690856,0.019971199333667755,-9.808087348937988
1.7294967448771361e+18,-0.06386177241802216,0.024897806346416473,-9.785136222839355
1.7294967448861363e+18,0.0978710725903511,-0.012319264002144337,-9.780909538269043
1.7294967448981366e+18,0.019799191504716873,-0.004554383456707001,-9.828201293945312
1.7294967449041367e+18,-0.027664760127663612,-0.11677563935518265,-9.808439254760742
1.729496744916137e+18,-0.06582655757665634,-0.0645555853843689,-9.849893569946289
1.729496744922137e+18,0.009599386714398861,-0.019576601684093475,-9.942180633544922
1.7294967449311373e+18,-0.0845632404088974,0.011417857371270657,-9.881058692932129
1.7294967449431375e+18,-0.054497696459293365,-0.01719120889902115,-9.8209228515625
1.7294967449521377e+18,-0.060888126492500305,0.02731962688267231,-9.862617492675781
1.729496744961138e+18,-0.07368279993534088,0.12560920417308807,-9.853622436523438
1.729496744970138e+18,0.027677102014422417,-0.0549929216504097,-9.789156913757324
1.7294967449791383e+18,-0.04262988641858101,-0.030844612047076225,-9.896860122680664
1.7294967449881385e+18,0.030099334195256233,0.02622075378894806,-9.75381851196289
1.7294967449971387e+18,0.04144445061683655,-0.05709422007203102,-9.85085391998291
1.729496745006139e+18,0.010931750759482384,0.0027818833477795124,-9.767903327941895
1.729496745015139e+18,-0.013044991530478,-0.06924274563789368,-9.902043342590332
1.7294967450241393e+18,-0.058057159185409546,0.007560331840068102,-9.870738983154297
1.7294967450331395e+18,-0.023839091882109642,-0.01606692560017109,-9.880510330200195
1.7294967450391396e+18,-0.011380622163414955,0.12722253799438477,-9.780091285705566
1.7294967450481398e+18,-0.007910411804914474,0.07996337115764618,-9.876364707946777
1.72949674505714e+18,0.005957574583590031,-0.024760128930211067,-9.829102516174316
1.7294967450661402e+18,-0.017880510538816452,-0.05641891062259674,-9.82249641418457
1.7294967450721403e+18,-0.06196129694581032,0.021909257397055626,-9.821724891662598
1.7294967450811405e+18,0.03506936505436897,0.06371952593326569,-9.82331371307373
1.7294967450901407e+18,-0.036549314856529236,-0.03167712688446045,-9.85006046295166
1.729496745102141e+18,-0.011694230139255524,0.03771599754691124,-9.857138633728027
1.729496745111141e+18,-0.011056258343160152,-0.006483434699475765,-9.757036209106445
1.7294967451171412e+18,-0.030054613947868347,-0.02269216999411583,-9.82383918762207
1.7294967451261414e+18,-0.0038760616444051266,0.005365988239645958,-9.88033676147461
1.7294967451351416e+18,-0.01194722019135952,-0.05863957852125168,-9.891984939575195
1.7294967451441418e+18,-0.01985190249979496,0.031986869871616364,-9.775093078613281
1.729496745153142e+18,-0.07517615705728531,0.015106510370969772,-9.7431640625
1.7294967451591421e+18,0.0002360048529226333,-0.07575852423906326,-9.817904472351074
1.7294967451681423e+18,-0.044524140655994415,0.05133720487356186,-9.829495429992676
1.7294967451771425e+18,-0.04054240882396698,-0.04003531113266945,-9.861087799072266
1.7294967451861427e+18,-0.051307711750268936,-0.11574741452932358,-9.819005966186523
1.729496745195143e+18,0.05818980932235718,0.0034044506028294563,-9.806361198425293
1.729496745204143e+18,-0.020122606307268143,-0.06973528116941452,-9.863381385803223
1.7294967452131433e+18,0.0014093343634158373,0.0515347421169281,-9.861470222473145
1.7294967452221435e+18,0.02022472955286503,-0.033738818019628525,-9.890807151794434
1.7294967452311437e+18,0.05027741566300392,0.027007201686501503,-9.82205581665039
1.729496745240144e+18,0.03509495407342911,-0.03276021033525467,-9.82767391204834
1.729496745249144e+18,-0.005959030240774155,0.05925022438168526,-9.752727508544922
1.7294967452581443e+18,0.018012817949056625,-0.05362816900014877,-9.800912857055664
1.7294967452671444e+18,0.010181330144405365,-0.09525713324546814,-9.796651840209961
1.7294967452761446e+18,0.0035139231476932764,-0.03496606647968292,-9.798693656921387
1.7294967452851448e+18,-0.032798100262880325,-0.019108036532998085,-9.842759132385254
1.729496745294145e+18,0.034984927624464035,0.038905154913663864,-9.796631813049316
1.7294967453001452e+18,-0.07736388593912125,0.009280459955334663,-9.813185691833496
1.7294967453091453e+18,0.0741664245724678,0.010707703419029713,-9.789912223815918
1.7294967453181455e+18,0.041531872004270554,-0.029648130759596825,-9.865041732788086
1.7294967453241457e+18,0.08116919547319412,0.015043448656797409,-9.812899589538574
1.7294967453331459e+18,0.04747424274682999,0.035225316882133484,-9.805427551269531
1.729496745342146e+18,0.0313190259039402,-0.0018785528372973204,-9.835504531860352
1.7294967453511462e+18,-0.019429130479693413,0.07488133013248444,-9.925423622131348
1.7294967453601464e+18,-0.038820136338472366,-0.04672699421644211,-9.9075345993042
1.7294967453691466e+18,0.06952090561389923,0.026785889640450478,-9.816631317138672
1.7294967453781468e+18,-0.002763570984825492,0.002240824280306697,-9.787253379821777
1.729496745384147e+18,0.06676141172647476,-0.016173245385289192,-9.744546890258789
1.7294967453931471e+18,0.07766928523778915,-0.04199810326099396,-9.860945701599121
1.7294967454021473e+18,0.01804535463452339,-0.004907756112515926,-9.839933395385742
1.7294967454111475e+18,-0.028008513152599335,-0.005500330589711666,-9.85936164855957
1.7294967454201477e+18,-0.014894280582666397,-0.011386238038539886,-9.775588989257812
1.7294967454261478e+18,0.08044926822185516,0.03480645269155502,-9.852766036987305
1.729496745435148e+18,-0.0983586236834526,0.022681700065732002,-9.831806182861328
1.7294967454441482e+18,-0.06071161478757858,-0.002663164399564266,-9.849831581115723
1.7294967454531484e+18,-0.026519179344177246,-0.0366005040705204,-9.79814338684082
1.7294967454591485e+18,-0.012664448469877243,0.06655658036470413,-9.844188690185547
1.7294967454681487e+18,0.0213931854814291,0.007558504585176706,-9.917450904846191
1.7294967454741489e+18,0.04309912770986557,-0.03237544000148773,-9.934588432312012
1.729496745483149e+18,0.05696834623813629,0.03921986371278763,-9.846759796142578
1.7294967454891492e+18,0.05219246447086334,0.0393390953540802,-9.855628967285156
1.7294967454951493e+18,-0.040486451238393784,0.005642341449856758,-9.762805938720703
1.7294967455011494e+18,0.01055760495364666,-0.09632039070129395,-9.803401947021484
1.7294967455071496e+18,-0.05154172331094742,-0.021510086953639984,-9.8615140914917
1.7294967455161498e+18,0.05626152083277702,0.022456681355834007,-9.811941146850586
1.72949674552515e+18,-0.014959444291889668,0.03188929706811905,-9.805144309997559
1.72949674553115e+18,-0.019802287220954895,-0.025600025430321693,-9.857579231262207
1.7294967455401503e+18,0.06349077075719833,0.07487235963344574,-9.822148323059082
1.7294967455491505e+18,0.049817994236946106,-0.007635761052370071,-9.743996620178223
1.7294967455581507e+18,0.06344450265169144,-0.00418084254488349,-9.820161819458008
1.7294967455671508e+18,-0.01984863169491291,-0.016338108107447624,-9.857678413391113
1.729496745576151e+18,0.023316392675042152,0.01831228844821453,-9.892565727233887
1.7294967455821512e+18,-0.08929600566625595,0.0007831433904357255,-9.876826286315918
1.7294967455941514e+18,-0.008188508450984955,0.007584631908684969,-9.819168090820312
1.7294967456031516e+18,-0.029589852318167686,-0.03327903524041176,-9.832205772399902
1.7294967456121518e+18,-0.03585704043507576,-0.09433949738740921,-9.843217849731445
1.729496745621152e+18,0.022559069097042084,0.029272904619574547,-9.865900039672852
1.7294967456301522e+18,-0.06309174746274948,-0.04289316385984421,-9.81004810333252
1.7294967456421524e+18,-0.014589423313736916,-0.03338422253727913,-9.815017700195312
1.7294967456511526e+18,0.005333867855370045,-0.03461436927318573,-9.833226203918457
1.729496745663153e+18,0.03889801725745201,0.02617930993437767,-9.739834785461426
1.729496745672153e+18,9.166099334834144e-05,-0.022120356559753418,-9.825461387634277
1.7294967456811533e+18,-0.04748476669192314,-0.038936447352170944,-9.802465438842773
1.7294967456901535e+18,-0.005347529426217079,-0.02191704325377941,-9.758316040039062
1.7294967456991537e+18,0.0108028594404459,0.032266538590192795,-9.81078815460205
1.7294967457081539e+18,-0.0004971536109223962,0.06688566505908966,-9.875564575195312
1.729496745717154e+18,0.03881199285387993,0.07682959735393524,-9.83649730682373
1.7294967457231542e+18,0.020980726927518845,-0.07311569154262543,-9.779915809631348
1.7294967457321544e+18,0.02165962941944599,-0.05454995855689049,-9.763936042785645
1.7294967457411546e+18,0.009783762507140636,0.02660434879362583,-9.815139770507812
1.7294967457471547e+18,0.0807478129863739,-0.0017857551574707031,-9.714822769165039
1.7294967457531548e+18,0.0559428445994854,-0.04036063328385353,-9.868447303771973
1.729496745762155e+18,-0.008836762979626656,-0.04034106060862541,-9.757560729980469
1.7294967457711552e+18,-0.016198907047510147,-0.0474245660007,-9.899247169494629
1.7294967457801554e+18,0.009644833393394947,0.060728322714567184,-9.797908782958984
1.7294967457921556e+18,-0.09879343956708908,-0.011425203643739223,-9.842520713806152
1.7294967457981558e+18,0.05923745036125183,0.01583198830485344,-9.8242826461792
1.729496745810156e+18,0.060928381979465485,0.009272785857319832,-9.778141975402832
1.7294967458221563e+18,0.011649742722511292,-0.09386071562767029,-9.849481582641602
1.7294967458641572e+18,-0.0489661879837513,0.06337395310401917,-9.842889785766602
1.7294967458761574e+18,0.03604915365576744,0.0016447096131742,-9.844318389892578
1.7294967458881577e+18,0.04079305753111839,-2.10757389140781e-05,-9.759232521057129
1.729496745900158e+18,-0.03432421758770943,0.011544170789420605,-9.780865669250488
1.7294967459091581e+18,-0.0022320549469441175,-0.03273274749517441,-9.897442817687988
1.7294967459181583e+18,-0.055315304547548294,-0.108397476375103,-9.774307250976562
1.7294967459271585e+18,-0.015050221234560013,-0.033690087497234344,-9.852118492126465
1.7294967459361587e+18,-0.038210682570934296,0.0796336978673935,-9.84870433807373
1.729496745948159e+18,-0.010937154293060303,0.007905757054686546,-9.852616310119629
1.7294967459571592e+18,-0.028111785650253296,-0.02624201402068138,-9.742207527160645
1.7294967459661594e+18,0.019454345107078552,-0.026767440140247345,-9.82712459564209
1.7294967459781596e+18,0.020721590146422386,-0.015461635775864124,-9.797443389892578
1.7294967459871598e+18,-0.03951612859964371,-0.01498953253030777,-9.902569770812988
1.72949674599916e+18,0.07030791789293289,-0.06672666221857071,-9.863367080688477
1.7294967460081603e+18,0.04532679542899132,-0.02735627442598343,-9.83678150177002
1.7294967460171604e+18,0.023864807561039925,-0.08585874736309052,-9.812675476074219
1.7294967460261606e+18,0.058676984161138535,0.04347752779722214,-9.781261444091797
1.7294967460351608e+18,0.05785441771149635,-0.0002471483312547207,-9.83273696899414
1.729496746044161e+18,-0.036161165684461594,-0.0196269191801548,-9.814146995544434
1.7294967460531612e+18,0.027527594938874245,0.04968904331326485,-9.827377319335938
1.7294967460621614e+18,0.047718580812215805,-0.025211583822965622,-9.769153594970703
1.7294967460711616e+18,-0.05361512303352356,0.06734984368085861,-9.788990020751953
1.7294967460801618e+18,0.028329437598586082,-0.021045006811618805,-9.859872817993164
1.729496746089162e+18,0.014802293851971626,-0.029298005625605583,-9.908599853515625
1.7294967460981622e+18,-0.03553812950849533,0.019549310207366943,-9.870999336242676
1.7294967461071624e+18,-0.014849908649921417,0.016179779544472694,-9.831774711608887
1.7294967461191626e+18,0.004420037381350994,-0.010488180443644524,-9.867101669311523
1.7294967461281628e+18,-0.0034577669575810432,-0.05116431415081024,-9.78711986541748
1.729496746140163e+18,-0.033783748745918274,0.11305461823940277,-9.878387451171875
1.7294967461461632e+18,-0.04942532256245613,0.0018024654127657413,-9.733572006225586
1.7294967461551634e+18,-0.049615584313869476,-0.056392960250377655,-9.78430461883545
1.7294967461641636e+18,0.01913543790578842,0.04479391500353813,-9.741959571838379
1.7294967461731638e+18,0.049165576696395874,-0.049944378435611725,-9.779008865356445
1.729496746185164e+18,-0.060864247381687164,-0.029176849871873856,-9.808899879455566
1.7294967461971643e+18,0.042385704815387726,-0.03725787624716759,-9.747172355651855
1.7294967462061645e+18,-0.02424287609755993,0.018421411514282227,-9.8600492477417
1.7294967462151647e+18,-0.012804106809198856,0.05484264716506004,-9.805720329284668
1.7294967462241649e+18,0.01866934634745121,0.003663325682282448,-9.757261276245117
1.729496746233165e+18,0.03019733913242817,-0.03362905606627464,-9.843317031860352
1.7294967462421652e+18,0.01505039632320404,0.024368353188037872,-9.774949073791504
1.7294967462511654e+18,-0.01114768534898758,0.007173269987106323,-9.847405433654785
1.7294967462571656e+18,0.004636877216398716,-0.027596790343523026,-9.873632431030273
1.7294967462661658e+18,-0.005241048987954855,-0.026180146262049675,-9.831953048706055
1.729496746272166e+18,0.05385167896747589,0.04070422425866127,-9.883298873901367
1.7294967462841661e+18,0.006510092411190271,-0.05750560760498047,-9.836099624633789
1.7294967462931663e+18,0.043508872389793396,-0.02103234827518463,-9.834015846252441
1.7294967462991665e+18,-0.006133895833045244,0.01650870405137539,-9.82418155670166
1.7294967463111667e+18,0.03670896589756012,-0.01324912253767252,-9.8333101272583
1.729496746320167e+18,0.07527723908424377,-0.03838496655225754,-9.874080657958984
1.729496746329167e+18,-0.05677471682429314,-0.04051753506064415,-9.829668045043945
1.7294967463381673e+18,0.0011867204448208213,-0.03799344599246979,-9.784220695495605
1.7294967463471675e+18,-0.008827797137200832,0.05756516009569168,-9.760516166687012
1.7294967463561677e+18,-0.00882183201611042,-0.05150221288204193,-9.814172744750977
1.7294967463651679e+18,0.021229853853583336,0.053750474005937576,-9.758593559265137
1.729496746374168e+18,0.021762598305940628,0.03942256420850754,-9.862945556640625
1.7294967463831683e+18,0.06281013041734695,-0.02676716074347496,-9.86564826965332
1.7294967463921684e+18,0.03198973089456558,-0.018597813323140144,-9.927603721618652
1.7294967464011686e+18,-0.04571409150958061,0.04246508330106735,-9.907974243164062
1.7294967464101688e+18,0.03068258799612522,0.009627630934119225,-9.775002479553223
1.729496746419169e+18,0.02686089277267456,0.011385645717382431,-9.84279727935791
1.7294967464251692e+18,0.09990964829921722,-0.050941336899995804,-9.902742385864258
1.7294967464371694e+18,-0.002004226902499795,-0.000940941390581429,-9.849138259887695
1.7294967464431695e+18,-0.04721280187368393,-0.016617700457572937,-9.813248634338379
1.7294967464521697e+18,-0.04260530695319176,-0.04675807058811188,-9.808564186096191
1.7294967464581699e+18,-0.016436906531453133,0.056277353316545486,-9.76762580871582
1.72949674646717e+18,-0.056723762303590775,0.009793629869818687,-9.735122680664062
1.7294967464761702e+18,0.05649483948945999,-0.01937449909746647,-9.835270881652832
1.7294967464821704e+18,-0.06973685324192047,0.03325960785150528,-9.788619995117188
1.7294967464911706e+18,-0.013748825527727604,-0.027484716847538948,-9.823533058166504
1.7294967464971707e+18,-0.008319173939526081,0.12357976287603378,-9.83891487121582
1.729496746506171e+18,-0.010249698534607887,-0.012589856050908566,-9.819637298583984
1.729496746515171e+18,-0.04095093160867691,-0.012156600132584572,-9.839629173278809
1.7294967465211712e+18,0.032670412212610245,0.05222802236676216,-9.857990264892578
1.7294967465271713e+18,0.07795977592468262,0.001543531659990549,-9.81855583190918
1.7294967465361715e+18,0.03153527155518532,0.028131140395998955,-9.82925033569336
1.7294967465421716e+18,0.08916639536619186,0.06609845161437988,-9.818633079528809
1.7294967465481718e+18,0.0548115000128746,7.246225140988827e-05,-9.815170288085938
1.729496746554172e+18,-0.049399714916944504,0.0028648818843066692,-9.808859825134277
1.729496746563172e+18,0.043135762214660645,0.0077692181803286076,-8.921570777893066
1.7294967465691722e+18,-0.02781040221452713,-0.004222944378852844,-8.336891174316406
1.7294967465781724e+18,-0.0020644646137952805,0.08099178969860077,-8.082052230834961
1.7294967465841725e+18,-0.019955791532993317,0.09843365848064423,-8.076318740844727
1.7294967465901727e+18,-0.0020407624542713165,0.08154187351465225,-8.174704551696777
1.7294967465991729e+18,-0.03810003772377968,0.18629947304725647,-10.1226806640625
1.729496746605173e+18,-0.08165234327316284,0.09335301071405411,-10.513622283935547
1.729496746611173e+18,-0.001577131450176239,0.07327019423246384,-10.659655570983887
1.7294967466201733e+18,0.015088874846696854,0.13786371052265167,-10.628464698791504
1.7294967466261734e+18,-0.02814810536801815,0.06582942605018616,-10.688558578491211
1.7294967466351736e+18,-0.07554740458726883,0.08636114001274109,-10.754749298095703
1.7294967466441738e+18,-0.05301810801029205,0.04955502226948738,-10.272751808166504
1.729496746650174e+18,-0.06254798173904419,0.12387813627719879,-10.231794357299805
1.7294967466591741e+18,-0.03972165286540985,0.07753919810056686,-10.155319213867188
1.7294967466651743e+18,-0.029961327090859413,0.13076989352703094,-10.072760581970215
1.7294967466741745e+18,-0.07706373184919357,0.10497092455625534,-9.956469535827637
1.7294967466801746e+18,-0.16591334342956543,0.16725873947143555,-10.056177139282227
1.7294967466891748e+18,-0.09306216239929199,0.13632848858833313,-9.764694213867188
1.729496746698175e+18,-0.030873533338308334,0.046072687953710556,-9.678842544555664
1.729496746704175e+18,-0.03234616667032242,0.03665924072265625,-9.671272277832031
1.7294967467131753e+18,-0.03513869643211365,0.07515216618776321,-9.384663581848145
1.7294967467221755e+18,-0.010261300951242447,0.0029187314212322235,-9.197582244873047
1.7294967467281756e+18,0.006018955260515213,0.09533555060625076,-9.08147144317627
1.7294967467341757e+18,3.807246685028076e-05,-0.013741947710514069,-9.125818252563477
1.729496746743176e+18,0.019323576241731644,0.02446806989610195,-9.056307792663574
1.729496746752176e+18,-0.0005628690123558044,0.0475379154086113,-8.918163299560547
1.7294967467581763e+18,0.07379094511270523,0.021907364949584007,-8.793880462646484
1.7294967467641764e+18,-0.0058060139417648315,0.04066713526844978,-8.749994277954102
1.7294967467701765e+18,-0.019483385607600212,0.0584038645029068,-8.591560363769531
1.7294967467791767e+18,-0.01395800244063139,-0.045214422047138214,-8.542208671569824
1.729496746788177e+18,-0.008525270968675613,0.0021347273141145706,-8.5258207321167
1.729496746794177e+18,0.03225323557853699,-0.009021831676363945,-8.456109046936035
1.7294967468001772e+18,0.011569494381546974,0.06983509659767151,-8.56937026977539
1.7294967468091773e+18,0.01600126549601555,-0.03179260343313217,-8.30714225769043
1.7294967468181775e+18,-0.02077314257621765,0.027931950986385345,-8.277326583862305
1.7294967468241777e+18,0.03569531440734863,0.010995911434292793,-8.349771499633789
1.7294967468331779e+18,-0.0328412801027298,0.07764161378145218,-8.3895263671875
1.729496746839178e+18,0.050706297159194946,-0.004691295325756073,-8.36860179901123
1.7294967468481782e+18,-0.020466415211558342,-0.0504126101732254,-8.357438087463379
1.7294967468541783e+18,-0.002986079780384898,-0.06539168953895569,-8.311717987060547
1.7294967468631785e+18,-0.007092551328241825,0.10382113605737686,-8.305221557617188
1.7294967468691786e+18,0.038832638412714005,-0.06252247095108032,-8.266268730163574
1.7294967468751788e+18,0.032791778445243835,0.005427572876214981,-8.31529426574707
1.729496746881179e+18,0.039485931396484375,-0.017818039283156395,-8.228047370910645
1.729496746887179e+18,0.03884832561016083,0.005834491923451424,-8.25505542755127
1.7294967468931791e+18,0.016591615974903107,-0.035091646015644073,-8.149452209472656
1.7294967469021793e+18,-0.0979575514793396,0.010821238160133362,-8.162274360656738
1.7294967469111795e+18,0.004548290278762579,-0.05165649577975273,-8.270939826965332
1.7294967469171796e+18,-0.0029852231964468956,0.011633865535259247,-8.308505058288574
1.7294967469261798e+18,-0.04027925804257393,-0.03242877125740051,-8.24470043182373
1.72949674693218e+18,0.055519480258226395,-0.055644817650318146,-8.177762031555176
1.7294967469411802e+18,0.0759466364979744,0.009343234822154045,-8.040120124816895
1.7294967469501804e+18,0.037500858306884766,0.02507685124874115,-8.104272842407227
1.7294967469561805e+18,-0.06466449052095413,0.06060340255498886,-8.142353057861328
1.7294967469651807e+18,-0.014650896191596985,0.0060550011694431305,-8.222137451171875
1.7294967469741809e+18,0.04737088456749916,-0.014908275566995144,-8.21201229095459
1.729496746980181e+18,-0.062235139310359955,-0.02975727804005146,-8.260538101196289
1.7294967469891812e+18,0.023671792820096016,-0.07972781360149384,-8.236737251281738
1.7294967469951813e+18,0.004991727415472269,-0.03274126350879669,-8.283027648925781
1.7294967470011814e+18,0.05568612366914749,-0.026081562042236328,-8.306071281433105
1.7294967470101816e+18,0.060369886457920074,-0.014811545610427856,-8.159433364868164
1.7294967470161818e+18,-0.02924685925245285,-0.06076686829328537,-8.226673126220703
1.729496747022182e+18,-0.028491009026765823,-0.0521913543343544,-8.230856895446777
1.729496747031182e+18,0.03373483568429947,-0.05970670282840729,-8.260123252868652
1.7294967470401823e+18,0.06288865208625793,0.016679514199495316,-8.330082893371582
1.7294967470461824e+18,0.03889431804418564,0.044042978435754776,-8.321032524108887
1.7294967470551826e+18,0.042201217263936996,-0.05225183814764023,-8.24245834350586
1.7294967470611827e+18,-0.0417797677218914,-0.012605240568518639,-8.356219291687012
1.729496747070183e+18,0.07467391341924667,-0.0307698305696249,-8.391575813293457
1.729496747079183e+18,-0.017106877639889717,0.005924033932387829,-8.43928337097168
1.7294967470851832e+18,0.005215099547058344,-0.029554255306720734,-8.474315643310547
1.7294967470941834e+18,-0.033602409064769745,-0.040105339139699936,-8.34433650970459
1.7294967471031836e+18,0.04077073931694031,-0.008129165507853031,-8.317191123962402
1.7294967471151839e+18,-0.05476580187678337,0.026776500046253204,-8.408103942871094
1.729496747124184e+18,0.002696001436561346,-0.020496848970651627,-8.453998565673828
1.7294967471331843e+18,0.02815108187496662,0.0013971058651804924,-8.434493064880371
1.7294967471421844e+18,0.02630375511944294,0.0036721481010317802,-8.35940933227539
1.7294967471511846e+18,-0.06480488181114197,-0.03749321401119232,-8.404672622680664
1.7294967471601848e+18,0.0002039873506873846,-0.04337340593338013,-8.469391822814941
1.729496747169185e+18,0.0013110432773828506,-0.03590867295861244,-8.49155044555664
1.7294967471781852e+18,0.005117630586028099,0.030204076319932938,-8.387267112731934
1.7294967471871854e+18,-0.009153071790933609,0.01239751372486353,-8.490522384643555
1.7294967471991857e+18,0.045344267040491104,0.04153435304760933,-8.507616996765137
1.7294967472081859e+18,0.06903941184282303,-0.058460209518671036,-8.56914234161377
1.729496747217186e+18,0.025862909853458405,0.037029486149549484,-8.576550483703613
1.7294967472261862e+18,-0.03783038631081581,0.050699375569820404,-8.564507484436035
1.7294967472351864e+18,0.02323111891746521,0.024346286430954933,-8.698079109191895
1.7294967472471867e+18,-0.03411766514182091,-0.011244125664234161,-8.64807415008545
1.729496747259187e+18,0.016499023884534836,-0.0927828773856163,-8.644913673400879
1.729496747265187e+18,0.02422676794230938,0.009974008426070213,-8.68606185913086
1.7294967472711872e+18,0.04540093243122101,-0.007763532921671867,-8.622964859008789
1.7294967472771873e+18,0.009010597132146358,0.031131746247410774,-8.654284477233887
1.7294967472831875e+18,-0.014452294446527958,-0.0006938837468624115,-8.701595306396484
1.7294967472921876e+18,-0.0004642726853489876,0.0882532000541687,-8.687299728393555
1.7294967472981878e+18,-0.06249509006738663,0.04013572633266449,-8.709577560424805
1.729496747307188e+18,0.08100524544715881,-0.014877758920192719,-8.754958152770996
1.729496747313188e+18,-0.05697109177708626,0.013100038282573223,-8.877387046813965
1.7294967473221883e+18,-0.011443925090134144,-0.0026482604444026947,-8.812703132629395
1.7294967473281884e+18,-0.04405852034687996,0.06374102830886841,-8.759458541870117
1.7294967473341885e+18,0.005209670402109623,0.0316198468208313,-8.92088794708252
1.7294967473431887e+18,-0.0149375656619668,0.0240311361849308,-8.854257583618164
1.7294967473491889e+18,0.04482882469892502,0.03954418748617172,-8.764991760253906
1.729496747358189e+18,-0.06755158305168152,0.04185742139816284,-8.879283905029297
1.7294967473641892e+18,-0.03819441795349121,-0.05482646822929382,-8.973811149597168
1.7294967473701893e+18,-0.05100175365805626,0.03100186586380005,-8.926637649536133
1.7294967473791895e+18,-0.03893939033150673,0.036805249750614166,-8.956868171691895
1.7294967473881897e+18,-0.043620765209198,-0.03836016356945038,-8.953106880187988
1.7294967473941898e+18,-0.05021829530596733,0.02347598411142826,-8.977930068969727
1.72949674740319e+18,0.017702320590615273,-0.018469803035259247,-9.052632331848145
1.7294967474091901e+18,0.028878461569547653,-0.03571639582514763,-8.905728340148926
1.7294967474181903e+18,0.07354886084794998,-0.008255351334810257,-9.06670093536377
1.7294967474301906e+18,-0.009653211571276188,0.14157840609550476,-9.062613487243652
1.7294967474421908e+18,0.037911538034677505,-0.04553952068090439,-9.147974967956543
1.729496747451191e+18,-0.004492383450269699,0.018353011459112167,-9.054256439208984
1.7294967474631913e+18,-0.03884652629494667,-0.050074830651283264,-9.175525665283203
1.7294967474721915e+18,0.037343256175518036,-0.05796319246292114,-9.102222442626953
1.7294967474841917e+18,-0.0605660155415535,0.024450354278087616,-9.178030014038086
1.729496747493192e+18,0.05880047380924225,0.01834302768111229,-9.224099159240723
1.7294967475051922e+18,0.03479151055216789,0.0261143259704113,-9.21125316619873
1.7294967475171924e+18,-0.030902767553925514,0.06998541951179504,-9.146288871765137
1.7294967475261926e+18,0.0018330244347453117,-0.004391871392726898,-9.217560768127441
1.729496747538193e+18,-0.008626634255051613,0.07118558138608932,-9.260406494140625
1.729496747547193e+18,-0.05106909200549126,0.020268328487873077,-9.346898078918457
1.7294967475561933e+18,-0.10660041123628616,0.044984061270952225,-9.284159660339355
1.7294967475681935e+18,0.07348459213972092,0.06831249594688416,-9.420000076293945
1.7294967475771937e+18,-0.09101442247629166,-0.014206334948539734,-9.399679183959961
1.729496747586194e+18,0.018580466508865356,0.04609915614128113,-9.42234992980957
1.729496747595194e+18,-0.04256672412157059,0.045255135744810104,-9.44221019744873
1.7294967476041943e+18,0.032575786113739014,0.007011424750089645,-9.439599990844727
1.7294967476161946e+18,0.0005472889170050621,0.028312694281339645,-9.544877052307129
1.7294967476281948e+18,-0.009555915370583534,0.1025720164179802,-9.493854522705078
1.729496747640195e+18,-0.09260769933462143,0.039812877774238586,-9.575228691101074
1.7294967476521953e+18,-0.0890880674123764,0.07439916580915451,-9.518238067626953
1.7294967476641956e+18,0.0046649836003780365,0.009710710495710373,-9.584931373596191
1.7294967476731958e+18,0.07739830762147903,0.13384956121444702,-9.643333435058594
1.729496747688196e+18,-0.044323839247226715,0.054250627756118774,-9.720566749572754
1.7294967477001964e+18,0.07289715856313705,0.07683606445789337,-9.59371280670166
1.7294967477091965e+18,-0.04114086553454399,0.13563479483127594,-9.679216384887695
1.7294967477211968e+18,-0.047010380774736404,0.08894228935241699,-9.69685173034668
1.729496747733197e+18,-0.04447583481669426,0.12167951464653015,-9.793061256408691
1.7294967477451973e+18,-0.0005873031914234161,0.12678007781505585,-9.80253791809082
1.7294967477571976e+18,-0.0514993779361248,0.03640538454055786,-9.860466957092285
1.7294967477661978e+18,-0.04565846920013428,-0.06423167139291763,-9.78321361541748
1.729496747778198e+18,0.05123379826545715,0.09467202425003052,-9.877537727355957
1.7294967477871982e+18,0.004339125007390976,0.10345214605331421,-9.794242858886719
1.7294967477961984e+18,0.014286186546087265,0.10301633924245834,-9.839248657226562
1.7294967478051986e+18,-0.021431654691696167,0.0899706557393074,-9.928686141967773
1.7294967478171988e+18,0.08031423389911652,0.12541340291500092,-9.843982696533203
1.729496747823199e+18,0.04794936627149582,0.09733575582504272,-9.917634963989258
1.7294967478351992e+18,0.010241596028208733,0.11415297538042068,-9.973343849182129
1.7294967478441994e+18,-0.025151267647743225,0.1298341155052185,-9.936657905578613
1.7294967478531996e+18,-0.07078950107097626,0.11258788406848907,-9.964164733886719
1.7294967478621998e+18,-0.030952870845794678,0.09626490622758865,-10.0044527053833
1.7294967478712e+18,0.009979106485843658,0.03889776021242142,-10.046515464782715
1.7294967478802002e+18,0.0012956634163856506,0.12179835140705109,-10.03335952758789
1.7294967478892004e+18,-0.01695040613412857,0.05584004148840904,-10.115172386169434
1.7294967478982006e+18,0.06641670316457748,0.11036449670791626,-10.059303283691406
1.7294967479072008e+18,0.007747448980808258,0.03364585340023041,-10.099464416503906
1.729496747916201e+18,-0.04577210545539856,0.1307171881198883,-10.101714134216309
1.7294967479252012e+18,-0.027636680752038956,0.02310149371623993,-10.176349639892578
1.7294967479342013e+18,-0.05693798139691353,0.08550198376178741,-10.100964546203613
1.7294967479432015e+18,-0.02351946197450161,0.0893002599477768,-10.268926620483398
1.7294967479522017e+18,-0.055955298244953156,0.09272167086601257,-10.158365249633789
1.7294967479582019e+18,-0.007915579713881016,0.07214391231536865,-10.255044937133789
1.729496747967202e+18,-0.08595065772533417,0.15678593516349792,-10.277444839477539
1.7294967479732022e+18,0.06956086307764053,0.04823622852563858,-10.18826961517334
1.7294967479822024e+18,0.015133257955312729,0.11774475872516632,-10.2310791015625
1.7294967479912026e+18,-0.00010265037417411804,0.10447220504283905,-10.262434959411621
1.7294967480002028e+18,-0.08538267016410828,0.11130902916193008,-10.259023666381836
1.729496748009203e+18,-0.02299993671476841,0.11739522218704224,-10.328204154968262
1.7294967480182031e+18,-0.04370611160993576,0.13832278549671173,-10.287508010864258
1.7294967480242033e+18,-0.061933401972055435,0.10601222515106201,-10.3219633102417
1.7294967480362035e+18,-0.0011024046689271927,0.18423190712928772,-10.3605318069458
1.7294967480452037e+18,-0.0407450906932354,0.10885629057884216,-10.389137268066406
1.729496748057204e+18,-0.03251020610332489,0.133855938911438,-10.38747501373291
1.729496748063204e+18,-0.05975839123129845,0.12509961426258087,-10.380545616149902
1.7294967480722043e+18,-0.0726768970489502,0.054355189204216,-10.482810020446777
1.7294967480812045e+18,0.009398551657795906,0.14439398050308228,-10.496772766113281
1.7294967480902047e+18,0.0011299233883619308,0.13780425488948822,-10.53566837310791
1.7294967480992049e+18,0.04727335274219513,0.04708603769540787,-10.432504653930664
1.729496748108205e+18,0.011377792805433273,0.14437466859817505,-10.47806453704834
1.7294967481172052e+18,-0.04406817629933357,0.1339426338672638,-10.511222839355469
1.7294967481232054e+18,-0.020077180117368698,0.11418318748474121,-10.594017028808594
1.7294967481322056e+18,-0.01394698116928339,0.19969069957733154,-10.601948738098145
1.7294967481382057e+18,0.017100725322961807,0.16802528500556946,-10.572519302368164
1.729496748147206e+18,-0.07760278880596161,0.043619729578495026,-10.644984245300293
1.729496748156206e+18,-0.010604934766888618,0.15738004446029663,-10.638457298278809
1.7294967481652063e+18,-0.006184643134474754,0.11262024939060211,-10.529184341430664
1.7294967481712064e+18,-0.02430940978229046,0.04293511062860489,-10.560159683227539
1.7294967481832067e+18,-0.03977490961551666,0.1215616762638092,-10.612497329711914
1.7294967481922068e+18,-0.03120160661637783,0.14206819236278534,-10.656956672668457
1.729496748198207e+18,0.009903429076075554,0.09452743828296661,-10.703057289123535
1.729496748204207e+18,-0.019159255549311638,0.17403671145439148,-10.649639129638672
1.7294967482102072e+18,-0.054408371448516846,0.15303367376327515,-10.608335494995117
1.7294967482222075e+18,-0.04140079393982887,0.1416679471731186,-10.689842224121094
1.7294967482312077e+18,-0.03969821333885193,0.09860661625862122,-10.719643592834473
1.729496748240208e+18,-0.10877817869186401,0.12611164152622223,-10.83724594116211
1.729496748249208e+18,0.050118423998355865,0.14794357120990753,-10.732941627502441
1.7294967482582083e+18,0.03709244728088379,0.15096727013587952,-10.752470970153809
1.7294967482672084e+18,-0.06818880140781403,0.19960395991802216,-10.793158531188965
1.7294967482702085e+18,0.02072497084736824,0.14417485892772675,-10.788434982299805
1.7294967482792087e+18,0.028556231409311295,0.1436387449502945,-10.842364311218262
1.729496748288209e+18,-0.07062932103872299,0.1288370043039322,-10.723529815673828
1.7294967483002092e+18,-0.01092604361474514,0.18000225722789764,-10.837544441223145
1.7294967483092093e+18,0.06540830433368683,0.18793490529060364,-10.870870590209961
1.7294967483182095e+18,-0.030351221561431885,0.14473026990890503,-10.897744178771973
1.7294967483302098e+18,-0.05487837642431259,0.1547517329454422,-10.720914840698242
1.72949674833921e+18,-0.01816893182694912,0.20139536261558533,-10.872570991516113
1.7294967483512102e+18,0.015698928385972977,0.12414933741092682,-10.934813499450684
1.7294967483602104e+18,-0.04455333203077316,0.07540189474821091,-10.80582046508789
1.7294967483692106e+18,0.01639661379158497,0.17029252648353577,-10.863540649414062
1.7294967483752108e+18,-0.12475579977035522,0.1285252869129181,-10.904738426208496
1.729496748384211e+18,0.04722335934638977,0.13978128135204315,-10.857245445251465
1.7294967483962112e+18,-0.04075775295495987,0.1161838099360466,-10.99516773223877
1.7294967484052114e+18,-0.04093176871538162,0.14880961179733276,-10.988649368286133
1.7294967484172116e+18,-0.02644350193440914,0.2518386244773865,-11.09990119934082
1.7294967484262118e+18,-0.0027622412890195847,0.17956481873989105,-10.95470142364502
1.7294967484412122e+18,-0.09006991982460022,0.2589912712574005,-10.94019889831543
1.7294967484532124e+18,-0.08900823444128036,0.14827299118041992,-11.043679237365723
1.7294967484652127e+18,-0.04668822139501572,0.11525575816631317,-11.065021514892578
1.729496748477213e+18,-0.05312480032444,0.16655442118644714,-11.0414400100708
1.729496748486213e+18,0.015849031507968903,0.14037594199180603,-11.07327938079834
1.7294967484952133e+18,-0.007457302883267403,0.14647451043128967,-11.10151195526123
1.7294967485072136e+18,-0.02934538573026657,0.19857832789421082,-11.064915657043457
1.729496748522214e+18,0.057624369859695435,0.1895778328180313,-11.122117042541504
1.729496748531214e+18,0.015668999403715134,0.0825188159942627,-11.078680038452148
1.7294967485432143e+18,-0.03018912486732006,0.283128559589386,-11.0113525390625
1.7294967485522145e+18,0.005487803369760513,0.21858802437782288,-11.014432907104492
1.7294967485642148e+18,0.03178538382053375,0.21287119388580322,-11.040470123291016
1.729496748573215e+18,0.04439413547515869,0.16140815615653992,-11.110033988952637
1.7294967485852152e+18,-0.08008438348770142,0.10393181443214417,-11.089810371398926
1.7294967485942154e+18,-0.01208433322608471,0.1920001059770584,-10.947555541992188
1.7294967486002156e+18,-0.05866704136133194,0.1944998949766159,-13.1839599609375
1.7294967486122158e+18,-0.04353434592485428,0.20972052216529846,-14.027059555053711
1.729496748621216e+18,0.034924205392599106,0.2336515188217163,-14.1583251953125
1.7294967486302162e+18,0.03145712986588478,0.22655071318149567,-14.04498291015625
1.7294967486392164e+18,-0.007843617349863052,0.13178986310958862,-13.979122161865234
1.7294967486482166e+18,0.006071517243981361,0.10600683093070984,-13.962617874145508
1.7294967486572168e+18,0.009683968499302864,0.20417092740535736,-13.92032241821289
1.729496748666217e+18,-0.05494195222854614,0.21335244178771973,-13.804356575012207
1.7294967486752172e+18,0.01769157126545906,0.12443307042121887,-13.670658111572266
1.7294967486872174e+18,-0.0319659598171711,0.18026989698410034,-13.52544116973877
1.7294967486992177e+18,0.0320536307990551,0.20660606026649475,-13.516794204711914
1.729496748711218e+18,-0.040228307247161865,0.19708189368247986,-13.332956314086914
1.729496748720218e+18,-0.023089587688446045,0.19427898526191711,-13.287688255310059
1.7294967487292183e+18,-0.0037343124859035015,0.1332293599843979,-13.212296485900879
1.7294967487382185e+18,-0.012060152366757393,0.180986687541008,-13.158998489379883
1.7294967487502188e+18,-0.012877178378403187,0.15767468512058258,-13.091041564941406
1.729496748756219e+18,-0.05065026134252548,0.23385672271251678,-12.945611953735352
1.729496748762219e+18,-0.0522289052605629,0.1719297617673874,-12.890114784240723
1.7294967487742193e+18,0.004564173519611359,0.20314332842826843,-12.843706130981445
1.7294967487862195e+18,-0.02439752034842968,0.19079500436782837,-12.720819473266602
1.7294967487952197e+18,-0.014384577982127666,0.21308837831020355,-12.639643669128418
1.72949674880422e+18,-0.014563661068677902,0.1947827935218811,-12.557108879089355
1.72949674881322e+18,0.029391255229711533,0.18748128414154053,-12.617339134216309
1.7294967488222203e+18,0.047590143978595734,0.16378074884414673,-12.494065284729004
1.7294967488312205e+18,-0.06259775161743164,0.1569884568452835,-12.431230545043945
1.7294967488402207e+18,-0.008150972425937653,0.2276885062456131,-12.353988647460938
1.729496748852221e+18,-0.03576888516545296,0.19448672235012054,-12.257235527038574
1.729496748861221e+18,-0.00718054361641407,0.1793193370103836,-12.276700973510742
1.7294967488702213e+18,-0.012362049892544746,0.11262533813714981,-12.185229301452637
1.7294967488792215e+18,0.01822979375720024,0.08400170505046844,-12.047137260437012
1.7294967488882217e+18,-0.04473181068897247,0.2209985852241516,-12.092022895812988
1.729496748900222e+18,-0.1035541296005249,0.21593286097049713,-12.026354789733887
1.7294967489122222e+18,-0.02176898717880249,0.1654098778963089,-11.97378158569336
1.7294967489212224e+18,-0.10204829275608063,0.17860959470272064,-11.87912654876709
1.7294967489332227e+18,0.014855057001113892,0.23349769413471222,-11.80799388885498
1.7294967489422228e+18,-0.10871051251888275,0.20180310308933258,-11.7138032913208
1.729496748948223e+18,0.00017743557691574097,0.1044597178697586,-11.803365707397461
1.7294967489602232e+18,-0.027701981365680695,0.2006477564573288,-11.774890899658203
1.7294967489692234e+18,-0.02664884552359581,0.23840580880641937,-11.650410652160645
1.7294967489782236e+18,0.033174484968185425,0.17963427305221558,-11.595741271972656
1.7294967489872238e+18,-0.0017378628253936768,0.1653439998626709,-11.641569137573242
1.729496748996224e+18,-0.07384598255157471,0.14326055347919464,-11.68121337890625
1.7294967490082243e+18,-0.05163703113794327,0.18928776681423187,-11.539608001708984
1.7294967490172244e+18,-0.01563234254717827,0.22208133339881897,-11.553275108337402
1.7294967490262246e+18,-0.013838710263371468,0.2002921998500824,-11.42123794555664
1.729496749038225e+18,-0.05514916032552719,0.21912018954753876,-11.394302368164062
1.729496749047225e+18,-0.07741337269544601,0.2150297462940216,-11.344954490661621
1.7294967490562253e+18,-0.04536480829119682,0.21609215438365936,-11.367549896240234
1.7294967490652255e+18,0.061405032873153687,0.11476464569568634,-11.26643180847168
1.7294967490742257e+18,-0.038112759590148926,0.20301391184329987,-11.277807235717773
1.7294967490832259e+18,-0.01640203408896923,0.17898207902908325,-11.31032657623291
1.729496749095226e+18,-0.040495943278074265,0.18251633644104004,-11.161519050598145
1.7294967491042263e+18,-0.01832876354455948,0.18262852728366852,-11.165868759155273
1.7294967491162266e+18,-0.016267996281385422,0.15713658928871155,-11.141351699829102
1.7294967491252268e+18,-0.1112917810678482,0.22252321243286133,-11.0744047164917
1.729496749134227e+18,-0.006739193573594093,0.18923264741897583,-11.032888412475586
1.7294967491462272e+18,0.02494773082435131,0.1625487208366394,-10.992533683776855
1.7294967491552274e+18,-0.034426867961883545,0.25600624084472656,-10.964561462402344
1.7294967491672276e+18,-0.0032617952674627304,0.2519300580024719,-11.024931907653809
1.729496749179228e+18,-0.08420062065124512,0.19669854640960693,-10.920435905456543
1.729496749188228e+18,-0.0480293445289135,0.24575477838516235,-10.877650260925293
1.7294967492002284e+18,0.06369414925575256,0.21080282330513,-10.91440200805664
1.7294967492092285e+18,-0.0023526400327682495,0.1983352154493332,-10.914363861083984
1.7294967492182287e+18,-0.03007638268172741,0.20873504877090454,-10.8533296585083
1.729496749227229e+18,0.015967682003974915,0.18509633839130402,-10.893628120422363
1.729496749236229e+18,-0.012980747036635876,0.10259091109037399,-10.895557403564453
1.7294967492452293e+18,0.00872994214296341,0.1949939727783203,-10.772027015686035
1.7294967492542295e+18,-0.08419565111398697,0.17446427047252655,-10.759414672851562
1.7294967492632297e+18,-0.024232637137174606,0.27349239587783813,-10.747713088989258
1.72949674927223e+18,-0.0723869577050209,0.21583828330039978,-10.751421928405762
1.72949674927823e+18,0.004831982776522636,0.20567601919174194,-10.645026206970215
1.7294967492872302e+18,4.908628761768341e-05,0.2060113549232483,-10.713496208190918
1.7294967492962304e+18,-0.00532904826104641,0.2384352684020996,-10.667184829711914
1.7294967493052306e+18,-0.04676627740263939,0.18443022668361664,-10.627264976501465
1.7294967493172308e+18,-0.08590804040431976,0.22082936763763428,-10.676698684692383
1.729496749326231e+18,-0.08134575933218002,0.19879451394081116,-10.631556510925293
1.7294967493382313e+18,-0.028680259361863136,0.32961568236351013,-10.75688648223877
1.7294967493472315e+18,0.021425733342766762,0.253412127494812,-10.949655532836914
1.7294967493562317e+18,-0.021880334243178368,0.2498471438884735,-10.937161445617676
1.729496749368232e+18,-0.07144998013973236,0.25680896639823914,-10.924741744995117
1.7294967493802322e+18,0.01681130938231945,0.18540559709072113,-10.762247085571289
1.7294967493892324e+18,-0.07753874361515045,0.24970480799674988,-10.849177360534668
1.7294967493982326e+18,-0.022950392216444016,0.21082745492458344,-10.817118644714355
1.7294967494072328e+18,-0.019345583394169807,0.2665046453475952,-10.74817180633545
1.729496749419233e+18,-0.04069124162197113,0.221623495221138,-10.751384735107422
1.7294967494282332e+18,-0.03721202164888382,0.23297138512134552,-10.605850219726562
1.7294967494402335e+18,-0.12696573138237,0.0868115946650505,-10.593254089355469
1.7294967494492337e+18,-0.045877762138843536,0.18136107921600342,-10.629222869873047
1.7294967494582339e+18,0.024202467873692513,0.241225004196167,-10.675566673278809
1.729496749470234e+18,-0.0301688052713871,0.2157309204339981,-10.57768440246582
1.7294967494792343e+18,-0.022328266873955727,0.2485324591398239,-10.60276985168457
1.7294967494912346e+18,0.0006195995956659317,0.2325086146593094,-10.533797264099121
1.7294967495002348e+18,-0.026051755994558334,0.15580180287361145,-10.556685447692871
1.729496749509235e+18,0.00722271203994751,0.15774381160736084,-10.503873825073242
1.7294967495182351e+18,-0.03995000571012497,0.22128057479858398,-10.435240745544434
1.7294967495272353e+18,-0.034046631306409836,0.1817655861377716,-10.429478645324707
1.7294967495362355e+18,-0.04994981363415718,0.17644988000392914,-10.376859664916992
1.7294967495452357e+18,0.09055120497941971,0.28155699372291565,-10.402566909790039
1.729496749554236e+18,-0.05276434123516083,0.17495101690292358,-10.411381721496582
1.729496749563236e+18,-0.035591982305049896,0.2506200969219208,-10.394800186157227
1.7294967495722363e+18,-0.025145484134554863,0.1630825698375702,-10.279138565063477
1.7294967495812365e+18,-0.037925541400909424,0.21464751660823822,-10.362807273864746
1.7294967495902367e+18,0.05041719228029251,0.22772042453289032,-10.318130493164062
1.7294967495992369e+18,-0.057330574840307236,0.18448616564273834,-10.325385093688965
1.729496749608237e+18,-0.07688415050506592,0.23502421379089355,-10.24930477142334
1.7294967496172372e+18,-0.022555045783519745,0.2512754499912262,-10.30036449432373
1.7294967496262374e+18,-0.0021854322403669357,0.25200071930885315,-10.260169982910156
1.7294967496352376e+18,-0.06064610183238983,0.1350923478603363,-10.219809532165527
1.7294967496442378e+18,-0.03659972548484802,0.21368451416492462,-10.207399368286133
1.729496749653238e+18,-0.11204848438501358,0.1945544332265854,-10.254265785217285
1.7294967496622382e+18,0.0401662141084671,0.23501184582710266,-10.29727554321289
1.7294967496712384e+18,-0.018310921266674995,0.15469802916049957,-10.189109802246094
1.7294967496802386e+18,-0.017390714958310127,0.2545607089996338,-10.241150856018066
1.7294967496892388e+18,-0.024772444739937782,0.16242635250091553,-10.168838500976562
1.729496749698239e+18,0.038630180060863495,0.276151567697525,-10.132646560668945
1.7294967497072392e+18,-0.056178972125053406,0.18532238900661469,-10.145662307739258
1.7294967497192394e+18,-0.048130281269550323,0.2493274211883545,-10.092195510864258
1.7294967497282396e+18,-0.0330156609416008,0.18072384595870972,-10.112935066223145
1.7294967497372398e+18,-0.09361688792705536,0.20935887098312378,-10.167052268981934
1.72949674974624e+18,-0.054277822375297546,0.24873584508895874,-10.149871826171875
1.7294967497552402e+18,0.076191745698452,0.18040646612644196,-10.105862617492676
1.7294967497672404e+18,-0.048740047961473465,0.19352056086063385,-10.172985076904297
1.7294967497762406e+18,-0.026712585240602493,0.24818935990333557,-10.04780387878418
1.7294967497852408e+18,-0.014257068745791912,0.14977720379829407,-10.052062034606934
1.729496749794241e+18,0.012877525761723518,0.14274238049983978,-10.024455070495605
1.7294967498092413e+18,0.0517563670873642,0.16419538855552673,-10.021425247192383
1.7294967498182415e+18,-0.00695792306214571,0.1581028699874878,-9.951739311218262
1.7294967498272417e+18,0.011100218631327152,0.3022421896457672,-10.056010246276855
1.729496749836242e+18,-0.014064069837331772,0.22843168675899506,-10.064949989318848
1.729496749845242e+18,-0.01361455861479044,0.27181944251060486,-10.038206100463867
1.7294967498542423e+18,-0.008227488026022911,0.2445612996816635,-9.952311515808105
1.7294967498662426e+18,-0.020387601107358932,0.2619609832763672,-9.967488288879395
1.7294967498752428e+18,-0.015469834208488464,0.27135008573532104,-9.983142852783203
1.729496749887243e+18,-0.0018121292814612389,0.19948942959308624,-9.93523120880127
1.7294967498962432e+18,-0.015777213498950005,0.19238029420375824,-9.9791898727417
1.7294967499112435e+18,-0.0882064700126648,0.256572425365448,-9.907384872436523
1.7294967499232438e+18,-0.010431407019495964,0.10806404799222946,-9.904091835021973
1.729496749935244e+18,-0.027950983494520187,0.25049227476119995,-9.912386894226074
1.7294967499472443e+18,0.0658867359161377,0.21214765310287476,-9.906463623046875
1.7294967499562445e+18,0.02064613066613674,0.2107570320367813,-9.810371398925781
1.7294967499682447e+18,-0.011620638892054558,0.2070382684469223,-9.903133392333984
1.729496749980245e+18,-0.06291958689689636,0.1939750760793686,-9.930063247680664
1.7294967499892452e+18,-0.04032433405518532,0.21887639164924622,-9.918691635131836
1.7294967500012454e+18,-0.06654061377048492,0.21541066467761993,-9.870833396911621
1.7294967500102456e+18,0.000937742181122303,0.3039717376232147,-9.810839653015137
1.729496750022246e+18,0.019719649106264114,0.21424180269241333,-9.9094820022583
1.729496750031246e+18,-0.00906708836555481,0.21391169726848602,-9.86690902709961
1.7294967500402463e+18,0.009509106166660786,0.216643288731575,-9.8358736038208
1.7294967500492465e+18,0.015054025687277317,0.22300517559051514,-9.831009864807129
1.7294967500612467e+18,-0.04056565463542938,0.23827388882637024,-9.747798919677734
1.729496750073247e+18,0.0046509187668561935,0.18636448681354523,-9.880698204040527
1.7294967500822472e+18,0.015863623470067978,0.29934006929397583,-9.858500480651855
1.7294967500942474e+18,0.08437308669090271,0.10820938646793365,-9.877408027648926
1.7294967501032476e+18,-0.0006760694086551666,0.23854246735572815,-9.841174125671387
1.7294967501122478e+18,0.08891703188419342,0.16286587715148926,-9.824018478393555
1.729496750121248e+18,0.047896116971969604,0.25266969203948975,-9.83815860748291
1.7294967501332483e+18,0.049693748354911804,0.14537429809570312,-9.823719024658203
1.7294967501422484e+18,0.02874351292848587,0.20187196135520935,-9.801024436950684
1.7294967501512486e+18,0.032514773309230804,0.162380650639534,-9.865897178649902
1.7294967501602488e+18,-0.00938335806131363,0.24693243205547333,-9.831191062927246
1.729496750172249e+18,0.029584340751171112,0.22635973989963531,-9.755964279174805
1.7294967501812493e+18,0.00041570235043764114,0.21498924493789673,-9.822179794311523
1.7294967501902495e+18,0.004453415982425213,0.24008989334106445,-9.770140647888184
1.7294967502022497e+18,-0.021274689584970474,0.19124850630760193,-9.8208646774292
1.72949675021125e+18,0.013849634677171707,0.19607487320899963,-9.80331039428711
1.72949675022025e+18,-0.05022406578063965,0.19876137375831604,-9.74865436553955
1.7294967502292503e+18,-0.045751117169857025,0.20843136310577393,-9.812503814697266
1.7294967502382505e+18,0.014744316227734089,0.1993102878332138,-9.767884254455566
1.7294967502502508e+18,-0.06861744821071625,0.2076500505208969,-9.797943115234375
1.729496750259251e+18,0.007043510675430298,0.23019219934940338,-9.70850944519043
1.7294967502682511e+18,0.004787662997841835,0.20927217602729797,-9.701993942260742
1.7294967502772513e+18,-0.021669544279575348,0.2804752588272095,-9.796631813049316
1.7294967502892516e+18,0.04005975276231766,0.22778451442718506,-9.796875
1.7294967503012518e+18,0.023744981735944748,0.21608403325080872,-9.87685775756836
1.729496750310252e+18,0.01648617535829544,0.2010936141014099,-9.75322437286377
1.7294967503222523e+18,0.00035131629556417465,0.16950732469558716,-9.763750076293945
1.7294967503312525e+18,0.05777595192193985,0.23399154841899872,-9.665596961975098
1.7294967503432527e+18,0.050517283380031586,0.19801706075668335,-9.7377290725708
1.729496750352253e+18,-0.05157914012670517,0.2714206576347351,-9.623685836791992
1.729496750361253e+18,-0.022283270955085754,0.2654176652431488,-9.680856704711914
1.7294967503732534e+18,0.026320427656173706,0.2717795968055725,-9.600210189819336
1.7294967503822536e+18,-0.04414045810699463,0.20648276805877686,-9.63426399230957
1.7294967503942538e+18,-0.057129278779029846,0.1934007704257965,-9.545430183410645
1.729496750403254e+18,0.008878903463482857,0.19894665479660034,-9.56251335144043
1.7294967504122542e+18,0.04819347709417343,0.2133164256811142,-9.505819320678711
1.7294967504212544e+18,0.027464061975479126,0.23562490940093994,-9.495288848876953
1.7294967504302546e+18,0.02996065653860569,0.2273668497800827,-9.516239166259766
1.7294967504392548e+18,-0.03132550045847893,0.1891317069530487,-9.46812629699707
1.729496750448255e+18,-0.04664568230509758,0.22452445328235626,-9.539793014526367
1.7294967504602552e+18,-0.043897595256567,0.22863337397575378,-9.415023803710938
1.7294967504692554e+18,-0.04843659698963165,0.225780189037323,-9.407482147216797
1.7294967504782556e+18,0.008193554356694221,0.199849471449852,-9.386768341064453
1.7294967504872558e+18,0.006944493390619755,0.1879989355802536,-9.522908210754395
1.729496750496256e+18,0.013674061745405197,0.22074972093105316,-9.39939022064209
1.7294967505052562e+18,-0.008632582612335682,0.26061752438545227,-9.313328742980957
1.7294967505112563e+18,-0.023851387202739716,0.168356254696846,-9.2702054977417
1.7294967505232566e+18,-0.05814720690250397,0.13763898611068726,-9.392716407775879
1.7294967505292567e+18,0.005180451087653637,0.28106504678726196,-9.197004318237305
1.729496750538257e+18,-0.03970858454704285,0.1661028265953064,-9.344594955444336
1.729496750547257e+18,-0.008423963561654091,0.19927197694778442,-9.385634422302246
1.7294967505562573e+18,0.04140877351164818,0.2787778973579407,-9.32642936706543
1.7294967505652575e+18,-0.07682736963033676,0.09535819292068481,-9.222875595092773
1.7294967505712576e+18,-0.03546882048249245,0.2752953767776489,-9.197274208068848
1.7294967505772577e+18,0.006292275153100491,0.14770042896270752,-9.144990921020508
1.729496750586258e+18,-0.08044994622468948,0.20187541842460632,-9.180023193359375
1.729496750595258e+18,-0.11212018132209778,0.27296239137649536,-9.190816879272461
1.7294967506042583e+18,-0.02344774268567562,0.27298417687416077,-9.254735946655273
1.7294967506132585e+18,-0.02033763751387596,0.19454379379749298,-9.196897506713867
1.7294967506252588e+18,-0.0579301193356514,0.2684962749481201,-9.25194263458252
1.729496750634259e+18,-0.040268123149871826,0.19604551792144775,-9.096550941467285
1.7294967506432591e+18,-0.12933096289634705,0.1804034262895584,-9.109127044677734
1.7294967506522593e+18,0.025622399523854256,0.15472671389579773,-9.179423332214355
1.7294967506612595e+18,0.026934267953038216,0.20531585812568665,-9.247312545776367
1.7294967506702597e+18,-0.05105317011475563,0.2076985239982605,-9.170002937316895
1.72949675067926e+18,0.03699488937854767,0.1477135270833969,-9.021665573120117
1.7294967506912602e+18,-0.06347211450338364,0.23608183860778809,-9.064386367797852
1.7294967507002604e+18,-0.07299681752920151,0.23554416000843048,-9.083486557006836
1.7294967507092605e+18,0.013304137624800205,0.2312011420726776,-7.744856357574463
1.7294967507182607e+18,-0.07661521434783936,0.1998400241136551,-7.276111602783203
1.729496750727261e+18,-0.06263860315084457,0.184955433011055,-7.255937099456787
1.729496750736261e+18,0.013597398065030575,0.1355263888835907,-7.288849830627441
1.7294967507452613e+18,0.04438677430152893,0.1371181309223175,-7.344318389892578
1.7294967507572616e+18,-0.0336671881377697,0.05916161835193634,-7.622422218322754
1.7294967507662618e+18,0.008991992101073265,0.1282443255186081,-7.747404098510742
1.729496750775262e+18,-0.011346072889864445,0.18140338361263275,-7.732968807220459
1.7294967507842621e+18,-0.02657441422343254,0.2109992951154709,-7.8233747482299805
1.7294967507932623e+18,-0.058544762432575226,0.24498847126960754,-7.9751362800598145
1.7294967508022625e+18,-0.032024987041950226,0.20029492676258087,-8.059501647949219
1.7294967508112627e+18,-0.05990055948495865,0.26528412103652954,-8.135892868041992
1.729496750820263e+18,-0.06796440482139587,0.17830835282802582,-8.305063247680664
1.729496750829263e+18,0.005380285903811455,0.23214316368103027,-8.273194313049316
1.7294967508382633e+18,0.031308528035879135,0.14599202573299408,-8.406681060791016
1.7294967508502636e+18,-0.02826313115656376,0.2812832295894623,-8.570188522338867
1.7294967508592637e+18,-0.06255904585123062,0.1885165423154831,-8.54012393951416
1.729496750868264e+18,-0.014755861833691597,0.31068557500839233,-8.514375686645508
1.7294967508772641e+18,-0.07296217978000641,0.20044884085655212,-8.581216812133789
1.7294967508862643e+18,0.019995857030153275,0.1906919777393341,-8.729145050048828
1.7294967508922644e+18,-0.053684551268815994,0.23688820004463196,-8.687127113342285
1.7294967509042647e+18,-0.05886674299836159,0.19472305476665497,-8.73306655883789
1.729496750916265e+18,0.049674734473228455,0.21716825664043427,-8.79931926727295
1.7294967509252652e+18,-0.0377468578517437,0.28148797154426575,-8.791388511657715
1.7294967509342653e+18,0.039363544434309006,0.1997515857219696,-8.908169746398926
1.7294967509462656e+18,-0.036664821207523346,0.12889403104782104,-8.845709800720215
1.7294967509582659e+18,-0.04783749207854271,0.14049381017684937,-9.022321701049805
1.729496750967266e+18,-0.06481349468231201,0.20380204916000366,-8.983777046203613
1.7294967509792663e+18,-0.05343645066022873,0.17678678035736084,-8.965015411376953
1.7294967509912666e+18,-0.013497678562998772,0.21443788707256317,-9.04250431060791
1.7294967510032668e+18,-0.012584601528942585,0.2014240175485611,-8.995219230651855
1.729496751015267e+18,-0.095009446144104,0.226229727268219,-9.109819412231445
1.7294967510242673e+18,-0.022242866456508636,0.1980878710746765,-9.108181953430176
1.7294967510332675e+18,-0.06458836793899536,0.24368861317634583,-9.145917892456055
1.7294967510422676e+18,-0.043182309716939926,0.2145722210407257,-9.046245574951172
1.7294967510512678e+18,-0.0346478633582592,0.23687638342380524,-9.08431625366211
1.729496751057268e+18,0.10987047851085663,0.2257545292377472,-9.128067016601562
1.7294967510662682e+18,0.010423565283417702,0.22274339199066162,-9.141450881958008
1.7294967510752684e+18,-0.04064364358782768,0.19250300526618958,-9.181156158447266
1.7294967510842685e+18,-0.006790929473936558,0.17544089257717133,-9.206509590148926
1.7294967510932687e+18,0.09672299027442932,0.22146309912204742,-9.161911010742188
1.729496751102269e+18,-0.008565139956772327,0.18813669681549072,-9.200972557067871
1.729496751108269e+18,-0.010189966298639774,0.14965344965457916,-9.177785873413086
1.7294967511172692e+18,0.05008849874138832,0.12952293455600739,-9.258393287658691
1.7294967511292695e+18,-0.03518940135836601,0.13638493418693542,-9.281394958496094
1.7294967511322696e+18,-0.09427095204591751,0.2182570993900299,-9.18578815460205
1.7294967511412698e+18,0.05110941454768181,0.22393038868904114,-9.263522148132324
1.72949675114727e+18,-0.001034642569720745,0.20131491124629974,-9.268585205078125
1.72949675115627e+18,-0.04252703860402107,0.11618417501449585,-9.319721221923828
1.7294967511652703e+18,0.06291241943836212,0.13415241241455078,-9.231348037719727
1.7294967511742705e+18,-0.06724216789007187,0.1310071051120758,-9.299591064453125
1.7294967511832707e+18,-0.040994517505168915,0.23962268233299255,-9.256037712097168
1.7294967511922708e+18,0.04098101705312729,0.2223581075668335,-9.260893821716309
1.729496751201271e+18,-0.03606734424829483,0.13086342811584473,-9.226821899414062
1.7294967512102712e+18,0.0016345120966434479,0.0936025008559227,-9.402914047241211
1.7294967512162714e+18,-0.08542713522911072,0.13181306421756744,-9.345154762268066
1.7294967512252716e+18,0.03734610602259636,0.07823216170072556,-9.300374984741211
1.7294967512342717e+18,-0.008000093512237072,0.1428915411233902,-9.360577583312988
1.729496751243272e+18,3.6708079278469086e-05,0.13077299296855927,-9.314684867858887
1.729496751252272e+18,-0.009928744286298752,0.12606306374073029,-9.329142570495605
1.7294967512612723e+18,-0.07176172733306885,0.18127880990505219,-9.379640579223633
1.7294967512672724e+18,0.04300384223461151,0.14718596637248993,-9.322251319885254
