timestamp,gyro_x,gyro_y,gyro_z
1.7294232231352653e+18,0.0011470074532553554,0.0008285590447485447,-0.00024909363128244877
1.7294232231442655e+18,0.0003623089869506657,-0.00011047266161767766,0.003464039182290435
1.7294232231502656e+18,0.0014511420158669353,-0.0022890474647283554,0.0007673443178646266
1.7294232231532657e+18,0.00020881587988696992,-0.0018098052823916078,-0.0009121210314333439
1.7294232231592658e+18,0.0007911541033536196,-3.773892967728898e-05,0.00035721116000786424
1.729423223165266e+18,-4.977606295142323e-05,-0.0017594668315723538,-0.0007073103333823383
1.729423223168266e+18,0.0016515771858394146,0.0004353123076725751,-0.0008617246057838202
1.729423223174266e+18,-0.0013451180420815945,-0.0009211398428305984,-0.0004890187410637736
1.7294232231802662e+18,0.0002796968910843134,-0.0008778771152719855,0.002669181441888213
1.7294232231862664e+18,-0.0005068366299383342,-0.002710114000365138,-0.005234577227383852
1.7294232231892664e+18,0.0019688252359628677,0.0015570721589028835,0.0017000696389004588
1.7294232231952666e+18,-0.0009874919196590781,0.0008583207963965833,0.0007275358657352626
1.7294232232012667e+18,0.0009922634344547987,-0.0027356399223208427,0.0011561376741155982
1.7294232232072668e+18,2.0541059711831622e-05,-0.0027324985712766647,0.0014535235241055489
1.729423223210267e+18,0.001723411143757403,0.00042901153210550547,-0.0018071283120661974
1.729423223216267e+18,-0.0022264409344643354,-0.000240285400650464,0.0003880006552208215
1.7294232232222671e+18,1.4969924677643576e-06,-0.0010040693450719118,0.0006009533535689116
1.7294232232282673e+18,0.00020619080169126391,-0.0011702080955728889,0.0008888114825822413
1.7294232232312673e+18,0.00076299998909235,-0.002143130637705326,0.0002921801642514765
1.7294232232372675e+18,0.0003945945354644209,-0.0011961497366428375,-0.003257557051256299
1.7294232232432676e+18,0.002433033660054207,-0.0015338381053879857,0.0009952097898349166
1.7294232232492677e+18,-0.001248231390491128,0.0029223032761365175,-0.0004522650269791484
1.7294232232522678e+18,0.00241897813975811,-0.001062508556060493,0.0006059217266738415
1.729423223258268e+18,0.0017813212471082807,-0.0022523277439177036,-0.0001631008490221575
1.729423223264268e+18,-0.0013716606190428138,0.000928745255805552,0.0031926205847412348
1.729423223267268e+18,0.000731753942091018,-0.0010485753882676363,0.0009505976922810078
1.7294232232732682e+18,0.00014416237536352128,-0.0019049011170864105,0.0009659846546128392
1.7294232232792684e+18,-0.0009205797105096281,-0.0015893194358795881,-0.000872641452588141
1.7294232232852685e+18,0.0005689756362698972,0.0004369249800220132,-0.0017174402019008994
1.7294232232912686e+18,-0.0011697248555719852,0.002460097661241889,3.112667036475614e-05
1.7294232232942687e+18,0.00023246128694154322,0.0024100870359688997,0.003016304923221469
1.7294232233002688e+18,0.0009076359565369785,0.0007253361982293427,-0.0006696010241284966
1.729423223306269e+18,0.0007909777923487127,-0.0007077311747707427,-0.002305474365130067
1.729423223312269e+18,-3.2361585908802226e-05,0.0019790916703641415,0.004174039699137211
1.729423223315269e+18,-0.0023099465761333704,-0.0016008986858651042,0.00017661369929555804
1.7294232233212692e+18,-0.00030095051624812186,0.0014390546130016446,0.0023030403535813093
1.7294232233272694e+18,0.00193024892359972,0.001821885583922267,-0.0019403417827561498
1.7294232233302694e+18,-0.001235894043929875,0.000630779133643955,0.0001590596220921725
1.7294232233362696e+18,0.0006378545658662915,-0.0015591175761073828,0.000907525303773582
1.7294232233422697e+18,0.0017440489027649164,0.000635879987385124,0.00023793433501850814
1.7294232233482698e+18,-0.000985259423032403,-0.001154323574155569,0.0007165380520746112
1.72942322335127e+18,-0.001094010891392827,-7.556853233836591e-05,-0.0009058025316335261
1.72942322335727e+18,0.002320412080734968,0.001325319753959775,0.0011515008518472314
1.7294232233632701e+18,0.0005204681656323373,0.0031431668903678656,-0.00016098262858577073
1.7294232233662702e+18,0.0019797387067228556,-0.0013200361281633377,0.0009283602121286094
1.7294232233722703e+18,0.00014316044689621776,-0.0026507689617574215,-0.0022726356983184814
1.7294232233782705e+18,-0.0004733949899673462,0.0013135537737980485,-0.0015852481592446566
1.7294232233842706e+18,-2.5256087610614486e-05,0.00024502031737938523,-0.0011537299724295735
1.7294232233902707e+18,0.0003379189583938569,0.0017670928500592709,-0.0010526457335799932
1.7294232233962708e+18,0.0020760635379701853,0.00025261761038564146,-0.004940374754369259
1.729423223402271e+18,0.00028716327506117523,-0.0008779415511526167,0.0016514864983037114
1.729423223408271e+18,-0.0006107176886871457,0.00306312320753932,-0.0013680433621630073
1.7294232234112712e+18,0.00012525432975962758,0.0020456230267882347,-0.001986573450267315
1.7294232234172713e+18,0.0021160219330340624,0.002792013343423605,-0.00019969759159721434
1.7294232234232714e+18,0.0022473714780062437,0.002431694185361266,-0.0007163857808336616
1.7294232234292716e+18,0.005261996295303106,0.001281740958802402,0.0011349145788699389
1.7294232234352717e+18,0.00011219199950573966,-0.0029999082908034325,-0.004142086952924728
1.7294232234382717e+18,-2.7210282496525906e-05,0.0003022200253326446,0.000437856768257916
1.7294232234442719e+18,-0.00035140453837811947,-0.0001983176334761083,0.0007685188902541995
1.729423223450272e+18,-0.00047704452299512923,-8.03774491942022e-06,5.311078348313458e-05
1.729423223453272e+18,0.0010870230617001653,-0.00017953364294953644,7.780989108141512e-05
1.7294232234592722e+18,0.0012286703567951918,0.001933090970851481,0.00031945048249326646
1.7294232234652723e+18,0.00010622633999446407,0.0004747895582113415,-0.00014531082706525922
1.7294232234712724e+18,-0.0010529971914365888,0.001248992863111198,-0.0012561120092868805
1.7294232234742725e+18,-0.0015275025507435203,0.002008844865486026,-0.0012445405591279268
1.7294232234802726e+18,0.00035754244890995324,-7.263146108016372e-05,-0.00038780871545895934
1.7294232234862728e+18,0.0014283969067037106,2.1881724023842253e-05,0.0008725749794393778
1.7294232234892728e+18,-7.717248809058219e-05,0.0002722558274399489,-0.002421368844807148
1.729423223495273e+18,0.0005178648862056434,0.0022408803924918175,0.0005687737721018493
1.729423223501273e+18,-0.0031906345393508673,0.0008976038661785424,-0.0007756482809782028
1.7294232235072732e+18,0.0002891096519306302,0.003516517812386155,0.0014244010671973228
1.7294232235102733e+18,0.002408539643511176,-0.0002525117015466094,0.0014081078115850687
1.7294232235162734e+18,-0.0011645409977063537,0.0018625975353643298,-0.000630545720923692
1.7294232235222735e+18,0.0005212902324274182,-0.0006228297716006637,0.0010717600816860795
1.7294232235282737e+18,-0.0019571937154978514,0.0008522588177584112,0.00046640459913760424
1.7294232235342738e+18,-0.0002402749378234148,0.00044786525540985167,-0.0008214827394112945
1.7294232235372739e+18,0.0005994848324917257,0.0007440347690135241,-0.0012750572059303522
1.729423223543274e+18,-0.0001725959882605821,-0.0015869224444031715,-0.0010069222189486027
1.729423223549274e+18,0.0007871093694120646,-0.001230118446983397,-0.0019246997544541955
1.7294232235552742e+18,0.0014019854133948684,-0.000399268523324281,5.5147746024886146e-05
1.7294232235582743e+18,0.0018155493307858706,1.2686601621680893e-05,-0.002739761956036091
1.7294232235642744e+18,-0.0004235939704813063,-0.0006536702858284116,-0.0035736444406211376
1.7294232235702746e+18,0.00047461537178605795,-0.00026716769207268953,0.0016657523810863495
1.7294232235732746e+18,-0.00024227669928222895,-0.002714756643399596,-0.003129644552245736
1.7294232235792748e+18,0.0022260304540395737,0.00042724315426312387,-0.0014210025547072291
1.729423223585275e+18,0.001191040500998497,0.00014065028517507017,0.0015385581646114588
1.729423223588275e+18,0.0027015774976462126,0.001251218025572598,-0.0018054988468065858
1.729423223594275e+18,7.963024108903483e-05,-0.0007332062814384699,-0.0017139468109235168
1.7294232236002752e+18,-0.002188418060541153,0.000468443293357268,4.635281948139891e-05
1.7294232236062753e+18,0.0013230058830231428,0.0021227560937404633,-0.0012992582051083446
1.7294232236122755e+18,-4.818048910237849e-05,0.0011582085862755775,-0.0012745476560667157
1.7294232236152755e+18,-8.833032188704237e-05,0.0010406911605969071,-0.0014103938592597842
1.7294232236212756e+18,0.0007740098517388105,0.00022341861040331423,0.001299132825806737
1.7294232236272758e+18,-0.00045571892405860126,-0.003704934613779187,-0.00058340048417449
1.729423223633276e+18,-0.0008645346970297396,0.0019686720333993435,-0.0010511144064366817
1.729423223636276e+18,0.00032061937963590026,0.001215804135426879,-0.0011249363888055086
1.729423223642276e+18,0.000577493105083704,0.0001586121943546459,0.0017075362848117948
1.7294232236482762e+18,-0.0037649115547537804,0.00044912780867889524,0.0018413932994008064
1.7294232236542764e+18,-0.00022641997202299535,0.0024665147066116333,-0.0011402361560612917
1.7294232236572764e+18,-0.0014727747766301036,-0.0005623896140605211,-0.00143370870500803
1.7294232236632765e+18,0.0027517927810549736,-0.0002242021873826161,-0.0025373254902660847
1.7294232236692767e+18,0.0009532730327919126,-0.0004976539639756083,0.0011000102385878563
1.7294232236752768e+18,0.002850818680599332,-0.00012251162843313068,-0.003315417096018791
1.7294232236782769e+18,0.000543861067853868,0.00033681647619232535,-0.0014576467219740152
1.729423223684277e+18,-8.886089926818386e-05,-0.0014767154352739453,0.00042393954936414957
1.729423223690277e+18,-0.0015715784393250942,-0.000235249477555044,0.002824353752657771
1.7294232236932772e+18,0.0022610907908529043,-0.0007416114094667137,0.00146621058229357
1.7294232236992773e+18,-0.0015398167306557298,-0.0011202262248843908,-0.0021876690443605185
1.7294232237052774e+18,-0.0011035033967345953,-0.0021864715963602066,0.0013253516517579556
1.7294232237082775e+18,-0.0006782505661249161,-0.0026017751079052687,-0.0011938366806134582
1.7294232237142776e+18,0.0008506195154041052,-0.00099178624805063,0.0004592072800733149
1.7294232237202778e+18,-0.00292268511839211,-0.0008234275737777352,0.0016019738977774978
1.729423223726278e+18,-0.00045884435530751944,-0.00046946521615609527,-0.000313405878841877
1.729423223729278e+18,0.0019802756141871214,0.0010518525959923863,-0.0005661455797962844
1.729423223735278e+18,0.0007188708405010402,0.0003177567559760064,-0.0017140695126727223
1.7294232237412782e+18,-0.0005559684941545129,0.0018874893430620432,0.0038801259361207485
1.7294232237442783e+18,-0.0011229213560000062,0.0014171028742566705,-0.0018558596493676305
1.7294232237502784e+18,0.0005163206369616091,-0.00105701491702348,0.0006598157342523336
1.7294232237562785e+18,0.000543795817065984,-3.142774585285224e-05,0.0030361744575202465
1.7294232237622787e+18,-0.00016057300672400743,-0.003156615188345313,0.0005303774960339069
1.7294232237652787e+18,-0.0008074645302258432,-0.0012012231163680553,0.0005873636109754443
1.7294232237712788e+18,0.0019687863532453775,0.0005245840293355286,-0.0033298323396593332
1.729423223777279e+18,0.0028983650263398886,0.0025376370176672935,-0.0007036581519059837
1.729423223783279e+18,-0.0006490623927675188,-0.0005731767159886658,-0.0015140532050281763
1.7294232237892792e+18,0.0001414023427059874,0.0024828677996993065,-0.0009162483620457351
1.7294232237922793e+18,-0.0008507897146046162,-0.0025552487932145596,0.0011938181705772877
1.7294232237982794e+18,0.00047117366921156645,-0.002303540240973234,-0.001634298823773861
1.7294232238042796e+18,0.0018177039455622435,-0.0010547994170337915,-0.0021045405883342028
1.7294232238102797e+18,0.0016737900441512465,-3.9942948205862194e-05,-0.0015980995958670974
1.7294232238132797e+18,-0.0015600172337144613,0.00023295894789043814,0.0002423609112156555
1.72942322381928e+18,0.0017644481267780066,-0.0013441635528579354,0.001456898869946599
1.72942322382528e+18,0.0008823325042612851,2.0575636881403625e-05,0.0029167260508984327
1.72942322383128e+18,-0.00011181314766872674,0.0007216197554953396,-0.001131608965806663
1.7294232238372803e+18,0.001174074481241405,-0.002188525628298521,0.00027072764351032674
1.7294232238402803e+18,-0.0016942727379500866,0.0008084599976427853,0.003390204394236207
1.7294232238462804e+18,-0.0027507198974490166,-0.002438813680782914,-0.0003277068608440459
1.7294232238522806e+18,-0.0012170318514108658,0.0023493380285799503,0.0006940413150005043
1.7294232238582807e+18,0.0002182406315114349,0.001292542670853436,-0.001705978182144463
1.7294232238642808e+18,-0.000246803363552317,-0.00031072134152054787,8.28559641377069e-05
1.729423223867281e+18,-0.001792440889403224,0.0012083244509994984,0.0022698771208524704
1.729423223873281e+18,0.0011357407784089446,0.0010661290725693107,0.0012374109355732799
1.7294232238792812e+18,-0.0008166196057572961,0.0009038613643497229,0.003057784168049693
1.7294232238852813e+18,0.0008028937736526132,0.0013303097803145647,-8.636986603960395e-05
1.7294232238882813e+18,-0.0009705513948574662,-0.00026472468744032085,0.001764254760928452
1.7294232238942815e+18,-0.003970135468989611,-0.0013776435516774654,-0.0012519813608378172
1.7294232239002816e+18,0.0016638149973005056,-0.0015655260067433119,-0.001352284918539226
1.7294232239032817e+18,0.00019162373791914433,0.0015055517433211207,0.000727834296412766
1.7294232239092818e+18,-0.002035632263869047,-0.0010357589926570654,0.0013952745357528329
1.729423223915282e+18,-0.0009947825456038117,-0.0007691673235967755,0.0018413509242236614
1.729423223918282e+18,-0.0005225036293268204,0.0008107244502753019,0.001093849423341453
1.7294232239272822e+18,-0.0002667436783667654,-0.0007801526808179915,-0.0013008518144488335
1.7294232239302822e+18,-0.0015449393540620804,0.0007419436587952077,0.0013751661172136664
1.7294232239362824e+18,0.000263326772255823,0.000979986391030252,0.001415414735674858
1.7294232239422825e+18,0.0003962573246099055,-0.0019068281399086118,0.0017119873082265258
1.7294232239482826e+18,-0.0013296290999278426,-0.00015250644355546683,0.0007513872114941478
1.7294232239512827e+18,-0.001071130740456283,0.0014702468179166317,-0.0012756092473864555
1.7294232239572828e+18,-0.0008088002796284854,-0.001878600101917982,0.0010746944462880492
1.729423223963283e+18,0.0012905384646728635,-0.000633603660389781,-0.00044452599831856787
1.729423223966283e+18,0.0014324327930808067,0.002428000792860985,-0.0004957112832926214
1.7294232239722831e+18,0.0011673879344016314,0.001535466406494379,-0.0024366697762161493
1.7294232239782833e+18,0.0017891402821987867,0.0004040617204736918,-0.0007292397203855217
1.7294232239842834e+18,-0.0013216333463788033,0.00120864761993289,0.0006534814601764083
1.7294232239902835e+18,-0.0008353119483217597,-0.0007795731071382761,0.0016763571184128523
1.7294232239932836e+18,0.0009175363811664283,-0.0023694015108048916,-0.0013094567693769932
1.7294232239992837e+18,0.0004351571260485798,0.002117536496371031,0.001255401992239058
1.7294232240052838e+18,-0.0018788810120895505,-0.0016080915229395032,0.0025389622896909714
1.729423224011284e+18,-0.0001521706726634875,0.0004280591383576393,0.0022727930918335915
1.729423224014284e+18,-0.0021426358725875616,-0.0008094398654066026,0.001207622466608882
1.7294232240202842e+18,0.0035318012814968824,0.0009241519146598876,0.00016611639875918627
1.7294232240262843e+18,0.0008073609205894172,-0.0008866180432960391,0.0014643075410276651
1.7294232240322844e+18,0.001546816318295896,0.0017603622982278466,0.0013938011834397912
1.7294232240382845e+18,0.0024876028764992952,-0.0011318391188979149,0.001245895866304636
1.7294232240412846e+18,-0.003788697998970747,-0.0038225138559937477,0.001557441195473075
1.7294232240472847e+18,-0.0016048323595896363,-0.0022199482191354036,-0.0003889752260874957
1.7294232240532849e+18,0.00016818671429064125,-0.0015183503273874521,-0.001019886927679181
1.729423224056285e+18,0.0032040139194577932,-0.00031227158615365624,0.0007499057101085782
1.729423224062285e+18,0.0009114232379943132,0.0013854732969775796,0.0005641081952489913
1.7294232240682852e+18,0.0007389961392618716,0.0012093615951016545,0.0010391700780019164
1.7294232240742853e+18,0.0039270357228815556,0.0012107411166653037,-0.000998593750409782
1.7294232240772854e+18,-0.0006787348538637161,0.000745562429074198,-0.0005458556115627289
1.7294232240832855e+18,-0.0009070112719200552,-0.0005486200097948313,0.0006458389689214528
1.7294232240892856e+18,0.004859541542828083,-0.002638834295794368,-0.0008454318740405142
1.7294232240922857e+18,0.002401059726253152,0.005103875882923603,-0.00019162804528605193
1.7294232240982858e+18,-4.9358415708411485e-05,-0.0025236669462174177,0.0003361893177498132
1.729423224104286e+18,0.00029853673186153173,0.001258936244994402,-0.0012682011583819985
1.729423224107286e+18,0.001321525196544826,0.001201480277813971,-0.002671315800398588
1.7294232241132861e+18,-0.0019487497629597783,0.00040977532626129687,-0.00067261973163113
1.7294232241192863e+18,0.0007143383263610303,-0.00029157279641367495,0.0011106759775429964
1.7294232241252864e+18,-0.0017443847609683871,-0.00108280498534441,0.0003724982379935682
1.7294232241312865e+18,-0.0024872610811144114,0.0003643413365352899,-0.0008493626373820007
1.7294232241342866e+18,0.0002666120126377791,-0.00024379603564739227,0.0014750455738976598
1.7294232241402867e+18,-0.0006460595177486539,0.0006786272278986871,-0.0008986718603409827
1.7294232241462868e+18,-0.000643216073513031,0.00041138322558254004,0.00038086605491116643
1.729423224152287e+18,0.002377586904913187,0.0015947393840178847,0.0027815871872007847
1.729423224155287e+18,-0.0010401890613138676,0.0011810619616881013,0.0005262753693386912
1.7294232241612872e+18,-0.0020847772248089314,-0.001012015505693853,-0.0005278381868265569
1.7294232241672873e+18,0.0018666033865883946,0.0009017561096698046,0.0018720716470852494
1.7294232241732874e+18,-0.0006812822539359331,0.0013248197501525283,-0.0010078634368255734
1.7294232241792876e+18,-0.00031572452280670404,-0.0021680514328181744,0.0018742239335551858
1.7294232241822876e+18,0.00011308257671771571,0.0008151072543114424,0.0015299749793484807
1.7294232241882877e+18,0.004996317904442549,0.0009384421864524484,-0.00013260467676445842
1.7294232241942879e+18,0.0010560606606304646,-0.0012377703096717596,0.0007113139145076275
1.729423224197288e+18,-0.00037873725523240864,-0.0015898064011707902,0.0005107397446408868
1.729423224203288e+18,-0.0018588406965136528,0.00016072859580162913,0.002573626348748803
1.7294232242092882e+18,-0.0013068142579868436,-0.0012214106973260641,-0.0002945610031019896
1.7294232242152883e+18,0.00149447878357023,-0.001009262283332646,0.0011646596249192953
1.7294232242182884e+18,-0.0006664037937298417,0.0011203980538994074,0.0003463232715148479
1.7294232242242885e+18,0.001363936928100884,-0.001141780405305326,0.0016893824795261025
1.7294232242302886e+18,0.0008085085428319871,0.0006497123395092785,-0.00043604004895314574
1.7294232242362888e+18,-7.125939009711146e-05,-0.002246435498818755,-0.00044490283471532166
1.7294232242392888e+18,0.00043806727626360953,-0.0007338328287005424,0.0001586555881658569
1.729423224245289e+18,-0.0013312033843249083,0.0007788837538100779,0.002088754205033183
1.729423224251289e+18,0.001854035770520568,-0.0017450829036533833,0.00014069044846110046
1.7294232242572892e+18,-1.5630379493813962e-05,-0.0017610605573281646,-0.002773954765871167
1.7294232242602893e+18,-0.0016635420033708215,-0.00048292038263753057,-0.0021787199657410383
1.7294232242662894e+18,-0.00032449481659568846,2.048129999820958e-06,-0.0012621290516108274
1.7294232242722895e+18,-0.0018077138811349869,0.0010091824224218726,-0.0026926796417683363
1.7294232242782897e+18,-0.00046570299309678376,0.002006705617532134,-0.0008545989985577762
1.7294232242842898e+18,0.0016049898695200682,0.0015158531023189425,-9.291910100728273e-05
1.7294232242872899e+18,-0.00015027300105430186,-0.0005880872486159205,0.0002969276683870703
1.72942322429329e+18,0.0010619994718581438,0.0007034291629679501,0.00030259171035140753
1.72942322429929e+18,-0.0007259809644892812,-2.441977267153561e-05,0.00028187542920932174
1.7294232243052902e+18,-0.000455083412816748,0.0007689943886362016,0.0008585701580159366
1.7294232243082903e+18,0.00017029447189997882,0.0008897216175682843,-0.0022456173319369555
1.7294232243142904e+18,-0.001193834701552987,0.001971922116354108,0.0006627553375437856
1.7294232243202906e+18,-0.0016758280107751489,-0.00021742326498497277,-0.0004974323674105108
1.7294232243262907e+18,0.0005968844634480774,-0.00048573690582998097,-0.0019419888267293572
1.7294232243292908e+18,-0.002080743433907628,0.00126268295571208,0.0008626705384813249
1.729423224335291e+18,0.0015081047313287854,-0.0017575720557942986,-0.002419866854324937
1.729423224341291e+18,-6.504177144961432e-05,-0.0005942464922554791,3.533514973241836e-05
1.7294232243472911e+18,-5.258552118903026e-05,0.0006471326341852546,0.0010765325278043747
1.7294232243502912e+18,-0.0041955034248530865,0.000787456810940057,0.002737482078373432
1.7294232243562913e+18,-0.001026845769956708,-3.34152036884916e-06,0.0005857037613168359
1.7294232243622915e+18,-0.00017106188170146197,0.0005121854483149946,-0.0005036934744566679
1.7294232243682916e+18,-0.00011100169649580494,0.00016485575179103762,0.0012581852497532964
1.7294232243742917e+18,-0.0005367876146920025,-0.0033458159305155277,-0.001967983553186059
1.7294232243772918e+18,-0.0031726860906928778,0.0017824902897700667,0.0025234029162675142
1.729423224383292e+18,0.0018816199153661728,-0.0010508642299100757,-0.0008125074091367424
1.729423224389292e+18,-0.0011099530383944511,0.0018348748562857509,3.937156361644156e-05
1.7294232243952922e+18,9.441252768738195e-05,-0.0006985971704125404,-0.0004601723048835993
1.7294232244012923e+18,0.003394985804334283,-0.002099256729707122,-0.0011029024608433247
1.7294232244042924e+18,-0.0005771758733317256,-0.0018357145600020885,0.0005142412846907973
1.7294232244102925e+18,-0.0008439057855866849,-0.0021444170270115137,0.0025307564064860344
1.7294232244162926e+18,-0.0016999186482280493,-0.0007287485059350729,-0.0003848026099149138
1.7294232244222927e+18,-0.002361748367547989,0.0024989082012325525,0.0013925066450610757
1.7294232244252928e+18,0.0001126737188315019,-0.0014053909108042717,-0.0028693790081888437
1.729423224431293e+18,-0.0034748418256640434,0.001273703877814114,0.0016347675118595362
1.729423224437293e+18,-0.0013474761508405209,-0.00417483551427722,-0.00013058334297966212
1.729423224440293e+18,0.0012840664712712169,-0.0014976366655901074,-0.0006349768955260515
1.7294232244462932e+18,0.0025370658840984106,-0.0020047498401254416,0.0027112779207527637
1.7294232244522934e+18,-3.465996996965259e-05,-0.0013905171072110534,0.0005029927706345916
1.7294232244582935e+18,0.0007070018327794969,0.0038536698557436466,0.0016882633790373802
1.7294232244612936e+18,-0.00034077148302458227,0.0006228966522030532,0.0005796271725557745
1.7294232244672937e+18,0.0007285631145350635,-0.0027095486875623465,0.00044831898412667215
1.7294232244732938e+18,-0.0002624508924782276,0.0010487507097423077,0.0016603348776698112
1.729423224479294e+18,0.0005896296352148056,0.0017752136336639524,-0.0005978732369840145
1.729423224482294e+18,0.00022204422566574067,0.0017430036095902324,-0.0036718465853482485
1.7294232244882941e+18,0.00022488132526632398,-0.0011865022825077176,0.0004946548142470419
1.7294232244942943e+18,-4.584638372762129e-05,0.000967794971074909,0.0010710599599406123
1.7294232245002944e+18,0.0012136329896748066,0.00016705879534129053,0.001199284102767706
1.7294232245062945e+18,-0.001920850365422666,-0.00109940639231354,0.001119817839935422
1.7294232245092946e+18,-0.0006757530500181019,-0.0006466506165452302,0.0013429743703454733
1.7294232245152947e+18,0.0010421356419101357,-0.0012295178603380919,-0.0016429029637947679
1.7294232245212948e+18,0.0005571172805503011,0.002634901087731123,0.0016107273986563087
1.729423224527295e+18,0.0005178435822017491,-0.00021884837769903243,0.00017238082364201546
1.729423224530295e+18,-0.00044316236744634807,0.0015281522646546364,0.000578229024540633
1.7294232245362952e+18,-0.0001438001199858263,5.4048767196945846e-05,0.001876617199741304
1.7294232245422953e+18,-0.00207605236209929,-5.9418209275463596e-05,0.003422127803787589
1.7294232245482954e+18,-0.002214910462498665,0.0003406515170354396,-0.000465705175884068
1.7294232245512955e+18,0.0015909328358247876,-0.0037101402413100004,-0.0014060749672353268
1.7294232245572956e+18,0.0018192956922575831,0.0011784484377130866,0.0007860024925321341
1.7294232245632957e+18,0.0007093408494256437,0.003549767890945077,-0.002382060745730996
1.729423224569296e+18,0.00018834711227100343,-0.001041934359818697,0.0011059049284085631
1.729423224572296e+18,0.0020366902463138103,-0.00029105099383741617,0.0028121075592935085
1.729423224578296e+18,-0.0023174607194960117,0.0023804085794836283,-0.0019334218231961131
1.7294232245842962e+18,-0.0004952707095071673,-0.0006639374769292772,-0.0019036205485463142
1.7294232245902963e+18,0.0015503388131037354,0.0034845948684960604,0.0009873739909380674
1.7294232245962964e+18,0.001126241055317223,-0.0007172301411628723,-3.7179152059252374e-06
1.7294232245992965e+18,-0.0009262114181183279,-0.0003785252047237009,-0.0013833377743139863
1.7294232246052966e+18,-0.0005553110968321562,0.0013327273773029447,-0.0014929553726688027
1.7294232246112968e+18,-0.0033445574808865786,-0.0005471741897054017,-0.00013090597349219024
1.7294232246142968e+18,-0.0018683529924601316,0.0025570495054125786,0.00044966256245970726
1.729423224620297e+18,0.0008652841788716614,-0.0016275059897452593,-0.0005319118499755859
1.729423224626297e+18,0.0022560846991837025,0.0010505577083677053,-0.0014653465477749705
1.7294232246292972e+18,0.00018478470155969262,-0.0017875564517453313,0.0015180198242887855
1.7294232246352973e+18,-0.0010592893231660128,0.0018931576050817966,-0.0024699706118553877
1.7294232246412974e+18,-0.00032856635516509414,-0.0018240830395370722,0.0011467667063698173
1.7294232246472975e+18,0.0030631055124104023,0.00019730844360310584,0.0016805744962766767
1.7294232246532977e+18,-0.0007324960897676647,0.0037357243709266186,0.0009475626284256577
1.7294232246592978e+18,0.00327660352922976,-0.0007353625842370093,-0.0008792929002083838
1.7294232246622979e+18,-0.00272072060033679,2.2899189389136154e-06,0.0008291591075249016
1.729423224668298e+18,-9.388266335008666e-05,-0.00213115056976676,0.0002078731922665611
1.729423224674298e+18,-0.000633311690762639,0.0007369392551481724,0.0014408794231712818
1.7294232246772982e+18,0.0030394410714507103,-0.00094102683942765,-0.0001700470456853509
1.7294232246832983e+18,-0.003861784003674984,-0.0009794103680178523,0.0009489132789894938
1.7294232246892984e+18,-0.0017613033996894956,4.9260659579886124e-05,0.000731680600438267
1.7294232246952986e+18,0.0003506480425130576,0.0036042279098182917,-0.00124487210996449
1.7294232247012987e+18,0.0005123642622493207,-0.00031768882763572037,0.0005678220768459141
1.7294232247042988e+18,5.347925616661087e-05,-0.0019970061257481575,-0.0008412003517150879
1.729423224710299e+18,0.0003533993731252849,-0.002739285584539175,0.00027327515999786556
1.729423224716299e+18,-6.585306255146861e-05,0.0023518791422247887,0.00013574586773756891
1.7294232247222991e+18,-0.0030951006338000298,-0.0007652420317754149,0.0013362077297642827
1.7294232247252992e+18,-0.0028236820362508297,-0.0006919074221514165,0.002545440336689353
1.7294232247312993e+18,-0.0011373625602573156,0.002011676784604788,0.002093582646921277
1.7294232247372995e+18,-0.00048537497059442103,0.0010051433928310871,-0.0012815248919650912
1.7294232247402995e+18,0.0013249691110104322,0.000653308758046478,-0.0005378869827836752
1.7294232247462996e+18,0.001664644805714488,0.0005365664837881923,0.0006681122467853129
1.7294232247522998e+18,-0.0018744603730738163,0.0004969758447259665,0.0005808990681543946
1.7294232247583e+18,-0.0016539887292310596,-0.0007973830797709525,0.002073741052299738
1.7294232247643e+18,-0.003010313957929611,-3.67010579793714e-05,0.0008381684892810881
1.7294232247673e+18,0.00010001300688600168,0.0017254436388611794,0.0010038770269602537
1.7294232247733002e+18,0.002300676889717579,-0.0005549435154534876,0.002268654527142644
1.7294232247793004e+18,-0.0005871161702089012,4.998117947252467e-05,-0.00018130394164472818
1.7294232247853005e+18,0.001348242862150073,-0.001043989323079586,-0.0008716253214515746
1.7294232247913006e+18,-0.0018825340084731579,0.00350746838375926,-0.001506021828390658
1.7294232247973007e+18,-0.0021332530304789543,0.0006364421569742262,0.0014710378600284457
1.7294232248033009e+18,-0.002587529830634594,0.003037127200514078,4.6811430365778506e-05
1.729423224806301e+18,0.0010156221687793732,-0.0011190308723598719,0.0022923860233277082
1.729423224815301e+18,0.00023619904823135585,-7.734184328000993e-05,-0.0028563900850713253
1.7294232248183012e+18,-0.0007659720722585917,-0.0008497862727381289,-0.0007191678159870207
1.7294232248243013e+18,-0.001953823957592249,0.0007511498406529427,-0.0010934652527794242
1.7294232248303014e+18,-0.001000183867290616,-0.0006059094448573887,-0.002247775439172983
1.7294232248363016e+18,-0.0018416784005239606,-0.001639126450754702,0.0017376270843669772
1.7294232248393016e+18,-0.0020969603210687637,-0.0010532609885558486,0.0005066514131613076
1.7294232248453018e+18,0.0003113196580670774,0.0002575296093709767,-0.0002155470720026642
1.729423224851302e+18,0.002334367949515581,0.0016194020863622427,-0.00016697989485692233
1.729423224857302e+18,-0.06228261440992355,-0.007524353452026844,-0.0009234038298018277
1.7294232248633021e+18,-0.15390966832637787,-0.024190405383706093,0.002441012766212225
1.7294232248693023e+18,-0.23967871069908142,-0.0360061377286911,0.0018122021574527025
1.7294232248753024e+18,-0.32008010149002075,-0.04996737837791443,0.0022749928757548332
1.7294232248813025e+18,-0.38384708762168884,-0.0590476393699646,0.0029867799021303654
1.7294232248843026e+18,-0.40252846479415894,-0.0659099891781807,0.004745958838611841
1.7294232248903027e+18,-0.4134916663169861,-0.07101237773895264,0.005075158551335335
1.7294232248963028e+18,-0.3953608572483063,-0.0689844861626625,0.004132036119699478
1.729423224902303e+18,-0.3512352705001831,-0.06565909832715988,0.007022720295935869
1.729423224905303e+18,-0.3270057439804077,-0.06576806306838989,0.008722938597202301
1.7294232249143032e+18,-0.2685127854347229,-0.05565737187862396,0.0038895735051482916
1.7294232249233034e+18,-0.25004860758781433,-0.05415380001068115,0.009373223409056664
1.7294232249323036e+18,-0.27582022547721863,-0.056070517748594284,0.010447879321873188
1.7294232249383037e+18,-0.3060382604598999,-0.05898619815707207,0.010026007890701294
1.729423224947304e+18,-0.34748533368110657,-0.06526573747396469,0.009218025952577591
1.7294232249563041e+18,-0.352644145488739,-0.06328749656677246,0.012022209353744984
1.7294232249653043e+18,-0.3166651725769043,-0.06082431972026825,0.011819702573120594
1.7294232249743045e+18,-0.24632173776626587,-0.049979884177446365,0.011541692540049553
1.7294232249833047e+18,-0.1812288612127304,-0.041835036128759384,0.012994706630706787
1.729423224992305e+18,-0.14315378665924072,-0.03795623779296875,0.015088487416505814
1.729423225001305e+18,-0.14069409668445587,-0.0340045802295208,0.01566878892481327
1.7294232250073052e+18,-0.1475987285375595,-0.03173146769404411,0.014829937368631363
1.7294232250163054e+18,-0.16227686405181885,-0.02977895177900791,0.01615089364349842
1.7294232250253056e+18,-0.1577897071838379,-0.02626633271574974,0.016779199242591858
1.7294232250313057e+18,-0.13462033867835999,-0.027678631246089935,0.017846444621682167
1.729423225040306e+18,-0.08859208226203918,-0.02613062411546707,0.02023884281516075
1.729423225046306e+18,-0.05228041484951973,-0.021171635016798973,0.020122574642300606
1.7294232250553062e+18,-0.004439481999725103,-0.010017815046012402,0.01973406784236431
1.7294232250643064e+18,0.015244867652654648,-0.004005544353276491,0.015315435826778412
1.7294232250703066e+18,0.011923054233193398,-0.0009541508043184876,0.012398701161146164
1.7294232250793068e+18,0.006609930656850338,0.003807710949331522,0.007506272289901972
1.729423225085307e+18,0.0011697150766849518,0.0038150427863001823,0.006558054126799107
1.729423225091307e+18,0.0062355296686291695,0.004570217803120613,0.006136955693364143
1.7294232250973071e+18,0.016771607100963593,0.007995818741619587,0.009718047454953194
1.7294232251033073e+18,0.03143306449055672,0.0069928644225001335,0.004741036333143711
1.7294232251093074e+18,0.05604422464966774,0.008945910260081291,0.0083699282258749
1.7294232251123075e+18,0.06885159760713577,0.011716384440660477,0.007307274267077446
1.7294232251183076e+18,0.08765742927789688,0.013742191717028618,0.005830232985317707
1.7294232251243077e+18,0.10217893123626709,0.015905752778053284,0.00525855366140604
1.7294232251303078e+18,0.11182625591754913,0.016604069620370865,0.008607013151049614
1.729423225133308e+18,0.11660590022802353,0.01629767008125782,0.01058261375874281
1.729423225139308e+18,0.11037608981132507,0.019878337159752846,0.009744210168719292
1.7294232251453082e+18,0.1074521392583847,0.02246984839439392,0.009001340717077255
1.7294232251513083e+18,0.10042504221200943,0.020638220012187958,0.010646923445165157
1.7294232251543084e+18,0.09637712687253952,0.019013015553355217,0.0077381376177072525
1.7294232251603085e+18,0.09641050547361374,0.020728351548314095,0.007669682148844004
1.7294232251663086e+18,0.10072776675224304,0.021977940574288368,0.007777343038469553
1.7294232251693087e+18,0.0997990295290947,0.021669944748282433,0.009262856096029282
1.7294232251753088e+18,0.11029718816280365,0.0282065998762846,0.0091893021017313
1.729423225181309e+18,0.11918827146291733,0.025434639304876328,0.009162234142422676
1.729423225187309e+18,0.13453219830989838,0.02162018045783043,0.009580467827618122
1.729423225190309e+18,0.13984420895576477,0.02631084993481636,0.00984253827482462
1.7294232251963092e+18,0.14377586543560028,0.026696253567934036,0.010354604572057724
1.7294232252023094e+18,0.14976124465465546,0.02733544073998928,0.007773922756314278
1.7294232252083095e+18,0.14254418015480042,0.026120714843273163,0.010119576938450336
1.7294232252143096e+18,0.1401052325963974,0.025929227471351624,0.009053084999322891
1.7294232252173097e+18,0.13460378348827362,0.03038959391415119,0.010659320279955864
1.7294232252233098e+18,0.12738843262195587,0.027002492919564247,0.008588552474975586
1.72942322522931e+18,0.12426336854696274,0.029790768399834633,0.008710606023669243
1.72942322523231e+18,0.11989922821521759,0.026409095153212547,0.009898248128592968
1.7294232252383101e+18,0.1221916601061821,0.027758341282606125,0.008363030850887299
1.7294232252443103e+18,0.12525124847888947,0.02843903750181198,0.007114592008292675
1.7294232252503104e+18,0.12676659226417542,0.028032705187797546,0.007970579899847507
1.7294232252533105e+18,0.1344880759716034,0.027139129117131233,0.009838826954364777
1.7294232252593106e+18,0.14050640165805817,0.026888156309723854,0.009902335703372955
1.7294232252653107e+18,0.13981586694717407,0.028253110125660896,0.009999584406614304
1.7294232252683108e+18,0.1390402764081955,0.02439410425722599,0.010769329033792019
1.729423225274311e+18,0.1413777768611908,0.026448098942637444,0.008182556368410587
1.729423225280311e+18,0.13286122679710388,0.026756223291158676,0.00819497648626566
1.729423225283311e+18,0.1330474615097046,0.0255570225417614,0.008538936264812946
1.7294232252893112e+18,0.12488540261983871,0.024556461721658707,0.007655253633856773
1.7294232252953114e+18,0.11805827170610428,0.024137010797858238,0.008701561018824577
1.7294232253013115e+18,0.1137019619345665,0.0255252867937088,0.008138681761920452
1.7294232253043116e+18,0.10996772348880768,0.025312216952443123,0.0057713864371180534
1.7294232253103117e+18,0.10964445769786835,0.022567143663764,0.007184216752648354
1.7294232253163118e+18,0.11063972860574722,0.024419421330094337,0.007963491603732109
1.729423225319312e+18,0.10988383740186691,0.02228103019297123,0.010202351026237011
1.729423225325312e+18,0.11431579291820526,0.02137160301208496,0.007251049391925335
1.729423225331312e+18,0.11395363509654999,0.02257622964680195,0.01148092932999134
1.7294232253373123e+18,0.11929323524236679,0.019493374973535538,0.010019141249358654
1.7294232253403123e+18,0.11774197965860367,0.01673828437924385,0.004884926602244377
1.7294232253463124e+18,0.11742500960826874,0.02248503267765045,0.007800528313964605
1.7294232253523126e+18,0.11001317948102951,0.01748158223927021,0.009156525135040283
1.7294232253553126e+18,0.1091984361410141,0.01762598566710949,0.011205482296645641
1.7294232253613128e+18,0.10518676787614822,0.01517428271472454,0.009527446702122688
1.729423225367313e+18,0.10015811771154404,0.015503009781241417,0.006602047476917505
1.729423225373313e+18,0.09450575709342957,0.01986798644065857,0.008079048246145248
1.729423225376313e+18,0.09752041101455688,0.016964927315711975,0.004298256244510412
1.7294232253823132e+18,0.09022843837738037,0.019269375130534172,0.007100035902112722
1.7294232253883133e+18,0.09279769659042358,0.017066411674022675,0.005615913774818182
1.7294232253943135e+18,0.09460823237895966,0.016183217987418175,0.005633017513900995
1.7294232253973135e+18,0.09687380492687225,0.01511179655790329,0.006492006592452526
1.7294232254033137e+18,0.09505777806043625,0.010810655541718006,0.008969221264123917
1.7294232254093138e+18,0.09325149655342102,0.012921339832246304,0.008943868800997734
1.7294232254123139e+18,0.09717152267694473,0.013206934556365013,0.008082699030637741
1.729423225418314e+18,0.09211759269237518,0.010171596892178059,0.005605039186775684
1.729423225424314e+18,0.0863204374909401,0.010122891515493393,0.007676518987864256
1.7294232254303142e+18,0.08209824562072754,0.00859723798930645,0.004859405569732189
1.7294232254363144e+18,0.07778739184141159,0.013551430776715279,0.007439354434609413
1.7294232254423145e+18,0.07432881742715836,0.010822712443768978,0.007065937388688326
1.7294232254483146e+18,0.07296881824731827,0.008180009201169014,0.004853841848671436
1.7294232254543148e+18,0.07170373201370239,0.00882331095635891,0.0065122079104185104
1.729423225460315e+18,0.07272224873304367,0.011573397554457188,0.006703678984194994
1.729423225466315e+18,0.0728476494550705,0.009005776606500149,0.004595526959747076
1.729423225469315e+18,0.07468545436859131,0.00941584724932909,0.0060973577201366425
1.7294232254753152e+18,0.07565377652645111,0.008966978639364243,0.004851745907217264
1.7294232254813153e+18,0.0760272741317749,0.005125771276652813,0.006500810384750366
1.7294232254873155e+18,0.07175000756978989,0.008157805539667606,0.004603005014359951
1.7294232254903155e+18,0.07050249725580215,0.00839865580201149,0.0020379789639264345
1.7294232254963156e+18,0.06880676746368408,0.00585898756980896,0.0032306115608662367
1.7294232255023158e+18,0.06347685307264328,0.010434930212795734,0.004528936464339495
1.729423225508316e+18,0.06246144324541092,0.006855592131614685,0.007191428914666176
1.729423225511316e+18,0.05995858088135719,0.010085910558700562,0.002679735654965043
1.729423225517316e+18,0.059337470680475235,0.004677084274590015,0.00530779967084527
1.7294232255233162e+18,0.05883748084306717,0.0068869017995893955,0.004833339247852564
1.7294232255293164e+18,0.05811753869056702,0.005753394681960344,0.00700556393712759
1.7294232255353165e+18,0.06140829250216484,0.005228573922067881,0.00012684892863035202
1.7294232255383165e+18,0.05774457007646561,0.005336875095963478,0.0019154760520905256
1.7294232255443167e+18,0.05954912304878235,0.004629224073141813,0.005265796557068825
1.7294232255503168e+18,0.061577651649713516,0.006383226253092289,0.0038925553672015667
1.7294232255533169e+18,0.06233086436986923,0.0036090118810534477,0.005311940796673298
1.729423225559317e+18,0.058605264872312546,0.005268402863293886,0.0019203987903892994
1.729423225565317e+18,0.0583234503865242,0.004203060641884804,0.0014371802099049091
1.7294232255713172e+18,0.05703657120466232,0.003874079789966345,0.0021748493891209364
1.7294232255743173e+18,0.05331442132592201,0.004473762586712837,0.0038704657927155495
1.7294232255803174e+18,0.0526379719376564,0.00338250445201993,0.004525999538600445
1.7294232255863176e+18,0.050925254821777344,0.0055647119879722595,0.002940900158137083
1.7294232255923177e+18,0.051739197224378586,0.004366866312921047,0.0021059324499219656
1.7294232255983178e+18,0.05272983759641647,0.0028612371534109116,0.0016462755156680942
1.729423225601318e+18,0.05053763836622238,0.001843739184550941,0.003078523324802518
1.729423225607318e+18,0.05011157691478729,0.0015748104779049754,0.004749147221446037
1.7294232256133181e+18,0.05366770923137665,0.001752728596329689,0.003125402145087719
1.7294232256193183e+18,0.04726116359233856,0.0021629014518111944,0.0032955980859696865
1.7294232256253184e+18,0.049525704234838486,0.0008216743590310216,0.0023518470115959644
1.7294232256283185e+18,0.04908826947212219,0.002604177687317133,0.002559136366471648
1.7294232256343186e+18,0.048630014061927795,0.002193186432123184,0.0037504660431295633
1.7294232256403187e+18,0.043268270790576935,0.0020634885877370834,0.00401673000305891
1.7294232256463188e+18,0.04375825449824333,0.0011453283950686455,0.0017680558376014233
1.729423225649319e+18,0.042266104370355606,0.0039945319294929504,0.0033418433740735054
1.729423225655319e+18,0.0437479242682457,0.0008774578454904258,0.0020149550400674343
1.7294232256613192e+18,0.044015832245349884,0.0003937666770070791,0.0052828663028776646
1.7294232256643192e+18,0.04286552965641022,-0.0009740869863890111,0.002212046878412366
1.7294232256703194e+18,0.04177006334066391,-0.002633425174281001,0.00498985918238759
1.7294232256763195e+18,0.048791125416755676,-0.0033508664928376675,0.0020591248758137226
1.7294232256823196e+18,0.045476317405700684,-0.0022147060371935368,-0.0017137248069047928
1.7294232256883197e+18,0.04505414515733719,-0.0027467356994748116,-0.0008550584316253662
1.7294232256913198e+18,0.04131826385855675,-0.0035952026955783367,0.0052650440484285355
1.72942322569732e+18,0.040220338851213455,-0.003195687895640731,0.0025564769748598337
1.72942322570332e+18,0.040969572961330414,0.0016046612290665507,0.0007954371394589543
1.7294232257093202e+18,0.03682856261730194,0.0003993934078607708,0.0004190104082226753
1.7294232257153203e+18,0.03630974143743515,0.0021299878135323524,0.0037962489295750856
1.7294232257213204e+18,0.039371613413095474,0.002189665799960494,0.001570779480971396
1.7294232257273206e+18,0.03865163028240204,-0.0028737864922732115,0.004407683853060007
1.7294232257333207e+18,0.04076659306883812,2.2638938389718533e-05,0.002396252006292343
1.7294232257393208e+18,0.042588017880916595,-0.003258546581491828,0.0040993052534759045
1.729423225742321e+18,0.044785674661397934,-0.0005991030484437943,0.005084269680082798
1.729423225748321e+18,0.043180618435144424,-0.0051536159589886665,0.004642275162041187
1.7294232257543212e+18,0.04359741881489754,-0.0014283321797847748,-3.991578705608845e-05
1.7294232257603213e+18,0.041222408413887024,-0.002044636057689786,0.002211852464824915
1.7294232257633213e+18,0.03885256499052048,-0.0010483261430636048,0.0008551219943910837
1.7294232257693215e+18,0.036888398230075836,0.0024504230823367834,0.003118508029729128
1.7294232257753216e+18,0.0352991484105587,-0.0018126214854419231,0.0007257580291479826
1.7294232257813217e+18,0.03643141686916351,0.004369272850453854,0.0013206242583692074
1.7294232257873219e+18,0.036953460425138474,0.003070671111345291,0.003224148415029049
1.729423225790322e+18,0.03603064641356468,-0.000634943600744009,0.0014787258114665747
1.729423225796322e+18,0.03537933900952339,0.004202238284051418,-0.0003770322073251009
1.7294232258023222e+18,0.03932667523622513,-0.0001491487491875887,0.0034191287122666836
1.7294232258083223e+18,0.03936029225587845,-0.001977190375328064,0.0017028639558702707
1.7294232258113224e+18,0.03888706490397453,0.0007487612310796976,0.0021163492929190397
1.7294232258173225e+18,0.0400245301425457,0.004179711919277906,0.006050005555152893
1.7294232258233226e+18,0.03385118767619133,0.0043845525942742825,0.001272119814530015
1.7294232258263227e+18,0.03547300770878792,0.006240413058549166,0.006203749217092991
1.7294232258323228e+18,0.03315447270870209,0.005831457208842039,0.0034303381107747555
1.729423225838323e+18,0.03460925444960594,0.007679041475057602,0.0032447571866214275
1.729423225844323e+18,0.02959209308028221,0.005864463280886412,0.0023657081183046103
1.7294232258473231e+18,0.027533723041415215,0.007405843120068312,0.002970188856124878
1.7294232258533233e+18,0.028689993545413017,0.007486959919333458,-1.1101365089416504e-05
1.7294232258593234e+18,0.03166535496711731,0.0054807341657578945,0.0018434198573231697
1.7294232258653235e+18,0.03216187283396721,0.006252401974052191,0.004404942970722914
1.7294232258713236e+18,0.03816073015332222,0.0016707426402717829,0.0025566602125763893
1.7294232258743237e+18,0.033158864825963974,0.0034984122030436993,0.0032586960587650537
1.7294232258803238e+18,0.03533921018242836,0.006466034799814224,0.0013692857464775443
1.729423225886324e+18,0.03689076006412506,0.0027509317733347416,0.0020406674593687057
1.729423225892324e+18,0.035250473767519,0.0029564853757619858,0.003565683960914612
1.7294232258983242e+18,0.03472186625003815,0.003927524667233229,0.0024503625463694334
1.7294232259043244e+18,0.030557405203580856,0.0032738884910941124,0.0037848458159714937
1.7294232259103245e+18,0.02629110775887966,0.005624369718134403,0.002240060595795512
1.7294232259193247e+18,0.02707420103251934,0.00430865166708827,0.002870860043913126
1.7294232259253248e+18,0.028226422145962715,0.0020560375414788723,0.0035117333754897118
1.729423225931325e+18,0.027332527562975883,0.0032560830004513264,0.0002772319130599499
1.729423225937325e+18,0.026932207867503166,-0.002177283400669694,0.000915629556402564
1.7294232259463252e+18,0.03013121709227562,-0.003561914898455143,0.00480580423027277
1.7294232259523254e+18,0.03233903646469116,-0.0017931985203176737,0.0035084839910268784
1.7294232259583255e+18,0.030921831727027893,0.0026656766422092915,0.002454110188409686
1.7294232259643256e+18,0.030379004776477814,0.0021625342778861523,0.0020096460357308388
1.7294232259703258e+18,0.028134465217590332,0.003003782592713833,0.004272024147212505
1.7294232259733258e+18,0.025855934247374535,-8.290843106806278e-05,0.002894693287089467
1.729423225979326e+18,0.025455713272094727,-0.0009422563016414642,0.001098796958103776
1.729423225985326e+18,0.02460429072380066,-0.00015261919179465622,0.0031817364506423473
1.7294232259913262e+18,0.022592727094888687,-0.0010933491867035627,-8.526933379471302e-05
1.7294232259973263e+18,0.02176443301141262,-0.0025190350133925676,0.0013261404819786549
1.7294232260033265e+18,0.023044584318995476,-0.003694619983434677,-0.001102201989851892
1.7294232260093266e+18,0.022753572091460228,-0.0020051125902682543,-0.0003307056613266468
1.7294232260153267e+18,0.021798882633447647,-0.0034525874070823193,-0.002750050975009799
1.7294232260183268e+18,0.026806434616446495,-0.0028039156459271908,0.0009081346215680242
1.729423226024327e+18,0.023644648492336273,-0.005911841988563538,-0.0003310746396891773
1.729423226030327e+18,0.023008858785033226,-0.0015837523387745023,0.0024740390945225954
1.7294232260363272e+18,0.022100644186139107,-0.00283983675763011,0.0014133184449747205
1.7294232260423273e+18,0.02097507007420063,-0.0036302930675446987,-0.0015675278846174479
1.7294232260483274e+18,0.017533086240291595,-0.005709430202841759,0.0010979389771819115
1.7294232260543276e+18,0.016578342765569687,-0.003912566229701042,-0.0012438114499673247
1.7294232260603277e+18,0.013280457817018032,-0.004624456167221069,-0.00034075349685736
1.7294232260663278e+18,0.015256550163030624,-0.00595011655241251,0.0014017950743436813
1.729423226072328e+18,0.015280764549970627,-0.003939487040042877,-0.0013823385816067457
1.729423226078328e+18,0.01742713525891304,-0.00401629414409399,-0.0027597604785114527
1.7294232260843282e+18,0.01683402806520462,-0.005964561831206083,0.0037768110632896423
1.7294232260903283e+18,0.01667836867272854,-0.005464308895170689,0.0003475419362075627
1.7294232260933284e+18,0.02032993920147419,-0.006689116358757019,-0.0010193611960858107
1.7294232260993285e+18,0.015799731016159058,-0.004402965307235718,-0.00015254050958901644
1.7294232261053286e+18,0.019265737384557724,-0.006222302094101906,0.0008091403869912028
1.7294232261113288e+18,0.016727814450860023,-0.006516839377582073,-0.002515271306037903
1.729423226117329e+18,0.013548774644732475,-0.005558541975915432,0.004539912100881338
1.729423226120329e+18,0.01630614884197712,-0.007204565219581127,-0.0034326151944696903
1.729423226126329e+18,0.013756969012320042,-0.004034873563796282,-0.0036934991367161274
1.7294232261323292e+18,0.013375479727983475,-0.004192239139229059,-0.0030139226000756025
1.7294232261353293e+18,0.012434606440365314,-0.0041094087064266205,-0.00018177030142396688
1.7294232261413294e+18,0.014180685393512249,-0.002879727864637971,0.0006323270499706268
1.7294232261473295e+18,0.01619112119078636,-0.004233857616782188,0.0002744912635535002
1.7294232261533297e+18,0.012887679040431976,-0.003016309579834342,-0.001122172805480659
1.7294232261593298e+18,0.015016123652458191,-0.003527094144374132,0.0009708430152386427
1.7294232261623299e+18,0.015274669043719769,0.0001249194610863924,-0.0023841424845159054
1.72942322616833e+18,0.014387784525752068,-0.0001460536732338369,-0.0018834626534953713
1.72942322617433e+18,0.01706739328801632,0.0006509569939225912,-0.0027816835790872574
1.7294232261803302e+18,0.01695437915623188,0.0036591249518096447,-0.0021151353139430285
1.7294232261833303e+18,0.014375844039022923,0.002846323885023594,-0.000967084604781121
1.7294232261893304e+18,0.014863650314509869,0.001243292586877942,-0.004439265001565218
1.7294232261953306e+18,0.013772818259894848,0.004372337833046913,-0.003610392101109028
1.7294232262013307e+18,0.01142927072942257,0.0028396015986800194,-3.714114427566528e-05
1.7294232262073308e+18,0.012307924218475819,0.002910272218286991,-0.001149146119132638
1.729423226213331e+18,0.009874948300421238,0.00032227952033281326,-0.004014345817267895
1.729423226216331e+18,0.010137702338397503,0.0027293695602566004,-0.0009171919664368033
1.7294232262223311e+18,0.013638582080602646,0.0016366189811378717,-0.0018869551131501794
1.7294232262283313e+18,0.009573387913405895,-0.0003582253120839596,-0.0008735103765502572
1.7294232262343314e+18,0.01148603018373251,0.002186425030231476,0.0004780662711709738
1.7294232262403315e+18,0.013475648127496243,0.003765030764043331,-0.0019952047150582075
1.7294232262433316e+18,0.011854774318635464,-0.0010603207629173994,-0.004572228062897921
1.7294232262493317e+18,0.012626685202121735,0.004186578094959259,-0.003008434781804681
1.729423226258332e+18,0.00991184450685978,0.0032881933730095625,-0.0042411210015416145
1.729423226267332e+18,0.008916595950722694,0.005045539233833551,-0.000890510156750679
1.7294232262733322e+18,0.00476752920076251,0.002608208917081356,-0.004396016243845224
1.7294232262823324e+18,0.0029422687366604805,0.00483533414080739,-0.004152714274823666
1.7294232262883325e+18,0.0053412821143865585,0.004577720072120428,-0.0027935910038650036
1.7294232262943327e+18,0.0045063309371471405,0.0034476371947675943,-0.002618956845253706
1.7294232263003328e+18,0.007696144748479128,2.1995045244693756e-05,-0.003194451564922929
1.729423226306333e+18,0.008831004612147808,0.006708754226565361,-0.005746707785874605
1.729423226315333e+18,0.009619740769267082,0.001421488355845213,-0.004334512632340193
1.7294232263213332e+18,0.008456741459667683,0.005483119282871485,-0.0021167276427149773
1.7294232263273334e+18,0.008787873201072216,0.002564467955380678,0.00018203654326498508
1.7294232263333335e+18,0.009833707474172115,0.0008460702374577522,-0.005026872735470533
1.7294232263423337e+18,0.010188736952841282,0.0017837926279753447,-0.0013424954377114773
1.7294232263483338e+18,0.006554188672453165,0.0033245799131691456,-0.00234919018112123
1.729423226354334e+18,0.005867796018719673,0.003650146536529064,-0.0009593844879418612
1.729423226357334e+18,0.004035810008645058,0.0021071061491966248,-0.004671209491789341
1.7294232263633341e+18,0.0043584550730884075,0.0021795714274048805,-0.003353734966367483
1.7294232263693343e+18,0.008365427143871784,0.005271273665130138,-0.0042883302085101604
1.7294232263753344e+18,0.0006843330338597298,0.004275194369256496,-0.008088897913694382
1.7294232263813345e+18,0.002728324616327882,0.003948332276195288,-0.004807931371033192
1.7294232263873347e+18,0.003512422787025571,0.0027883038856089115,-0.0006580282934010029
1.7294232263933348e+18,0.002396882977336645,-0.0002807122655212879,-0.0045473319478333
1.729423226399335e+18,0.0001232778886333108,7.211253978312016e-05,-0.004358516540378332
1.729423226405335e+18,0.0017052056500688195,0.0030955038964748383,-0.002743234857916832
1.7294232264113352e+18,0.001808673026971519,0.004077137913554907,-0.0030489936470985413
1.7294232264173353e+18,0.0023181787692010403,0.002059857826679945,-0.0055875093676149845
1.7294232264263355e+18,0.004522998817265034,0.0012242388911545277,-0.005707243457436562
1.7294232264323356e+18,0.002396469935774803,0.0038952394388616085,-0.0032191637437790632
1.7294232264383357e+18,0.004320393316447735,0.0031097193714231253,-0.005754983052611351
1.7294232264443359e+18,0.00057978491531685,0.00029227661434561014,-0.0029677306301891804
1.729423226450336e+18,-0.0035019658971577883,0.0040190862491726875,-0.005711880046874285
1.7294232264563361e+18,-0.005189425311982632,0.0006116025033406913,-0.0011980233248323202
1.7294232264623363e+18,-0.00513434549793601,-3.860084689222276e-05,-0.003898687195032835
1.7294232264683364e+18,-0.007646666839718819,-0.0005953609943389893,-0.006445992738008499
1.7294232264713364e+18,-0.0054864464327692986,-0.0006086399662308395,-0.006042776629328728
1.7294232264803366e+18,-0.005891740322113037,0.0010455143637955189,-0.0090554254129529
1.7294232264833367e+18,-0.0030882686842232943,-0.00034290156327188015,-0.0022848553489893675
1.7294232264893368e+18,-0.0015243744710460305,0.0030584349296987057,-0.009567632339894772
1.729423226495337e+18,-0.0024142833426594734,-2.4238834157586098e-05,-0.00628158263862133
1.729423226501337e+18,-0.002240156987681985,-0.0004467996768653393,-0.0019511885475367308
1.7294232265073372e+18,-0.0015630634734407067,-0.0014128260081633925,-0.0030979972798377275
1.7294232265133373e+18,-0.0022327464539557695,-0.00016223837155848742,-0.00808404665440321
1.7294232265193375e+18,-0.002749729435890913,0.0034224572591483593,-0.007148656062781811
1.7294232265253376e+18,-0.004681152757257223,0.0037778401747345924,-0.007003610022366047
1.7294232265313377e+18,-0.008488834835588932,0.0015540323220193386,-0.007864661514759064
1.7294232265343378e+18,-0.006207664031535387,0.002331318100914359,-0.006060036830604076
1.729423226540338e+18,-0.004934836644679308,0.0036046761088073254,-0.00821958389133215
1.729423226546338e+18,-0.004834163933992386,0.0037900118622928858,-0.005398112814873457
1.7294232265523382e+18,-0.002911992836743593,4.56106208730489e-05,-0.00702316127717495
1.7294232265553382e+18,-0.004254510626196861,0.00012638320913538337,-0.004170190077275038
1.7294232265613384e+18,0.0014045215211808681,-0.0005713611608371139,-0.003992537502199411
1.7294232265673385e+18,0.0011693218257278204,-0.0006427676416933537,-0.006125925574451685
1.7294232265733386e+18,0.0005491304909810424,0.002396991243585944,-0.004634330049157143
1.7294232265793388e+18,-0.0010799143929034472,3.7138175684958696e-05,-0.006658506114035845
1.729423226585339e+18,-0.0007782602915540338,0.002289737109094858,-0.004746144637465477
1.729423226591339e+18,-0.002467221114784479,-5.630031228065491e-05,-0.004503210075199604
1.729423226594339e+18,0.0004273985978215933,0.0014101776760071516,-0.004298463463783264
1.7294232266003392e+18,0.00036382395774126053,0.0036546974442899227,-0.0072654555551707745
1.7294232266063393e+18,0.002570060081779957,0.0009321998804807663,-0.00843209307640791
1.7294232266123395e+18,0.00039978453423827887,0.0022865096107125282,-0.007413085550069809
1.7294232266183396e+18,-0.004400004632771015,0.0014081267872825265,-0.007082507945597172
1.7294232266243397e+18,-0.0024266852997243404,0.0009079003357328475,-0.005318853072822094
1.7294232266273398e+18,0.0018339621601626277,0.004171275533735752,-0.007272402290254831
1.72942322663334e+18,-0.0020308420062065125,0.002202508272603154,-0.007658183109015226
1.72942322663934e+18,-0.00048823945689946413,0.00033914903178811073,-0.006807390600442886
1.7294232266453402e+18,-0.0031429720111191273,-6.372027564793825e-05,-0.005744972266256809
1.7294232266513403e+18,-0.0026280113961547613,0.00045467534800991416,-0.008979384787380695
1.7294232266573404e+18,-0.005338265560567379,0.0026296235155314207,-0.00736008258536458
1.7294232266633405e+18,-0.0006201090291142464,0.001354212174192071,-0.008014179766178131
1.7294232266693407e+18,-0.006924690678715706,0.0037566260434687138,-0.006585473194718361
1.7294232266753408e+18,-0.006390143185853958,0.0031474288552999496,-0.0049402182921767235
1.729423226681341e+18,-0.0051964446902275085,0.0026242344174534082,-0.005837195087224245
1.729423226684341e+18,-0.005136391147971153,0.004142988007515669,-0.007833108305931091
1.729423226690341e+18,-0.005189943127334118,0.00343674817122519,-0.004023754969239235
1.7294232266963412e+18,-0.004471405874937773,0.004302437417209148,-0.009672872722148895
1.7294232267023414e+18,-0.0030860253609716892,0.0065102968364953995,-0.009534135460853577
1.7294232267053414e+18,-0.005917689763009548,0.006619767285883427,-0.006014163140207529
1.7294232267113416e+18,-0.001176665653474629,0.0048669506795704365,-0.008869118988513947
1.7294232267173417e+18,-0.0007781556341797113,0.004434382542967796,-0.006975584663450718
1.7294232267233418e+18,-0.0025597510393708944,0.0027508726343512535,-0.009210987016558647
1.729423226729342e+18,-0.0036434989888221025,0.003569197840988636,-0.008806227706372738
1.729423226735342e+18,-0.003924679476767778,0.004307277500629425,-0.010125188156962395
1.7294232267413422e+18,-0.005996797699481249,0.0002986062318086624,-0.008811304345726967
1.7294232267443423e+18,-0.006159002892673016,0.003938497044146061,-0.007929740473628044
1.7294232267503424e+18,-0.012116314843297005,0.0010821312898769975,-0.007229671813547611
1.7294232267563425e+18,-0.008470706641674042,8.459668606519699e-06,-0.007442469708621502
1.7294232267623427e+18,-0.008345087990164757,0.003579410957172513,-0.0057818274945020676
1.7294232267653427e+18,-0.009109854698181152,0.001596612622961402,-0.007660538889467716
1.7294232267713428e+18,-0.010996216908097267,0.0018308494472876191,-0.006081013008952141
1.729423226777343e+18,-0.00722763454541564,0.0021553300321102142,-0.00772055285051465
1.729423226780343e+18,-0.0053631640039384365,-0.000323964050039649,-0.006777521222829819
1.7294232267893432e+18,-0.005598913412541151,0.0025443958584219217,-0.007922583259642124
1.7294232267953434e+18,-0.0063665322959423065,0.0013414806453511119,-0.007500632666051388
1.7294232268013435e+18,-0.006917929742485285,0.0030954331159591675,-0.006640162318944931
1.7294232268073436e+18,-0.00512605020776391,0.001389768673107028,-0.004463218152523041
1.7294232268133437e+18,-0.009677205234766006,0.0011855519842356443,-0.0076853130012750626
1.729423226819344e+18,-0.009068010374903679,3.033294342458248e-05,-0.005124909803271294
1.729423226825344e+18,-0.009893735870718956,0.0031597495544701815,-0.004840236157178879
1.729423226831344e+18,-0.006188883446156979,0.0048020645044744015,-0.0065557886846363544
1.7294232268373443e+18,-0.007204349618405104,0.003317799884825945,-0.004533990286290646
1.7294232268433444e+18,-0.007786986418068409,0.008247269317507744,-0.005739902146160603
1.7294232268523446e+18,-0.004612190183252096,0.00655773188918829,-0.005270053632557392
1.7294232268583447e+18,-0.005722330417484045,0.003984385635703802,-0.0042213210836052895
1.7294232268643448e+18,-0.009300550445914268,0.005796440877020359,-0.0027338534127920866
1.729423226870345e+18,-0.009499439038336277,0.008941399864852428,-0.00862634927034378
1.729423226876345e+18,-0.01213776133954525,0.005933498963713646,-0.005513692740350962
1.7294232268823452e+18,-0.011827390640974045,0.0037157475017011166,-0.005772876553237438
1.7294232268883453e+18,-0.01307325903326273,0.005442777648568153,-0.0013949063140898943
1.7294232268973455e+18,-0.012274468317627907,0.0031501350458711386,-0.0044441199861466885
1.7294232269003456e+18,-0.010765544138848782,0.0014768845867365599,-0.00451891403645277
1.7294232269063457e+18,-0.008178607560694218,0.004602194298058748,-0.004384320229291916
1.7294232269123459e+18,-0.011472968384623528,0.003959347028285265,-0.006702336482703686
1.729423226921346e+18,-0.009565846063196659,0.004389847628772259,-0.003967671655118465
1.7294232269273462e+18,-0.011864722706377506,0.008057753555476665,-0.0021903393790125847
1.7294232269333463e+18,-0.01325724646449089,0.0071670906618237495,-0.0024464167654514313
1.7294232269393464e+18,-0.013553055934607983,0.007518486585468054,-0.001719669089652598
1.7294232269453466e+18,-0.012383918277919292,0.008533528074622154,-0.0023339958861470222
1.7294232269513467e+18,-0.013820577412843704,0.008124577812850475,-0.0008996427059173584
1.7294232269573468e+18,-0.014853107742965221,0.008080674335360527,-0.0026204222813248634
1.729423226963347e+18,-0.009814995341002941,0.005150024779140949,-0.003794670570641756
1.729423226969347e+18,-0.011103230528533459,0.005546350963413715,-0.003262164304032922
1.7294232269753472e+18,-0.009373621083796024,0.002821533940732479,-0.0024875060189515352
1.7294232269813473e+18,-0.009707445278763771,0.004263494163751602,-0.0025681094266474247
1.7294232269873475e+18,-0.008509068749845028,0.004628739319741726,-0.004456913098692894
1.7294232269933476e+18,-0.011798566207289696,0.0036099115386605263,-0.003359932452440262
1.7294232269993477e+18,-0.018238365650177002,0.006192064844071865,-0.004346443340182304
1.7294232270053478e+18,-0.018501127138733864,0.009956683032214642,-0.0016826145583763719
1.729423227011348e+18,-0.016392534598708153,0.010540210641920567,-0.0039393724873661995
1.729423227017348e+18,-0.014911225065588951,0.007583946455270052,-0.003905109129846096
1.7294232270233482e+18,-0.013591926544904709,0.003677698550745845,-0.0027202207129448652
1.7294232270293484e+18,-0.013772712089121342,0.008286861702799797,-0.0014697581063956022
1.7294232270353485e+18,-0.013221602886915207,0.00713561475276947,-0.0060587115585803986
1.7294232270413486e+18,-0.011813532561063766,0.001274573034606874,-0.005429624579846859
1.7294232270473487e+18,-0.012956327758729458,0.0033179721795022488,-0.002005001064389944
1.7294232270533489e+18,-0.009850028902292252,0.002055212389677763,-0.0034236214123666286
1.729423227059349e+18,-0.008153228089213371,-0.00016623432748019695,-0.001443492597900331
1.729423227062349e+18,-0.012453841976821423,0.0028521912172436714,-0.0007242211140692234
1.7294232270683492e+18,-0.015243405476212502,0.0058335475623607635,0.0023158788681030273
1.7294232270743493e+18,-0.013773230835795403,0.005100178997963667,-0.0024084732867777348
1.7294232270803494e+18,-0.016356514766812325,0.002189840655773878,0.00064829335315153
1.7294232270863496e+18,-0.016491366550326347,0.006289931014180183,-0.002547401236370206
1.7294232270923497e+18,-0.01749350316822529,0.0037052095867693424,0.0010200308170169592
1.7294232270983498e+18,-0.018114227801561356,0.004233499988913536,0.0009260182268917561
1.72942322710435e+18,-0.016815800219774246,0.002569905249401927,-0.0013642783742398024
1.72942322711035e+18,-0.014738908968865871,0.003147076815366745,-0.0018621518975123763
1.7294232271163502e+18,-0.011951255612075329,0.006769703701138496,6.528518861159682e-05
1.7294232271193503e+18,-0.014403680339455605,0.00564332352951169,-0.00023950889590196311
1.7294232271253504e+18,-0.015137054026126862,0.008469825610518456,2.8140595532022417e-05
1.7294232271313505e+18,-0.014583009295165539,0.005427357275038958,-0.0004025273956358433
1.7294232271373507e+18,-0.015928488224744797,0.008666773326694965,-0.0007827075896784663
1.7294232271433508e+18,-0.016502153128385544,0.007804129738360643,0.001559824333526194
1.729423227149351e+18,-0.02243836596608162,0.006862971931695938,0.0009955181740224361
1.729423227152351e+18,-0.015558856539428234,0.0058056991547346115,0.0008009472512640059
1.729423227158351e+18,-0.018426043912768364,0.0028879335150122643,0.0005866923602297902
1.7294232271643512e+18,-0.01931813731789589,0.004709666594862938,0.0006353737553581595
1.7294232271703514e+18,-0.019358718767762184,0.0059309303760528564,0.0022546753752976656
1.7294232271763515e+18,-0.017267679795622826,0.002870509633794427,-0.0017986533930525184
1.7294232271793516e+18,-0.02043280191719532,0.004410349298268557,0.00018761816318146884
1.7294232271853517e+18,-0.019339770078659058,0.00240998319350183,-0.0007928495178930461
1.7294232271913518e+18,-0.01729913055896759,0.00507832458242774,0.0009510243544355035
1.729423227197352e+18,-0.018447529524564743,0.002069330308586359,-0.0005064834840595722
1.729423227203352e+18,-0.02122688852250576,0.0024815546348690987,-0.002979028271511197
1.7294232272093522e+18,-0.020693374797701836,0.004558014217764139,0.0006946229259483516
1.7294232272153523e+18,-0.01811753399670124,0.00500725582242012,0.0008929063333198428
1.7294232272213524e+18,-0.020906485617160797,0.006900306791067123,0.0016782055608928204
1.7294232272243525e+18,-0.02299000695347786,0.006501881405711174,0.0005470273899845779
1.7294232272303526e+18,-0.021311379969120026,0.0041726198978722095,0.00015521538443863392
1.7294232272363528e+18,-0.019716504961252213,0.004637445788830519,0.002412207657471299
1.7294232272393528e+18,-0.020111165940761566,0.004309713840484619,0.004062965512275696
1.729423227245353e+18,-0.015411588363349438,0.004544050432741642,0.005799922160804272
1.729423227251353e+18,-0.016612473875284195,0.0031207608990371227,0.00915647391229868
1.7294232272573532e+18,-0.016839616000652313,0.0020223420578986406,0.00927613116800785
1.7294232272633533e+18,-0.01623905450105667,0.0003175404854118824,0.008125842548906803
1.7294232272693535e+18,-0.014774005860090256,0.004928345791995525,0.0050156633369624615
1.7294232272753536e+18,-0.015391922555863857,0.004970801528543234,0.007946725003421307
1.7294232272783537e+18,-0.01807503029704094,0.0061393193900585175,0.006117268465459347
1.7294232272843538e+18,-0.01549337524920702,0.007394293323159218,0.006385244429111481
1.729423227290354e+18,-0.019416235387325287,0.00814439170062542,0.003692213911563158
1.729423227296354e+18,-0.017254427075386047,0.00818943977355957,0.0053970408625900745
1.7294232273023542e+18,-0.017387522384524345,0.00818889681249857,0.008374974131584167
1.7294232273083543e+18,-0.017494067549705505,0.0038648247718811035,0.009214754216372967
1.7294232273113544e+18,-0.01698574610054493,0.006298725958913565,0.005655460059642792
1.7294232273173545e+18,-0.014371530152857304,0.004582699853926897,0.005621264688670635
1.7294232273233546e+18,-0.015417277812957764,0.0025891498662531376,0.00824835803359747
1.7294232273293548e+18,-0.0159116480499506,0.004192597232758999,0.007936499081552029
1.729423227335355e+18,-0.015984172001481056,0.0025450459215790033,0.008337825536727905
1.729423227341355e+18,-0.0170297771692276,0.0060849376022815704,0.009199530817568302
1.729423227344355e+18,-0.016411691904067993,0.008149197325110435,0.009987126104533672
1.7294232273503552e+18,-0.015515405684709549,0.005575079005211592,0.009460700675845146
1.7294232273563553e+18,-0.014258274808526039,0.008320680819451809,0.011964078061282635
1.7294232273623555e+18,-0.018913008272647858,0.0033748189453035593,0.013490984216332436
1.7294232273683556e+18,-0.01739843748509884,0.006760039366781712,0.01151250209659338
1.7294232273743557e+18,-0.015106330625712872,0.006445471663028002,0.01294197142124176
1.729423227383356e+18,-0.017941409721970558,0.007819590158760548,0.008205665275454521
1.729423227389356e+18,-0.017694488167762756,0.007638105191290379,0.009937696158885956
1.7294232273953562e+18,-0.020469048991799355,0.005685998592525721,0.011912671849131584
1.7294232274013563e+18,-0.018953008577227592,0.009947245009243488,0.010998863726854324
1.7294232274073564e+18,-0.020644476637244225,0.004233070649206638,0.011189557611942291
1.7294232274133565e+18,-0.01709955930709839,0.00618942454457283,0.013792089186608791
1.7294232274223567e+18,-0.019297897815704346,0.006555397063493729,0.014388122595846653
1.7294232274253568e+18,-0.016952913254499435,0.005333339795470238,0.014296979643404484
1.729423227431357e+18,-0.016449961811304092,0.006814792286604643,0.012477469630539417
1.729423227437357e+18,-0.014435640536248684,0.006818907801061869,0.01326964981853962
1.7294232274433572e+18,-0.015237756073474884,0.002019581850618124,0.013323355466127396
1.7294232274493573e+18,-0.012206966988742352,0.006627762224525213,0.016239061951637268
1.7294232274523574e+18,-0.014592776075005531,0.003995435778051615,0.013937578536570072
1.7294232274583575e+18,-0.019113481044769287,0.005030754022300243,0.018414368852972984
1.7294232274643576e+18,-0.01688186079263687,0.0057566361501812935,0.017770253121852875
1.7294232274703578e+18,-0.01961304061114788,0.006976059637963772,0.0179063081741333
1.729423227476358e+18,-0.021502193063497543,0.008199244737625122,0.017324242740869522
1.729423227482358e+18,-0.022105498239398003,0.00847499817609787,0.019374603405594826
1.7294232274883581e+18,-0.017618846148252487,0.007324018981307745,0.01567295752465725
1.7294232274913582e+18,-0.0147359324619174,0.00782639067620039,0.01750248111784458
1.7294232274973583e+18,-0.01388461422175169,0.01071497704833746,0.017972253262996674
1.7294232275033585e+18,-0.014790689572691917,0.007862893864512444,0.019340096041560173
1.7294232275093586e+18,-0.012420917861163616,0.007359130308032036,0.017712149769067764
1.7294232275123587e+18,-0.017842313274741173,0.00701115420088172,0.02060859650373459
1.7294232275183588e+18,-0.015816373750567436,0.008345972746610641,0.02042454108595848
1.729423227524359e+18,-0.01725408248603344,0.00838354043662548,0.021186843514442444
1.729423227530359e+18,-0.018395107239484787,0.010012867860496044,0.02262823097407818
1.729423227533359e+18,-0.017920486629009247,0.007617962080985308,0.0233178548514843
1.7294232275393592e+18,-0.018012218177318573,0.010540999472141266,0.023785719648003578
1.7294232275453594e+18,-0.017374109476804733,0.01095464639365673,0.023649031296372414
1.7294232275513595e+18,-0.015976645052433014,0.013154113665223122,0.025218181312084198
1.7294232275573596e+18,-0.012864111922681332,0.012815817259252071,0.02459140308201313
1.7294232275603597e+18,-0.014293307438492775,0.01397521048784256,0.025860436260700226
1.7294232275663598e+18,-0.015696657821536064,0.011922738514840603,0.02426454797387123
1.72942322757236e+18,-0.012456806376576424,0.01379359234124422,0.026422010734677315
1.72942322757836e+18,-0.015965258702635765,0.014267129823565483,0.025632571429014206
1.72942322758136e+18,-0.016566654667258263,0.013373104855418205,0.025517327710986137
1.7294232275873603e+18,-0.012497794814407825,0.014551735483109951,0.030991196632385254
1.7294232275933604e+18,-0.018468011170625687,0.014332362450659275,0.02609407715499401
1.7294232275993605e+18,-0.019196493551135063,0.011951223947107792,0.029298527166247368
1.7294232276023606e+18,-0.015696551650762558,0.016040239483118057,0.02674412913620472
1.7294232276083607e+18,-0.017211925238370895,0.011838492006063461,0.03179580718278885
1.7294232276143608e+18,-0.018911875784397125,0.01229015551507473,0.0321655347943306
1.729423227620361e+18,-0.013489065691828728,0.013975651934742928,0.032126668840646744
1.729423227626361e+18,-0.01628672331571579,0.015051919966936111,0.03327735885977745
1.7294232276293612e+18,-0.011428375728428364,0.012599032372236252,0.03123251534998417
1.7294232276353613e+18,-0.013283423148095608,0.0124357920140028,0.03383445739746094
1.7294232276413614e+18,-0.017468934878706932,0.012259578332304955,0.03529096022248268
1.7294232276473615e+18,-0.01968734711408615,0.014990909025073051,0.03238555043935776
1.7294232276533617e+18,-0.018854761496186256,0.013096336275339127,0.033509280532598495
1.7294232276593618e+18,-0.017476510256528854,0.010870303958654404,0.03436871990561485
1.729423227665362e+18,-0.01917080022394657,0.011746307834982872,0.03697695583105087
1.729423227674362e+18,-0.022616643458604813,0.008088954724371433,0.034825947135686874
1.7294232276803622e+18,-0.01926887407898903,0.008070526644587517,0.03931862860918045
1.7294232276833623e+18,-0.02096564508974552,0.010567789897322655,0.03844812512397766
1.7294232276893624e+18,-0.015567455440759659,0.009876604191958904,0.04064178839325905
1.7294232276953626e+18,-0.016131404787302017,0.010253547690808773,0.042505353689193726
1.7294232277013627e+18,-0.017203155905008316,0.010998937301337719,0.04178617522120476
1.7294232277073628e+18,-0.015764765441417694,0.010761643759906292,0.043998222798109055
1.729423227713363e+18,-0.020322956144809723,0.01132937055081129,0.04203784465789795
1.729423227719363e+18,-0.021384112536907196,0.010615079663693905,0.04409937933087349
1.7294232277253632e+18,-0.022257721051573753,0.009951821528375149,0.04091918468475342
1.7294232277313633e+18,-0.02475149929523468,0.01005929708480835,0.045605115592479706
1.7294232277373635e+18,-0.02526465617120266,0.009527057409286499,0.04611961916089058
1.7294232277433636e+18,-0.025122618302702904,0.010172337293624878,0.04584354907274246
1.7294232277523638e+18,-0.02256341651082039,0.010176420211791992,0.05065052956342697
1.729423227758364e+18,-0.024720067158341408,0.01186379138380289,0.04610414430499077
1.729423227767364e+18,-0.022251345217227936,0.011292524635791779,0.04904775321483612
1.7294232277733642e+18,-0.018886948004364967,0.00820845551788807,0.04949067533016205
1.7294232277793644e+18,-0.018892329186201096,0.011831294745206833,0.0491674430668354
1.7294232277853645e+18,-0.02125382423400879,0.005328490398824215,0.047346118837594986
1.7294232277913646e+18,-0.020102746784687042,0.004169051069766283,0.04977243393659592
1.7294232277943647e+18,-0.019390355795621872,0.0016739200800657272,0.047323476523160934
1.7294232278003648e+18,-0.02201634645462036,0.006474983878433704,0.05090934783220291
1.729423227806365e+18,-0.018532345071434975,0.006150845903903246,0.051556702703237534
1.729423227812365e+18,-0.02022021822631359,0.004601350985467434,0.05099146068096161
1.7294232278183652e+18,-0.022709213197231293,0.005010085180401802,0.051691289991140366
1.7294232278213652e+18,-0.022562744095921516,0.00508470181375742,0.051581550389528275
1.7294232278273654e+18,-0.023380450904369354,0.005049537867307663,0.05024900659918785
1.7294232278333655e+18,-0.02299191616475582,0.005386554170399904,0.051493994891643524
1.7294232278393656e+18,-0.02222874015569687,0.003967954311519861,0.05285342037677765
1.7294232278423657e+18,-0.022961320355534554,0.004136956762522459,0.053949858993291855
1.7294232278483658e+18,-0.020504267886281013,0.006113601848483086,0.05318440869450569
1.729423227854366e+18,-0.020628223195672035,0.00536908395588398,0.05419698730111122
1.729423227860366e+18,-0.020040132105350494,0.0068725901655852795,0.05555851757526398
1.7294232278663662e+18,-0.019582519307732582,0.004776181653141975,0.05538945645093918
1.7294232278723663e+18,-0.016003623604774475,0.003636444453150034,0.054936666041612625
1.7294232278753664e+18,-0.015959100797772408,0.0008053025230765343,0.05455760657787323
1.7294232278813665e+18,-0.015431336127221584,0.0034872291143983603,0.05555476248264313
1.7294232278873667e+18,-0.018927257508039474,0.0032328052911907434,0.05680316686630249
1.7294232278933668e+18,-0.01966901309788227,0.005098262801766396,0.05338882654905319
1.729423227899367e+18,-0.02129637636244297,0.006528422236442566,0.05739897862076759
1.729423227905367e+18,-0.020323656499385834,0.003946508280932903,0.055587831884622574
1.729423227908367e+18,-0.021506380289793015,0.005877623334527016,0.05701536312699318
1.7294232279143672e+18,-0.022595582529902458,0.0057604312896728516,0.056690581142902374
1.7294232279203674e+18,-0.01868348941206932,0.0041570100001990795,0.056030694395303726
1.7294232279263675e+18,-0.02072451077401638,0.005805086810141802,0.056436728686094284
1.7294232279323676e+18,-0.016000626608729362,0.0036301291547715664,0.061005137860774994
1.7294232279383677e+18,-0.018259234726428986,0.00296532129868865,0.06085191294550896
1.7294232279443679e+18,-0.016678832471370697,0.006120139267295599,0.059913862496614456
1.729423227950368e+18,-0.017797213047742844,0.004125194624066353,0.05930410325527191
1.7294232279563681e+18,-0.01749141328036785,0.005871066357940435,0.060837000608444214
1.7294232279623683e+18,-0.017535675317049026,0.0025206864811480045,0.06043514981865883
1.7294232279683684e+18,-0.017107130959630013,0.002946972381323576,0.059214621782302856
1.7294232279743685e+18,-0.01760551892220974,0.0023639469873160124,0.06421051919460297
1.7294232279803686e+18,-0.01947368122637272,0.00373912719078362,0.058814071118831635
1.7294232279863688e+18,-0.018119346350431442,0.005087392404675484,0.06037081032991409
1.7294232279893688e+18,-0.01598387211561203,0.003451902884989977,0.05687142536044121
1.729423227995369e+18,-0.016613779589533806,-0.00018206448294222355,0.05873963236808777
1.729423228001369e+18,-0.017401650547981262,0.003030588384717703,0.062009047716856
1.7294232280073692e+18,-0.018213972449302673,0.0014511470217257738,0.06211389601230621
1.7294232280133693e+18,-0.017770349979400635,0.00032992404885590076,0.06005534157156944
1.7294232280193695e+18,-0.01838524639606476,0.0035325956996530294,0.05903291329741478
1.7294232280253696e+18,-0.018636366352438927,0.004742143210023642,0.05991014465689659
1.7294232280283697e+18,-0.018992403522133827,0.0052944365888834,0.06094757840037346
1.7294232280343698e+18,-0.02000405080616474,0.005015009082853794,0.06112918630242348
1.72942322804037e+18,-0.01760459505021572,0.006982904858887196,0.05895956978201866
1.72942322804637e+18,-0.01826057769358158,0.005370190367102623,0.06122058257460594
1.72942322804937e+18,-0.017754586413502693,0.003484823741018772,0.06126982718706131
1.7294232280553702e+18,-0.019638774916529655,0.00017564138397574425,0.06204689294099808
1.7294232280613704e+18,-0.019629374146461487,-9.526475332677364e-05,0.06044916436076164
1.7294232280673705e+18,-0.022017529234290123,0.0032659941352903843,0.05874539539217949
1.7294232280733706e+18,-0.019393213093280792,-0.002732093445956707,0.06271903216838837
1.7294232280763707e+18,-0.021502824500203133,0.0042169587686657906,0.061517201364040375
1.7294232280823708e+18,-0.02046428993344307,0.002908362541347742,0.06402746587991714
1.729423228088371e+18,-0.020831147208809853,0.005093924701213837,0.062204595655202866
1.729423228094371e+18,-0.022493591532111168,0.004324429202824831,0.06346098333597183
1.7294232280973711e+18,-0.0234867911785841,0.005278380122035742,0.06273739784955978
1.7294232281033713e+18,-0.02011783979833126,0.007253962568938732,0.06346716731786728
1.7294232281093714e+18,-0.02139287069439888,0.007927075028419495,0.06445571780204773
1.7294232281153715e+18,-0.020078152418136597,0.006636148318648338,0.06276698410511017
1.7294232281183716e+18,-0.01968417689204216,0.006842712871730328,0.060190409421920776
1.7294232281243717e+18,-0.019944846630096436,0.0069844541139900684,0.05992043763399124
1.7294232281303718e+18,-0.01830853521823883,0.004797592293471098,0.05921132490038872
1.729423228136372e+18,-0.02025526762008667,0.006348133087158203,0.058222513645887375
1.729423228139372e+18,-0.018532143905758858,0.0034302063286304474,0.06135222315788269
1.7294232281453722e+18,-0.01794418692588806,0.005480124149471521,0.06262518465518951
1.7294232281513723e+18,-0.0199266467243433,0.005208897870033979,0.06304366141557693
1.7294232281573724e+18,-0.01911049336194992,0.004568503238260746,0.06201310083270073
1.7294232281633725e+18,-0.016071947291493416,0.009486117400228977,0.061710480600595474
1.7294232281663726e+18,-0.016913045197725296,0.005861828103661537,0.059844307601451874
1.7294232281723727e+18,-0.01610376499593258,0.007039623335003853,0.060109373182058334
1.7294232281783729e+18,-0.018377618864178658,0.003620510222390294,0.06229346990585327
1.729423228184373e+18,-0.018282443284988403,0.005114913918077946,0.05920538678765297
1.729423228187373e+18,-0.01658257469534874,0.0038654152303934097,0.059271879494190216
1.7294232281933732e+18,-0.01776631362736225,0.0020048823207616806,0.06030568107962608
1.7294232281993733e+18,-0.01747949793934822,0.00366248469799757,0.0593205988407135
1.7294232282053734e+18,-0.020175673067569733,0.0038023837842047215,0.06190770864486694
1.7294232282113736e+18,-0.018577439710497856,0.0020168423652648926,0.059652477502822876
1.7294232282143736e+18,-0.022276587784290314,0.0031882994808256626,0.05877605825662613
1.7294232282203738e+18,-0.02389339916408062,0.0027013064827769995,0.057423096150159836
1.729423228226374e+18,-0.022701570764183998,0.00745897414162755,0.05935003235936165
1.729423228232374e+18,-0.01805526204407215,0.009387093596160412,0.0621432326734066
1.729423228235374e+18,-0.016760576516389847,0.009504415094852448,0.060226697474718094
1.7294232282413742e+18,-0.020688673481345177,0.006849801633507013,0.0561167448759079
1.7294232282473743e+18,-0.019092006608843803,0.004359991755336523,0.05888356640934944
1.7294232282533745e+18,-0.022541046142578125,0.004580880980938673,0.055894434452056885
1.7294232282593746e+18,-0.0219586119055748,0.003394046565517783,0.05486135557293892
1.7294232282623747e+18,-0.01802840456366539,0.0034105810336768627,0.058518167585134506
1.7294232282683748e+18,-0.01843998022377491,0.004230949096381664,0.05479424446821213
1.729423228274375e+18,-0.017605839297175407,0.0023808057885617018,0.053000226616859436
1.729423228277375e+18,-0.017308903858065605,0.004248125944286585,0.05425797030329704
1.729423228283375e+18,-0.01777605339884758,0.006453864276409149,0.05317969620227814
1.7294232282893752e+18,-0.014328217133879662,0.0026605024468153715,0.05240458995103836
1.7294232282953754e+18,-0.015189673751592636,0.001738464692607522,0.05122819170355797
1.7294232282983754e+18,-0.018450256437063217,0.0051276795566082,0.05517430976033211
1.7294232283043756e+18,-0.014737317338585854,0.007345852442085743,0.051346950232982635
1.7294232283103757e+18,-0.015899302437901497,0.006950970273464918,0.052240848541259766
1.7294232283163758e+18,-0.01701907441020012,0.00541528919711709,0.05248219892382622
1.729423228319376e+18,-0.019081417471170425,0.005661839619278908,0.05163378268480301
1.729423228325376e+18,-0.017595726996660233,0.008185680024325848,0.048878252506256104
1.729423228331376e+18,-0.018531743437051773,0.004890496376901865,0.05352513864636421
1.7294232283373763e+18,-0.013318464159965515,0.0066398982889950275,0.04967662692070007
1.7294232283403763e+18,-0.012704244814813137,0.005200081504881382,0.04893071576952934
1.7294232283463764e+18,-0.008670506998896599,0.0033583249896764755,0.04995448514819145
1.7294232283523766e+18,-0.010548102669417858,0.004004672635346651,0.04965139180421829
1.7294232283583767e+18,-0.006741678807884455,0.0017058401135727763,0.04897144436836243
1.7294232283613768e+18,-0.009411019273102283,0.0025318260304629803,0.047416262328624725
1.729423228367377e+18,-0.014708311296999454,0.0026757451705634594,0.04537332430481911
1.729423228373377e+18,-0.0154896080493927,0.0031640364322811365,0.045475929975509644
1.7294232283793772e+18,-0.01776275224983692,0.0040915049612522125,0.045351482927799225
1.7294232283853773e+18,-0.020278576761484146,0.005434275139123201,0.043693628162145615
1.7294232283913774e+18,-0.018999390304088593,0.0040831719525158405,0.04360707104206085
1.7294232283973775e+18,-0.02288186550140381,0.0028217944782227278,0.043665360659360886
1.7294232284003776e+18,-0.028011785820126534,-0.009500089101493359,0.04113249480724335
1.7294232284063777e+18,-0.04110569506883621,-0.023219743743538857,0.04400990903377533
1.7294232284123779e+18,-0.05062883719801903,-0.029594801366329193,0.04104616492986679
1.729423228415378e+18,-0.054266370832920074,-0.04011997580528259,0.045803461223840714
1.729423228421378e+18,-0.06307990103960037,-0.04885004833340645,0.042722977697849274
1.7294232284273782e+18,-0.0709611251950264,-0.0603032261133194,0.0392952486872673
1.7294232284333783e+18,-0.07611057162284851,-0.06180800870060921,0.04402916505932808
1.7294232284393784e+18,-0.07340814918279648,-0.06454145908355713,0.03938933461904526
1.7294232284453786e+18,-0.07620103657245636,-0.05905550718307495,0.041687898337841034
1.7294232284513787e+18,-0.07064413279294968,-0.053722262382507324,0.03804734721779823
1.7294232284543788e+18,-0.07022018730640411,-0.05381394550204277,0.038614582270383835
1.729423228460379e+18,-0.07568597793579102,-0.05098690465092659,0.03883618488907814
1.729423228466379e+18,-0.07624340802431107,-0.05239230394363403,0.038525719195604324
1.7294232284723791e+18,-0.08141536265611649,-0.05480964854359627,0.03550964593887329
1.7294232284783793e+18,-0.08486896753311157,-0.05926959961652756,0.04017851501703262
1.7294232284813793e+18,-0.08655025064945221,-0.06057867780327797,0.03698807954788208
1.7294232284873795e+18,-0.08809762448072433,-0.065605029463768,0.03478424623608589
1.7294232284933796e+18,-0.09052510559558868,-0.07040181010961533,0.0331217423081398
1.7294232284963796e+18,-0.09011814743280411,-0.06770387291908264,0.039781879633665085
1.7294232285023798e+18,-0.08790596574544907,-0.06405102461576462,0.035379305481910706
1.72942322850838e+18,-0.0867132619023323,-0.06673630326986313,0.03740311414003372
1.72942322851438e+18,-0.08069200068712234,-0.06335575133562088,0.03570599853992462
1.7294232285203802e+18,-0.0770297572016716,-0.05849408730864525,0.034274954348802567
1.7294232285263803e+18,-0.07269643247127533,-0.053966280072927475,0.03544686734676361
1.7294232285293804e+18,-0.07266731560230255,-0.05260664224624634,0.03443595767021179
1.7294232285353805e+18,-0.06997326016426086,-0.0496760755777359,0.03434101119637489
1.7294232285413806e+18,-0.07096114754676819,-0.047957561910152435,0.034396231174468994
1.7294232285443807e+18,-0.06976108998060226,-0.04796694964170456,0.03121378645300865
1.7294232285503808e+18,-0.06947075575590134,-0.04786868765950203,0.031784538179636
1.729423228556381e+18,-0.07320296764373779,-0.04809070751070976,0.03125863894820213
1.729423228562381e+18,-0.0684802457690239,-0.04660040885210037,0.03092898055911064
1.729423228565381e+18,-0.06965312361717224,-0.04605643078684807,0.03153018653392792
1.7294232285713812e+18,-0.0658506527543068,-0.04235706850886345,0.0315842367708683
1.7294232285773814e+18,-0.06496722251176834,-0.041662730276584625,0.033048439770936966
1.7294232285833815e+18,-0.0608389750123024,-0.03761505335569382,0.030722863972187042
1.7294232285863816e+18,-0.05794854462146759,-0.036158181726932526,0.02881571277976036
1.7294232285923817e+18,-0.052179884165525436,-0.031108980998396873,0.027743233367800713
1.7294232285983818e+18,-0.045858319848775864,-0.027865644544363022,0.03329591080546379
1.729423228604382e+18,-0.04110536724328995,-0.025413308292627335,0.02760733850300312
1.729423228610382e+18,-0.041391633450984955,-0.020135320723056793,0.028957784175872803
1.7294232286133821e+18,-0.04025403782725334,-0.017102841287851334,0.031074220314621925
1.7294232286193823e+18,-0.03976431488990784,-0.023503609001636505,0.026866646483540535
1.7294232286253824e+18,-0.03616617992520332,-0.017138656228780746,0.03001227043569088
1.7294232286283825e+18,-0.03521012142300606,-0.014593830332159996,0.024408189579844475
1.7294232286343826e+18,-0.036464933305978775,-0.010782345198094845,0.027737675234675407
1.7294232286403827e+18,-0.0349673330783844,-0.006741405464708805,0.02857891097664833
1.7294232286433828e+18,-0.03448585420846939,-0.008049186319112778,0.025963176041841507
1.729423228649383e+18,-0.027946211397647858,-0.006698159500956535,0.027104487642645836
1.729423228655383e+18,-0.02289697714149952,-0.0037095914594829082,0.024885404855012894
1.7294232286613832e+18,-0.023667702451348305,-0.0037356982938945293,0.025956973433494568
1.7294232286673833e+18,-0.020845338702201843,0.0025045396760106087,0.025660347193479538
1.7294232286733834e+18,-0.019048450514674187,0.0012441136641427875,0.02524363435804844
1.7294232286763835e+18,-0.01677216961979866,0.00582489836961031,0.024043884128332138
1.7294232286823836e+18,-0.0175161175429821,0.003953785169869661,0.02171693742275238
1.7294232286853837e+18,-0.01906285434961319,0.0046227481216192245,0.023656506091356277
1.7294232286913838e+18,-0.016174858435988426,0.0047016264870762825,0.02424553595483303
1.729423228697384e+18,-0.013471730053424835,0.0019787587225437164,0.023489948362112045
1.729423228703384e+18,-0.016848232597112656,0.008069625124335289,0.02439885400235653
1.7294232287063841e+18,-0.012727788649499416,0.009947250597178936,0.02293821983039379
1.7294232287123843e+18,-0.009227973408997059,0.010186148807406425,0.023858066648244858
1.7294232287183844e+18,-0.005191272124648094,0.010865859687328339,0.024176716804504395
1.7294232287213844e+18,-0.005386594217270613,0.011310958303511143,0.022160710766911507
1.7294232287273846e+18,-0.004903148859739304,0.014264563098549843,0.02008942887187004
1.7294232287333847e+18,-0.0035003621596843004,0.014100312255322933,0.02319367229938507
1.7294232287393848e+18,-0.00749368267133832,0.014549534767866135,0.022970644757151604
1.729423228745385e+18,-0.007574053481221199,0.016063345596194267,0.02170993760228157
1.729423228748385e+18,-0.008457951247692108,0.013871870003640652,0.018340839073061943
1.7294232287543852e+18,-0.012675829231739044,0.016118792816996574,0.02115662395954132
1.7294232287603853e+18,-0.012064325623214245,0.01642407290637493,0.025270165875554085
1.7294232287633853e+18,-0.008854533545672894,0.0162422526627779,0.022533569484949112
1.7294232287693855e+18,-0.0029574569780379534,0.015370432287454605,0.016804303973913193
1.7294232287753856e+18,-0.0017786533571779728,0.016344880685210228,0.02051946334540844
1.7294232287813857e+18,0.0019635758362710476,0.016556046903133392,0.022536683827638626
1.7294232287843858e+18,-0.00033987173810601234,0.01795748621225357,0.019399086013436317
1.729423228790386e+18,0.004967105574905872,0.014447508379817009,0.020276378840208054
1.729423228796386e+18,0.0052015651017427444,0.019091609865427017,0.016973935067653656
1.7294232288023862e+18,0.00402812659740448,0.017901144921779633,0.018316637724637985
1.7294232288083863e+18,0.0009767948649823666,0.015192206017673016,0.016206853091716766
1.7294232288143864e+18,0.0021534268744289875,0.014554526656866074,0.020762497559189796
1.7294232288203866e+18,-3.29859321936965e-05,0.01466025598347187,0.019984140992164612
1.7294232288263867e+18,-0.003181834938004613,0.01287940051406622,0.019920721650123596
1.7294232288293868e+18,-0.0024116162676364183,0.013292552903294563,0.016618497669696808
1.729423228835387e+18,0.0011170068755745888,0.01279506552964449,0.02066151611506939
1.729423228841387e+18,0.0017564017325639725,0.013291716575622559,0.01768496073782444
1.7294232288473871e+18,0.00304244551807642,0.011252135969698429,0.015214601531624794
1.7294232288503872e+18,0.00150525220669806,0.013317192904651165,0.016320979222655296
1.7294232288563873e+18,0.003507453016936779,0.010741458274424076,0.014849917963147163
1.7294232288623875e+18,0.005486710462719202,0.013746592216193676,0.016588479280471802
1.7294232288653875e+18,0.006594731472432613,0.014518527314066887,0.015450512059032917
1.7294232288713876e+18,0.005341584328562021,0.013155115768313408,0.014467181637883186
1.7294232288773878e+18,0.006564710754901171,0.009725021198391914,0.013942073099315166
1.729423228883388e+18,0.006117812357842922,0.012700860388576984,0.013430232182145119
1.729423228886388e+18,0.006156756542623043,0.01115855760872364,0.014742057770490646
1.729423228892388e+18,0.00765457097440958,0.012491629458963871,0.012474145740270615
1.7294232288983882e+18,0.007299966178834438,0.009640865959227085,0.013742898590862751
1.7294232289043884e+18,0.004414236173033714,0.0061058178544044495,0.014207369647920132
1.7294232289103885e+18,0.0028709087055176497,0.0033135011326521635,0.017297299578785896
1.7294232289163886e+18,0.005796370096504688,0.0075724171474576,0.013857359066605568
1.7294232289223887e+18,0.004358541686087847,0.004094628617167473,0.012144443579018116
1.7294232289283889e+18,0.004439160227775574,0.0024147415533661842,0.01864328421652317
1.729423228934389e+18,0.006189608946442604,0.0036256657913327217,0.011633437126874924
1.729423228940389e+18,0.008943017572164536,2.153380773961544e-05,0.012460359372198582
1.7294232289463892e+18,0.009412984363734722,0.005464661866426468,0.010662796907126904
1.7294232289523894e+18,0.010188755579292774,0.004311420489102602,0.012966936454176903
1.7294232289583895e+18,0.009822160936892033,0.00379567570053041,0.012670595198869705
1.7294232289673897e+18,0.011781859211623669,0.0023555788211524487,0.012272060848772526
1.7294232289703898e+18,0.009718276560306549,3.4217024222016335e-05,0.012276997789740562
1.72942322897939e+18,0.004693505819886923,-0.0008183090249076486,0.01101063285022974
1.72942322898539e+18,0.004973751027137041,0.00044951133895665407,0.012340185232460499
1.7294232289913902e+18,0.0019252656493335962,-0.00254259305074811,0.013266115449368954
1.7294232289973903e+18,0.005372890271246433,0.00044923595851287246,0.009730558842420578
1.7294232290033905e+18,0.006814741063863039,0.0016936974134296179,0.008843252435326576
1.7294232290093906e+18,0.008264699950814247,0.0026152878999710083,0.013791055418550968
1.7294232290153907e+18,0.0066461702808737755,0.000513368402607739,0.011199825443327427
1.7294232290213908e+18,0.008027147501707077,-0.00022926705423742533,0.011861341074109077
1.729423229027391e+18,0.012209378182888031,-0.0024730446748435497,0.012612417340278625
1.7294232290363912e+18,0.014829790219664574,-0.007301980629563332,0.009862092323601246
1.7294232290423913e+18,0.012474444694817066,-0.008652109652757645,0.013730996288359165
1.7294232290483914e+18,0.015626229345798492,-0.004739326424896717,0.010714231058955193
1.7294232290543916e+18,0.01370540913194418,-0.008677845820784569,0.008486205711960793
1.7294232290603917e+18,0.015965871512889862,-0.007624592632055283,0.007740086410194635
1.7294232290663918e+18,0.010132333263754845,-0.005093666259199381,0.011689185164868832
1.729423229072392e+18,0.01099399197846651,-0.005014326423406601,0.011717703193426132
1.729423229081392e+18,0.01408678200095892,-0.007188398856669664,0.007278746925294399
1.7294232290873923e+18,0.015148991718888283,-0.00567974615842104,0.010947814211249352
1.7294232290933924e+18,0.017494618892669678,-0.004852128215134144,0.011821684427559376
1.7294232290993925e+18,0.014282778836786747,-0.007624095305800438,0.009877525269985199
1.7294232291053926e+18,0.021134018898010254,-0.012484637089073658,0.011965787969529629
1.7294232291113928e+18,0.019447850063443184,-0.009191906079649925,0.0066129895858466625
1.729423229117393e+18,0.017759352922439575,-0.011222531087696552,0.007277105003595352
1.729423229120393e+18,0.0212299395352602,-0.011632146313786507,0.005827000830322504
1.729423229126393e+18,0.020343590527772903,-0.011412316933274269,0.006072907708585262
1.7294232291353933e+18,0.01894015073776245,-0.009581266902387142,0.006158949341624975
1.7294232291383933e+18,0.01883878745138645,-0.00743537163361907,0.009698165580630302
1.7294232291443935e+18,0.017203573137521744,-0.008677097968757153,0.007469565141946077
1.7294232291533937e+18,0.022237341850996017,-0.005093459039926529,0.006699011195451021
1.7294232291593938e+18,0.021662814542651176,-0.009348802268505096,0.00621357886120677
1.729423229165394e+18,0.020085811614990234,-0.007900683209300041,0.009536311030387878
1.729423229171394e+18,0.02449173852801323,-0.007944636046886444,0.007794051431119442
1.7294232291773942e+18,0.0256357379257679,-0.010327414609491825,0.0066194417886435986
1.7294232291833943e+18,0.026240669190883636,-0.008723035454750061,0.00462633790448308
1.7294232291893944e+18,0.025783047080039978,-0.008986055850982666,0.00490221194922924
1.7294232291953946e+18,0.025830555707216263,-0.010654828511178493,0.00756309786811471
1.7294232292013947e+18,0.025352250784635544,-0.007148591335862875,0.008305911906063557
1.729423229210395e+18,0.026291485875844955,-0.00935082696378231,0.0033964200410991907
1.729423229216395e+18,0.023731403052806854,-0.007257822901010513,0.008878989145159721
1.7294232292223951e+18,0.02616463229060173,-0.009652712382376194,0.007009018678218126
1.7294232292313953e+18,0.025432009249925613,-0.014224897138774395,0.005759967491030693
1.7294232292373955e+18,0.026789413765072823,-0.009970497339963913,0.007037645671516657
1.7294232292433956e+18,0.029819393530488014,-0.013560827821493149,0.006281266920268536
1.7294232292493957e+18,0.028541311621665955,-0.012454788200557232,0.006690417882055044
1.7294232292553958e+18,0.030937982723116875,-0.013226736336946487,0.006632662378251553
1.729423229261396e+18,0.03206837177276611,-0.013965627178549767,0.005988160148262978
1.729423229267396e+18,0.029552584514021873,-0.01072572823613882,0.005773445591330528
1.7294232292733962e+18,0.03240891173481941,-0.008926321752369404,0.007377998903393745
1.7294232292793964e+18,0.03398529812693596,-0.012804163619875908,0.00612656120210886
1.7294232292853965e+18,0.035102032124996185,-0.0115646468475461,0.006998398341238499
1.7294232292913966e+18,0.03420597314834595,-0.011746017262339592,0.008972112089395523
1.7294232292973967e+18,0.03080776520073414,-0.013412185944616795,0.005753203760832548
1.7294232293033969e+18,0.030779853463172913,-0.012179387733340263,0.0040255095809698105
1.729423229309397e+18,0.03035445138812065,-0.012415878474712372,0.005450412165373564
1.729423229315397e+18,0.031939342617988586,-0.014549662359058857,0.0030415416695177555
1.7294232293213972e+18,0.029295705258846283,-0.015369566157460213,0.005032920278608799
1.7294232293273974e+18,0.02887117862701416,-0.01204654946923256,0.004816333297640085
1.7294232293333975e+18,0.028234343975782394,-0.011642876081168652,0.0034282044507563114
1.7294232293393976e+18,0.030801231041550636,-0.011376929469406605,0.003430929034948349
1.7294232293453978e+18,0.031478092074394226,-0.008760230615735054,0.005499894265085459
1.729423229351398e+18,0.030459878966212273,-0.011028929613530636,0.007462926208972931
1.729423229357398e+18,0.03458929806947708,-0.010349725373089314,0.0081825852394104
1.7294232293633981e+18,0.031151413917541504,-0.013009315356612206,0.005650723353028297
1.7294232293693983e+18,0.03262077644467354,-0.011343315243721008,0.0062953392043709755
1.7294232293753984e+18,0.03093143366277218,-0.013611647300422192,0.0040972791612148285
1.7294232293813985e+18,0.030062543228268623,-0.015376364812254906,0.0007305077742785215
1.7294232293873987e+18,0.03183852881193161,-0.012212359346449375,0.0069627584889531136
1.7294232293903987e+18,0.03265590965747833,-0.014813798479735851,0.0024597952142357826
1.7294232293963988e+18,0.03101867437362671,-0.008656312711536884,0.0026738885790109634
1.729423229402399e+18,0.033137716352939606,-0.011028734035789967,0.0034859671723097563
1.729423229408399e+18,0.03275243937969208,-0.010683477856218815,0.00382937747053802
1.7294232294143992e+18,0.02836499735713005,-0.012221261858940125,0.0017016127239912748
1.7294232294203994e+18,0.03500574454665184,-0.012572753243148327,0.0019780960865318775
1.7294232294263995e+18,0.031014567241072655,-0.011843355372548103,0.0038860018830746412
1.7294232294323996e+18,0.0338672436773777,-0.01283403392881155,0.0019131796434521675
1.7294232294383997e+18,0.03859129548072815,-0.014653771184384823,0.003165371250361204
1.7294232294474e+18,0.03686407953500748,-0.011596032418310642,0.002534405095502734
1.7294232294534e+18,0.03678217902779579,-0.01010948047041893,0.006025489419698715
1.7294232294594002e+18,0.0335102453827858,-0.009968741796910763,0.003623703960329294
1.7294232294654003e+18,0.03437293320894241,-0.012199304066598415,0.0028411466628313065
1.7294232294744005e+18,0.03305256366729736,-0.011329450644552708,0.00473395362496376
1.7294232294804006e+18,0.03234120085835457,-0.012149195186793804,0.003161031985655427
1.7294232294864008e+18,0.03334037587046623,-0.013778209686279297,0.0025433774571865797
1.729423229492401e+18,0.03658696636557579,-0.015856023877859116,0.0010406151413917542
1.729423229498401e+18,0.034625303000211716,-0.01185932382941246,-0.00030243280343711376
1.7294232295044012e+18,0.03425640985369682,-0.012843950651586056,0.0012828810140490532
1.7294232295104013e+18,0.037085093557834625,-0.01397254504263401,0.002196194836869836
1.7294232295164014e+18,0.03613325580954552,-0.01568404957652092,0.004123203922063112
1.7294232295224015e+18,0.035346224904060364,-0.01533879991620779,0.0040740566328167915
1.7294232295284017e+18,0.036577507853507996,-0.011208766140043736,0.0026702266186475754
1.7294232295344018e+18,0.035636503249406815,-0.013782992027699947,0.003269935492426157
1.729423229540402e+18,0.03808021545410156,-0.014036064967513084,0.0015669461572542787
1.729423229546402e+18,0.03902445361018181,-0.014348872005939484,0.002060328610241413
1.729423229549402e+18,0.03847517818212509,-0.012721790000796318,0.002342146821320057
1.7294232295554022e+18,0.03821941092610359,-0.014154955744743347,0.001624745549634099
1.7294232295614024e+18,0.03980812802910805,-0.01544099859893322,0.0020182072184979916
1.7294232295674025e+18,0.03912121057510376,-0.014125918038189411,0.005055451765656471
1.7294232295734026e+18,0.037434499710798264,-0.013501739129424095,0.0028302401769906282
1.7294232295794028e+18,0.03535652160644531,-0.015485771931707859,0.0030186951626092196
1.7294232295824028e+18,0.03419363498687744,-0.01639917679131031,0.0018843486905097961
1.729423229588403e+18,0.035847943276166916,-0.012189365923404694,0.001932061742991209
1.729423229594403e+18,0.035197217017412186,-0.011838050559163094,0.0006603057263419032
1.7294232296004032e+18,0.03437339514493942,-0.012210415676236153,0.0021768431179225445
1.7294232296064033e+18,0.03775873780250549,-0.012771437875926495,0.0014562198193743825
1.7294232296094034e+18,0.03544566035270691,-0.014560299925506115,0.0030914521776139736
1.7294232296154035e+18,0.03868188336491585,-0.011635370552539825,0.0031261302065104246
1.7294232296214036e+18,0.037437621504068375,-0.014706164598464966,0.002561718225479126
1.7294232296274038e+18,0.03702910989522934,-0.01630742847919464,0.00021743797697126865
1.729423229633404e+18,0.037656303495168686,-0.016903776675462723,0.0035946457646787167
1.729423229639404e+18,0.03451763838529587,-0.015335850417613983,0.002645192202180624
1.729423229642404e+18,0.03672654554247856,-0.014192815870046616,0.0007430235855281353
1.7294232296484042e+18,0.037608325481414795,-0.014468948356807232,-0.00115793920122087
1.7294232296544044e+18,0.03476138785481453,-0.014455251395702362,0.00024741876404732466
1.7294232296604045e+18,0.035861171782016754,-0.014115164056420326,0.0029423192609101534
1.7294232296664046e+18,0.03410426899790764,-0.016354111954569817,0.001072489540092647
1.7294232296694047e+18,0.0358070433139801,-0.01930319517850876,0.0007296083495020866
1.7294232296754048e+18,0.03837401419878006,-0.018721928820014,0.0032253144308924675
1.729423229681405e+18,0.040151942521333694,-0.018072066828608513,0.0018362014088779688
1.729423229687405e+18,0.037650130689144135,-0.02021021768450737,0.003402135567739606
1.729423229690405e+18,0.03666151687502861,-0.018838440999388695,0.00306409178301692
1.7294232296964052e+18,0.03780558705329895,-0.02138136513531208,0.003045403864234686
1.7294232297024054e+18,0.03536314144730568,-0.01896999403834343,0.003010818734765053
1.7294232297084055e+18,0.03811483830213547,-0.0172748863697052,0.0016924915835261345
1.7294232297144056e+18,0.0402202382683754,-0.019272133708000183,0.0013950265711173415
1.7294232297174057e+18,0.04213836044073105,-0.01789766363799572,0.0007840550970286131
1.7294232297234058e+18,0.04524371027946472,-0.019639771431684494,0.002685318700969219
1.729423229729406e+18,0.037583284080028534,-0.018567154183983803,0.0034306563902646303
1.729423229735406e+18,0.03817053139209747,-0.019023612141609192,0.0018293893663212657
1.7294232297384061e+18,0.03530313819646835,-0.01821952871978283,0.0029997893143445253
1.7294232297444063e+18,0.03553396090865135,-0.019343743100762367,0.0022316526155918837
1.7294232297504064e+18,0.03511945903301239,-0.019264282658696175,-0.0001045397948473692
1.7294232297564065e+18,0.03580217435956001,-0.02086985483765602,0.0042480723932385445
1.7294232297594066e+18,0.037404097616672516,-0.01641971431672573,0.0005683646304532886
1.7294232297654067e+18,0.03927142173051834,-0.019342826679348946,0.0006817972753196955
1.7294232297714068e+18,0.03687303513288498,-0.019642842933535576,0.0040644449181854725
1.729423229774407e+18,0.0372462198138237,-0.022569838911294937,0.0012521694879978895
1.729423229780407e+18,0.036895815283060074,-0.02319488115608692,-0.001216203672811389
1.7294232297864072e+18,0.037205081433057785,-0.019732045009732246,0.0037750599440187216
1.7294232297924073e+18,0.03306807205080986,-0.021174589172005653,0.0028938776813447475
1.7294232297954074e+18,0.034409571439027786,-0.020216692239046097,0.0037891361862421036
1.7294232298014075e+18,0.0365058071911335,-0.020173178985714912,0.0015123252524062991
1.7294232298074076e+18,0.0351247638463974,-0.021127840504050255,0.0029882448725402355
1.7294232298134077e+18,0.0316743329167366,-0.01744799315929413,0.0022076100576668978
1.729423229819408e+18,0.031180527061223984,-0.017673127353191376,-0.0015697476919740438
1.729423229825408e+18,0.03065091371536255,-0.019556064158678055,0.003002159297466278
1.729423229828408e+18,0.03142155334353447,-0.02151651866734028,0.003216478042304516
1.7294232298344082e+18,0.029889997094869614,-0.019537944346666336,0.0016443931963294744
1.7294232298404083e+18,0.03268289193511009,-0.015759315341711044,0.0005350761930458248
1.7294232298464084e+18,0.034486182034015656,-0.015004724264144897,0.0015410458436235785
1.7294232298494085e+18,0.03342030197381973,-0.014348931610584259,0.0006085584755055606
1.7294232298554086e+18,0.03342616185545921,-0.015066979452967644,0.0014477079967036843
1.7294232298614088e+18,0.032305821776390076,-0.014483589679002762,0.0036364439874887466
1.729423229867409e+18,0.02935194782912731,-0.014757372438907623,0.001716304337605834
1.729423229873409e+18,0.03537459671497345,-0.01245679147541523,0.002525548217818141
1.729423229876409e+18,0.032747216522693634,-0.012223982252180576,0.004721466451883316
1.7294232298824092e+18,0.03585181012749672,-0.014357169158756733,-0.0002852790057659149
1.7294232298884093e+18,0.03301035985350609,-0.012831909582018852,0.002128054853528738
1.7294232298944095e+18,0.03175816684961319,-0.014256279915571213,0.0035931915044784546
1.7294232298974095e+18,0.03343849256634712,-0.01719006709754467,0.0017521022818982601
1.7294232299034097e+18,0.03518548980355263,-0.01395506039261818,0.0009311973117291927
1.7294232299094098e+18,0.03309689834713936,-0.012177538126707077,0.003157299943268299
1.7294232299124099e+18,0.034769944846630096,-0.01432898361235857,0.0035444297827780247
1.72942322991841e+18,0.036212947219610214,-0.017560914158821106,0.0006814886000938714
1.72942322992441e+18,0.03588614612817764,-0.015554075129330158,0.0043887728825211525
1.7294232299304102e+18,0.03828758746385574,-0.012597671709954739,0.002115543931722641
1.7294232299364104e+18,0.03584159165620804,-0.0129130519926548,0.00011256348807364702
1.7294232299394104e+18,0.03511815145611763,-0.013956815004348755,0.00026338244788348675
1.7294232299454106e+18,0.039185237139463425,-0.016185155138373375,0.001318829832598567
1.7294232299514107e+18,0.035365402698516846,-0.011574739590287209,-0.0010562727693468332
1.7294232299574108e+18,0.030865613371133804,-0.013046150095760822,2.7896370738744736e-05
1.729423229963411e+18,0.032395798712968826,-0.012732701376080513,0.0006990112597122788
1.729423229969411e+18,0.029780978336930275,-0.01231952104717493,-0.00023235869593918324
1.7294232299754112e+18,0.03033394366502762,-0.010556166991591454,0.00014643295435234904
1.7294232299784113e+18,0.024197183549404144,-0.013407404534518719,0.0009482747409492731
1.7294232299874115e+18,0.029735438525676727,-0.00862282793968916,-0.0015503689646720886
1.7294232299934116e+18,0.0304045919328928,-0.0130248311907053,-0.0016399141168221831
1.7294232299994117e+18,0.03025369718670845,-0.012441901490092278,0.0011503607966005802
1.7294232300054118e+18,0.03281912952661514,-0.011443506926298141,-0.00030579918529838324
1.729423230011412e+18,0.0321630984544754,-0.01065365131944418,0.004454368259757757
1.729423230017412e+18,0.032714586704969406,-0.009856188669800758,-0.0002916411031037569
1.7294232300234122e+18,0.03150704503059387,-0.007928215898573399,0.0016251495108008385
1.7294232300264123e+18,0.028634727001190186,-0.008305417373776436,-5.7732220739126205e-05
1.7294232300324124e+18,0.031221633777022362,-0.004019778221845627,-0.00026721833273768425
1.7294232300384125e+18,0.027842557057738304,-0.0062736268155276775,0.0023079977836459875
1.7294232300444127e+18,0.0272555872797966,-0.006824810989201069,-0.00020600022980943322
1.7294232300504128e+18,0.02874329499900341,-0.008748788386583328,0.0016386165516451001
1.7294232300534129e+18,0.033108536154031754,-0.007444452494382858,0.0024386844597756863
1.729423230059413e+18,0.03184055536985397,-0.005904982332140207,0.0011040654499083757
1.729423230065413e+18,0.03280893340706825,-0.006523389834910631,0.0030331406742334366
1.7294232300714132e+18,0.030433885753154755,-0.004901094827800989,0.0008507009479217231
1.7294232300744133e+18,0.028048837557435036,-0.006087211892008781,0.0035557872615754604
1.7294232300804134e+18,0.030299898236989975,-0.004374602809548378,-0.0006346031441353261
1.7294232300864136e+18,0.02832607552409172,-0.006759290117770433,0.0014967105817049742
1.7294232300924137e+18,0.027549607679247856,-0.0042683943174779415,0.0027028436306864023
1.7294232300954138e+18,0.025978421792387962,-0.008662919513881207,-0.0007814019336365163
1.729423230101414e+18,0.026413816958665848,-0.0029790173284709454,-0.0014027616707608104
1.729423230107414e+18,0.02691212296485901,-0.006320375949144363,-5.3732190281152725e-05
1.729423230110414e+18,0.030331337824463844,-0.005800697486847639,0.0026090783067047596
1.7294232301164142e+18,0.029986977577209473,-0.008702539838850498,0.0017290090909227729
1.7294232301224143e+18,0.028118804097175598,-0.003700610250234604,0.0025344013702124357
1.7294232301284145e+18,0.030410919338464737,-0.007894618436694145,-0.001523104147054255
1.7294232301344146e+18,0.029210396111011505,-0.0034939302131533623,-0.0006926002679392695
1.7294232301374147e+18,0.03089529275894165,-0.003116818144917488,0.0005521401762962341
1.7294232301434148e+18,0.025618093088269234,-0.0032206797040998936,-0.0006806779420003295
1.729423230149415e+18,0.02650555782020092,-0.0030306673143059015,0.002566172741353512
1.729423230152415e+18,0.029118040576577187,-0.002347310073673725,8.357048500329256e-05
1.729423230158415e+18,0.026380518451333046,-0.0008679118473082781,0.0013709634076803923
1.7294232301644152e+18,0.021385477855801582,-0.006752103567123413,0.004183745943009853
1.7294232301674153e+18,0.026005808264017105,-0.005060552153736353,0.0012086015194654465
1.7294232301734154e+18,0.024157797917723656,-0.006269905716180801,0.0014650917146354914
1.7294232301794156e+18,0.02266896516084671,-0.0071353367529809475,0.00024293777823913842
1.7294232301854157e+18,0.022566769272089005,-0.0035786256194114685,0.0017183118034154177
1.7294232301884157e+18,0.024756358936429024,-0.006062929984182119,0.00045174770639277995
1.7294232301944159e+18,0.020209435373544693,-0.009078959003090858,-0.002687295898795128
1.729423230200416e+18,0.0262222271412611,-0.004964977502822876,0.00022469612304121256
1.729423230203416e+18,0.02461954765021801,-0.004548882134258747,-0.000771005405113101
1.7294232302094162e+18,0.020721277222037315,-0.0031178072094917297,0.0026873142924159765
1.7294232302154163e+18,0.024498887360095978,-0.004371880553662777,-0.00013738908455707133
1.7294232302184164e+18,0.02205290086567402,-0.0005472283810377121,0.001673692837357521
1.7294232302244165e+18,0.02342038042843342,-0.0015366071602329612,-0.0007964625838212669
1.7294232302304166e+18,0.02384730614721775,-0.003585156286135316,-0.000463759497506544
1.7294232302364168e+18,0.021383294835686684,-0.0029457269702106714,0.002258756896480918
1.7294232302394168e+18,0.02307984046638012,-0.002966314321383834,-0.0007749921642243862
1.729423230245417e+18,0.020586637780070305,-0.005693580489605665,-0.0008072479977272451
1.729423230251417e+18,0.022062763571739197,-0.006007776129990816,0.002141781849786639
1.7294232302574172e+18,0.017323611304163933,-0.0029265694320201874,0.0004326365306042135
1.7294232302634173e+18,0.02014867588877678,-0.00509615195915103,-0.003052745247259736
1.7294232302664174e+18,0.02341741882264614,-0.0013672090135514736,-0.0021346393041312695
1.7294232302724175e+18,0.021276336163282394,-0.004047638736665249,-0.0006350959884002805
1.7294232302784177e+18,0.016065645962953568,-0.005295778624713421,0.00037962908390909433
1.7294232302844178e+18,0.01670759916305542,-0.0030362701509147882,-0.0015121500473469496
1.7294232302874179e+18,0.014368608593940735,-0.002121655037626624,0.002891270676627755
1.729423230293418e+18,0.01632721908390522,-0.00010049715638160706,0.0014453813200816512
1.729423230299418e+18,0.014548450708389282,-0.004167955368757248,-0.001904056640341878
1.7294232303054182e+18,0.01716475374996662,-0.0011615932453423738,-0.0014456810895353556
1.7294232303084183e+18,0.015984976664185524,-0.0006783358985558152,3.781067061936483e-05
1.7294232303144184e+18,0.01840411126613617,0.002797838533297181,0.002036023885011673
1.7294232303204186e+18,0.022933272644877434,0.0023251124657690525,-0.0005460606189444661
1.7294232303264187e+18,0.023201167583465576,-0.0015913485549390316,3.314718560432084e-05
1.7294232303324188e+18,0.022919898852705956,-0.0014294020365923643,0.0003417471598368138
1.729423230335419e+18,0.021114736795425415,0.0021919526625424623,-5.674417479895055e-05
1.729423230341419e+18,0.020913999527692795,0.0008217571885325015,-0.00034783262526616454
1.7294232303474191e+18,0.019400250166654587,-0.0009480343433097005,0.0007459843182004988
1.7294232303534193e+18,0.017100896686315536,0.0017210697988048196,-0.0011951759224757552
1.7294232303594194e+18,0.014342192560434341,-0.0004116445779800415,-0.00017849965661298484
1.7294232303654195e+18,0.016806278377771378,0.0008295343723148108,0.0003500562161207199
1.7294232303684196e+18,0.017085343599319458,0.0033520287834107876,0.0019883650820702314
1.7294232303744197e+18,0.01972566917538643,-0.0006078341975808144,-0.001753701362758875
1.7294232303804198e+18,0.018065376207232475,0.00013523572124540806,-0.0008827310521155596
1.72942323038642e+18,0.021241262555122375,0.0026998831890523434,-0.0011460103560239077
1.72942323039242e+18,0.020351944491267204,0.0015765579883009195,-0.00027104944456368685
1.7294232303954202e+18,0.01950112171471119,0.005307365208864212,-0.0013531980803236365
1.7294232304014203e+18,0.018000781536102295,0.0020664541516453028,0.001162608852609992
1.7294232304074204e+18,0.014837570488452911,0.003115192288532853,-0.0007897804025560617
1.7294232304134205e+18,0.016528377309441566,0.005210045725107193,-0.0002939026744570583
1.7294232304164206e+18,0.015175655484199524,0.00368621782399714,-0.002240954665467143
1.7294232304224207e+18,0.013665270991623402,0.0041281115263700485,0.0016961232759058475
1.7294232304284209e+18,0.014972789213061333,0.003417922416701913,0.000931190385017544
1.729423230434421e+18,0.013281213119626045,0.004431354813277721,-0.0048026107251644135
1.729423230437421e+18,0.01576908864080906,0.0032410076819360256,-0.0013404354685917497
1.7294232304434212e+18,0.015606219880282879,0.0027673218864947557,0.0032573803327977657
1.7294232304494213e+18,0.015345901250839233,0.0007540715159848332,0.00027255521854385734
1.7294232304554214e+18,0.0169097688049078,0.0026582609862089157,-0.0010093015152961016
1.7294232304584215e+18,0.016084302216768265,0.0023119556717574596,-0.0013652107445523143
1.7294232304644216e+18,0.013720834627747536,0.003928063437342644,0.0009330424945801497
1.7294232304704218e+18,0.015193020924925804,0.0011889021843671799,-0.0012810558546334505
1.729423230476422e+18,0.013321464881300926,0.006469976156949997,-0.0017654377734288573
1.729423230479422e+18,0.015114019624888897,0.0028292909264564514,-0.0002908859169110656
1.729423230485422e+18,0.014896322973072529,-6.458023563027382e-06,0.0005351774743758142
1.7294232304914222e+18,0.011454918421804905,0.002506180200725794,-0.003031556960195303
1.7294232304974223e+18,0.012324729934334755,0.0021295652259141207,-0.0021590078249573708
1.7294232305034225e+18,0.014170031994581223,0.0021402984857559204,-0.0021343068219721317
1.7294232305064225e+18,0.015686871483922005,0.0035978173837065697,0.0010320096043869853
1.7294232305124227e+18,0.01613474078476429,0.0032518331427127123,-0.0007586972205899656
1.7294232305184228e+18,0.01667659729719162,0.004194204229861498,0.0003849838685709983
1.7294232305214228e+18,0.012745951302349567,5.736364983022213e-05,-0.00013674964429810643
1.729423230527423e+18,0.012754777446389198,0.005438313819468021,-0.0022445444483309984
1.729423230533423e+18,0.011188843287527561,0.0027319546788930893,-0.0010670957854017615
1.7294232305394232e+18,0.013904176652431488,0.002846319228410721,-0.0011169242206960917
1.7294232305454234e+18,0.009412288665771484,0.005689002573490143,0.0006112478440627456
1.7294232305484234e+18,0.011663941666483879,0.0025984542444348335,-0.00032004929380491376
1.7294232305544236e+18,0.010271625593304634,0.0030091290827840567,0.0007573474431410432
1.7294232305604237e+18,0.010246392339468002,0.00313528417609632,-0.0024449427146464586
1.7294232305664238e+18,0.008398463018238544,0.005344904027879238,0.0012820002157241106
1.729423230569424e+18,0.006944307591766119,0.0017855375772342086,-0.0003046549973078072
1.729423230575424e+18,0.006540143396705389,0.002546760719269514,-0.001075130421668291
1.729423230581424e+18,0.005341364070773125,0.0035113419871777296,0.0023147212341427803
1.7294232305874243e+18,0.0066463821567595005,0.0016574799083173275,-0.0011392206652089953
1.7294232305934244e+18,0.007923759520053864,0.004960670135915279,0.0008615920669399202
1.7294232305994245e+18,0.006321583408862352,0.005507075227797031,-0.0004877664614468813
1.7294232306024246e+18,0.007553576026111841,0.0048666466027498245,0.0012336228974163532
1.7294232306084247e+18,0.005469540134072304,0.0011513496283441782,-9.34670097194612e-05
1.7294232306144248e+18,0.008495275862514973,0.0024950311053544283,-0.0026110410690307617
1.729423230620425e+18,0.008698094636201859,0.005604666657745838,-9.613670408725739e-05
1.729423230623425e+18,0.0057366411201655865,0.004595707170665264,0.0007109434809535742
1.7294232306294252e+18,0.005625206511467695,0.0036828459706157446,-0.0001513916940893978
1.7294232306354253e+18,0.004425194580107927,0.00841846689581871,0.0013559716753661633
1.7294232306414254e+18,0.006848430261015892,0.007772421929985285,-0.0007729913340881467
1.7294232306474255e+18,-0.0012779866810888052,0.00642846105620265,0.0014436603523790836
1.7294232306504256e+18,0.00019475037697702646,0.006193169858306646,-0.0018217430915683508
1.7294232306564257e+18,0.0030949788633733988,0.0059161921963095665,-0.002327349502593279
1.7294232306624259e+18,-0.000520952045917511,0.005722096189856529,-0.004084549378603697
1.729423230668426e+18,0.006377053447067738,0.0028900231700390577,-0.0009623928926885128
1.729423230671426e+18,0.005162154324352741,0.002137711737304926,0.0008771777502261102
1.7294232306774262e+18,0.006870295852422714,0.003834837581962347,0.001934544648975134
1.7294232306834263e+18,0.008505825884640217,0.007188674993813038,-0.0004127079446334392
1.7294232306864264e+18,0.008895865641534328,0.005457479972392321,0.0004672528593800962
1.7294232306924265e+18,0.008989623747766018,0.009578278288245201,0.0009414293454028666
1.7294232306984266e+18,0.002084215870127082,0.009750543162226677,-0.004256617743521929
1.7294232307044268e+18,0.005414794199168682,0.012338472530245781,-0.0004794524284079671
1.729423230710427e+18,0.0022165870759636164,0.010744132101535797,0.00036176969297230244
1.729423230716427e+18,-0.005515776574611664,0.00919681042432785,9.33679984882474e-06
1.7294232307224271e+18,0.0012777557130903006,0.009449050761759281,-0.0015901005826890469
1.7294232307254272e+18,-0.0039758337661623955,0.009597571566700935,-0.0005886883591301739
1.7294232307314273e+18,-0.0004327663918957114,0.009152376092970371,0.0006963508785702288
