timestamp,gyro_x,gyro_y,gyro_z
1.7294918900865695e+18,-0.0005066003650426865,0.0019355452386662364,0.002316006226465106
1.7294918900925696e+18,0.0008116953540593386,0.00026303422055207193,-0.001965061528608203
1.7294918900985697e+18,0.0010873758001253009,-0.002074335003271699,-0.0007890136912465096
1.7294918901045699e+18,0.004107958171516657,-0.0008136567776091397,0.0006883679889142513
1.72949189011057e+18,-5.457010411191732e-05,-0.00086693320190534,-0.0014861783711239696
1.72949189011657e+18,-0.00046712314360775054,0.0010652560740709305,-0.003236659336835146
1.7294918901225702e+18,0.000674573122523725,9.353391942568123e-05,-0.0007173338090069592
1.7294918901285704e+18,0.0010413803393021226,-0.0005191680393181741,-2.3002023226581514e-05
1.7294918901345705e+18,-6.122756167314947e-05,-0.0005573288653977215,0.001992356264963746
1.7294918901405706e+18,-0.0002456895890645683,-6.04326487518847e-06,0.0001818723394535482
1.7294918901465708e+18,-0.001978308195248246,-0.0039075883105397224,0.0021216615568846464
1.729491890152571e+18,0.000330516864778474,-0.0007422589114867151,-0.0028572739101946354
1.729491890158571e+18,0.001619215589016676,0.0006743971607647836,0.002074566902592778
1.7294918901645711e+18,0.00044614472426474094,-0.0009009769419208169,-0.0011159536661580205
1.7294918901675712e+18,-0.0018831941997632384,0.0010133478790521622,-0.0016119906213134527
1.7294918901735713e+18,-0.0012680200161412358,0.0016648690216243267,-0.00019000264001078904
1.7294918901795715e+18,0.0016671114135533571,-0.0012812939239665866,-0.00021657264733221382
1.7294918901855716e+18,0.0014592133229598403,0.0016363682225346565,0.0013108252314850688
1.7294918901915717e+18,-0.0008971575298346579,0.0031397708225995302,0.0005984252784401178
1.7294918901945718e+18,-0.0014859464718028903,0.000897211953997612,-0.002008763374760747
1.729491890200572e+18,-0.0007738676504231989,-0.0016496311873197556,-0.00027731017326004803
1.729491890206572e+18,-0.0007179781096056104,-0.0008232570253312588,-0.0001917106710607186
1.7294918902125722e+18,0.002752956934273243,0.00038116812356747687,0.00037214436451904476
1.7294918902155722e+18,0.0037182585801929235,-0.001222271821461618,0.0012122023617848754
1.7294918902215724e+18,0.000530543620698154,0.0018380117835476995,0.0010600208770483732
1.7294918902275725e+18,0.002612467622384429,0.0033786119893193245,-9.46762302191928e-05
1.7294918902335726e+18,0.0007306903717108071,-0.0016363232862204313,-0.00045112980296835303
1.7294918902395727e+18,-0.0009435922256670892,0.0014752352144569159,0.0016129356808960438
1.7294918902455729e+18,0.0038525795098394156,-0.001160265994258225,0.0005446046707220376
1.729491890248573e+18,0.0011908677406609058,-0.002382779959589243,-0.0012335953069850802
1.729491890254573e+18,-0.0009262216626666486,-0.0019760902505367994,0.00016293548105750233
1.7294918902635732e+18,-0.0002663824998307973,-0.0010241687996312976,0.0016902496572583914
1.7294918902695734e+18,-0.000997205264866352,-0.0022329376079142094,0.00077399070141837
1.7294918902755735e+18,-7.957937486935407e-05,0.0011167774209752679,0.0012781447730958462
1.7294918902815736e+18,0.00020187448535580188,-0.0008561825379729271,0.0012139558093622327
1.7294918902875738e+18,0.0007509882561862469,-0.00018457278201822191,0.0008423906983807683
1.729491890293574e+18,0.0020800246857106686,1.426023300155066e-05,0.0018058624118566513
1.729491890299574e+18,0.0016146063571795821,0.002550322562456131,0.0008699324680492282
1.7294918903055741e+18,0.0014112860662862659,-0.000992115936242044,-0.00032503061811439693
1.7294918903115743e+18,-0.0019089470151811838,-0.002826699987053871,-0.004201781935989857
1.7294918903175744e+18,-0.0015451759099960327,0.0008413931936956942,0.001968144439160824
1.7294918903235745e+18,-0.0009403994190506637,0.00017312653653789312,0.0016479537589475513
1.7294918903295747e+18,-0.001445641741156578,-0.001035416848026216,0.0006781865376979113
1.7294918903355748e+18,0.0029373648576438427,0.0017006065463647246,-0.0023215448018163443
1.729491890341575e+18,0.002339892089366913,0.0031506591476500034,0.002307616174221039
1.729491890347575e+18,-0.0018598565366119146,0.000909250695258379,0.003262908896431327
1.7294918903535752e+18,-0.0005830785958096385,0.0008160658180713654,0.0014069336466491222
1.7294918903595753e+18,0.0007423877832479775,-5.012293695472181e-05,-0.001976591534912586
1.7294918903655754e+18,-0.0005311798886395991,-0.0010005396325141191,-0.0012362466659396887
1.7294918903685755e+18,0.0009094614651985466,-0.00025333015946671367,-0.001299178460612893
1.7294918903745756e+18,-0.0022734198719263077,0.0019285306334495544,-0.0011046810541301966
1.7294918903805757e+18,0.000784532108809799,0.0008163784514181316,0.0016319487476721406
1.729491890386576e+18,-0.0019232467748224735,0.0034388729836791754,0.0008484490681439638
1.729491890392576e+18,0.000943862134590745,0.0020698243752121925,-0.0029594176448881626
1.729491890398576e+18,-0.0006010076031088829,0.0006018736748956144,-0.0004954806645400822
1.7294918904045763e+18,-0.0012608596589416265,0.001340318936854601,0.0020424763206392527
1.7294918904075763e+18,-0.001811818452551961,-0.0007644451106898487,-0.0001440777414245531
1.7294918904135764e+18,0.002273715101182461,0.001671866630204022,0.0012910210061818361
1.7294918904195766e+18,0.00035447784466668963,-0.0018081996822729707,0.0022674219217151403
1.7294918904255767e+18,0.00014512555208057165,-0.003117334796115756,-0.002644134685397148
1.7294918904285768e+18,0.001791714341379702,-0.0016198803205043077,0.0013237431412562728
1.729491890434577e+18,-0.0002921382838394493,0.0006271884776651859,-0.0027862817514687777
1.729491890440577e+18,0.000566264905501157,0.001521902158856392,-0.0015240286011248827
1.7294918904465772e+18,-0.0007065027020871639,-0.00013131435844115913,-0.0002788387646432966
1.7294918904495772e+18,-0.0031199792865663767,-0.0014463963452726603,0.0005784029490314424
1.7294918904555773e+18,0.0010076393373310566,-0.00028190319426357746,0.0015219231136143208
1.7294918904615775e+18,0.0005124154849909246,-0.001577266724780202,0.00018186468514613807
1.7294918904675776e+18,-0.00024672827566973865,-0.0009335327195003629,-0.0016448252135887742
1.7294918904705777e+18,0.0008343284134753048,-0.001477201352827251,0.0011164704337716103
1.7294918904765778e+18,-0.00036893703509122133,-0.0013346311170607805,-0.0003641151124611497
1.729491890482578e+18,-0.002735650632530451,0.00056536088231951,0.0002404644910711795
1.729491890488578e+18,-0.0008970435010269284,-0.0012956592254340649,-0.0015163664938881993
1.729491890491578e+18,0.0012513793772086501,0.003672161605209112,-0.001310720224864781
1.7294918904975782e+18,0.0029084624256938696,0.0007631391054019332,-0.002018160419538617
1.7294918905035784e+18,-0.0020392946898937225,0.0009425877942703664,-0.0034321199636906385
1.7294918905095785e+18,-0.0003682466340251267,-0.001876122667454183,0.0017479826929047704
1.7294918905155786e+18,-0.00010678736725822091,-0.00020837565534748137,-0.0023566880263388157
1.7294918905185787e+18,-0.001679134089499712,-0.0003190369170624763,-0.0010539934737607837
1.7294918905245788e+18,0.000233224403928034,0.0007555744959972799,-0.001141992281191051
1.729491890530579e+18,-0.0011733679566532373,-0.002351634670048952,0.0021616381127387285
1.729491890536579e+18,-0.0015396930975839496,0.00014584220480173826,0.000126623926917091
1.7294918905425792e+18,0.0019446020014584064,-0.003532316070050001,-0.00023871644225437194
1.7294918905485793e+18,0.0009859411511570215,-0.0010589233133941889,0.000826969975605607
1.7294918905545795e+18,-0.0018644119845703244,-0.001301428535953164,0.0011108247563242912
1.7294918905605796e+18,0.0005393318133428693,0.0005752479773946106,0.00037050669197924435
1.7294918905635796e+18,0.0005261175683699548,5.2043735195184126e-05,0.00015479048306588084
1.7294918905695798e+18,0.0026263578329235315,6.224139724508859e-06,-0.00021100978483445942
1.72949189057558e+18,-0.00012557345326058567,-0.0010487433755770326,0.0018069903599098325
1.72949189058158e+18,-0.0007097244961187243,-0.0012325686402618885,0.0013177491491660476
1.7294918905875802e+18,0.0014963969588279724,0.001162605476565659,0.00013439939357340336
1.7294918905935803e+18,0.0004051436553709209,0.002321880776435137,-0.0012687169946730137
1.7294918905965804e+18,-0.00012550705287139863,0.0004895819001831114,0.0013797052670270205
1.7294918906025805e+18,0.0009973951382562518,0.001958223292604089,-0.001183929736725986
1.7294918906085806e+18,0.0009274096810258925,0.0009217145852744579,0.0008615644765086472
1.7294918906145807e+18,-0.0024101680610328913,0.00037115279701538384,0.00010158039367524907
1.7294918906205809e+18,-0.00020205359032843262,-0.00021556008141487837,-0.001158492872491479
1.729491890626581e+18,-0.0016408823430538177,-0.0009121227194555104,-9.739652159623802e-05
1.729491890629581e+18,0.0007007498061284423,0.0004407559463288635,0.002737845527008176
1.7294918906355812e+18,-0.002120478544384241,0.0028064115904271603,-0.000991262961179018
1.7294918906415813e+18,0.0022894537542015314,-0.004112419206649065,-0.0006293350015766919
1.7294918906475814e+18,0.0017519494285807014,-0.0011539477854967117,-0.0003605038218665868
1.7294918906535816e+18,-0.00310927233658731,-0.0007695696549490094,-0.0007797175203450024
1.7294918906595817e+18,-0.0020692432299256325,0.0018153083510696888,-0.0008026129798963666
1.7294918906625818e+18,-0.0021624250803142786,0.002349540824070573,0.00027947299531660974
1.729491890668582e+18,-0.000537956366315484,-0.00038268635398708284,-0.00016846865764819086
1.729491890674582e+18,-0.0011541019193828106,-0.0011411122977733612,0.0007774606347084045
1.7294918906805821e+18,-0.0008547860197722912,-0.0018461141735315323,0.00037728730239905417
1.7294918906865823e+18,-0.000290070689516142,0.0006432178779505193,0.0006740828393958509
1.7294918906895823e+18,0.0023739540483802557,0.0002642050967551768,-0.0004592741606757045
1.7294918906955825e+18,0.00035755819408223033,-0.00013820223102811724,0.002350966678932309
1.7294918907015826e+18,0.0012561110779643059,-0.001932112849317491,-0.002208820078521967
1.7294918907075827e+18,6.731304893037304e-05,0.001851712935604155,-0.0002885473077185452
1.7294918907135828e+18,-0.0015755173517391086,2.3862394300522283e-05,0.0018041206058114767
1.729491890716583e+18,-0.0009710855665616691,-0.0007288369815796614,-0.001813411363400519
1.729491890722583e+18,0.001371437800116837,-0.0022340896539390087,0.0014889661688357592
1.7294918907285832e+18,1.464840261178324e-05,-0.0009729745797812939,0.0002274824510095641
1.7294918907345833e+18,0.0013131725136190653,0.0008177384734153748,0.00017750606639310718
1.7294918907405834e+18,-0.002350304741412401,-0.00018505891785025597,-0.0006847346085123718
1.7294918907435835e+18,0.002075813477858901,-0.001271039480343461,-0.0006794738001190126
1.7294918907495836e+18,0.0016447900561615825,-0.0009009234490804374,0.0004746037593577057
1.7294918907555837e+18,0.00309710088185966,0.0002778266789391637,0.0004286142939236015
1.7294918907615839e+18,0.0006920253508724272,0.0016474478179588914,-0.0010486649116501212
1.729491890767584e+18,-0.0005482397391460836,-0.0007584451232105494,0.002134536625817418
1.7294918907735841e+18,0.005337066017091274,0.002164911711588502,0.0006893131649121642
1.7294918907795843e+18,-0.00042496039532124996,-0.0015348241431638598,-0.0016645233845338225
1.7294918907825843e+18,0.0009267473942600191,0.0016696917591616511,0.0008708464447408915
1.7294918907885844e+18,0.001285645179450512,0.0005733853904530406,-0.00023006103583611548
1.7294918907945846e+18,-0.0005161934532225132,-0.001253186259418726,-0.0027553297113627195
1.7294918907975846e+18,-2.6666286430554464e-05,0.0007927844417281449,0.0008802100201137364
1.7294918908035848e+18,-0.0023504782002419233,0.0028157541528344154,-0.0008591717341914773
1.729491890809585e+18,0.0011553593212738633,-0.0008213403052650392,0.0020353097934275866
1.729491890815585e+18,-0.00019399149459786713,0.003634453983977437,-0.0022015206050127745
1.7294918908215852e+18,0.0007122635142877698,0.0006344037828966975,0.0017499758396297693
1.7294918908275853e+18,0.0019605045672506094,0.0009097670554183424,-0.0007341900491155684
1.7294918908305853e+18,0.0009838093537837267,0.0026454487815499306,0.0006340974359773099
1.7294918908365855e+18,3.628059494076297e-05,0.0012040400179103017,-0.00034647135180421174
1.7294918908425856e+18,0.0006505777128040791,-0.00253495411016047,-0.00016111733566503972
1.7294918908455857e+18,-0.0005917308735661209,-0.002074042335152626,-0.0017437970964238048
1.7294918908515858e+18,0.0031538275070488453,0.00023180519929155707,-0.003951185382902622
1.729491890857586e+18,0.0011635711416602135,0.001179040758870542,0.00031110437703318894
1.729491890863586e+18,-0.0005289530963636935,-0.0011837416095659137,0.0005103182047605515
1.7294918908695862e+18,0.0012578581226989627,0.003081455361098051,0.0001237463584402576
1.7294918908725862e+18,0.00042061632848344743,-0.0032199809793382883,0.0018412132048979402
1.7294918908785864e+18,0.0012091768439859152,0.0009673984022811055,0.0007324111647903919
1.7294918908845865e+18,-0.0002838393847923726,-0.0008061201660893857,-0.0033139397855848074
1.7294918908875866e+18,-0.0001854742004070431,0.0011706872610375285,-0.0018166900845244527
1.7294918908935867e+18,-0.00047700939467176795,0.0028217651415616274,-0.0023088299203664064
1.7294918908995868e+18,-0.0005664842901751399,-0.002099810866639018,0.0005164274480193853
1.729491890905587e+18,-0.00263534695841372,0.0037657541688531637,-0.0011824277462437749
1.729491890908587e+18,6.504995690193027e-05,0.0010138021316379309,0.00036842830013483763
1.7294918909145871e+18,0.0012250769650563598,0.001913133542984724,-0.004528864286839962
1.7294918909205873e+18,0.0007628910825587809,-5.022398181608878e-05,-0.0001476307079428807
1.7294918909235873e+18,-0.00172228564042598,5.711094127036631e-05,0.0021991052199155092
1.7294918909295875e+18,0.0013833793345838785,0.00027126449276693165,0.0017807077383622527
1.7294918909355876e+18,-0.0009349151514470577,-0.00256098760291934,-0.0006929709925316274
1.7294918909415877e+18,-0.004927485715597868,-0.00015259342035278678,-0.0014006365090608597
1.7294918909445878e+18,0.0009339764947071671,-0.0021902916487306356,0.0014635607367381454
1.729491890950588e+18,0.0010004725772887468,0.001288054627366364,0.0023458076175302267
1.729491890956588e+18,-0.0013725641183555126,-0.00085975177353248,-0.00215266109444201
1.7294918909625882e+18,0.00028646289138123393,0.0003987474483437836,-0.002569241216406226
1.7294918909655882e+18,0.0008427028660662472,-0.0029157784301787615,-0.00044267060002312064
1.7294918909715884e+18,-0.0008259796886704862,0.0005009124288335443,-0.0031946736853569746
1.7294918909775885e+18,0.0031771580688655376,0.0015062063466757536,0.00016489838890265673
1.7294918909835886e+18,0.00021788971207570285,-0.0015431789215654135,-0.00023501923715230078
1.7294918909895887e+18,-0.0024209863040596247,0.002283363603055477,0.003073926782235503
1.7294918909955889e+18,0.001353746047243476,-0.0018765170825645328,0.0027169690001755953
1.729491890998589e+18,-0.0017632914241403341,-0.001472284784540534,0.0014982320135459304
1.729491891004589e+18,0.0014301120536401868,0.0010339238215237856,0.0009533836855553091
1.7294918910105892e+18,-0.0012049740180373192,-0.0007807741058059037,-0.000981497927568853
1.7294918910165893e+18,-0.0007627811864949763,-0.001124261412769556,-0.001227700267918408
1.7294918910195894e+18,-0.0033274816814810038,0.0007400017348118126,-0.0007534762262366712
1.7294918910255895e+18,0.0004958219942636788,0.00027535861590877175,-0.0020295714493840933
1.7294918910315896e+18,-0.002618337282910943,-7.523707608925179e-05,0.0018407562747597694
1.7294918910375898e+18,0.0019185291603207588,0.0016480470076203346,0.001487870467826724
1.72949189104359e+18,0.0017387960106134415,-0.0047209858894348145,0.0013039440382272005
1.72949189104659e+18,0.0002600681036710739,0.0012094582198187709,0.0005076526431366801
1.72949189105259e+18,-0.0012765482533723116,-0.00033418452949263155,-0.0023984559811651707
1.7294918910585902e+18,-0.0009735077619552612,0.0018271979643031955,0.003154090838506818
1.7294918910675904e+18,0.0006233541644178331,-0.00195632828399539,-0.0017482388066127896
1.7294918910705905e+18,0.001210858696140349,0.0014807804254814982,-0.0005684781935997307
1.7294918910765906e+18,-0.00019301411521155387,-0.0014857194619253278,-0.0006088499212637544
1.7294918910825907e+18,-0.0002978616685140878,0.0028593260794878006,0.001297389972023666
1.7294918910885908e+18,-0.001919546746648848,0.0006810828344896436,0.0007792200776748359
1.729491891094591e+18,0.0009794954676181078,-0.0003450379881542176,0.0017195116961374879
1.729491891097591e+18,0.0015035260003060102,0.001207699067890644,-3.950520112994127e-05
1.7294918911035912e+18,-4.3267093133181334e-05,-0.003897155402228236,-0.0005050302133895457
1.7294918911095913e+18,-0.00012662260269280523,-0.0007433591526933014,0.0008043612469919026
1.7294918911155914e+18,-0.0009405843447893858,-0.0016462565399706364,-0.00016873734421096742
1.7294918911215916e+18,0.0009764111018739641,0.00019324611639603972,-0.001933349296450615
1.7294918911245916e+18,-0.002785752760246396,-1.4409063624043483e-05,0.00138352089561522
1.7294918911305917e+18,0.0026069791056215763,0.0005316307069733739,0.0005346742691472173
1.729491891136592e+18,0.0011345273815095425,-0.0004527866549324244,0.001782050239853561
1.729491891142592e+18,0.0019193902844563127,1.8534896298660897e-05,0.001181049388833344
1.729491891148592e+18,-0.0022283855360001326,-0.0003798053949140012,0.0007328419596888125
1.7294918911515922e+18,-0.0008504146826453507,-0.00022204520064406097,-0.002259564120322466
1.7294918911575923e+18,0.0004108950961381197,0.0013108841376379132,0.00044870711280964315
1.7294918911635924e+18,-0.0015920688165351748,0.001479185651987791,-0.00224515562877059
1.7294918911695926e+18,-0.0018149279057979584,-0.003686792217195034,0.0003931084356736392
1.7294918911725926e+18,0.001483305124565959,0.002861014800146222,-0.0006466966588050127
1.7294918911785928e+18,-0.0015890814829617739,0.0002824787516146898,-2.1019845007685944e-05
1.729491891184593e+18,0.001166878966614604,0.0019740816205739975,-0.0017026722198352218
1.729491891190593e+18,0.0010235182708129287,0.0025200725067406893,-0.0023686280474066734
1.7294918911965932e+18,0.00134895124938339,0.00019690125191118568,-0.0015745789278298616
1.7294918912025933e+18,0.0015586717054247856,-0.000648131244815886,0.0014174542156979442
1.7294918912055933e+18,-0.0015954988775774837,0.0008212956599891186,0.0012042730813845992
1.7294918912115935e+18,-0.0010941302170976996,-0.002204375108703971,0.001322562457062304
1.7294918912175936e+18,0.0001643635769141838,0.004182055592536926,-0.0008789130370132625
1.7294918912235937e+18,0.0004992244648747146,0.0002184174518333748,-0.001583716832101345
1.7294918912295939e+18,0.0007505859830416739,-0.001980619505047798,-0.0005550151108764112
1.729491891232594e+18,-0.00152731710113585,0.0007537440396845341,-0.0007762593450024724
1.729491891238594e+18,-5.10437494085636e-05,0.0018684291280806065,-0.0006743483245372772
1.7294918912445942e+18,0.001975815510377288,0.0005788540001958609,-0.0022480860352516174
1.7294918912505943e+18,0.0005606766208074987,-0.001037517678923905,-0.001038378570228815
1.7294918912535944e+18,-0.0006533781997859478,-0.0006748174782842398,3.135113001917489e-05
1.7294918912595945e+18,0.00020257449068594724,0.0008365979883819818,-0.002492679748684168
1.7294918912655946e+18,0.0011293482966721058,0.0009150155819952488,-0.0009564109495840967
1.7294918912715948e+18,-0.001673184335231781,0.00040047927177511156,0.0006332533666864038
1.729491891277595e+18,-0.0015996267320588231,-0.00026889226865023375,0.0003074516134802252
1.729491891280595e+18,0.0009794672951102257,-5.6397486332571134e-05,-0.0013201775727793574
1.729491891286595e+18,0.00027706395485438406,0.00024236839090008289,0.00026334868744015694
1.7294918912925952e+18,0.001741842133924365,0.0005046169389970601,-1.2299002264626324e-05
1.7294918912955953e+18,0.0008755847811698914,-0.0007228789036162198,-0.0036270874552428722
1.7294918913015954e+18,-2.611368108773604e-05,0.0008949763141572475,0.0007775664562359452
1.7294918913075955e+18,-0.0005184655310586095,0.002547846408560872,0.003750079544261098
1.7294918913135956e+18,-0.001497244811616838,-0.0006142266793176532,0.0010130975861102343
1.7294918913195958e+18,-0.001238101627677679,0.002075155731290579,0.0006395824020728469
1.729491891325596e+18,-9.648823470342904e-05,-0.0001428767864126712,-0.000903240405023098
1.729491891328596e+18,0.0002952953800559044,0.0012063365429639816,-0.0032061762176454067
1.729491891334596e+18,-0.00043965346412733197,-0.0020029146689921618,-0.002053778851404786
1.7294918913405962e+18,-0.0010214452631771564,-0.0005416858475655317,-0.0018655904568731785
1.7294918913465964e+18,0.0017422204837203026,0.0005384941468946636,0.0003442533779889345
1.7294918913525965e+18,-0.0009455643012188375,-0.0015090610831975937,-0.000873932964168489
1.7294918913585966e+18,-0.0017206034390255809,0.0024409564211964607,0.0015833514044061303
1.7294918913615967e+18,-0.00018282026576343924,0.0010794965783134103,-0.0007933667511679232
1.7294918913675968e+18,-0.0016620970563963056,-0.0010368787916377187,-0.0008072989876382053
1.729491891373597e+18,0.0006939139566384256,0.00011891174654010683,-0.0007695161621086299
1.729491891379597e+18,-0.0004692913207691163,0.0006312908953987062,0.0008191660745069385
1.7294918913855972e+18,-0.0010079657658934593,-2.8178176307847025e-06,-0.0024611016269773245
1.7294918913915973e+18,-4.688985427492298e-05,-0.000953017093706876,0.001207765773870051
1.7294918913975974e+18,-0.00038230500649660826,0.0013666413724422455,-0.001799381454475224
1.7294918914005975e+18,-0.0004929238930344582,0.002844512462615967,0.002788164187222719
1.7294918914065976e+18,-0.0009755921200849116,0.0005177332786843181,0.0010397834703326225
1.7294918914125978e+18,-0.00027470264467410743,0.0028496948070824146,-0.0017519750399515033
1.729491891418598e+18,-0.0013103631790727377,0.0014582163421437144,-0.0017205296317115426
1.729491891421598e+18,0.0016370933735743165,0.0015892221126705408,0.00040393619565293193
1.729491891427598e+18,-0.0018635247834026814,-0.0009029164793901145,-0.0015032687224447727
1.7294918914335982e+18,-0.0015355112263932824,-0.0005704669165425003,0.0020106793381273746
1.7294918914395983e+18,0.0029739239253103733,0.00029269474907778203,0.0012676070909947157
1.7294918914425984e+18,0.0016208726447075605,0.0005089158075861633,5.904317367821932e-05
1.7294918914485985e+18,-0.0014547634636983275,-0.0029224941972643137,0.00068944989470765
1.7294918914545987e+18,0.001602443866431713,0.0006530796526931226,-0.00017779406334739178
1.7294918914605988e+18,-0.0011357107432559133,0.0008142726146616042,-0.0010551449377089739
1.729491891466599e+18,0.0015524908667430282,-1.7023554391926154e-05,0.0013211154146119952
1.729491891472599e+18,-0.0013887204695492983,-0.0009991885162889957,-0.00045993298408575356
1.729491891475599e+18,-0.00016843552293721586,-0.0012163424398750067,-0.002178170019760728
1.7294918914815992e+18,-0.0019197353394702077,-0.002076933393254876,0.0005654566921293736
1.7294918914875994e+18,0.0018383447313681245,-0.0022995746694505215,0.0021404444705694914
1.7294918914935995e+18,0.0015247354749590158,-0.001982959685847163,-0.0014087200397625566
1.7294918914995996e+18,-0.00113200256600976,-0.0005545745952986181,0.0016617734218016267
1.7294918915025997e+18,5.5568689276697114e-05,-0.0008100868435576558,-0.0003366627497598529
1.7294918915085998e+18,-0.0007033550064079463,0.0005796285695396364,0.0023775820154696703
1.7294918915146e+18,0.00028196675702929497,-0.000182054252945818,0.0007512476877309382
1.7294918915206e+18,0.002412739209830761,0.002185493241995573,-0.00015652188449166715
1.7294918915266002e+18,-0.0009514750563539565,0.0004030345880892128,-0.002339352387934923
1.7294918915296003e+18,0.0002652021939866245,-0.0007364815101027489,0.0010353447869420052
1.7294918915356004e+18,-0.00017371517606079578,-0.00017193502571899444,-0.0014386444818228483
1.7294918915416005e+18,-0.001819154480472207,0.004373257979750633,-5.7534754887456074e-05
1.7294918915476006e+18,0.0024393764324486256,0.0010540244402363896,0.0037020074669271708
1.7294918915536008e+18,0.0024759918451309204,0.0009872762020677328,0.00032543487031944096
1.729491891559601e+18,0.0007339939475059509,-0.002075247000902891,-0.001667504315264523
1.729491891565601e+18,0.0018477372359484434,0.0008440330275334418,-0.0006478545838035643
1.7294918915716012e+18,-0.001421076711267233,-0.0013735692482441664,-0.0016142569947987795
1.7294918915776013e+18,0.00039720701170153916,-0.0005919790710322559,0.0002659291203599423
1.7294918915836014e+18,-0.0009603844955563545,-4.5528056944021955e-05,0.0012866912875324488
1.7294918915896015e+18,0.0016771561931818724,-0.0017701220931485295,-0.0018680564826354384
1.7294918915926016e+18,-0.0012328914599493146,0.0015984501224011183,-0.0013558772625401616
1.7294918915986017e+18,-0.0013595378259196877,0.0005708138342015445,4.956189968652325e-06
1.7294918916046019e+18,-0.0013026505475863814,-0.0026266451459378004,-0.0019850318785756826
1.729491891610602e+18,0.0004640911938622594,0.0010134822223335505,0.003463064320385456
1.729491891616602e+18,0.0008765174425207078,0.002120514400303364,-0.0015854191733524203
1.7294918916226022e+18,0.0034265052527189255,0.001963289687409997,0.001001664437353611
1.7294918916286024e+18,0.0017900634557008743,0.0015712159220129251,0.00027592459809966385
1.7294918916316024e+18,-0.001459662802517414,-0.0002823493559844792,0.0003626026737038046
1.7294918916376026e+18,-0.0005542612634599209,0.0009452138328924775,-0.0002334956225240603
1.7294918916436027e+18,0.002025344641879201,0.0008090947521850467,0.0017952603520825505
1.7294918916496028e+18,0.0006991807604208589,0.0005374970496632159,-0.00042826723074540496
1.729491891655603e+18,-0.0007534456672146916,-0.002209368161857128,-0.0003636299807112664
1.729491891661603e+18,-0.0010811585234478116,0.001436214311979711,-0.00013815330748911947
1.7294918916646031e+18,0.0012690590228885412,-0.0007259600679390132,0.0007924354285933077
1.7294918916706033e+18,0.003593024332076311,0.0010877676540985703,-0.0014909196179360151
1.7294918916766034e+18,-0.0009735046769492328,0.0019925038795918226,0.0011661314638331532
1.7294918916826035e+18,-0.0006674134638160467,-0.0009272054303437471,0.000732087530195713
1.7294918916886036e+18,-0.000864450354129076,-6.188508996274322e-05,-0.0016449245158582926
1.7294918916916037e+18,-0.0009105358622036874,0.0016589651349931955,0.003081446746364236
1.7294918916976038e+18,0.0011052896734327078,0.001070035737939179,0.0003324582357890904
1.729491891703604e+18,0.000720722193364054,-0.002350923139601946,-0.002594789257273078
1.729491891709604e+18,-0.0012494353577494621,-0.0038316301070153713,0.0009778398089110851
1.7294918917156042e+18,-0.0012551577528938651,0.000670420762617141,0.000322982989018783
1.7294918917216044e+18,0.0012548540253192186,0.0009120641625486314,0.0006217546761035919
1.7294918917246044e+18,0.00011717036977643147,-0.0015109818195924163,-0.0010569231817498803
1.7294918917306045e+18,-0.0044788215309381485,0.0015276900958269835,0.002882168861106038
1.7294918917366047e+18,-0.0002029060124186799,-0.0013753394596278667,-0.0005034554051235318
1.7294918917426048e+18,0.0010988322319462895,-5.601360317086801e-05,-0.0012490565422922373
1.729491891748605e+18,-0.00012722490646410733,0.0026694247499108315,-0.00018920673755928874
1.729491891751605e+18,-0.0010121968807652593,-7.979292422533035e-05,-0.0005102753057144582
1.729491891757605e+18,0.0001741741580190137,0.0006636508041992784,0.0010023744544014335
1.7294918917636052e+18,0.0007326204213313758,-0.0009391731582581997,0.0013963921228423715
1.7294918917696054e+18,0.002583992201834917,-0.0005267743836157024,0.0016238800017163157
1.7294918917756055e+18,-0.0014575549867004156,-0.0017260473687201738,0.0015203722286969423
1.7294918917816056e+18,0.0022180371452122927,5.740645519836107e-06,-0.003680584952235222
1.7294918917876058e+18,-0.0017431468004360795,-0.0009416498360224068,-0.0009705262491479516
1.729491891793606e+18,-0.0024327151477336884,0.0005761002539657056,0.0012607976095750928
1.729491891796606e+18,0.0008704742649570107,-5.386794146033935e-05,0.0006823528674431145
1.729491891802606e+18,0.0006353031494654715,7.018124597379938e-05,-0.0010913893347606063
1.7294918918086062e+18,-0.0010344734182581306,-0.0005983664887025952,0.0009835076052695513
1.7294918918146063e+18,-0.0005691648693755269,-0.0009479532018303871,-0.0020526566077023745
1.7294918918206065e+18,0.0002447859151288867,-0.0013166597345843911,-0.0009148939279839396
1.7294918918266066e+18,-0.0007403490599244833,-0.0018322122050449252,-0.001874081790447235
1.7294918918326067e+18,0.002318244194611907,0.0007075383327901363,-0.000726815836969763
1.7294918918386068e+18,0.0023809976410120726,0.0009594666189514101,0.0005392791354097426
1.729491891844607e+18,0.00048782103112898767,-0.0007861597114242613,-0.00046194842434488237
1.729491891850607e+18,0.0004692177753895521,0.0021317745558917522,0.0020113238133490086
1.7294918918596073e+18,-0.00017903989646583796,-0.0016025104559957981,-0.000473525287816301
1.7294918918656074e+18,0.0026509612798690796,-0.0016021509654819965,0.00019935281306970865
1.7294918918716076e+18,0.001133881276473403,-0.0007922191871330142,0.0006896718987263739
1.7294918918776077e+18,0.0006532432744279504,-0.00048134863027371466,0.0024364786222577095
1.7294918918836078e+18,-0.001526038395240903,0.0003004443715326488,-0.002022436121478677
1.729491891886608e+18,-0.0005855335621163249,0.0029761423356831074,-0.0010162940016016364
1.729491891895608e+18,-0.0003980110341217369,0.0005049251485615969,0.002660183934494853
1.7294918919016082e+18,0.0011039425153285265,0.002378026256337762,-0.0006612351280637085
1.7294918919076083e+18,-0.0009410188649781048,-0.0008504915167577565,0.001160919782705605
1.7294918919106084e+18,0.004630543291568756,-0.0011730039259418845,-0.0017102262936532497
1.7294918919166085e+18,-0.0008815134060569108,0.0004584838170558214,0.003898635972291231
1.7294918919226086e+18,0.0016928096301853657,0.0008551676291972399,-0.0012191927526146173
1.7294918919286088e+18,7.663599535590038e-05,0.0017604287713766098,-0.0006954570999369025
1.729491891934609e+18,0.0014899035450071096,-0.0008534668595530093,0.0007015587179921567
1.729491891937609e+18,-0.0013247253373265266,0.0007814372074790299,0.0012644351227208972
1.729491891943609e+18,-0.00028794293757528067,0.002240775851532817,0.0003426315379329026
1.7294918919496092e+18,-3.832801667158492e-05,-0.0007768279174342752,0.00034716134541668
1.7294918919556093e+18,-1.4103645298746414e-05,-0.0011965439189225435,-0.0012555716093629599
1.7294918919616095e+18,0.0010292540537193418,-0.0002366103435633704,-0.0024764847476035357
1.7294918919646095e+18,-0.0025745127350091934,0.0002366258268011734,0.0017661381280049682
1.7294918919706097e+18,0.00038563256384804845,-0.0008155765826813877,0.0007243569707497954
1.7294918919766098e+18,0.0017018731450662017,-0.0022329494822770357,-0.00033598169102333486
1.72949189198261e+18,0.0007252109935507178,-0.001938978093676269,0.0007386817596852779
1.72949189198861e+18,0.0031180689111351967,-0.00016641670663375407,-0.003814831841737032
1.72949189199161e+18,0.003225032240152359,-0.000612641335465014,-0.0032051086891442537
1.7294918919976102e+18,0.0002678593446034938,-0.0013672298518940806,0.0010143582476302981
1.7294918920036104e+18,0.00038190532359294593,0.0002770920982584357,-0.0001202898274641484
1.7294918920096105e+18,-0.0030047001782804728,7.62917406973429e-05,0.001142568769864738
1.7294918920156106e+18,0.0011845106491819024,-0.004144119564443827,0.0012400868581607938
1.7294918920216108e+18,-0.0008566725882701576,0.0023602554574608803,-0.0016625861171633005
1.729491892027611e+18,0.0016265221638604999,0.0002640399616211653,-0.0019389147637411952
1.729491892033611e+18,-0.0038003178779035807,0.0002723516954574734,0.0016292465152218938
1.7294918920396111e+18,0.0010529343271628022,0.001276316586881876,0.0020344527438282967
1.7294918920426112e+18,-0.0031305861193686724,-0.0022300106938928366,-9.447049706068356e-06
1.7294918920486113e+18,-0.000580961350351572,-0.003030716907233,0.0009517172584310174
1.7294918920546115e+18,-0.003964233212172985,0.00012783023703377694,0.0010139551013708115
1.7294918920606116e+18,0.0017096538795158267,0.0031468081288039684,0.0027825054712593555
1.7294918920666117e+18,-0.001871495391242206,-0.0014572552172467113,0.0003392252838239074
1.7294918920726118e+18,0.0022490969859063625,-0.0031752553768455982,0.0012484920443966985
1.729491892078612e+18,0.002866652561351657,-0.0011728104436770082,-0.002359245903789997
1.729491892084612e+18,0.0001162315093097277,-0.002238814951851964,0.002687666332349181
1.7294918920876122e+18,-0.00042893740464933217,0.0015979099553078413,0.00010780981392599642
1.7294918920936123e+18,0.0008211965905502439,-0.0010331834200769663,0.002235212130472064
1.7294918920996124e+18,0.0023641425650566816,0.0001604880962986499,0.0009938505245372653
1.7294918921056125e+18,-0.0007904126541689038,-0.0010609386954456568,-0.002377779921516776
1.7294918921116127e+18,-0.004549417179077864,0.001410863478668034,0.001869772095233202
1.7294918921176128e+18,-0.0014859604416415095,0.0002493453212082386,-0.00023128381872083992
1.7294918921206129e+18,0.0007924970705062151,0.00015496871492359787,1.452132983104093e-05
1.729491892126613e+18,-0.0010526920668780804,-0.0005723371868953109,0.00010035136074293405
1.729491892132613e+18,-0.0008237436413764954,0.0025188319850713015,0.0008185539045371115
1.7294918921386132e+18,-0.001665447955019772,0.0008721303311176598,-0.0005203453474678099
1.7294918921416133e+18,0.0016764469910413027,0.001748105394653976,0.0004049487179145217
1.7294918921476134e+18,-0.0006151745328679681,-0.0003449691866990179,0.0013137635542079806
1.7294918921536136e+18,-0.0017820615321397781,0.00031998645863495767,0.0017917632358148694
1.7294918921566136e+18,0.0002420571690890938,-0.00038743778713978827,-0.001346028409898281
1.7294918921626138e+18,0.001191928400658071,0.0006759127718396485,-0.003243241924792528
1.729491892168614e+18,-0.0002293368597747758,-9.399017289979383e-05,-0.0005582235753536224
1.729491892174614e+18,0.0017577859107404947,0.0018218840705230832,0.0009722576942294836
1.7294918921806141e+18,0.0003198304621037096,0.0015282726380974054,-3.413853391975863e-06
1.7294918921866143e+18,-0.001294632675126195,0.002570365322753787,-0.0017487077275291085
1.7294918921926144e+18,-0.0013982978416606784,-0.002427999395877123,0.0026727651711553335
1.7294918921956145e+18,0.0007417016895487905,0.0019157202914357185,-0.0003479955194052309
1.7294918922016146e+18,5.557810072787106e-05,-0.0026577170938253403,0.001354172476567328
1.7294918922076147e+18,-0.0004780896124430001,0.0008899270324036479,0.00011071320477640256
1.7294918922136148e+18,0.00027313167811371386,-0.00024560000747442245,0.0021049808710813522
1.729491892219615e+18,-0.0016484502702951431,0.0005423526163212955,-0.00019253016216680408
1.729491892222615e+18,0.0012843185104429722,-0.001503043225966394,-0.0016582072712481022
1.7294918922286152e+18,0.00024979046429507434,-0.00014658330474048853,-0.003474341705441475
1.7294918922346153e+18,-0.0007610758184455335,-0.0011789496056735516,-7.206749432953075e-05
1.7294918922406154e+18,0.0006517384317703545,-0.0032694716937839985,0.0017028175061568618
1.7294918922466156e+18,-0.0005656278226524591,0.0022004370111972094,-0.0011739153414964676
1.7294918922496156e+18,-0.0010516486363485456,-0.0005722491187043488,-0.0007765882182866335
1.7294918922556157e+18,-0.003121777670457959,-0.0013239405816420913,-0.0015130649553611875
1.7294918922616159e+18,-0.0017548146424815059,0.0038232954684644938,-0.0029976731166243553
1.729491892267616e+18,0.0014525154838338494,0.00066088029416278,-0.00043863910832442343
1.7294918922736161e+18,0.0023078175727277994,0.000591917138081044,-0.0015593544812873006
1.7294918922796163e+18,-0.00036659729084931314,0.0007857843884266913,0.0013516155304387212
1.7294918922826163e+18,3.609112536651082e-05,-1.2104691450076643e-05,-0.0013050716370344162
1.7294918922886164e+18,-0.0005535216769203544,0.0004885412054136395,0.0016256049275398254
1.7294918922946166e+18,-0.00032249046489596367,-0.003262002719566226,-0.0009685582481324673
1.7294918923006167e+18,0.0010550227016210556,-0.00040667757275514305,-0.0005315789603628218
1.7294918923066168e+18,0.0022069718688726425,-0.001635670312680304,-0.001689995639026165
1.729491892309617e+18,0.0017274257261306047,0.0018789806636050344,0.0022742541041225195
1.729491892315617e+18,0.0029041641391813755,-0.0011465309653431177,0.0009742455440573394
1.7294918923216172e+18,4.4410651753423735e-05,-0.0011748698307201266,0.0011506543960422277
1.7294918923276173e+18,0.0009870221838355064,0.0006165802478790283,-0.0011434585321694613
1.7294918923336174e+18,0.0016660591354593635,0.00032609733170829713,-0.0021764757111668587
1.7294918923366175e+18,0.00015181195340119302,0.0036419888492673635,-0.0016081504290923476
1.7294918923426176e+18,0.0010356695856899023,0.0006736416253261268,0.0032686844933778048
1.7294918923486177e+18,0.000256898783845827,0.0006715031922794878,-0.003672334598377347
1.7294918923546179e+18,0.000498490349855274,0.0004658858524635434,0.002504365285858512
1.729491892360618e+18,-0.0012688295682892203,0.0010448824614286423,-0.001021694391965866
1.729491892363618e+18,-0.00012741786486003548,-0.0011082736309617758,-4.05471000703983e-05
1.7294918923696182e+18,0.0008022955735214055,0.0012544946512207389,0.00033956696279346943
1.7294918923756183e+18,-0.0002604147302918136,0.00020968347962480038,-0.0008856020285747945
1.7294918923816184e+18,-0.0006944483611732721,-0.0002889296447392553,8.841315866447985e-05
1.7294918923876186e+18,0.002979937009513378,-0.0006704929983243346,-0.0018237442709505558
1.7294918923936187e+18,0.0008731501875445247,-0.0016064203809946775,0.0001450099953217432
1.7294918923996188e+18,-0.0019873452838510275,0.00013243695138953626,-0.0016889232210814953
1.729491892402619e+18,-0.002430167282000184,0.0006230550352483988,-0.0029760280158370733
1.729491892408619e+18,0.0008658964652568102,-0.0007040112977847457,-0.002174517372623086
1.7294918924146191e+18,0.0021730386652052402,-0.0006800059345550835,0.0008451691246591508
1.7294918924206193e+18,-0.000381178455427289,0.00039331524749286473,-6.347089220071211e-05
1.7294918924266194e+18,-0.002556098625063896,-0.0007316676783375442,-0.002687951782718301
1.7294918924296195e+18,-0.000961851968895644,0.0017752087442204356,0.0011563694570213556
1.7294918924356196e+18,-0.0009128195815719664,0.0008544275187887251,-0.0018953062826767564
1.7294918924416197e+18,0.0015971059910953045,0.0012159156613051891,-0.0016692581120878458
1.7294918924476198e+18,0.0004262254515197128,-0.0014542231801897287,-0.0011628951178863645
1.72949189245062e+18,0.002049114787951112,-0.0023742166813462973,-0.001585358171723783
1.72949189245662e+18,0.0008108068723231554,0.00010821240721270442,0.001634461572393775
1.7294918924626202e+18,-0.000857560196891427,-0.0010858570458367467,-0.001554930116981268
1.7294918924686203e+18,-0.001842500176280737,5.889292879146524e-05,0.0028108968399465084
1.7294918924746204e+18,-7.921597716631368e-05,0.00032883117091841996,-0.00018943367467727512
1.7294918924806205e+18,-0.0710679218173027,-0.02824569307267666,0.001309000188484788
1.7294918924836206e+18,-0.11684450507164001,-0.04221358150243759,0.001136879320256412
1.7294918924896207e+18,-0.2152073234319687,-0.08013202250003815,0.001314100343734026
1.7294918924956209e+18,-0.30598872900009155,-0.11443623900413513,-0.002509597223252058
1.729491892501621e+18,-0.3871053159236908,-0.14745773375034332,0.0004978453507646918
1.729491892507621e+18,-0.4435908794403076,-0.16857458651065826,-0.004089364781975746
1.7294918925106212e+18,-0.4548249840736389,-0.17301927506923676,-0.00029520096722990274
1.7294918925166213e+18,-0.4476930499076843,-0.17665857076644897,-0.0015293762553483248
1.7294918925226214e+18,-0.41622301936149597,-0.17691636085510254,-0.0029942686669528484
1.7294918925286216e+18,-0.3665585517883301,-0.16518233716487885,0.00020532868802547455
1.7294918925346217e+18,-0.31635841727256775,-0.15516769886016846,-0.003043051576241851
1.7294918925406218e+18,-0.2774117588996887,-0.14740069210529327,0.00017209956422448158
1.729491892546622e+18,-0.26463979482650757,-0.14174774289131165,-0.003441357985138893
1.729491892552622e+18,-0.27608320116996765,-0.14203251898288727,-0.001960049383342266
1.7294918925556221e+18,-0.28481101989746094,-0.14245548844337463,-0.002530247438699007
1.7294918925646223e+18,-0.3397715091705322,-0.150406613945961,-0.005021790973842144
1.7294918925676224e+18,-0.3553725779056549,-0.1516951620578766,-0.007431449368596077
1.7294918925736225e+18,-0.37463000416755676,-0.15705257654190063,-0.0034659539815038443
1.7294918925796227e+18,-0.38000020384788513,-0.15520644187927246,-0.003172100754454732
1.7294918925856228e+18,-0.36145728826522827,-0.1495133936405182,-0.003657577559351921
1.729491892591623e+18,-0.3225800395011902,-0.1427602469921112,-0.0031753177754580975
1.729491892597623e+18,-0.27219411730766296,-0.12983249127864838,-0.004718062002211809
1.7294918926036232e+18,-0.22255639731884003,-0.1175374835729599,-0.004910243209451437
1.7294918926096233e+18,-0.17881366610527039,-0.10797608643770218,-0.006103209685534239
1.7294918926156234e+18,-0.1469441056251526,-0.09685159474611282,-0.004732953384518623
1.7294918926216236e+18,-0.13270573318004608,-0.09149289131164551,-0.004236760549247265
1.7294918926276237e+18,-0.13552428781986237,-0.08593232184648514,-0.006363511551171541
1.7294918926336238e+18,-0.14460697770118713,-0.07871494442224503,-0.004001070279628038
1.729491892636624e+18,-0.1543608456850052,-0.07653434574604034,-0.006292634643614292
1.729491892642624e+18,-0.16174010932445526,-0.07381465286016464,-0.0056892517022788525
1.729491892648624e+18,-0.1613718718290329,-0.0687268078327179,-0.007256164215505123
1.7294918926546243e+18,-0.14832065999507904,-0.06303670257329941,-0.0029728044755756855
1.7294918926606244e+18,-0.12240739911794662,-0.054524146020412445,-0.0047374265268445015
1.7294918926666245e+18,-0.08627404272556305,-0.04435447230935097,-0.0047712973318994045
1.7294918926726246e+18,-0.04463277384638786,-0.033646658062934875,-0.0034449296072125435
1.7294918926786248e+18,-0.010028312914073467,-0.023890502750873566,-0.005256053991615772
1.729491892684625e+18,0.017445629462599754,-0.016240868717432022,-0.005417215172201395
1.729491892690625e+18,0.032597072422504425,-0.0036000164691358805,-0.007151058875024319
1.729491892693625e+18,0.0343514159321785,-0.005419144872575998,-0.004833918064832687
1.7294918926996252e+18,0.03377000615000725,0.0009957551956176758,-0.006638769060373306
1.7294918927056253e+18,0.025183729827404022,0.003246031468734145,-0.007599907927215099
1.7294918927116255e+18,0.01988217793405056,0.007013063877820969,-0.008403560146689415
1.7294918927176256e+18,0.0185550507158041,0.014919242821633816,-0.004151324275881052
1.7294918927236257e+18,0.023175567388534546,0.015733469277620316,-0.007863129489123821
1.7294918927296259e+18,0.03658507391810417,0.022288549691438675,-0.003949027042835951
1.729491892735626e+18,0.06390975415706635,0.02642027474939823,-0.005442542489618063
1.729491892741626e+18,0.08747106045484543,0.03385067731142044,-0.008450871333479881
1.7294918927476262e+18,0.1109049916267395,0.04292765632271767,-0.005874577444046736
1.7294918927536264e+18,0.12704332172870636,0.049485642462968826,-0.009048745967447758
1.7294918927596265e+18,0.13690868020057678,0.05055638402700424,-0.007625586818903685
1.7294918927656266e+18,0.1396840214729309,0.052329421043395996,-0.008783672004938126
1.7294918927716268e+18,0.13504011929035187,0.057945579290390015,-0.006003525573760271
1.729491892777627e+18,0.1278422623872757,0.05931639298796654,-0.0069549353793263435
1.729491892783627e+18,0.11820750683546066,0.06164352595806122,-0.008060292340815067
1.7294918927896271e+18,0.11539611965417862,0.06391944736242294,-0.0076995366252958775
1.7294918927926272e+18,0.11480256170034409,0.06573545187711716,-0.006826624274253845
1.7294918928016274e+18,0.12374693900346756,0.06514012813568115,-0.006639664527028799
1.7294918928076275e+18,0.1361764520406723,0.0722661092877388,-0.009468533098697662
1.7294918928106276e+18,0.14037185907363892,0.06601211428642273,-0.005730755161494017
1.7294918928166277e+18,0.1520831435918808,0.06908626109361649,-0.0053496346808969975
1.7294918928226278e+18,0.16154374182224274,0.07171369343996048,-0.008518433198332787
1.729491892828628e+18,0.16920483112335205,0.07700423151254654,-0.007449572440236807
1.729491892834628e+18,0.171530082821846,0.07785053551197052,-0.004710406996309757
1.7294918928406282e+18,0.17005504667758942,0.07724262028932571,-0.008995073847472668
1.7294918928466284e+18,0.15854807198047638,0.07999422401189804,-0.005616245325654745
1.7294918928496284e+18,0.1604081243276596,0.08014212548732758,-0.009203124791383743
1.7294918928556285e+18,0.14892373979091644,0.07903331518173218,-0.007847895845770836
1.7294918928616287e+18,0.1421767771244049,0.07848313450813293,-0.00825238972902298
1.7294918928676288e+18,0.13944140076637268,0.07784424722194672,-0.006979298312216997
1.729491892873629e+18,0.1410524547100067,0.07351042330265045,-0.009830542840063572
1.729491892879629e+18,0.1432272344827652,0.07428732514381409,-0.005558164790272713
1.7294918928856292e+18,0.1489620804786682,0.06988424062728882,-0.008043668232858181
1.7294918928916293e+18,0.15424364805221558,0.07027491182088852,-0.006404540501534939
1.7294918928946294e+18,0.1552760899066925,0.06599881500005722,-0.008320227265357971
1.7294918929006295e+18,0.15850970149040222,0.07111227512359619,-0.00794039573520422
1.7294918929066296e+18,0.15680363774299622,0.06841142475605011,-0.0054055433720350266
1.7294918929126298e+18,0.15268316864967346,0.06976379454135895,-0.0032202238216996193
1.72949189291863e+18,0.143467515707016,0.07207686454057693,-0.006246060132980347
1.72949189292463e+18,0.13492679595947266,0.07094188034534454,-0.00503153121098876
1.7294918929306301e+18,0.1290321797132492,0.06894886493682861,-0.007016208488494158
1.7294918929366303e+18,0.12143953889608383,0.06663785874843597,-0.005057077389210463
1.7294918929426304e+18,0.11874988675117493,0.06433558464050293,-0.007205570582300425
1.7294918929486305e+18,0.1209145113825798,0.06490889936685562,-0.007242874708026648
1.7294918929546307e+18,0.12245449423789978,0.06331811100244522,-0.005793424788862467
1.7294918929606308e+18,0.12454476207494736,0.06047162041068077,-0.006482797674834728
1.7294918929636308e+18,0.12318504601716995,0.059538841247558594,-0.005434206686913967
1.729491892969631e+18,0.1250883936882019,0.06130170077085495,-0.006322850473225117
1.729491892975631e+18,0.12158798426389694,0.05960272625088692,-0.0032179495319724083
1.7294918929816312e+18,0.11784599721431732,0.06154096871614456,-0.005618994124233723
1.7294918929876314e+18,0.11357735097408295,0.057784974575042725,-0.003877351526170969
1.7294918929906314e+18,0.10903636366128922,0.05839897319674492,-0.005997359286993742
1.7294918929966316e+18,0.1038857251405716,0.05768267810344696,-0.004541849251836538
1.7294918930026317e+18,0.09580306708812714,0.055695757269859314,-0.005132199265062809
1.7294918930086318e+18,0.09739848226308823,0.05386066436767578,-0.0045265015214681625
1.729491893014632e+18,0.09587866812944412,0.051795594394207,-0.008259039372205734
1.729491893020632e+18,0.0956118106842041,0.04951777309179306,-0.005051182582974434
1.7294918930236321e+18,0.09824524074792862,0.048479389399290085,-0.006483281496912241
1.7294918930296323e+18,0.09813301265239716,0.04896723851561546,-0.005277813412249088
1.7294918930356324e+18,0.09926588833332062,0.047999776899814606,-0.005143638700246811
1.7294918930416325e+18,0.0972168818116188,0.045303020626306534,-0.00973772257566452
1.7294918930476326e+18,0.09793254733085632,0.04457914084196091,-0.004383949097245932
1.7294918930536328e+18,0.09229111671447754,0.04558773711323738,-0.006078412290662527
1.729491893059633e+18,0.08749975264072418,0.046991538256406784,-0.0053878650069236755
1.729491893065633e+18,0.0841568186879158,0.04677610844373703,-0.00737751042470336
1.7294918930716332e+18,0.0778728574514389,0.044837042689323425,-0.003951357677578926
1.7294918930776333e+18,0.07749737054109573,0.03735721856355667,-0.007622254081070423
1.7294918930806333e+18,0.07360514253377914,0.042137861251831055,-0.0073055848479270935
1.7294918930866335e+18,0.07406987994909286,0.03854992240667343,-0.005951926112174988
1.7294918930926336e+18,0.07415111362934113,0.03328579291701317,-0.009672220796346664
1.7294918930986337e+18,0.07502257823944092,0.03738213703036308,-0.005518577992916107
1.7294918931016338e+18,0.07647742331027985,0.03419958055019379,-0.005768465809524059
1.729491893107634e+18,0.07938488572835922,0.03582608699798584,-0.006844750139862299
1.729491893113634e+18,0.0770658627152443,0.03602032735943794,-0.0034178351052105427
1.7294918931196342e+18,0.07889880985021591,0.03374253213405609,-0.0068050106056034565
1.7294918931256343e+18,0.0752912163734436,0.036567572504282,-0.006848055869340897
1.7294918931316344e+18,0.07437995821237564,0.03358646109700203,-0.005071475636214018
1.7294918931346345e+18,0.07207048684358597,0.03303713724017143,-0.004135835915803909
1.7294918931406346e+18,0.06523522734642029,0.032004259526729584,-0.003421180881559849
1.7294918931466348e+18,0.06529936194419861,0.031374458223581314,-0.0028977342881262302
1.729491893152635e+18,0.05918492376804352,0.03007863089442253,-0.004324750043451786
1.729491893155635e+18,0.05912256985902786,0.029688464477658272,-0.00497883977368474
1.729491893161635e+18,0.057847537100315094,0.029696304351091385,-0.0052367341704666615
1.7294918931676352e+18,0.05995263159275055,0.03058536723256111,-0.005255283322185278
1.7294918931736353e+18,0.06259755790233612,0.02824454940855503,-0.005282282829284668
1.7294918931796355e+18,0.06188547611236572,0.029331719502806664,-0.003979954868555069
1.7294918931826355e+18,0.059901341795921326,0.024872081354260445,-0.0028992011211812496
1.7294918931886356e+18,0.06418496370315552,0.030902907252311707,-0.005668992176651955
1.7294918931946358e+18,0.06355898827314377,0.026346536353230476,-0.0037418007850646973
1.729491893200636e+18,0.062211066484451294,0.02429812401533127,-0.008477444760501385
1.729491893206636e+18,0.05953352525830269,0.024245481938123703,-0.003952808678150177
1.7294918932126362e+18,0.056417349725961685,0.02223031222820282,-0.002757374895736575
1.7294918932156362e+18,0.05482066422700882,0.02312496304512024,-0.004271166864782572
1.7294918932216364e+18,0.05045882612466812,0.02112758159637451,-0.0033597974106669426
1.7294918932276365e+18,0.050522156059741974,0.020563185214996338,-0.004102363716810942
1.7294918932336366e+18,0.05081352964043617,0.01962173916399479,-0.005629790481179953
1.7294918932396367e+18,0.05011480301618576,0.023738177493214607,-0.0040348367765545845
1.7294918932426368e+18,0.053080473095178604,0.022682132199406624,-0.007177282590419054
1.729491893248637e+18,0.05118504539132118,0.023683559149503708,-0.005235061515122652
1.729491893254637e+18,0.05168129503726959,0.022408373653888702,-0.003979972098022699
1.7294918932606372e+18,0.052907444536685944,0.01968638226389885,-0.0034901201725006104
1.7294918932666373e+18,0.053434230387210846,0.01928684487938881,-0.0037889229133725166
1.7294918932696374e+18,0.054059699177742004,0.018870847299695015,-0.0049254074692726135
1.7294918932756375e+18,0.04824782535433769,0.016697140410542488,-0.001631878549233079
1.7294918932816376e+18,0.05288252606987953,0.015326902270317078,-0.0026165337767452
1.7294918932876378e+18,0.048836831003427505,0.017359204590320587,-0.0039349808357656
1.729491893293638e+18,0.04750867933034897,0.01557496190071106,-0.0036720559000968933
1.729491893296638e+18,0.04529290646314621,0.015020645223557949,-0.0057036373764276505
1.729491893302638e+18,0.04536759853363037,0.01622994802892208,-0.003207042347639799
1.7294918933086382e+18,0.04772253334522247,0.01924975961446762,-0.005810515955090523
1.7294918933146383e+18,0.04387553408741951,0.01824045740067959,-0.005319537129253149
1.7294918933206385e+18,0.04665869474411011,0.014785198494791985,-0.0035478973295539618
1.7294918933266386e+18,0.04660986736416817,0.016985956579446793,-0.004720469005405903
1.7294918933296387e+18,0.04681059345602989,0.017093760892748833,-0.0038451615255326033
1.7294918933356388e+18,0.04518802836537361,0.014159898273646832,-0.0059395283460617065
1.729491893341639e+18,0.04745122417807579,0.01657746732234955,-0.003629902144894004
1.729491893347639e+18,0.041235119104385376,0.012224508449435234,-0.0035460207145661116
1.7294918933536392e+18,0.038411758840084076,0.01317055243998766,-0.001676388899795711
1.7294918933596393e+18,0.03798392415046692,0.01393922884017229,-0.0023851001169532537
1.7294918933656394e+18,0.035130422562360764,0.013778955675661564,-0.0002831823658198118
1.7294918933716396e+18,0.03363607078790665,0.015779858455061913,-0.003716300940141082
1.7294918933776397e+18,0.03606012836098671,0.01641904003918171,-0.006350228562951088
1.7294918933806397e+18,0.03515414148569107,0.014552726410329342,-0.0030945020262151957
1.72949189338664e+18,0.03567846491932869,0.013730804435908794,-0.0036365818232297897
1.72949189339264e+18,0.0372939296066761,0.016029907390475273,-0.0011320119956508279
1.72949189339864e+18,0.04005792364478111,0.01595827378332615,-0.003975998144596815
1.7294918934046403e+18,0.0391353964805603,0.013288437388837337,-0.0017412524903193116
1.7294918934106404e+18,0.03885943442583084,0.013385830447077751,-0.00360692385584116
1.7294918934166405e+18,0.038525503128767014,0.013519350439310074,-0.0013791315723210573
1.7294918934226406e+18,0.03702704980969429,0.01144065335392952,-0.005532762501388788
1.7294918934286408e+18,0.039495088160037994,0.012203789316117764,-0.0008588130585849285
1.729491893434641e+18,0.03598627820611,0.009964985772967339,-0.003576627466827631
1.729491893440641e+18,0.03256800398230553,0.012447399087250233,-0.0037536630406975746
1.7294918934466412e+18,0.034942831844091415,0.011106597259640694,-0.0011262674815952778
1.7294918934496412e+18,0.035300806164741516,0.01202037651091814,-0.0012521861353889108
1.7294918934556413e+18,0.03765035420656204,0.012197328731417656,-0.0024746768176555634
1.7294918934616415e+18,0.03428427502512932,0.015924865379929543,-0.0008470339816994965
1.7294918934676416e+18,0.03368320316076279,0.013437124900519848,-0.0008045959984883666
1.7294918934736417e+18,0.03370164707303047,0.01500430516898632,-0.0016161996172741055
1.7294918934766418e+18,0.03188161924481392,0.014359680004417896,-0.00043621647637337446
1.729491893482642e+18,0.03168988227844238,0.015377428382635117,-0.002957654884085059
1.729491893488642e+18,0.03335951641201973,0.013689108192920685,-0.0014632339589297771
1.7294918934946422e+18,0.03358665853738785,0.011439529247581959,0.0013912789290770888
1.7294918935006423e+18,0.03295447677373886,0.015178131870925426,-0.00020725117065012455
1.7294918935066424e+18,0.034754760563373566,0.011059295386075974,0.00035872519947588444
1.7294918935126426e+18,0.03095708042383194,0.012865891680121422,-0.0008013832848519087
1.7294918935186427e+18,0.030461521819233894,0.014510054141283035,-0.0013655800139531493
1.7294918935216428e+18,0.03268212080001831,0.009423009119927883,-0.0005556931719183922
1.729491893527643e+18,0.027071895077824593,0.00996431615203619,0.000338481564540416
1.729491893533643e+18,0.028968531638383865,0.012595080770552158,-0.000823207083158195
1.7294918935396431e+18,0.02856501378118992,0.008401395753026009,-0.0013082048390060663
1.7294918935426432e+18,0.02612469531595707,0.012977980077266693,-0.0022180492524057627
1.7294918935486433e+18,0.028380708768963814,0.010735215619206429,0.00018259702483192086
1.7294918935546435e+18,0.02862110733985901,0.00871710479259491,0.001570973894558847
1.7294918935606436e+18,0.02622474916279316,0.0094731654971838,0.0024209769908338785
1.7294918935666437e+18,0.026922347024083138,0.00931802298873663,-0.0007345841731876135
1.7294918935726438e+18,0.023565979674458504,0.008675073273479939,0.003906713332980871
1.729491893578644e+18,0.024174021556973457,0.010626452974975109,0.002207792829722166
1.729491893584644e+18,0.023423656821250916,0.013078335672616959,0.0035248773638159037
1.7294918935906442e+18,0.022007029503583908,0.01238933950662613,0.0035263041500002146
1.7294918935996444e+18,0.023044129833579063,0.010433751158416271,-0.0010443488135933876
1.7294918936056445e+18,0.021391430869698524,0.00986330583691597,0.001378759858198464
1.7294918936116447e+18,0.02178279124200344,0.009830847382545471,0.0029248828068375587
1.7294918936176448e+18,0.021533682942390442,0.010908408090472221,0.002006306778639555
1.729491893623645e+18,0.02199859544634819,0.0047361114993691444,0.002547639422118664
1.729491893629645e+18,0.021081754937767982,0.007020235992968082,0.0011514463694766164
1.7294918936356452e+18,0.02005203813314438,0.01098316814750433,0.000623241183348
1.7294918936416453e+18,0.016721215099096298,0.009571143426001072,6.287352880463004e-05
1.7294918936476454e+18,0.014418935403227806,0.009933237917721272,0.0007094087195582688
1.7294918936536456e+18,0.015269383788108826,0.013078446500003338,0.0003283085534349084
1.7294918936596457e+18,0.015245756134390831,0.005262018647044897,0.0017382968217134476
1.7294918936656458e+18,0.01910068280994892,0.010458759032189846,0.0006482941098511219
1.729491893671646e+18,0.016736183315515518,0.009868184104561806,0.0009960038587450981
1.729491893677646e+18,0.0172723475843668,0.007991433143615723,0.0008251303806900978
1.7294918936836462e+18,0.02051462233066559,0.00847621075809002,-0.00025316548999398947
1.7294918936896463e+18,0.01955796219408512,0.009547518566250801,-0.00250593526288867
1.7294918936956465e+18,0.019433150067925453,0.0072060395032167435,0.0015680582728236914
1.7294918937016466e+18,0.015701910480856895,0.005879766307771206,-0.0005501527339220047
1.7294918937076467e+18,0.011738130822777748,0.006430872716009617,0.0015904463361948729
1.7294918937136468e+18,0.01440784428268671,0.0033319522626698017,0.0014106100425124168
1.729491893719647e+18,0.013022853061556816,0.002063397318124771,0.004210798069834709
1.729491893725647e+18,0.008679449558258057,0.0032236967235803604,0.002837853506207466
1.7294918937316472e+18,0.011974832974374294,0.0047193411737680435,-0.0006643254309892654
1.7294918937376474e+18,0.013851193711161613,0.008259587921202183,0.002547886688262224
1.7294918937436475e+18,0.012216631323099136,0.0042442819103598595,0.0016253767535090446
1.7294918937526477e+18,0.01352019514888525,0.0074653481133282185,-0.00021454819943755865
1.7294918937586478e+18,0.017446497455239296,0.007398007437586784,-0.00019604898989200592
1.729491893764648e+18,0.014196564443409443,0.0035445718094706535,0.0011471507605165243
1.729491893770648e+18,0.011702318675816059,0.0057208542712032795,-0.0008724416838958859
1.7294918937766482e+18,0.011804400011897087,0.002649968955665827,0.004678875207901001
1.7294918937826483e+18,0.010489127598702908,0.005288100801408291,0.0013617300428450108
1.7294918937886484e+18,0.007660770323127508,0.004099859390407801,0.002905933652073145
1.7294918937946486e+18,0.010073285549879074,0.0030260009225457907,0.0015292806783691049
1.7294918938006487e+18,0.01075688749551773,0.008158479817211628,-0.003277792129665613
1.7294918938036488e+18,0.007864370010793209,0.005834886338561773,0.0015831170603632927
1.729491893809649e+18,0.011464117094874382,0.005954977590590715,0.0002967995824292302
1.729491893815649e+18,0.011694526299834251,0.008263444527983665,0.0005846779095008969
1.7294918938216492e+18,0.01044788770377636,0.00705656036734581,0.0016527133993804455
1.7294918938306493e+18,0.015305854380130768,0.0007428601384162903,0.0024455825332552195
1.7294918938366495e+18,0.012717053294181824,0.003968857694417238,0.0011955313384532928
1.7294918938426496e+18,0.013135205954313278,0.0006446897750720382,0.00038067903369665146
1.7294918938456497e+18,0.010516911745071411,-0.00027222209610044956,0.0012839209521189332
1.7294918938516498e+18,0.008525614626705647,0.0015504343900829554,0.0013777336571365595
1.72949189385765e+18,0.00745205394923687,0.0019114704336971045,0.002255236031487584
1.72949189386365e+18,0.007218339946120977,0.00013660310651175678,0.001566255814395845
1.7294918938696502e+18,0.006173382513225079,-0.0011910763569176197,0.005373242311179638
1.7294918938726502e+18,0.005356637295335531,0.0013814407866448164,0.00022998813074082136
1.7294918938816504e+18,0.005671416409313679,-0.00020838965428993106,0.001551363617181778
1.7294918938876506e+18,0.003278107848018408,-0.0036191160324960947,0.003969582729041576
1.7294918938936507e+18,0.010489515960216522,-0.0019047807436436415,0.0012484638718888164
1.7294918938996508e+18,0.005489275325089693,-0.0014002809766680002,0.002271695528179407
1.729491893905651e+18,0.007549803704023361,-0.001023018965497613,0.0010812351247295737
1.729491893911651e+18,0.007990170270204544,-0.0017717869486659765,0.0016936720348894596
1.7294918939176512e+18,0.0066970172338187695,-0.00016749082715250552,0.003910476341843605
1.7294918939236513e+18,0.004331125877797604,0.0014720913022756577,0.005636899266391993
1.7294918939296515e+18,0.004634525626897812,0.0021941151935607195,0.0013347872300073504
1.7294918939356516e+18,0.002039095386862755,0.000981734599918127,0.004098882433027029
1.7294918939416517e+18,0.0009909479413181543,0.0009216455509886146,0.0017403545789420605
1.7294918939476518e+18,0.003133907914161682,-0.0014889932936057448,7.843668572604656e-05
1.729491893953652e+18,0.0013080013450235128,-0.0038223937153816223,0.0017971828347072005
1.729491893959652e+18,0.0033072021324187517,-0.005147847346961498,0.005943648517131805
1.7294918939656522e+18,0.003694163402542472,-0.006327039562165737,0.003342233132570982
1.7294918939716524e+18,0.00323215639218688,-0.0036662316415458918,0.002739986637607217
1.7294918939776525e+18,-0.0012049092911183834,-0.0019106467952951789,-0.0006656050682067871
1.7294918939806525e+18,0.0014793919399380684,-0.0036842930130660534,0.0035049226135015488
1.7294918939896527e+18,-0.0018063413444906473,9.108782978728414e-05,0.005363035015761852
1.7294918939956529e+18,-0.005716667510569096,0.0015493108658120036,0.002260955050587654
1.729491893998653e+18,-0.0035520780365914106,0.0002129659114871174,0.004445190075784922
1.729491894004653e+18,-0.003616588655859232,-0.0012106584617868066,0.0030697896145284176
1.7294918940106532e+18,-0.00418282812461257,-0.001485512126237154,0.0044199214316904545
1.7294918940166533e+18,-0.002914627781137824,0.0012161380145698786,0.00023547164164483547
1.7294918940226534e+18,-0.0004964498803019524,-0.0034119400661438704,0.0030271410942077637
1.7294918940286536e+18,0.00023223726020660251,-0.0016866379883140326,-0.00010431697592139244
1.7294918940346537e+18,-0.0019673132337629795,-0.0021387238521128893,0.0010028830729424953
1.7294918940406538e+18,0.002516156295314431,-0.0019907979294657707,0.003076563123613596
1.729491894046654e+18,-0.0029002598021179438,0.00017927587032318115,0.004873459227383137
1.729491894052654e+18,-0.0057478779926896095,-0.0010123563697561622,0.004179697483778
1.7294918940586542e+18,-0.004374200478196144,-0.0011476289946585894,0.000902873114682734
1.7294918940646543e+18,-0.004263028502464294,-0.003970716148614883,0.004152780398726463
1.7294918940706545e+18,-0.006508121266961098,0.0021514298859983683,0.0018826881423592567
1.7294918940766546e+18,-0.006493028253316879,-0.00034275290090590715,0.004455736372619867
1.7294918940826547e+18,-0.006724988110363483,-0.0002541554858908057,0.00033891189377754927
1.7294918940886548e+18,-0.00410862173885107,-0.0015624004881829023,0.0029247039929032326
1.729491894094655e+18,-0.006660099606961012,-0.0005546821048483253,-0.0005478234961628914
1.729491894100655e+18,-0.0034858565777540207,-0.0034617451019585133,0.004053792450577021
1.7294918941066552e+18,-0.0030728355050086975,-0.004246939439326525,0.002621822990477085
1.7294918941126554e+18,-0.0038509501609951258,-0.00464093592017889,0.0029304586350917816
1.7294918941186555e+18,-0.0031579378992319107,-0.002713991329073906,0.003174894955009222
1.7294918941216556e+18,-0.005879960022866726,-0.00390530563890934,0.0021054870449006557
1.7294918941276557e+18,-0.0054189059883356094,-0.0027324939146637917,0.0005418420769274235
1.7294918941336558e+18,-0.006579842884093523,0.002116527408361435,0.0017127868486568332
1.729491894139656e+18,-0.010414356365799904,-0.0006973592098802328,0.002592904958873987
1.729491894145656e+18,-0.010058803483843803,-0.002186467871069908,0.0047716302797198296
1.7294918941516562e+18,-0.011207523755729198,0.0011817333288490772,0.0020031125750392675
1.7294918941576563e+18,-0.008596871048212051,0.0016325791366398335,0.0018556677969172597
1.7294918941636564e+18,-0.005461547058075666,-0.00157875323202461,0.005395490676164627
1.7294918941666565e+18,-0.007938787341117859,0.0017226628260686994,0.0003247204003855586
1.7294918941726566e+18,-0.004799396265298128,-0.0025514368899166584,0.005442114546895027
1.7294918941786568e+18,-0.005130129400640726,-0.0016452640993520617,0.0010968680726364255
1.729491894184657e+18,-0.006029807962477207,0.0005762011278420687,0.0007042518118396401
1.729491894190657e+18,-0.007922356948256493,-0.0004146208520978689,0.0048890793696045876
1.7294918941966572e+18,-0.007918997667729855,-0.00223351432941854,0.0025954535230994225
1.7294918942026573e+18,-0.010073871351778507,-0.002554183127358556,0.0013859710888937116
1.7294918942086574e+18,-0.01031339168548584,-8.77142883837223e-05,-0.00019101961515843868
1.7294918942116575e+18,-0.013981470838189125,-0.003514324314892292,0.004144680220633745
1.7294918942176576e+18,-0.01097371056675911,-0.00041280663572251797,0.001326404046267271
1.7294918942236577e+18,-0.010943234898149967,-0.003467903472483158,0.0013044148217886686
1.7294918942296579e+18,-0.008451689034700394,-0.0016906422097235918,0.002038760343566537
1.729491894235658e+18,-0.008377176709473133,-0.0019599301740527153,0.004603319801390171
1.729491894241658e+18,-0.005491138901561499,-0.003957602195441723,0.002766033634543419
1.7294918942446582e+18,-0.00533707533031702,-0.0013672704808413982,0.001076817512512207
1.7294918942506583e+18,-0.004382526036351919,0.0002990012289956212,0.0029579547699540854
1.7294918942566584e+18,-0.002919015008956194,-0.0026482008397579193,0.0023127859458327293
1.7294918942626586e+18,-0.004375745542347431,-0.004806239157915115,6.820657290518284e-05
1.7294918942686587e+18,-0.005279497243463993,-0.0011461866088211536,0.002190960804000497
1.7294918942746588e+18,-0.010910489596426487,-0.003324241377413273,0.002861930523067713
1.729491894280659e+18,-0.010800994001328945,0.0011445179115980864,0.002084267558529973
1.729491894283659e+18,-0.011223717592656612,-0.002450493397191167,-0.00015910365618765354
1.7294918942896591e+18,-0.01067853532731533,-0.0006303410045802593,0.0044767893850803375
1.7294918942956593e+18,-0.007718082517385483,0.0014530094340443611,0.0041715241968631744
1.7294918943016594e+18,-0.007782651111483574,-4.136513962293975e-05,0.002322502201423049
1.7294918943076595e+18,-0.005510156974196434,0.0026878206990659237,0.0040639108046889305
1.7294918943136596e+18,-0.004678151570260525,0.0008403427200391889,0.0024527127388864756
1.7294918943196598e+18,-0.006443933118134737,-0.00270940363407135,-0.00033800676465034485
1.7294918943226598e+18,-0.005170460790395737,-0.0033657876774668694,-0.00046365219168365
1.72949189432866e+18,-0.004785003140568733,-0.0007202093838714063,0.0035547115840017796
1.72949189433466e+18,-0.008851667866110802,-0.002145824022591114,0.003417250234633684
1.7294918943406602e+18,-0.010530861094594002,0.0002407940337434411,0.0014691357500851154
1.7294918943466604e+18,-0.011658073402941227,0.0007001844933256507,0.0005710948025807738
1.7294918943526605e+18,-0.014611718244850636,-0.00031683433917351067,0.002799996640533209
1.7294918943556605e+18,-0.01183546707034111,0.0016425081994384527,0.0005324629601091146
1.7294918943616607e+18,-0.012254306115210056,0.0023188667837530375,0.00356893427670002
1.7294918943676608e+18,-0.01283701229840517,0.0044536953791975975,0.0028329812921583652
1.729491894373661e+18,-0.010900413617491722,0.0022157221101224422,0.0030868789181113243
1.729491894379661e+18,-0.008835410699248314,-0.0007208897732198238,-0.0009078728035092354
1.729491894382661e+18,-0.008196624927222729,-0.0016803485341370106,0.004046074114739895
1.7294918943886612e+18,-0.00676626106724143,-0.0020456721540540457,0.002524052280932665
1.7294918943946614e+18,-0.004213969223201275,-0.004440017510205507,0.0018377617234364152
1.7294918944006615e+18,-0.009672589600086212,-0.004664276260882616,0.002623734064400196
1.7294918944066616e+18,-0.008213246241211891,-0.0014650296652689576,0.0012440889840945601
1.7294918944126618e+18,-0.014290200546383858,-0.0009096311405301094,0.0020084118004888296
1.7294918944156618e+18,-0.01084158942103386,-0.0032052805181592703,0.0009690075530670583
1.729491894421662e+18,-0.014074916020035744,-0.0007257410325109959,0.0008104451699182391
1.729491894427662e+18,-0.017214832827448845,-0.0009669635910540819,0.0015676978509873152
1.7294918944336622e+18,-0.015349392779171467,-0.00010766042396426201,0.0017885061679407954
1.7294918944396623e+18,-0.016634438186883926,-0.0018081103917211294,0.0033044773153960705
1.7294918944456625e+18,-0.012311207130551338,-0.0046760402619838715,-0.0005512764910236001
1.7294918944486625e+18,-0.012693523429334164,-0.004968045279383659,0.004951091483235359
1.7294918944546627e+18,-0.007605275139212608,-0.007360424380749464,0.0030279578641057014
1.7294918944606628e+18,-0.010457889176905155,-0.007208200637251139,0.0029396628960967064
1.729491894466663e+18,-0.00740818353369832,-0.009155120700597763,0.0025592027232050896
1.729491894472663e+18,-0.011242975480854511,-0.009171519428491592,0.003096751868724823
1.7294918944786632e+18,-0.013151207938790321,-0.00642637861892581,0.0010227251332253218
1.7294918944816632e+18,-0.01528501883149147,-0.006552176550030708,0.0008336933678947389
1.7294918944876634e+18,-0.017684470862150192,-0.003677223576232791,0.0007293466478586197
1.7294918944936635e+18,-0.017729004845023155,-0.005056229420006275,-0.0007565171690657735
1.7294918944996636e+18,-0.017285244539380074,-0.004036956001073122,0.0012041432783007622
1.7294918945056637e+18,-0.014045451767742634,-0.007270343601703644,0.003655113512650132
1.7294918945116639e+18,-0.014993461780250072,-0.005437124520540237,-0.0012531273532658815
1.729491894517664e+18,-0.012550339102745056,-0.01069557759910822,-0.0024171399418264627
1.729491894520664e+18,-0.010256996378302574,-0.01019022986292839,0.0010345489718019962
1.7294918945266642e+18,-0.009128239005804062,-0.013156333938241005,0.0034696324728429317
1.7294918945326643e+18,-0.011700251139700413,-0.00867705512791872,-0.001480035251006484
1.7294918945386644e+18,-0.011258822865784168,-0.010178716853260994,0.0018621986964717507
1.7294918945446646e+18,-0.012819983996450901,-0.0066187260672450066,0.0027666199021041393
1.7294918945506647e+18,-0.014261879026889801,-0.00797837320715189,0.003353398758918047
1.7294918945536648e+18,-0.016181087121367455,-0.006979631260037422,0.0008987527689896524
1.729491894559665e+18,-0.01864425651729107,-0.004188428167253733,-0.0017715499270707369
1.729491894565665e+18,-0.01660013198852539,-0.01156508456915617,0.002766737248748541
1.7294918945716652e+18,-0.01641349494457245,-0.006504938472062349,0.002692189998924732
1.7294918945776653e+18,-0.018384899944067,-0.009266111999750137,0.0014734145952388644
1.7294918945836654e+18,-0.013789511285722256,-0.011022704653441906,0.002131715649738908
1.7294918945866655e+18,-0.013972833752632141,-0.012612966820597649,0.0004384235944598913
1.7294918945956657e+18,-0.013518715277314186,-0.012814482674002647,0.0027905297465622425
1.7294918945986657e+18,-0.015430725179612637,-0.01186717115342617,0.00037431460805237293
1.7294918946046659e+18,-0.014130831696093082,-0.012449488043785095,-0.0017528790049254894
1.729491894610666e+18,-0.01690470613539219,-0.00985450018197298,0.0023258079309016466
1.729491894616666e+18,-0.01765868440270424,-0.0119083346799016,0.0035985184367746115
1.7294918946196662e+18,-0.0199249479919672,-0.007076695095747709,0.0028068642131984234
1.7294918946286664e+18,-0.019608227536082268,-0.00967965554445982,-0.00011948402971029282
1.7294918946316664e+18,-0.017171280458569527,-0.008218164555728436,0.002420621458441019
1.7294918946376666e+18,-0.018059227615594864,-0.011125095188617706,0.0042531173676252365
1.7294918946436667e+18,-0.015339715406298637,-0.00715259462594986,0.0023033390752971172
1.7294918946496668e+18,-0.017555944621562958,-0.010990645736455917,-0.0005184509791433811
1.729491894652667e+18,-0.016445772722363472,-0.008695629425346851,0.002319585531949997
1.729491894658667e+18,-0.015780437737703323,-0.008579262532293797,0.0031090257689356804
1.7294918946646671e+18,-0.01620756834745407,-0.008728750981390476,0.0015337483491748571
1.7294918946706673e+18,-0.014640898443758488,-0.009016896598041058,0.0012484933249652386
1.7294918946766674e+18,-0.015971047803759575,-0.006984272971749306,0.0006656130426563323
1.7294918946826675e+18,-0.020560646429657936,-0.008192635141313076,0.0011659692972898483
1.7294918946886676e+18,-0.0178203321993351,-0.009236733429133892,0.0024638385511934757
1.7294918946916677e+18,-0.017835821956396103,-0.009082228876650333,-0.0009822150459513068
1.7294918946976678e+18,-0.016569986939430237,-0.007899918593466282,0.0031479233875870705
1.729491894703668e+18,-0.017166536301374435,-0.0064295558258891106,0.005947690457105637
1.729491894709668e+18,-0.014852216467261314,-0.00817899126559496,0.0016885693185031414
1.7294918947126682e+18,-0.01725390926003456,-0.008394640870392323,0.001925947144627571
1.7294918947186683e+18,-0.018320558592677116,-0.006394206080585718,0.0033479160629212856
1.7294918947246684e+18,-0.017725368961691856,-0.008939231745898724,0.0008183757890947163
1.7294918947306685e+18,-0.018045596778392792,-0.006348298396915197,0.0011864864500239491
1.7294918947366687e+18,-0.014966846443712711,-0.00851191021502018,0.0018976153805851936
1.7294918947426688e+18,-0.017774593085050583,-0.007979113608598709,-3.342190757393837e-05
1.729491894748669e+18,-0.011233601719141006,-0.009006026200950146,0.00043111800914630294
1.729491894751669e+18,-0.015584472566843033,-0.006652000360190868,0.001327065285295248
1.729491894757669e+18,-0.01808464527130127,-0.007182676810771227,0.0012380832340568304
1.7294918947636692e+18,-0.016085632145404816,-0.006273401901125908,0.00249736406840384
1.7294918947696694e+18,-0.017602283507585526,-0.008264697156846523,0.0016940521309152246
1.7294918947756695e+18,-0.019290640950202942,-0.0035216754768043756,0.0014237374998629093
1.7294918947816696e+18,-0.01700759306550026,-0.005097385495901108,0.002179780276492238
1.7294918947876698e+18,-0.01608380302786827,-0.0026050060987472534,0.001474691554903984
1.72949189479367e+18,-0.023098044097423553,-0.006381776183843613,-2.8570648282766342e-05
1.72949189479667e+18,-0.018074966967105865,-0.0070413388311862946,-0.0009304627892561257
1.72949189480267e+18,-0.01803312636911869,-0.0043514184653759,0.0013466235250234604
1.7294918948086702e+18,-0.019406640902161598,-0.009583409875631332,0.0017164484597742558
1.7294918948146703e+18,-0.020298924297094345,-0.005655857268720865,0.0012812704080715775
1.7294918948206705e+18,-0.017449358478188515,-0.007820465601980686,0.00041782125481404364
1.7294918948266706e+18,-0.01714961789548397,-0.008259701542556286,-0.0017012247117236257
1.7294918948326707e+18,-0.017327122390270233,-0.004639281425625086,0.00153711112216115
1.7294918948386708e+18,-0.01661960408091545,-0.004735995549708605,0.00045064010191708803
1.729491894844671e+18,-0.017797430977225304,-0.0035607628524303436,0.001761571504175663
1.729491894847671e+18,-0.018616272136569023,-0.003681828733533621,0.001416936982423067
1.7294918948536712e+18,-0.017220957204699516,-0.0010956742335110903,-0.0014258904848247766
1.7294918948596713e+18,-0.018120789900422096,0.0007926701800897717,0.00026054022600874305
1.7294918948656714e+18,-0.017717065289616585,-0.0029315035790205,0.005134912207722664
1.7294918948716716e+18,-0.020164988934993744,-9.763147681951523e-05,-0.00048702763160690665
1.7294918948776717e+18,-0.01795194298028946,-0.0032144375145435333,-0.002700044773519039
1.7294918948836718e+18,-0.017010081559419632,-0.004051250871270895,0.0009422739967703819
1.729491894889672e+18,-0.017266249284148216,-0.005731029435992241,0.002181191463023424
1.729491894895672e+18,-0.016920965164899826,-0.005092536099255085,0.00032614520750939846
1.729491894898672e+18,-0.01806538552045822,-0.007360657677054405,0.00040973868453875184
1.7294918949046723e+18,-0.016157081350684166,-0.004627179354429245,0.000812332087662071
1.7294918949106724e+18,-0.01755448803305626,-0.007052638567984104,0.0011397558264434338
1.7294918949166725e+18,-0.019891910254955292,-0.005729337222874165,0.002991339424625039
1.7294918949226726e+18,-0.021937616169452667,-0.0056636943481862545,0.0022872246336191893
1.7294918949286728e+18,-0.01940494030714035,-0.0053057484328746796,0.0036725944373756647
1.729491894934673e+18,-0.022151891142129898,-0.007291809655725956,0.0019887275993824005
1.729491894940673e+18,-0.02209342271089554,-0.009511571377515793,-0.006207315716892481
1.729491894943673e+18,-0.017219357192516327,-0.01653316617012024,-0.011279568076133728
1.7294918949496732e+18,-0.015423932112753391,-0.0185791477560997,-0.021253399550914764
1.7294918949556733e+18,-0.016441000625491142,-0.020132509991526604,-0.02640385553240776
1.7294918949616735e+18,-0.011403633281588554,-0.02205684222280979,-0.028764450922608376
1.7294918949676736e+18,-0.01050467137247324,-0.02165306732058525,-0.029404325410723686
1.7294918949736737e+18,-0.012401992455124855,-0.01788652315735817,-0.027686214074492455
1.7294918949796739e+18,-0.013756866566836834,-0.014313473366200924,-0.028192188590765
1.729491894982674e+18,-0.0147482268512249,-0.011398392729461193,-0.028168486431241035
1.729491894988674e+18,-0.017910504713654518,-0.00841856561601162,-0.029452821239829063
1.7294918949946742e+18,-0.018857194110751152,-0.007224892266094685,-0.03181201219558716
1.7294918950006743e+18,-0.02078772895038128,-0.0077228061854839325,-0.029939137399196625
1.7294918950066744e+18,-0.020109687000513077,-0.007371422369033098,-0.03097846731543541
1.7294918950126746e+18,-0.018928542733192444,-0.010376307182013988,-0.030301788821816444
1.7294918950156746e+18,-0.01861095055937767,-0.012651640921831131,-0.03190358355641365
1.7294918950216748e+18,-0.015054830349981785,-0.012314285151660442,-0.03006511554121971
1.729491895027675e+18,-0.01866690069437027,-0.015679745003581047,-0.03249593824148178
1.729491895033675e+18,-0.01692132279276848,-0.01566421426832676,-0.031081238761544228
1.7294918950396751e+18,-0.015721788629889488,-0.01912696100771427,-0.029537402093410492
1.7294918950456753e+18,-0.018300484865903854,-0.013967541046440601,-0.03345267102122307
1.7294918950486753e+18,-0.020466284826397896,-0.012953376397490501,-0.030384745448827744
1.7294918950546755e+18,-0.01643805019557476,-0.011933588422834873,-0.028440896421670914
1.7294918950606756e+18,-0.022534703835844994,-0.012356552295386791,-0.029192104935646057
1.7294918950666757e+18,-0.018496505916118622,-0.010088339447975159,-0.03213133290410042
1.7294918950726758e+18,-0.020408617332577705,-0.010768525302410126,-0.02829592488706112
1.729491895078676e+18,-0.024918049573898315,-0.00947648473083973,-0.032383594661951065
1.729491895081676e+18,-0.0225732009857893,-0.010746927000582218,-0.029500525444746017
1.7294918950876762e+18,-0.022260336205363274,-0.008842919021844864,-0.03192918375134468
1.7294918950936763e+18,-0.021006401628255844,-0.008824962191283703,-0.025787334889173508
1.7294918950996764e+18,-0.021746696904301643,-0.00653870077803731,-0.03226958587765694
1.7294918951056765e+18,-0.022047724574804306,-0.012708248570561409,-0.027518805116415024
1.7294918951116767e+18,-0.017951570451259613,-0.011051193810999393,-0.030319003388285637
1.7294918951176768e+18,-0.017411427572369576,-0.00956085417419672,-0.026618240401148796
1.7294918951206769e+18,-0.02336091734468937,-0.012209730222821236,-0.02684187889099121
1.729491895126677e+18,-0.019988181069493294,-0.008755847811698914,-0.02803831733763218
1.729491895132677e+18,-0.01758429780602455,-0.008769463747739792,-0.024643344804644585
1.7294918951386772e+18,-0.022418906912207603,-0.007528325542807579,-0.02562548965215683
1.7294918951446774e+18,-0.017568808048963547,-0.007128606084734201,-0.02259453944861889
1.7294918951476774e+18,-0.019147492945194244,-0.0043691108003258705,-0.02081272564828396
1.7294918951536776e+18,-0.02241520769894123,-0.004911759402602911,-0.023132044821977615
1.7294918951596777e+18,-0.02254210226237774,-0.004067420959472656,-0.021605055779218674
1.7294918951656778e+18,-0.02526935562491417,-0.0034879902377724648,-0.021997084841132164
1.729491895171678e+18,-0.02257551997900009,-0.0023547073360532522,-0.02230367623269558
1.729491895177678e+18,-0.02496790513396263,-0.005049515049904585,-0.018582861870527267
1.7294918951836782e+18,-0.022993575781583786,-0.004577110055834055,-0.017159078270196915
1.7294918951896783e+18,-0.02277339994907379,-0.003141379449516535,-0.01788986474275589
1.7294918951926784e+18,-0.019089534878730774,-0.002940413076430559,-0.016352588310837746
1.7294918951986785e+18,-0.0174593236297369,-0.005444366950541735,-0.018161069601774216
1.7294918952046787e+18,-0.016246125102043152,-0.0024531891103833914,-0.01617181859910488
1.7294918952106788e+18,-0.016105880960822105,-0.002569323405623436,-0.014342973940074444
1.7294918952136788e+18,-0.015582984313368797,-0.0023058652877807617,-0.01432844903320074
1.729491895219679e+18,-0.020590417087078094,-0.0033787968568503857,-0.01287353690713644
1.729491895225679e+18,-0.018307436257600784,0.0007470097625628114,-0.013748014345765114
1.7294918952316792e+18,-0.019979171454906464,0.0001185054425150156,-0.010609625838696957
1.7294918952376794e+18,-0.01949731819331646,-0.0008508930332027376,-0.008464016020298004
1.7294918952436795e+18,-0.02190321311354637,-0.0016635337378829718,-0.006655665580183268
1.7294918952466796e+18,-0.020271483808755875,-0.001842808211222291,-0.0073581296019256115
1.7294918952526797e+18,-0.01961399056017399,-0.0032163760624825954,-0.004531484097242355
1.7294918952586798e+18,-0.02091842330992222,-0.004889274016022682,-0.0059771910309791565
1.72949189526468e+18,-0.020947394892573357,-0.004637587815523148,-0.005195287987589836
1.72949189527068e+18,-0.01671971194446087,-0.003825241234153509,-0.0021519670262932777
1.7294918952736801e+18,-0.017732035368680954,-0.003635484492406249,-0.0021156345028430223
1.7294918952796803e+18,-0.01889987103641033,-0.0024897847324609756,0.0008978889673016965
1.7294918952856804e+18,-0.01631004735827446,-0.0005097368266433477,0.0038382348138839006
1.7294918952916805e+18,-0.014829915016889572,-0.001382974674925208,0.005983344744890928
1.7294918952976806e+18,-0.01673443801701069,-0.0028836927376687527,0.005668006371706724
1.7294918953006807e+18,-0.017378661781549454,-0.000699903815984726,0.003807380795478821
1.729491895309681e+18,-0.0221449863165617,-0.0007009344408288598,0.01201540045440197
1.729491895312681e+18,-0.021050188690423965,0.00018366833683103323,0.010285544209182262
1.729491895318681e+18,-0.024553176015615463,-0.001565545448102057,0.010223645716905594
1.7294918953246812e+18,-0.02150639332830906,-0.0033301205839961767,0.010884028859436512
1.7294918953306813e+18,-0.024005522951483727,-0.0022306316532194614,0.01443323865532875
1.7294918953366815e+18,-0.019569935277104378,-0.004431211855262518,0.016121910884976387
1.7294918953426816e+18,-0.016994811594486237,-0.00462935259565711,0.016202665865421295
1.7294918953456817e+18,-0.016764644533395767,-0.006136822979897261,0.021912209689617157
1.7294918953516818e+18,-0.01823185756802559,-0.003281008917838335,0.021589770913124084
1.729491895357682e+18,-0.018505990505218506,-0.0016091372817754745,0.022910377010703087
1.729491895363682e+18,-0.01492629386484623,-0.002557291416451335,0.024849100038409233
1.7294918953696822e+18,-0.01764778420329094,-0.005725579336285591,0.022483183071017265
1.7294918953756823e+18,-0.021929416805505753,-0.0023508917074650526,0.024640196934342384
1.7294918953786824e+18,-0.019879084080457687,-0.003214689902961254,0.02999051660299301
1.7294918953846825e+18,-0.015909403562545776,-0.0069018518552184105,0.027372360229492188
1.7294918953906826e+18,-0.018820341676473618,-0.003009437583386898,0.028809353709220886
1.7294918953966828e+18,-0.018673909828066826,-0.005823173560202122,0.034423016011714935
1.729491895402683e+18,-0.017147555947303772,-0.005934624001383781,0.032010268419981
1.729491895408683e+18,-0.017636235803365707,-0.00948355719447136,0.03579890727996826
1.729491895411683e+18,-0.01804380491375923,-0.0073186787776649,0.03312212601304054
1.7294918954176832e+18,-0.01809980347752571,-0.008373589254915714,0.03818156570196152
1.7294918954236833e+18,-0.0205658208578825,-0.006391176953911781,0.03942418843507767
1.7294918954296835e+18,-0.019191328436136246,-0.007634010631591082,0.03661644458770752
1.7294918954356836e+18,-0.022279838100075722,-0.007379639893770218,0.03841905668377876
1.7294918954416837e+18,-0.02230049856007099,-0.008464234881103039,0.040720321238040924
1.7294918954446838e+18,-0.019191715866327286,-0.007478922139853239,0.04138023778796196
1.729491895450684e+18,-0.02125023491680622,-0.007467476651072502,0.04018278792500496
1.729491895456684e+18,-0.02060656063258648,-0.010191021487116814,0.04175629839301109
1.7294918954626842e+18,-0.01842985488474369,-0.00724088354036212,0.044761862605810165
1.7294918954686843e+18,-0.01968911848962307,-0.008080725558102131,0.05054203048348427
1.7294918954746844e+18,-0.021467017009854317,-0.009049740619957447,0.04624199867248535
1.7294918954776845e+18,-0.01982257328927517,-0.009762684814631939,0.0472189225256443
1.7294918954836846e+18,-0.018420932814478874,-0.009334099479019642,0.047736622393131256
1.7294918954896847e+18,-0.019390888512134552,-0.008433341979980469,0.049478720873594284
1.7294918954956849e+18,-0.02004699409008026,-0.011055980809032917,0.05054585263133049
1.729491895501685e+18,-0.017561042681336403,-0.008020572364330292,0.053024906665086746
1.729491895507685e+18,-0.020893191918730736,-0.009782036766409874,0.05252154916524887
1.7294918955106852e+18,-0.020328808575868607,-0.00869921687990427,0.051348891109228134
1.7294918955166853e+18,-0.02011144906282425,-0.009842869825661182,0.05135279521346092
1.7294918955226854e+18,-0.021033715456724167,-0.011014196090400219,0.05381227657198906
1.7294918955286856e+18,-0.019945526495575905,-0.008843813091516495,0.053074195981025696
1.7294918955346857e+18,-0.022142374888062477,-0.010150128044188023,0.05699711665511131
1.7294918955406858e+18,-0.022746048867702484,-0.009838582016527653,0.05845537781715393
1.729491895543686e+18,-0.02397007681429386,-0.009807690046727657,0.056588802486658096
1.729491895549686e+18,-0.023033343255519867,-0.0069297910667955875,0.05372610688209534
1.7294918955556861e+18,-0.022689437493681908,-0.007589333690702915,0.05620688572525978
1.7294918955616863e+18,-0.01861199177801609,-0.008646601811051369,0.05919191613793373
1.7294918955676864e+18,-0.016781872138381004,-0.008699687197804451,0.06156183034181595
1.7294918955736865e+18,-0.018791502341628075,-0.009791556745767593,0.06112922728061676
1.7294918955766866e+18,-0.019593320786952972,-0.011814871802926064,0.06361708790063858
1.7294918955826867e+18,-0.016337772831320763,-0.011028405278921127,0.061877693980932236
1.7294918955886868e+18,-0.019879043102264404,-0.0078425919637084,0.058540161699056625
1.729491895594687e+18,-0.018965110182762146,-0.008017613552510738,0.06313866376876831
1.729491895600687e+18,-0.020307112485170364,-0.009261496365070343,0.06081543117761612
1.7294918956036872e+18,-0.020503899082541466,-0.0074115958996117115,0.06290151178836823
1.7294918956096873e+18,-0.018611805513501167,-0.0065782214514911175,0.06163933500647545
1.7294918956156874e+18,-0.017922252416610718,-0.011068749241530895,0.06512428820133209
1.7294918956216876e+18,-0.018602540716528893,-0.007672801613807678,0.064284548163414
1.7294918956276877e+18,-0.018535183742642403,-0.007325572893023491,0.06428378820419312
1.7294918956336878e+18,-0.015132256783545017,-0.0073266299441456795,0.06596328318119049
1.729491895639688e+18,-0.01726652681827545,-0.008594554848968983,0.06461185961961746
1.729491895642688e+18,-0.020519495010375977,-0.01039187703281641,0.06751056015491486
1.729491895648688e+18,-0.015538569539785385,-0.009546739049255848,0.06748591363430023
1.7294918956546883e+18,-0.017484985291957855,-0.012648827396333218,0.0687008872628212
1.7294918956606884e+18,-0.01868342235684395,-0.011333714239299297,0.07006541639566422
1.7294918956666885e+18,-0.01544545590877533,-0.010061463341116905,0.06513316929340363
1.7294918956726886e+18,-0.016258280724287033,-0.01060781255364418,0.06799839437007904
1.7294918956756887e+18,-0.01440464798361063,-0.009701413102447987,0.06978330761194229
1.7294918956816888e+18,-0.016529513522982597,-0.009590613655745983,0.06825315952301025
1.729491895687689e+18,-0.016923125833272934,-0.009792981669306755,0.06910566240549088
1.729491895693689e+18,-0.020952388644218445,-0.006295593921095133,0.06771344691514969
1.7294918956966892e+18,-0.01875714212656021,-0.009600864723324776,0.07106759399175644
1.7294918957026893e+18,-0.020099041983485222,-0.007252924609929323,0.07072331011295319
1.7294918957086894e+18,-0.01438801921904087,-0.007169026415795088,0.07140304148197174
1.7294918957146895e+18,-0.014215756207704544,-0.004950926639139652,0.07134684920310974
1.7294918957206897e+18,-0.016519473865628242,-0.007532862015068531,0.07049918174743652
1.7294918957266898e+18,-0.012403161264955997,-0.00789621565490961,0.07124672830104828
1.72949189573269e+18,-0.014070380479097366,-0.01087317243218422,0.06870290637016296
1.72949189573869e+18,-0.011653216555714607,-0.007701702415943146,0.07387357950210571
1.72949189574169e+18,-0.013306241482496262,-0.008685972541570663,0.07173589617013931
1.7294918957476902e+18,-0.013065559789538383,-0.005649025551974773,0.07432720810174942
1.7294918957536904e+18,-0.013928347267210484,-0.0066268895752727985,0.07605113089084625
1.7294918957596905e+18,-0.01523457933217287,-0.0007773479446768761,0.07465630769729614
1.7294918957656906e+18,-0.017791220918297768,-0.0011871824972331524,0.07222761958837509
1.7294918957716908e+18,-0.014612475410103798,-0.005289046559482813,0.07370567321777344
1.7294918957746908e+18,-0.014157070778310299,-0.001013998407870531,0.0750548243522644
1.729491895780691e+18,-0.015348570421338081,-0.004602582193911076,0.07620416581630707
1.729491895786691e+18,-0.013606932945549488,-0.006195397116243839,0.07411591708660126
1.7294918957926912e+18,-0.007047493942081928,-0.008186747319996357,0.07294394820928574
1.7294918957986913e+18,-0.00852461252361536,-0.005250629968941212,0.07537378370761871
1.7294918958016914e+18,-0.010168919339776039,-0.004187937825918198,0.0748509019613266
1.7294918958076915e+18,-0.008307795971632004,-0.00552696269005537,0.07713369280099869
1.7294918958136916e+18,-0.008458745665848255,-0.003196392673999071,0.07187385857105255
1.7294918958196918e+18,-0.0071407281793653965,-0.001286400598473847,0.07562953978776932
1.729491895825692e+18,-0.012426268309354782,-0.0012016486143693328,0.07656798511743546
1.729491895831692e+18,-0.01402011513710022,-0.0016456290613859892,0.07336238026618958
1.7294918958376922e+18,-0.01113300584256649,0.0025118254125118256,0.07431818544864655
1.7294918958406922e+18,-0.01161668635904789,0.00363019946962595,0.07510124146938324
1.7294918958466924e+18,-0.012487590312957764,-5.2504357881844044e-05,0.07395029813051224
1.7294918958526925e+18,-0.012638450600206852,0.0020101461559534073,0.0720970407128334
1.7294918958586926e+18,-0.010923885740339756,-0.003208670299500227,0.07310426980257034
1.7294918958646927e+18,-0.011178935877978802,-0.0036023547872900963,0.07532890141010284
1.7294918958706929e+18,-0.008509041741490364,-0.004891890566796064,0.07058247178792953
1.729491895873693e+18,-0.010465153492987156,-0.005118898116052151,0.07281063497066498
1.729491895879693e+18,-0.012415625154972076,-0.005294358357787132,0.07488584518432617
1.7294918958856932e+18,-0.010311601683497429,-0.008347068913280964,0.0762016624212265
1.7294918958916933e+18,-0.00989355519413948,-0.0031859728042036295,0.07200213521718979
1.7294918958976934e+18,-0.010937754064798355,-0.0052469344809651375,0.07036099582910538
1.7294918959036936e+18,-0.011389811523258686,0.0004146760329604149,0.07259488850831985
1.7294918959096937e+18,-0.012647418305277824,-0.002721734344959259,0.07112958282232285
1.7294918959126938e+18,-0.010623105801641941,-0.0006711134919896722,0.07005396485328674
1.729491895918694e+18,-0.011010374873876572,-0.00014549808111041784,0.07130008190870285
1.729491895924694e+18,-0.008138052187860012,-0.005363894626498222,0.0702056735754013
1.7294918959306941e+18,-0.007688008714467287,-0.0056623537093400955,0.06927837431430817
1.7294918959366943e+18,-0.009454668499529362,-0.005885685794055462,0.06605309993028641
1.7294918959396943e+18,-0.009991026483476162,-0.004436355084180832,0.06741797924041748
1.7294918959456945e+18,-0.007368448656052351,-0.004367896355688572,0.06947191059589386
1.7294918959516946e+18,-0.005684702657163143,-0.004722598474472761,0.06472542881965637
1.7294918959576947e+18,-0.008941184729337692,-0.0028504168149083853,0.06702496111392975
1.7294918959606948e+18,-0.007217215374112129,-0.0038078329525887966,0.06423024088144302
1.729491895966695e+18,-0.00903044082224369,-0.005950331222265959,0.06336601078510284
1.729491895972695e+18,-0.00974767841398716,-0.005874099209904671,0.06477461755275726
1.7294918959786952e+18,-0.007878695614635944,-0.005818694829940796,0.06243545562028885
1.7294918959846953e+18,-0.008295489475131035,-0.0051086945459246635,0.06147678941488266
1.7294918959876954e+18,-0.009706608019769192,-0.007161382585763931,0.061578601598739624
1.7294918959936955e+18,-0.009148327633738518,-0.004043678753077984,0.0597655363380909
1.7294918959996956e+18,-0.010496210306882858,-0.008684033527970314,0.06285063177347183
1.7294918960056957e+18,-0.012951856479048729,-0.0035400777123868465,0.05820445343852043
1.7294918960116959e+18,-0.009113188832998276,-0.0069084158167243,0.05883442610502243
1.729491896017696e+18,-0.004875532817095518,-0.00535746430978179,0.05786292254924774
1.729491896020696e+18,-0.0102434903383255,-0.0024857823736965656,0.05489109456539154
1.7294918960266962e+18,-0.007856198586523533,-0.0024641251657158136,0.05654335021972656
1.7294918960326963e+18,-0.011890548281371593,-0.0010894950246438384,0.05343015119433403
1.7294918960386964e+18,-0.012861117720603943,-0.002394063165411353,0.05515030398964882
1.7294918960446966e+18,-0.01466433797031641,-0.0024721696972846985,0.05521009489893913
1.7294918960506967e+18,-0.014137815684080124,-0.001894381013698876,0.05130182206630707
1.7294918960566968e+18,-0.0105331065133214,-0.0007605298887938261,0.05225104093551636
1.729491896059697e+18,-0.009119021706283092,0.0004826715448871255,0.05243699252605438
1.729491896068697e+18,-0.012705579400062561,-0.007374976761639118,0.04824962466955185
1.7294918960746972e+18,-0.020295610651373863,-0.0076703173108398914,0.04963338375091553
1.7294918960776973e+18,-0.024295266717672348,-0.009179262444376945,0.04894552752375603
1.7294918960836974e+18,-0.035745393484830856,-0.0141300642862916,0.05055474117398262
1.7294918960896975e+18,-0.03826014697551727,-0.018577544018626213,0.04832110181450844
1.7294918960956977e+18,-0.04614650085568428,-0.022389184683561325,0.046782661229372025
1.7294918961016978e+18,-0.04404109716415405,-0.02158452942967415,0.047825682908296585
1.7294918961046979e+18,-0.04796263575553894,-0.023642584681510925,0.04509298503398895
1.729491896110698e+18,-0.0476384237408638,-0.021313248202204704,0.04490504786372185
1.729491896116698e+18,-0.043609339743852615,-0.022569799795746803,0.04146029055118561
1.7294918961226982e+18,-0.04011697694659233,-0.019752709195017815,0.04448894038796425
1.7294918961286984e+18,-0.042391154915094376,-0.01669440045952797,0.0443989560008049
1.7294918961346985e+18,-0.04354935884475708,-0.01890256255865097,0.04111392796039581
1.7294918961406986e+18,-0.04722204431891441,-0.01817655749619007,0.04234535992145538
1.7294918961466988e+18,-0.05292845144867897,-0.021543920040130615,0.04273310676217079
1.7294918961496988e+18,-0.04854896292090416,-0.017145177349448204,0.041223734617233276
1.729491896155699e+18,-0.05275152623653412,-0.024902965873479843,0.03880797699093819
1.729491896161699e+18,-0.05555463209748268,-0.0250883586704731,0.0382692776620388
1.7294918961676992e+18,-0.05801521986722946,-0.023655720055103302,0.037879105657339096
1.7294918961736993e+18,-0.05486193299293518,-0.02763594500720501,0.04246629402041435
1.7294918961796995e+18,-0.054245807230472565,-0.024010490626096725,0.03624779358506203
1.7294918961856996e+18,-0.050898391753435135,-0.022143501788377762,0.0414872020483017
1.7294918961916997e+18,-0.04813682660460472,-0.02333429642021656,0.037389032542705536
1.7294918961976998e+18,-0.04482623189687729,-0.022732876241207123,0.03864334896206856
1.7294918962037e+18,-0.04104136675596237,-0.01610557921230793,0.03579884395003319
1.7294918962067e+18,-0.04227714240550995,-0.01959637925028801,0.03719655051827431
1.7294918962127002e+18,-0.03678811341524124,-0.017690133303403854,0.03501110151410103
1.7294918962187003e+18,-0.03817332163453102,-0.017736362293362617,0.03549587354063988
1.7294918962247004e+18,-0.0350281186401844,-0.0208321250975132,0.03481252118945122
1.7294918962277005e+18,-0.03438754379749298,-0.018480222672224045,0.03085515834391117
1.7294918962337006e+18,-0.037265293300151825,-0.019915951415896416,0.03161267936229706
1.7294918962397007e+18,-0.03489034250378609,-0.020620916038751602,0.031099239364266396
1.7294918962457009e+18,-0.03723519295454025,-0.020451799035072327,0.033501796424388885
1.729491896251701e+18,-0.03697929531335831,-0.01798318512737751,0.03180353716015816
1.729491896257701e+18,-0.03583618253469467,-0.01795537769794464,0.031177466735243797
1.7294918962637012e+18,-0.029598228633403778,-0.015856647863984108,0.02882872149348259
1.7294918962697014e+18,-0.028356054797768593,-0.015466641634702682,0.029773646965622902
1.7294918962727014e+18,-0.028111208230257034,-0.011631582863628864,0.0314173586666584
1.7294918962787016e+18,-0.020588679239153862,-0.009443351998925209,0.03001687303185463
1.7294918962847017e+18,-0.02082688920199871,-0.010763389058411121,0.03146558254957199
1.7294918962907018e+18,-0.018572943285107613,-0.012201809324324131,0.02941293641924858
1.729491896293702e+18,-0.01914340816438198,-0.011095675639808178,0.02767215110361576
1.729491896299702e+18,-0.025236783549189568,-0.009725235402584076,0.02790738269686699
1.7294918963057021e+18,-0.023434355854988098,-0.010860715992748737,0.026309095323085785
1.7294918963117023e+18,-0.026074446737766266,-0.011672972701489925,0.027594979852437973
1.7294918963177024e+18,-0.025759896263480186,-0.011572807095944881,0.024878619238734245
1.7294918963237025e+18,-0.024450799450278282,-0.010471327230334282,0.028950421139597893
1.7294918963267026e+18,-0.023403404280543327,-0.009245702996850014,0.028784802183508873
1.7294918963327027e+18,-0.021219991147518158,-0.008004982955753803,0.02896317094564438
1.7294918963387028e+18,-0.017736084759235382,-0.007227033842355013,0.0260186567902565
1.729491896344703e+18,-0.015312174335122108,-0.00547410175204277,0.02388879656791687
1.729491896350703e+18,-0.011248741298913956,-0.004409375134855509,0.025860922411084175
1.7294918963567032e+18,-0.012635068967938423,-0.0017063880804926157,0.02522386983036995
1.7294918963627034e+18,-0.010292639024555683,0.0005789116257801652,0.024515753611922264
1.7294918963657034e+18,-0.009728631004691124,8.091877680271864e-05,0.021342361345887184
1.7294918963717036e+18,-0.00985383428633213,-0.0006667086854577065,0.023424768820405006
1.7294918963777037e+18,-0.008442249149084091,-0.0011506134178489447,0.023833468556404114
1.7294918963837038e+18,-0.009484890848398209,-0.0003197007463313639,0.021062416955828667
1.729491896389704e+18,-0.00815229769796133,-0.00046062900219112635,0.022643575444817543
1.729491896395704e+18,-0.00968540646135807,-0.0006746139843016863,0.021186716854572296
1.7294918964017042e+18,-0.007909774780273438,-0.0012406989699229598,0.0211903415620327
1.7294918964077043e+18,-0.00789530761539936,-0.0006514859851449728,0.023373648524284363
1.7294918964137044e+18,-0.007551899179816246,0.0002446584403514862,0.02207082137465477
1.7294918964197046e+18,-0.005546065978705883,0.004046195652335882,0.018720528110861778
1.7294918964227046e+18,-0.003068086924031377,0.004738216288387775,0.021880902349948883
1.7294918964287048e+18,-0.0016992326127365232,0.004158737603574991,0.0222090482711792
1.729491896434705e+18,0.002278008731082082,0.005404680036008358,0.019628405570983887
1.729491896440705e+18,0.002535873791202903,0.005290057975798845,0.01773357018828392
1.7294918964467052e+18,0.0019703872967511415,0.00879420805722475,0.020269831642508507
1.7294918964527053e+18,0.0014258857117965817,0.005068658851087093,0.015269015915691853
1.7294918964587054e+18,0.0005461273831315339,0.006453189067542553,0.01947605237364769
1.7294918964617055e+18,0.0005847633583471179,0.004015968181192875,0.017025629058480263
1.7294918964677056e+18,-0.003743986366316676,0.004130202811211348,0.01728346198797226
1.7294918964737057e+18,-0.0019871762488037348,0.003517962759360671,0.01632000133395195
1.7294918964797059e+18,-0.0023020657245069742,0.0022574851755052805,0.016969051212072372
1.729491896485706e+18,0.0008058889070525765,0.0015035931719467044,0.017930466681718826
1.729491896491706e+18,0.00257613486610353,0.004218484275043011,0.018479006364941597
1.7294918964947062e+18,0.003780265338718891,0.0018639217596501112,0.015149668790400028
1.7294918965007063e+18,0.00371362897567451,0.005336631089448929,0.015525782480835915
1.7294918965067064e+18,0.00851406529545784,0.0046463473699986935,0.016276028007268906
1.7294918965127066e+18,0.005583802238106728,0.0037672771140933037,0.013582227751612663
1.7294918965187067e+18,0.008612257428467274,0.0013804507907480001,0.013152865692973137
1.7294918965247068e+18,0.012962237000465393,0.0041716513223946095,0.015281408093869686
1.729491896530707e+18,0.009230139665305614,0.005635084118694067,0.016906101256608963
1.729491896533707e+18,0.006629002280533314,0.006810650695115328,0.012587156146764755
1.7294918965397071e+18,0.0062396340072155,0.002517573069781065,0.015335914678871632
1.7294918965457073e+18,0.006410197354853153,0.002490284852683544,0.01594141684472561
1.7294918965517074e+18,0.0029034290928393602,0.002583295339718461,0.0184189360588789
1.7294918965577075e+18,0.0015493649989366531,0.0013980937656015158,0.014768511988222599
1.7294918965637076e+18,0.0015557518927380443,-0.0010483642108738422,0.014201918616890907
1.7294918965697078e+18,0.0007298154523596168,2.4604742066003382e-05,0.01269839983433485
1.729491896575708e+18,0.00508606992661953,-0.0027850475162267685,0.009276559576392174
1.729491896578708e+18,0.004024735186249018,0.0012815361842513084,0.014024384319782257
1.729491896584708e+18,0.005721596069633961,0.0005202660104259849,0.01311631128191948
1.7294918965907082e+18,0.0058181569911539555,0.004562681540846825,0.011278013698756695
1.7294918965967084e+18,0.00828628707677126,0.002094700001180172,0.012528076767921448
1.7294918966027085e+18,0.008384505286812782,0.00303441914729774,0.011279809288680553
1.7294918966087086e+18,0.007428524550050497,0.00319097563624382,0.011388322338461876
1.7294918966147087e+18,0.007380851544439793,0.004006194416433573,0.009197250008583069
1.7294918966207089e+18,0.010998550802469254,0.00063756899908185,0.009281828999519348
1.729491896626709e+18,0.004977033473551273,0.0022933806758373976,0.009787443093955517
1.729491896629709e+18,0.005176594015210867,0.0014222563477233052,0.011559396982192993
1.7294918966357092e+18,0.0029571924824267626,0.0031469257082790136,0.010873271152377129
1.7294918966417093e+18,6.298325024545193e-05,0.0018275429029017687,0.011468120850622654
1.7294918966477094e+18,0.004467016085982323,0.005501516629010439,0.011241772212088108
1.7294918966537096e+18,0.003354499815031886,0.009259320795536041,0.010944853536784649
1.7294918966597097e+18,0.0018779999809339643,0.0073888604529201984,0.01025200542062521
1.7294918966627098e+18,0.0054518189281225204,0.009161027148365974,0.010179496370255947
1.72949189666871e+18,0.005678620655089617,0.007359310053288937,0.010384730994701385
1.72949189667471e+18,0.0060022566467523575,0.007119066081941128,0.006588862277567387
1.7294918966807101e+18,0.009180601686239243,0.005435919389128685,0.006152395159006119
1.7294918966867103e+18,0.00994675513356924,0.00533972168341279,0.009742693044245243
1.7294918966927104e+18,0.008673091419041157,0.00624564616009593,0.009400581009685993
1.7294918966987105e+18,0.005830261390656233,0.0072182826697826385,0.010041862726211548
1.7294918967017106e+18,0.005025709979236126,0.010131732560694218,0.007648239377886057
1.7294918967077107e+18,0.002944940933957696,0.005840530153363943,0.009291024878621101
1.7294918967137108e+18,0.0023809680715203285,0.009829428978264332,0.008320215158164501
1.729491896719711e+18,0.0030194639693945646,0.01124577783048153,0.007082468830049038
1.729491896725711e+18,0.0014831162989139557,0.008759627118706703,0.011199655011296272
1.7294918967317112e+18,0.00856285821646452,0.007183098699897528,0.006900038570165634
1.7294918967347113e+18,0.012169688008725643,0.007022469770163298,0.0075236037373542786
1.7294918967407114e+18,0.012250524945557117,0.005875682923942804,0.006027707830071449
1.7294918967467116e+18,0.012065911665558815,0.005235807970166206,0.010055136866867542
1.7294918967527117e+18,0.016523778438568115,0.002584023168310523,0.006847094744443893
1.7294918967587118e+18,0.014679591171443462,0.004572191741317511,0.003786431159824133
1.729491896764712e+18,0.016206342726945877,0.006839567329734564,0.007458182983100414
1.729491896767712e+18,0.01308935135602951,0.005706011783331633,0.0037150131538510323
1.7294918967737121e+18,0.012099741026759148,0.005043786484748125,0.004521763883531094
1.7294918967797123e+18,0.01496579684317112,0.009030249901115894,0.008034969680011272
1.7294918967857124e+18,0.01039917767047882,0.009770057164132595,0.004300507716834545
1.7294918967917125e+18,0.014457919634878635,0.011889351531863213,0.009345228783786297
1.7294918967947126e+18,0.014552593231201172,0.007843916304409504,0.0037448147777467966
1.7294918968007127e+18,0.011892220936715603,0.00680210255086422,0.00824863463640213
1.7294918968067128e+18,0.013248998671770096,0.006148881278932095,0.0063476855866611
1.729491896812713e+18,0.015541451051831245,0.006895695813000202,0.009274917654693127
1.729491896818713e+18,0.01588703691959381,0.004995275288820267,0.005548992194235325
1.7294918968247132e+18,0.016515636816620827,0.006011486053466797,0.003571822540834546
1.7294918968307133e+18,0.01602044887840748,0.005358223803341389,0.009852868504822254
1.7294918968367135e+18,0.014633824117481709,0.004762010648846626,0.0048406547866761684
1.7294918968427136e+18,0.01598704233765602,0.0034735482186079025,0.007918008603155613
1.7294918968487137e+18,0.020661184564232826,0.002909638686105609,0.0008978899568319321
1.7294918968547139e+18,0.017624160274863243,0.004447225481271744,0.0033863699063658714
1.729491896860714e+18,0.017031285911798477,0.0015906862681731582,0.006195905152708292
1.729491896866714e+18,0.020557813346385956,0.0045303888618946075,0.003726776922121644
1.7294918968727142e+18,0.0202870462089777,0.003214810974895954,0.005816483870148659
1.7294918968787144e+18,0.017630454152822495,0.001203375170007348,0.004079300910234451
1.7294918968817144e+18,0.017619024962186813,-4.2434316128492355e-05,0.0033212320413440466
1.7294918968877146e+18,0.015372690744698048,0.0022401600144803524,0.0022848816588521004
1.7294918968937147e+18,0.018684592097997665,0.0018021364230662584,0.0048140836879611015
1.7294918968997148e+18,0.016253849491477013,0.0003813219955191016,0.0033961257431656122
1.729491896905715e+18,0.02110082097351551,0.001089568017050624,0.0029284534975886345
1.729491896911715e+18,0.015272274613380432,0.004322573076933622,0.0028642143588513136
1.7294918969177152e+18,0.016886616125702858,0.0022707441821694374,0.005202390253543854
1.7294918969237153e+18,0.01831097900867462,0.0020823809318244457,0.004160801414400339
1.7294918969297155e+18,0.02063530683517456,0.006434144452214241,6.998889148235321e-07
1.7294918969357156e+18,0.022523503750562668,0.0038130495231598616,0.0027191974222660065
1.7294918969417157e+18,0.02210846357047558,0.0045386250130832195,0.0035598904360085726
1.7294918969477158e+18,0.02197784185409546,0.008669388480484486,0.0031310492195189
1.729491896950716e+18,0.021760620176792145,0.005629424471408129,0.0038194649387151003
1.729491896956716e+18,0.02371210977435112,0.003956424072384834,0.0033486634492874146
1.7294918969627162e+18,0.019617635756731033,0.005611077882349491,0.005533771589398384
1.7294918969687163e+18,0.021700158715248108,0.0067902314476668835,0.002697063609957695
1.7294918969777165e+18,0.020726095885038376,0.007354401517659426,0.00035473727621138096
1.7294918969807165e+18,0.01998359151184559,0.0043696328066289425,0.0034183000680059195
1.7294918969897167e+18,0.024218440055847168,0.00756226247176528,0.0047926753759384155
1.7294918969927168e+18,0.02242618426680565,0.010477002710103989,0.00010993843898177147
1.729491896998717e+18,0.022229326888918877,0.006562490947544575,0.001608385005965829
1.729491897004717e+18,0.02515888400375843,0.009869245812296867,0.002140707802027464
1.7294918970107172e+18,0.022918447852134705,0.011564510874450207,0.002232917118817568
1.7294918970167173e+18,0.02223564311861992,0.010885887779295444,0.003333795815706253
1.7294918970227174e+18,0.02506096288561821,0.01074326690286398,0.0026265541091561317
1.7294918970287176e+18,0.024900395423173904,0.011382322758436203,-0.0013136692577973008
1.7294918970347177e+18,0.024459032341837883,0.007434738799929619,0.002590352203696966
1.7294918970407178e+18,0.024236885830760002,0.01017407514154911,0.002391234040260315
1.729491897046718e+18,0.02352086268365383,0.010281828232109547,0.0005238361191004515
1.7294918970557181e+18,0.023065190762281418,0.00894936267286539,-0.0013510663993656635
1.7294918970617183e+18,0.023818960413336754,0.007238208781927824,0.002714830683544278
1.7294918970677184e+18,0.027241727337241173,0.008373738266527653,0.002737147733569145
1.7294918970737185e+18,0.026287466287612915,0.007057022303342819,0.003924249205738306
1.7294918970797187e+18,0.02723773941397667,0.008202878758311272,0.003143909852951765
1.7294918970857188e+18,0.02678719349205494,0.0034821825101971626,0.0022942195646464825
1.729491897091719e+18,0.023689886555075645,0.009928273968398571,0.0014644527109339833
1.729491897097719e+18,0.026679493486881256,0.010379891842603683,0.0022342074662446976
1.7294918971037192e+18,0.025918301194906235,0.007405129261314869,0.00045075881644152105
1.7294918971097193e+18,0.029306504875421524,0.008950969204306602,0.0019299418199807405
1.7294918971157194e+18,0.027291592210531235,0.008360985666513443,0.0021037673577666283
1.7294918971217196e+18,0.026950735598802567,0.0032841674983501434,0.00022160720254760236
1.7294918971277197e+18,0.02798023819923401,0.008294002152979374,0.0012392638018354774
1.7294918971337198e+18,0.029192563146352768,0.007593472022563219,-0.003852490335702896
1.72949189713972e+18,0.02515827864408493,0.00821067113429308,-0.00019791681552305818
1.72949189714572e+18,0.027486907318234444,0.0073448894545435905,0.0003479182196315378
1.7294918971517202e+18,0.023251498118042946,0.0061499890871346,-0.0019677085801959038
1.7294918971577203e+18,0.020569581538438797,0.005355452187359333,-0.00020987188327126205
1.7294918971607204e+18,0.020097579807043076,0.007094699889421463,-0.002591993659734726
1.7294918971697206e+18,0.02171192318201065,0.005258422810584307,-0.0030538165010511875
1.7294918971727206e+18,0.021865932270884514,0.007145964540541172,-0.0020304806530475616
1.7294918971787208e+18,0.023615311831235886,0.009769199416041374,-0.0018321250099688768
1.729491897184721e+18,0.02505892887711525,0.007487032562494278,-0.0004555213381536305
1.729491897190721e+18,0.02534973993897438,0.005701800808310509,0.001597353257238865
1.7294918971967212e+18,0.027266496792435646,0.012363128364086151,-0.001174340257421136
1.7294918972027213e+18,0.025717342272400856,0.006897319573909044,0.0007774565601721406
1.7294918972087214e+18,0.024973571300506592,0.008248802274465561,-0.0010389318922534585
1.7294918972147215e+18,0.02803145721554756,0.010922709479928017,-0.0015315355267375708
1.7294918972207217e+18,0.0224173441529274,0.010480508208274841,-0.0006202326039783657
1.7294918972267218e+18,0.022823650389909744,0.007134152110666037,-0.0014752530260011554
1.7294918972297219e+18,0.023271845653653145,0.008074270561337471,-0.0017638778081163764
1.729491897235722e+18,0.024820320308208466,0.006486779078841209,-0.0007317826966755092
1.729491897241722e+18,0.022439315915107727,0.007346343249082565,-0.004082361236214638
1.7294918972477222e+18,0.022974513471126556,0.008284308016300201,-0.0025274688377976418
1.7294918972537224e+18,0.02516094595193863,0.005505147855728865,-0.0016944525996223092
1.7294918972597225e+18,0.025230931118130684,0.004565841984003782,-0.0035536624491214752
1.7294918972627226e+18,0.021956227719783783,0.009828143753111362,-0.0006140647456049919
1.7294918972687227e+18,0.02645421214401722,0.008987685665488243,0.001255288254469633
1.7294918972747228e+18,0.024705708026885986,0.009714264422655106,-0.0012037154519930482
1.729491897280723e+18,0.02358504943549633,0.005321422591805458,-0.0004740373697131872
1.729491897286723e+18,0.02886451967060566,0.00859853159636259,-0.0039751650765538216
1.7294918972927232e+18,0.025455111637711525,0.006986716762185097,-0.002646834123879671
1.7294918972957233e+18,0.027176300063729286,0.007825162261724472,-0.0017001960659399629
1.7294918973017234e+18,0.023315371945500374,0.006808879319578409,-0.0011555124074220657
1.7294918973077235e+18,0.022283433005213737,0.0057672541588544846,-0.0034121042117476463
1.7294918973137236e+18,0.024360960349440575,0.008820388466119766,0.0010658169630914927
1.7294918973197238e+18,0.02371516451239586,0.00535507220774889,-0.0005109970225021243
1.729491897325724e+18,0.026909925043582916,0.0068487245589494705,-5.028885789215565e-05
1.729491897328724e+18,0.023500561714172363,0.007145395502448082,-0.0020096844527870417
1.729491897334724e+18,0.025139763951301575,0.008844204246997833,-0.0031660045497119427
1.7294918973407242e+18,0.027207273989915848,0.006885156966745853,-0.0012064534239470959
1.7294918973467244e+18,0.027505239471793175,0.010525250807404518,-0.006570850033313036
1.7294918973527245e+18,0.024353982880711555,0.007684486918151379,0.0010835051070898771
1.7294918973587246e+18,0.024696452543139458,0.009879504330456257,-0.0027088280767202377
1.7294918973617247e+18,0.02437250129878521,0.006619766354560852,-0.003237062133848667
1.7294918973677248e+18,0.025154367089271545,0.004472128115594387,-0.005643695592880249
1.729491897373725e+18,0.022312596440315247,0.011275848373770714,-0.0027759699150919914
1.729491897379725e+18,0.023473069071769714,0.0059612588956952095,-0.0027046427130699158
1.7294918973857252e+18,0.023774247616529465,0.009212249889969826,-0.004873834550380707
1.7294918973917253e+18,0.02061743475496769,0.010561728850007057,-0.004244667943567038
1.7294918973947254e+18,0.02345934882760048,0.007713819853961468,-0.0020685167983174324
1.7294918974037256e+18,0.019768794998526573,0.008429337292909622,-0.0017764351796358824
1.7294918974067256e+18,0.021802110597491264,0.007678527384996414,-0.0034576961770653725
1.7294918974127258e+18,0.021565325558185577,0.008244432508945465,0.000988831277936697
1.729491897418726e+18,0.021274317055940628,0.009265828877687454,-0.00018495693802833557
1.729491897424726e+18,0.02416009083390236,0.009913893416523933,-0.003739277832210064
1.7294918974307261e+18,0.02641945891082287,0.007030040957033634,-0.00013134093023836613
1.7294918974337262e+18,0.025351092219352722,0.005586208309978247,-0.0022494466975331306
1.7294918974397263e+18,0.02928086929023266,0.008099649101495743,-0.0030921127181500196
1.7294918974457265e+18,0.028476355597376823,0.004963025916367769,-0.0011673315893858671
1.7294918974517266e+18,0.024545900523662567,0.009095645509660244,-0.0016713272780179977
1.7294918974547267e+18,0.026568269357085228,0.007505692541599274,-0.0023228491190820932
1.7294918974607268e+18,0.02774602361023426,0.009211168624460697,-0.003108428791165352
1.729491897466727e+18,0.020860331133008003,0.00806492194533348,-0.004099227953702211
1.729491897472727e+18,0.020939944311976433,0.00536941085010767,-0.0031888203229755163
1.7294918974787272e+18,0.023512862622737885,0.010373001918196678,-0.0025221589021384716
1.7294918974847273e+18,0.024189574643969536,0.0035390977282077074,-0.005715514067560434
1.7294918974877274e+18,0.02287241443991661,0.007731629069894552,-0.0048687877133488655
1.7294918974937275e+18,0.026751721277832985,0.00523367477580905,-0.0033550504595041275
1.7294918974997276e+18,0.027617208659648895,0.003096472704783082,-0.004838216584175825
1.7294918975057277e+18,0.02796437218785286,0.003576486138626933,-0.001539510441944003
1.7294918975117279e+18,0.02307654544711113,0.0021841104608029127,-0.0036396519280970097
1.729491897517728e+18,0.022740526124835014,0.0036065056920051575,-0.004511763341724873
1.729491897520728e+18,0.021356085315346718,0.004290697164833546,-0.004923688247799873
1.7294918975267282e+18,0.02095409668982029,0.0034707309678196907,-0.003176673548296094
1.7294918975327283e+18,0.0189339779317379,0.006739910691976547,-0.004308955743908882
1.7294918975387284e+18,0.019610688090324402,0.01042668055742979,-0.0011762649519369006
1.7294918975417285e+18,0.020960386842489243,0.009561034850776196,-0.0025158904027193785
1.7294918975507287e+18,0.024609025567770004,0.004130711313337088,-0.003691458608955145
1.7294918975537288e+18,0.026234211400151253,0.008593028411269188,-0.0017450074665248394
1.729491897559729e+18,0.027224931865930557,0.006498864386230707,-0.003761687781661749
1.729491897565729e+18,0.02872862108051777,0.00667170062661171,-0.0016554305329918861
1.7294918975717292e+18,0.028147529810667038,0.0027541369199752808,-0.0016812938265502453
1.7294918975777293e+18,0.024487242102622986,0.007246986497193575,-0.002454474801197648
1.7294918975807293e+18,0.028249040246009827,0.004386119544506073,-0.004546271171420813
1.7294918975867295e+18,0.022687342017889023,0.004635055549442768,-0.0024279893841594458
1.7294918975927296e+18,0.021410182118415833,7.150787860155106e-05,-0.0026055541820824146
1.7294918975987297e+18,0.02276688441634178,0.005822561215609312,-0.0007597450166940689
1.7294918976017298e+18,0.02107885479927063,0.0035330120008438826,-0.0027153370901942253
1.72949189760773e+18,0.02318471111357212,0.008717156015336514,-0.0014338287292048335
1.72949189761373e+18,0.026843629777431488,0.006018712650984526,-0.002797855529934168
1.7294918976197302e+18,0.02735750563442707,0.009449547156691551,-0.0024525269400328398
1.7294918976257303e+18,0.028051352128386497,0.006657506339251995,-0.004512203857302666
1.7294918976317304e+18,0.030536938458681107,0.004401343408972025,-0.0017012667376548052
1.7294918976347305e+18,0.028398431837558746,0.007530307397246361,-0.0009369817562401295
1.7294918976407306e+18,0.030269933864474297,0.005791360512375832,-0.0035579511895775795
1.7294918976467308e+18,0.028591608628630638,0.003521445207297802,-0.004673220682889223
1.729491897652731e+18,0.026047823950648308,0.005648748017847538,-0.0033674691803753376
1.729491897658731e+18,0.024384386837482452,0.004408239386975765,-0.002499130554497242
1.729491897661731e+18,0.022781096398830414,0.0013913428410887718,-0.00257113017141819
1.7294918976677312e+18,0.02338612638413906,0.0048848167061805725,-0.004393311217427254
1.7294918976737313e+18,0.018753929063677788,0.00596782099455595,-0.001735167345032096
1.7294918976797315e+18,0.022357212379574776,0.007590129505842924,-0.004179459530860186
1.7294918976857316e+18,0.026718761771917343,0.007343749050050974,-0.003446162911131978
1.7294918976887316e+18,0.022150129079818726,0.00638238899409771,-0.006324160378426313
1.7294918976947318e+18,0.025175467133522034,0.004875734448432922,-0.005596162751317024
1.729491897700732e+18,0.028510717675089836,0.0025422379840165377,-0.00037274439819157124
