timestamp,gyro_x,gyro_y,gyro_z
1.7294233155702372e+18,7.176023063948378e-05,0.0008585271425545216,-1.2293927284190431e-05
1.7294233155762373e+18,-0.0032432267908006907,0.0025596213527023792,0.0026210518553853035
1.7294233155822374e+18,0.001826547086238861,-0.00013027797103859484,-0.00023637055710423738
1.7294233155912376e+18,0.0025301198475062847,-0.0010006469674408436,-0.0020533783826977015
1.7294233155972378e+18,0.0006026045302860439,-0.002435509581118822,-0.00040583452209830284
1.729423315603238e+18,-0.0023891509044915438,-0.0014854806941002607,0.0015009910566732287
1.729423315609238e+18,0.00047702976735308766,0.0006991475820541382,-0.0015882148873060942
1.729423315612238e+18,0.002080606296658516,-0.0002372312155785039,0.0018519662553444505
1.7294233156182382e+18,-0.0009005384054034948,-0.0009262775420211256,0.0027543825563043356
1.7294233156242383e+18,0.0014140181010589004,-0.000231237689149566,-0.0017522856360301375
1.7294233156302385e+18,0.0007487383554689586,-0.0014206126797944307,0.0010682378197088838
1.7294233156362386e+18,-0.0006116469157859683,0.00044882018119096756,-0.001871929387561977
1.7294233156392387e+18,0.0038375603035092354,-1.493926811235724e-05,0.0002633287513162941
1.7294233156452388e+18,-0.001857067341916263,0.0008248330559581518,-0.0003753815544769168
1.729423315651239e+18,-0.00031228180159814656,-0.002455838955938816,-2.666511500137858e-05
1.729423315657239e+18,0.0009189687552861869,0.0008307772222906351,-0.0025839395821094513
1.729423315660239e+18,0.0007425499497912824,0.001369933132082224,8.88517388375476e-05
1.7294233156662392e+18,-0.0003666225529741496,-0.0011603550519794226,-0.002321801148355007
1.7294233156722394e+18,-0.0022052661515772343,-0.003074323758482933,-0.0020322727505117655
1.7294233156752394e+18,0.0019284274894744158,0.00034389656502753496,-0.0024701582733541727
1.7294233156812396e+18,-4.164855636190623e-05,-0.0011828216956928372,-0.0001422180503141135
1.7294233156872397e+18,0.0016288335900753736,0.0018142854096367955,-0.0027108993381261826
1.7294233156932398e+18,0.00018188334070146084,-0.000831813202239573,-8.774965681368485e-05
1.72942331569924e+18,0.0010223087156191468,-0.0007132873288355768,-0.00013180790119804442
1.72942331570524e+18,0.0020554333459585905,-0.000907387409824878,-0.004483658354729414
1.7294233157112402e+18,0.0006627770490013063,-0.0014096787199378014,-0.0017345205415040255
1.7294233157142403e+18,-2.4320543161593378e-05,-0.0007360490853898227,0.0012727755820378661
1.7294233157202404e+18,-0.00034819130087271333,-5.723955837311223e-05,0.0010289098136126995
1.7294233157262405e+18,0.002367344917729497,-0.0008743435028009117,-0.0005505220615305007
1.7294233157322406e+18,-0.0013905724044889212,0.0037716589868068695,-0.00033809160231612623
1.7294233157382408e+18,-0.0012201496865600348,-0.002078310353681445,-0.0016000350005924702
1.7294233157412408e+18,-0.0006048072245903313,0.000586668320465833,-0.0029414137825369835
1.729423315747241e+18,0.000474944623420015,-0.0020381060894578695,-0.002873337361961603
1.729423315753241e+18,-0.0016860240139067173,-0.0005625708727166057,0.0018995834980159998
1.7294233157592412e+18,0.0004454423615243286,0.0005527753964997828,0.0008734129369258881
1.7294233157652413e+18,-0.0003092581464443356,0.0015525385970249772,-0.0005960296839475632
1.7294233157712415e+18,-0.0007679201662540436,-0.0020499660167843103,-0.0017212043749168515
1.7294233157772416e+18,-0.0003951135149691254,0.00032812333665788174,0.0004970403388142586
1.7294233157832417e+18,0.00040461873868480325,-0.0021435583475977182,0.000674298673402518
1.7294233157862418e+18,0.004778440110385418,-0.0006792211206629872,-0.0024125571362674236
1.729423315792242e+18,0.001873929868452251,-0.0021970414090901613,-0.00033361109672114253
1.729423315798242e+18,-0.0006762361736036837,0.0007506411639042199,0.0009526431676931679
1.7294233158042422e+18,0.0008177168783731759,0.0010388542432338,2.8793749606847996e-06
1.7294233158102423e+18,-0.001199411111883819,0.0044538285583257675,-0.0005596140981651843
1.7294233158162424e+18,0.0011195515980944037,0.00019937513570766896,-0.002695078030228615
1.7294233158222426e+18,-0.003238279139623046,0.001699749962426722,0.0006941314204595983
1.7294233158252426e+18,-0.0004733020323328674,-0.003899544244632125,0.0006949994130991399
1.7294233158312428e+18,0.0005365618853829801,-0.0008110192138701677,0.001090889680199325
1.729423315837243e+18,0.00011013490438926965,-0.0008616478298790753,-0.0010600137757137418
1.729423315843243e+18,-0.0007058815681375563,-0.0012034634128212929,0.0010149632580578327
1.729423315846243e+18,0.00169193628244102,0.0008154639508575201,0.00030374451307579875
1.7294233158522432e+18,-0.0012422194704413414,-0.0005385268596000969,-0.0025558476336300373
1.7294233158582433e+18,0.0007365052588284016,0.0006362134008668363,0.0007303386810235679
1.7294233158642435e+18,0.0015557302394881845,-0.001354397856630385,0.0006848733173683286
1.7294233158672435e+18,0.0003114997816737741,-0.0018315970664843917,0.0017422310775145888
1.7294233158732436e+18,0.002788696438074112,0.0032343945931643248,-0.0006179282208904624
1.7294233158792438e+18,-0.0008263979107141495,0.001165960798971355,0.001082969713024795
1.729423315885244e+18,0.001735147088766098,0.00038263341411948204,0.0033826660364866257
1.729423315888244e+18,0.0014207989443093538,-0.0012816039379686117,-0.0008496707887388766
1.729423315894244e+18,-0.002630203031003475,0.0009101179311983287,0.0003620722854975611
1.7294233159002442e+18,-0.00046850650687702,-0.0017779194749891758,0.0001707131596049294
1.7294233159032443e+18,-0.0011201489251106977,0.0015782781410962343,-0.0010564803378656507
1.7294233159092444e+18,-0.0007289659697562456,-0.0014048500452190638,-0.001237758668139577
1.7294233159152445e+18,-4.8824203986441717e-05,-0.0026192551013082266,-0.0008994548115879297
1.7294233159212447e+18,-0.001044194563291967,-0.0012778318487107754,-0.0005211092648096383
1.7294233159272448e+18,0.00539129413664341,0.00206679361872375,-0.0009827828034758568
1.729423315933245e+18,-0.0016892354469746351,0.0006578081520274282,0.003346935147419572
1.729423315936245e+18,0.002723323879763484,0.0014110991032794118,-0.0005037789815105498
1.729423315942245e+18,0.0006040768348611891,0.00038655527168884873,0.0007425279472954571
1.7294233159482452e+18,0.00033128284849226475,0.001994270598515868,-6.765554280718789e-05
1.7294233159542454e+18,0.0005016499198973179,0.0004933114978484809,0.0004808648373000324
1.7294233159602455e+18,-0.003431850578635931,-0.001783826039172709,0.0013803144684061408
1.7294233159662456e+18,0.00015579347382299602,0.0020413235761225224,-0.0007077451446093619
1.7294233159722458e+18,0.00018113847181666642,-0.0026527359150350094,-0.00029414959135465324
1.729423315978246e+18,-0.003414136590436101,-0.00021241580543573946,-0.001549423555843532
1.729423315981246e+18,0.0011157209519296885,-0.0008637625142000616,0.0016868378734216094
1.729423315987246e+18,0.00032431219005957246,-0.004287616815418005,-0.0006727742147631943
1.7294233159932462e+18,-0.00025881853071041405,-0.0004926249966956675,0.00017871885211206973
1.7294233159992463e+18,-0.0009703626274131238,0.001496679149568081,0.002568639349192381
1.7294233160052465e+18,0.003586134873330593,0.0006253811880014837,-1.1678832379402593e-05
1.7294233160112466e+18,-0.0002484669676050544,-0.0017867309506982565,0.001366240787319839
1.7294233160142467e+18,-0.004183742683380842,-0.0012105547357350588,0.00042798183858394623
1.7294233160202468e+18,-0.0025310965720564127,-0.0010253587970510125,0.0009924022015184164
1.729423316026247e+18,0.002558973850682378,0.0007305996841751039,-0.0008158208220265806
1.729423316032247e+18,-0.0008576949476264417,0.0009301039972342551,5.274156137602404e-05
1.7294233160382472e+18,-0.0009498712024651468,-0.0002122120640706271,-0.001539673306979239
1.7294233160442473e+18,0.0014813487650826573,2.8837861464126036e-05,0.0011394243920221925
1.7294233160472474e+18,-0.000557713326998055,-0.0011085044825449586,-0.0008611232042312622
1.7294233160532475e+18,-0.002222164999693632,5.666875949827954e-05,0.000525943236425519
1.7294233160592476e+18,0.0010025002993643284,-0.001608140766620636,-0.003994278144091368
1.7294233160652477e+18,-0.0007820780156180263,-0.0003818378027062863,-0.0008888232405297458
1.729423316071248e+18,0.0005567395128309727,0.0012322262628003955,0.0019936016760766506
1.729423316077248e+18,-0.0025641864631325006,-0.00015647022519260645,-0.0009290431626141071
1.729423316083248e+18,0.0016989288851618767,0.0009285358828492463,0.001789673580788076
1.7294233160862482e+18,-0.0002484344586264342,0.002158458111807704,-0.0004467238613869995
1.7294233160922483e+18,-0.0015721067320555449,0.002153162145987153,-0.0008410721202380955
1.7294233160982484e+18,-0.0007861933554522693,-0.0009892405942082405,0.0009077308932319283
1.7294233161042486e+18,0.0007691834471188486,0.0011877348879352212,0.001708122086711228
1.7294233161102487e+18,0.0007407395169138908,0.001173954806290567,0.0009139539324678481
1.7294233161162488e+18,0.0012673094170168042,-0.0001300771691603586,-0.003780382452532649
1.729423316122249e+18,-0.0023563546128571033,0.001627152319997549,0.0019141605589538813
1.729423316125249e+18,-0.00030071550281718373,-0.0008629263611510396,0.00034536252496764064
1.7294233161312492e+18,0.0015475924592465162,-0.002046169014647603,-0.000464705954072997
1.7294233161372493e+18,0.000814636645372957,-0.0024964045733213425,0.0027861008420586586
1.7294233161432494e+18,-0.00035866230609826744,-0.003915049135684967,0.002594946650788188
1.7294233161462495e+18,-0.0010967692360281944,-0.0032629601191729307,-0.001113862032070756
1.7294233161522496e+18,0.001677058171480894,-0.00016163906548172235,-0.0032555635552853346
1.7294233161582497e+18,-0.0002576858678366989,5.826946289744228e-05,0.003633105428889394
1.7294233161642499e+18,0.00018359304522164166,-0.0010738824494183064,0.00014471721078734845
1.72942331617025e+18,0.003496642457321286,-0.002094283467158675,0.0004789341473951936
1.72942331617325e+18,0.0016843830235302448,0.000320243212627247,-0.00088795943884179
1.7294233161792502e+18,-0.03315205127000809,-0.001873343251645565,0.0014787677209824324
1.7294233161852503e+18,-0.08201835304498672,-0.009938263334333897,0.0017683313926681876
1.7294233161912504e+18,-0.12685005366802216,-0.017654772847890854,0.001803879626095295
1.7294233161972506e+18,-0.16777139902114868,-0.023557281121611595,-0.0005210881936363876
1.7294233162002506e+18,-0.1884274184703827,-0.02501094341278076,-0.0010832922998815775
1.7294233162062508e+18,-0.21381594240665436,-0.031611453741788864,-0.0010905031813308597
1.729423316212251e+18,-0.21819712221622467,-0.03457658737897873,-0.0004163614066783339
1.729423316218251e+18,-0.20895162224769592,-0.028561564162373543,0.0003245572152081877
1.7294233162242511e+18,-0.18583615124225616,-0.026980260387063026,-0.0005777700571343303
1.7294233162302513e+18,-0.16339634358882904,-0.025618815794587135,-6.9903522671666e-05
1.7294233162332513e+18,-0.15039126574993134,-0.027736803516745567,-0.0016992171294987202
1.7294233162392515e+18,-0.13471609354019165,-0.024718403816223145,0.0009404341108165681
1.7294233162452516e+18,-0.13086600601673126,-0.0261449683457613,-0.0003358279063832015
1.7294233162512517e+18,-0.136338472366333,-0.027483336627483368,0.0007075557368807495
1.7294233162572518e+18,-0.15076275169849396,-0.03161315247416496,0.0012954702833667397
1.729423316263252e+18,-0.1699559986591339,-0.03146040812134743,-0.0006369983311742544
1.729423316266252e+18,-0.1740606725215912,-0.026275714859366417,5.731595592806116e-05
1.7294233162722522e+18,-0.18778640031814575,-0.027218429371714592,0.001002633711323142
1.7294233162782523e+18,-0.1874171644449234,-0.02749934047460556,0.000509370700456202
1.7294233162842524e+18,-0.1754467487335205,-0.026943732053041458,0.0028579665813595057
1.7294233162902525e+18,-0.15344202518463135,-0.025496603921055794,-0.0009049880318343639
1.7294233162932526e+18,-0.14658023416996002,-0.02171885222196579,-0.0017513373168185353
1.7294233162992527e+18,-0.12067870795726776,-0.02164679393172264,0.0006973672425374389
1.7294233163052529e+18,-0.09624543786048889,-0.022569099441170692,0.0011256958823651075
1.729423316311253e+18,-0.08275260776281357,-0.019025834277272224,0.0006183763034641743
1.729423316317253e+18,-0.07513091713190079,-0.02041579969227314,-0.0007072702283039689
1.7294233163202532e+18,-0.07279397547245026,-0.02031649276614189,0.002918751910328865
1.7294233163262533e+18,-0.0753442570567131,-0.014987311325967312,0.0039015267975628376
1.7294233163322534e+18,-0.079975925385952,-0.018993623554706573,-0.002423570491373539
1.7294233163382536e+18,-0.08638366311788559,-0.014840957708656788,-0.0015119218733161688
1.7294233163412536e+18,-0.08316756039857864,-0.01331796869635582,0.004223981872200966
1.7294233163472538e+18,-0.08388294279575348,-0.01327846571803093,0.001196554396301508
1.729423316353254e+18,-0.07752625644207001,-0.009237939491868019,0.0006735575152561069
1.729423316359254e+18,-0.059730060398578644,-0.006776108406484127,-0.0004116229829378426
1.7294233163652541e+18,-0.04180928319692612,-0.006862751208245754,0.0008475655922666192
1.7294233163682542e+18,-0.03125504404306412,-0.006158928852528334,-0.0023156781680881977
1.7294233163742543e+18,-0.015982696786522865,-0.0054313200525939465,0.0005047886515967548
1.7294233163802545e+18,-0.0035322154872119427,-0.0028816447593271732,-0.00022532397997565567
1.7294233163862546e+18,0.004911304917186499,-0.00279436563141644,0.0010748642962425947
1.7294233163922547e+18,0.0068457662127912045,0.001216825214214623,0.002211702289059758
1.7294233163982548e+18,0.004050881136208773,0.0004862162168137729,3.7837919080629945e-05
1.729423316404255e+18,0.0025203085970133543,-0.0016402846667915583,0.0012692734599113464
1.729423316410255e+18,-0.000383671373128891,0.002524212235584855,-0.0028380833100527525
1.7294233164162552e+18,0.004463968798518181,0.0038627737667411566,-0.0020628925412893295
1.7294233164222554e+18,0.008474399335682392,0.007085345685482025,-0.0004039134946651757
1.7294233164282555e+18,0.01651337742805481,0.006118712015450001,0.001955880317837
1.7294233164342556e+18,0.027636639773845673,0.010598464868962765,-0.0005864762351848185
1.7294233164402557e+18,0.03815869987010956,0.009981170296669006,0.001043856842443347
1.729423316449256e+18,0.05141401290893555,0.009461401961743832,0.0012647660914808512
1.729423316455256e+18,0.04968586564064026,0.008440769277513027,-0.00014868596917949617
1.7294233164612562e+18,0.05327507108449936,0.007005307357758284,0.0007067112601362169
1.7294233164672563e+18,0.053232837468385696,0.006707604508846998,0.0013401296455413103
1.7294233164732564e+18,0.050944533199071884,0.008480588905513287,0.0011422033421695232
1.7294233164792566e+18,0.05146998539566994,0.007859356701374054,0.0008050408214330673
1.7294233164822566e+18,0.049898140132427216,0.01133856363594532,0.0014618303393945098
1.7294233164882568e+18,0.05159982666373253,0.013734502717852592,-0.00039006720180623233
1.729423316494257e+18,0.05923352390527725,0.009637205861508846,0.000686126877553761
1.729423316500257e+18,0.05580299347639084,0.009954468347132206,0.0016074038576334715
1.7294233165062572e+18,0.06453310698270798,0.013879247009754181,-0.0012334315106272697
1.7294233165122573e+18,0.06903643906116486,0.012811471708118916,-0.0021431809291243553
1.7294233165182574e+18,0.07213829457759857,0.011664770543575287,-0.0020486554130911827
1.7294233165242575e+18,0.07267896085977554,0.011114471592009068,-7.310888031497598e-05
1.7294233165332577e+18,0.07533526420593262,0.011147436685860157,0.0016410518437623978
1.7294233165392579e+18,0.07118350267410278,0.013154573738574982,0.003822607221081853
1.729423316545258e+18,0.06823070347309113,0.012061377987265587,-0.0016910885460674763
1.729423316551258e+18,0.06638973206281662,0.010218587704002857,0.001054785680025816
1.7294233165572582e+18,0.06608718633651733,0.01606842130422592,0.0016185436397790909
1.7294233165632584e+18,0.06689777970314026,0.013984148390591145,-0.0013884622603654861
1.7294233165692585e+18,0.07119575142860413,0.014801125042140484,0.0026517128571867943
1.7294233165752586e+18,0.06958871334791183,0.014478451572358608,-0.0013182007241994143
1.7294233165812588e+18,0.07181958109140396,0.016819804906845093,0.0007776446873322129
1.729423316587259e+18,0.07463666796684265,0.013650338165462017,0.0003443632449489087
1.729423316593259e+18,0.0765625536441803,0.016584575176239014,-0.0006600065971724689
1.729423316596259e+18,0.07274601608514786,0.013571077957749367,0.002689214888960123
1.7294233166022592e+18,0.07174985110759735,0.015277119353413582,0.0030165789648890495
1.7294233166082593e+18,0.06768851727247238,0.015193658880889416,0.001407325966283679
1.7294233166142595e+18,0.06731647253036499,0.018311111256480217,0.0006858398555777967
1.7294233166172595e+18,0.06574562937021255,0.014763902872800827,-0.0015009313356131315
1.7294233166232596e+18,0.06556766480207443,0.016060644760727882,0.0015443945303559303
1.7294233166292598e+18,0.06469607353210449,0.014200063422322273,-0.0012684075627475977
1.72942331663526e+18,0.06441888958215714,0.014762409031391144,-0.001435510697774589
1.72942331663826e+18,0.06192254647612572,0.008514652028679848,0.0036118568386882544
1.72942331664426e+18,0.06419026106595993,0.012211070396006107,-0.0008380626677535474
1.7294233166502602e+18,0.06179147586226463,0.009877304546535015,-0.00017283734632655978
1.7294233166532603e+18,0.062376074492931366,0.010158240795135498,0.0015714296605437994
1.7294233166592604e+18,0.060044366866350174,0.009328423999249935,0.0020080730319023132
1.7294233166652605e+18,0.06365472823381424,0.012828875333070755,0.0017157334368675947
1.7294233166712607e+18,0.05816388130187988,0.013638943433761597,-0.0010116009507328272
1.7294233166742607e+18,0.05736439302563667,0.010583840310573578,0.0018014649394899607
1.7294233166802609e+18,0.05816889554262161,0.013725955039262772,0.0012752206530421972
1.729423316686261e+18,0.055192794650793076,0.013880322687327862,0.001265518250875175
1.729423316692261e+18,0.057895444333553314,0.015457012690603733,0.0019577525090426207
1.7294233166982612e+18,0.05875435099005699,0.013444147072732449,0.00015386112499982119
1.7294233167012613e+18,0.05930729955434799,0.01301224622875452,-0.00017235480481758714
1.7294233167072614e+18,0.056626129895448685,0.012153733521699905,0.0012526263017207384
1.7294233167132616e+18,0.05843636021018028,0.010463777929544449,0.001878049923107028
1.7294233167192617e+18,0.055001720786094666,0.011665682308375835,0.0033721572253853083
1.7294233167252618e+18,0.05301903188228607,0.007688172161579132,4.873311263509095e-05
1.729423316728262e+18,0.05375346541404724,0.012954081408679485,-0.0015886330511420965
1.729423316734262e+18,0.051975272595882416,0.00949911493808031,-0.0002991996589116752
1.7294233167402621e+18,0.051674116402864456,0.008141816593706608,-0.0005214780103415251
1.7294233167462623e+18,0.05058610066771507,0.010003234259784222,0.0026354328729212284
1.7294233167492623e+18,0.051017072051763535,0.01156355906277895,-0.0003043136093765497
1.7294233167552625e+18,0.04878157749772072,0.006936028599739075,0.0008837204659357667
1.7294233167612626e+18,0.048941418528556824,0.008563696406781673,0.0012748970184475183
1.7294233167672627e+18,0.05061894282698631,0.008127888664603233,-0.0001313935499638319
1.7294233167702628e+18,0.053428348153829575,0.009820431470870972,-0.0013711549108847976
1.729423316776263e+18,0.048243362456560135,0.010788027197122574,0.0008620675071142614
1.729423316782263e+18,0.047595348209142685,0.011338822543621063,0.0008217899594455957
1.7294233167882632e+18,0.04863715171813965,0.00783125776797533,-0.00022191062453202903
1.7294233167912632e+18,0.04541829600930214,0.008945107460021973,0.0033009848557412624
1.7294233167972634e+18,0.04525071755051613,0.006461861543357372,0.0017179186688736081
1.7294233168032635e+18,0.043709419667720795,0.00793369673192501,0.003501856466755271
1.7294233168092636e+18,0.038598284125328064,0.0063585578463971615,0.0011745132505893707
1.7294233168122637e+18,0.044224608689546585,0.006801224313676357,0.0012156773591414094
1.7294233168182638e+18,0.04293503239750862,0.0070431772619485855,0.002333481563255191
1.729423316824264e+18,0.04490393027663231,0.008801962248980999,0.002207849407568574
1.729423316830264e+18,0.04137242212891579,0.007743928115814924,0.003235073294490576
1.729423316833264e+18,0.043052032589912415,0.0039984132163226604,-0.0023646499030292034
1.7294233168392643e+18,0.043153297156095505,0.006892298348248005,-0.0005890808533877134
1.7294233168452644e+18,0.04050545394420624,0.006161421537399292,0.002669446635991335
1.7294233168482644e+18,0.039856307208538055,0.006345769856125116,-0.0006819216650910676
1.7294233168542646e+18,0.037680406123399734,0.004049983806908131,-0.001113097881898284
1.7294233168602647e+18,0.03744533658027649,0.004710220266133547,0.0014527093153446913
1.7294233168662648e+18,0.03311681002378464,0.005145239643752575,0.0013700288254767656
1.729423316872265e+18,0.03259201720356941,0.0019130574073642492,-0.001992839388549328
1.729423316875265e+18,0.03131347522139549,0.005537942051887512,0.0018534223781898618
1.7294233168812652e+18,0.035133954137563705,0.00832427479326725,0.0037114364095032215
1.7294233168872653e+18,0.03484467789530754,0.007282402366399765,-0.0013797094579786062
1.7294233168932654e+18,0.034233272075653076,0.007557205855846405,0.003309753257781267
1.7294233168962655e+18,0.03517233207821846,0.0034216749481856823,-0.0009279982186853886
1.7294233169022656e+18,0.03444495424628258,0.00434724660590291,0.001292665023356676
1.7294233169082657e+18,0.03375083953142166,0.002823258750140667,0.0007819465827196836
1.7294233169142659e+18,0.034322649240493774,-0.0034219592344015837,0.002003277884796262
1.729423316920266e+18,0.030440477654337883,0.0020215027034282684,-8.379603968933225e-05
1.729423316923266e+18,0.03270407393574715,0.002137884497642517,0.0021050861105322838
1.7294233169292662e+18,0.026420682668685913,0.003630678169429302,0.0012959358282387257
1.7294233169352663e+18,0.02981492318212986,0.002213594736531377,0.0010351764503866434
1.7294233169382664e+18,0.03024750016629696,0.006334673147648573,-0.00035334343556314707
1.7294233169442665e+18,0.034530095756053925,0.00309673766605556,0.0013884010259062052
1.7294233169502666e+18,0.031411513686180115,0.004693274851888418,-0.0019228920573368669
1.7294233169562668e+18,0.031121892854571342,0.00323128467425704,-0.0006505064084194601
1.7294233169592668e+18,0.03255602717399597,0.006780128926038742,-0.0009134921128861606
1.729423316965267e+18,0.027970805764198303,0.0023052534088492393,-8.519366383552551e-05
1.729423316971267e+18,0.03159681335091591,-0.0014478648081421852,0.0027650624979287386
1.7294233169772672e+18,0.029701830819249153,0.00028878997545689344,-0.0014845249243080616
1.7294233169802673e+18,0.0269550122320652,0.004414982162415981,-0.0009482750319875777
1.7294233169862674e+18,0.026476804167032242,0.0021685604006052017,-0.00013346329797059298
1.7294233169922675e+18,0.02646932750940323,0.0020669212099164724,-0.003194078803062439
1.7294233169982676e+18,0.02372613549232483,-0.0012167615350335836,-0.00034991587745025754
1.7294233170012677e+18,0.02314852923154831,0.00014904496492817998,0.0008302693022415042
1.7294233170072678e+18,0.020291902124881744,0.003266005078330636,0.0014479677192866802
1.729423317013268e+18,0.02186460979282856,-7.894402369856834e-05,0.003699784865602851
1.729423317019268e+18,0.02110852673649788,0.0010002796771004796,-0.001565495040267706
1.7294233170222682e+18,0.02192138507962227,0.0009984052740037441,-0.00011629151413217187
1.7294233170282683e+18,0.023448918014764786,-0.0005087561439722776,0.0010125417029485106
1.7294233170342684e+18,0.02510387822985649,0.0017556832171976566,-0.0018628481775522232
1.7294233170372685e+18,0.023083630949258804,0.0017258662264794111,0.0014930602628737688
1.7294233170432686e+18,0.02849554270505905,0.0030761633533984423,-9.561202023178339e-05
1.7294233170492687e+18,0.022279201075434685,0.0037753372453153133,0.0002774249587673694
1.7294233170552689e+18,0.023075442761182785,0.0010287530021741986,3.4010387025773525e-05
1.729423317061269e+18,0.019737061113119125,0.003621078561991453,0.0010454218136146665
1.729423317064269e+18,0.020942462608218193,0.0022237086668610573,0.0008905997965484858
1.7294233170702692e+18,0.02175740897655487,0.0016695429803803563,0.0002553114027250558
1.7294233170762693e+18,0.022045668214559555,0.002153158187866211,0.0021256674081087112
1.7294233170822694e+18,0.019858255982398987,0.00014775351155549288,0.0011069405591115355
1.7294233170852695e+18,0.02283567562699318,0.0008619948057457805,0.0005059366812929511
1.7294233170912696e+18,0.023023510351777077,0.0023950571194291115,0.002374000148847699
1.7294233170972698e+18,0.017072271555662155,0.001867600018158555,0.001694222679361701
1.72942331710327e+18,0.022096993401646614,0.001435615005902946,0.0008165134931914508
1.72942331710627e+18,0.019046330824494362,0.0036294572055339813,-0.0006627266411669552
1.72942331711227e+18,0.018739143386483192,0.0026631506625562906,0.000191938946954906
1.7294233171182702e+18,0.020700884982943535,0.0023198642302304506,-0.002367698820307851
1.7294233171242703e+18,0.022399429231882095,0.0035928976722061634,0.0009380948613397777
1.7294233171302705e+18,0.022859344258904457,0.005575722549110651,0.0010951943695545197
1.7294233171332705e+18,0.02220536582171917,0.00576449278742075,0.002252101432532072
1.7294233171392707e+18,0.021122941747307777,0.003947658929973841,0.0003184189845342189
1.7294233171452708e+18,0.023115551099181175,0.007031559944152832,0.0005683167255483568
1.729423317151271e+18,0.018604855984449387,0.005312841851264238,0.0006923482869751751
1.729423317154271e+18,0.018782388418912888,0.008584168739616871,-0.0019639013335108757
1.7294233171632712e+18,0.017409684136509895,0.00276665179990232,0.00044812183477915823
1.7294233171662712e+18,0.01840723305940628,0.005918070208281279,0.0010186502477154136
1.7294233171722714e+18,0.017631180584430695,0.008356109261512756,0.002860675100237131
1.7294233171782715e+18,0.017508385702967644,0.004601930268108845,0.00012273999163880944
1.7294233171842716e+18,0.016636215150356293,0.005582140758633614,-0.0008515951340086758
1.7294233171902717e+18,0.017087291926145554,0.006527385208755732,0.0009647079277783632
1.7294233171962719e+18,0.016685817390680313,0.008175941184163094,0.0016299847047775984
1.729423317202272e+18,0.017014116048812866,0.0021923372987657785,0.0033280716743320227
1.729423317205272e+18,0.021160226315259933,0.004499540198594332,-0.0005233660922385752
1.7294233172112722e+18,0.016217675060033798,0.0025366703048348427,-0.0003180712228640914
1.7294233172172723e+18,0.012733490206301212,0.004243912175297737,0.002119900658726692
1.7294233172232724e+18,0.009951659478247166,0.0029752610716968775,0.00032422825461253524
1.7294233172292726e+18,0.013042062520980835,0.0014900006353855133,-0.00027412775671109557
1.7294233172322726e+18,0.010607557371258736,-0.0007212797645479441,-0.00047767336945980787
1.7294233172382728e+18,0.010362325236201286,0.0010818173177540302,0.00155256362631917
1.729423317244273e+18,0.010062681511044502,0.0007767118513584137,0.0029386598616838455
1.729423317250273e+18,0.010752891190350056,0.004905889742076397,0.000850230862852186
1.7294233172562732e+18,0.013495230115950108,0.0024380937684327364,0.0016440709587186575
1.7294233172622733e+18,0.011934046633541584,0.005350083578377962,0.0012471964582800865
1.7294233172652733e+18,0.01343573722988367,0.00637791445478797,-0.0038244619499891996
1.7294233172712735e+18,0.012943010777235031,0.0017993578221648932,0.0015018386766314507
1.7294233172772736e+18,0.010932710953056812,0.003087086835876107,-0.0007023363723419607
1.7294233172832737e+18,0.012123054824769497,0.0012144859647378325,-7.671641651540995e-05
1.7294233172892739e+18,0.007522074040025473,0.0007814456475898623,-0.00024637457681819797
1.729423317292274e+18,0.008157302625477314,-0.0022917736787348986,-0.0003851546789519489
1.729423317298274e+18,0.0047868951223790646,0.0009742502006702125,0.000441179407062009
1.7294233173042742e+18,0.0074941301718354225,0.0007509210845455527,0.0033930486533790827
1.7294233173102743e+18,0.008243990130722523,0.003268611151725054,0.003635781817138195
1.7294233173162744e+18,0.008371781557798386,0.005749977193772793,0.0006335587240755558
1.7294233173222746e+18,0.008886595256626606,0.0019417265430092812,0.00026218045968562365
1.7294233173282747e+18,0.01342774834483862,0.002865068381652236,0.0009438371052965522
1.7294233173342748e+18,0.014928609132766724,0.004065892193466425,-0.001019675750285387
1.729423317337275e+18,0.008738409727811813,0.005626866593956947,-0.00041519617661833763
1.729423317343275e+18,0.01230906043201685,0.0017670613015070558,0.0016561762895435095
1.7294233173492751e+18,0.01130189560353756,-0.0009943725308403373,0.0020541190169751644
1.7294233173552753e+18,0.009023340418934822,-0.0016939430497586727,-0.00020554917864501476
1.7294233173612754e+18,0.006490939296782017,0.00017497548833489418,0.0021339398808777332
1.7294233173672755e+18,0.00854160264134407,0.0015646042302250862,-0.00011494453065097332
1.7294233173702756e+18,0.006337890401482582,0.0002197565045207739,0.001180724473670125
1.7294233173762757e+18,0.011079676449298859,-0.002308994997292757,-0.0009488797513768077
1.7294233173822758e+18,0.0072210244834423065,-0.0003391894861124456,-0.00023074931232258677
1.729423317388276e+18,0.01159912720322609,0.0016641165129840374,0.0019357171840965748
1.729423317394276e+18,0.01170087419450283,0.00272576417773962,0.0018601282499730587
1.7294233174002762e+18,0.01071060448884964,-0.0007966739940457046,0.002694618422538042
1.7294233174062764e+18,0.010694366879761219,-0.0009921409655362368,0.0014235405251383781
1.7294233174122765e+18,0.01032184436917305,-0.001366197131574154,0.002036196179687977
1.7294233174152765e+18,0.006910893600434065,-0.002229154808446765,0.00048717163736000657
1.7294233174212767e+18,0.009426180273294449,-0.004464299418032169,0.0005588412750512362
1.7294233174272768e+18,0.007212502881884575,-0.004207131452858448,-0.00013664370635524392
1.729423317433277e+18,0.007575465366244316,-0.0010617505759000778,0.002302346983924508
1.729423317439277e+18,0.004879708867520094,-0.0030092603992670774,0.000637312070466578
1.7294233174452772e+18,0.009602388367056847,0.001363354385830462,0.0012339968234300613
1.7294233174512773e+18,0.007576075382530689,-0.00022723112488165498,0.0021190126426517963
1.7294233174572774e+18,0.009635708294808865,0.002848117146641016,0.0035930757876485586
1.7294233174632776e+18,0.010478813201189041,0.00033641542540863156,0.00011791510041803122
1.7294233174692777e+18,0.012515292502939701,0.0029991506598889828,-0.0012290613958612084
1.7294233174722778e+18,0.007963077165186405,-0.0010886515956372023,-0.002574886428192258
1.729423317478278e+18,0.01074094045907259,0.00020218704594299197,3.369466867297888e-05
1.729423317484278e+18,0.010273837484419346,0.00041532068280503154,0.001289081759750843
1.7294233174902781e+18,0.0058062332682311535,0.0010119047947227955,0.0005585851613432169
1.7294233174962783e+18,0.00578328175470233,-0.0031041509937494993,-0.0037131421267986298
1.7294233175022784e+18,0.006351242773234844,-0.0006591241108253598,0.0009252694435417652
1.7294233175082785e+18,0.005423406139016151,0.0005160515429452062,-0.0004996515926904976
1.7294233175142787e+18,0.00913948193192482,0.0010949673596769571,0.0002166921622119844
1.7294233175202788e+18,0.00933929905295372,0.004764720797538757,-0.0015411314088851213
1.729423317526279e+18,0.015342185273766518,0.0007053482113406062,0.0012619179906323552
1.729423317532279e+18,0.013381753116846085,0.0033861917909234762,0.0017146056052297354
1.7294233175382792e+18,0.010470560751855373,0.001973068341612816,0.0022990391589701176
1.7294233175412792e+18,0.011900711804628372,0.0029342975467443466,0.0003885918122250587
1.7294233175472794e+18,0.012330817990005016,0.0025527863763272762,0.000889352522790432
1.7294233175532795e+18,0.009671224281191826,0.0008653353434056044,0.00046622342779301107
1.7294233175592796e+18,0.008316272869706154,-0.0011686846846714616,0.0012321709655225277
1.7294233175652797e+18,0.006138977594673634,0.0006058430881239474,0.0005370823200792074
1.72942331757128e+18,0.003536439733579755,-0.0005089499754831195,0.0011091278865933418
1.72942331757728e+18,0.006338654085993767,0.000649824389256537,0.0006613371078856289
1.72942331758328e+18,0.007720856927335262,0.001242198282852769,0.0010829220991581678
1.7294233175892803e+18,0.007703681942075491,-0.0010290152858942747,0.0014295040164142847
1.7294233175952804e+18,0.00736435130238533,0.0008775268215686083,0.0016402078326791525
1.7294233175982804e+18,0.010214236564934254,0.002582733053714037,0.0023574349470436573
1.7294233176042806e+18,0.010376889258623123,-0.000965473591350019,0.001559174619615078
1.7294233176102807e+18,0.008912344463169575,-0.001468081260100007,-0.0013603784609586
1.7294233176162808e+18,0.006799374707043171,0.001455908641219139,0.0013060078490525484
1.729423317622281e+18,0.007391523104161024,0.002314154990017414,0.0015204180963337421
1.729423317628281e+18,0.006290720775723457,0.0018330655293539166,-0.002741156378760934
1.7294233176342812e+18,0.0028804123867303133,0.00047561113024130464,0.000170830637216568
1.7294233176402813e+18,0.007010902278125286,0.00030726840486750007,-0.001161813153885305
1.7294233176432814e+18,0.003354784334078431,0.002434668829664588,-0.000403465935960412
1.7294233176492815e+18,0.0028745033778250217,0.001210008398629725,-0.0014584939926862717
1.7294233176552817e+18,0.0022246583830565214,-0.0024781273677945137,-0.00045212008990347385
1.7294233176612818e+18,0.002973885741084814,-0.00042501557618379593,-0.001084076939150691
1.729423317667282e+18,0.004587124101817608,-0.002572615398094058,0.0031787389889359474
1.729423317673282e+18,0.005670579150319099,-0.0013351758243516088,-0.0013430735561996698
1.7294233176792822e+18,0.004411222878843546,0.0018396945670247078,-0.0005461535765789449
1.7294233176822822e+18,0.0053479368798434734,-0.00027989083901047707,0.0009993374114856124
1.7294233176882824e+18,0.00558516988530755,0.002154720015823841,-0.0012062544701620936
1.7294233176942825e+18,0.007322134915739298,0.0024893193040043116,-8.146720938384533e-05
1.7294233177002826e+18,0.0042579383589327335,0.004071632865816355,-0.0007611631299369037
1.7294233177062828e+18,0.0033076938707381487,0.004094649106264114,-0.002687593689188361
1.729423317712283e+18,0.0011251016985625029,-0.0005707439268007874,0.0013402248732745647
1.729423317718283e+18,0.0007509163115173578,-0.004038400948047638,0.00034694935311563313
1.7294233177242831e+18,0.0021293405443429947,-0.004278070293366909,-9.429367491975427e-05
1.7294233177302833e+18,0.0017844190588220954,-0.003586709266528487,0.0003392448998056352
1.7294233177362834e+18,0.004475069232285023,-0.0053778234869241714,-0.0011588609777390957
1.7294233177422835e+18,0.0023918955121189356,-0.0019928705878555775,-0.00011500448454171419
1.7294233177482836e+18,0.0016758855199441314,-0.0005101414863020182,0.00041101075476035476
1.7294233177542838e+18,0.0005400077207013965,-0.0026355430018156767,0.0016758947167545557
1.729423317760284e+18,0.0036489868070930243,0.0033784587867558002,0.0023146190214902163
1.729423317763284e+18,0.0009004097664728761,-0.00046026543714106083,0.00189643120393157
1.729423317769284e+18,-0.0009724795818328857,0.001416072016581893,0.00011967949103564024
1.7294233177752842e+18,0.0023499263916164637,-0.0021662297658622265,0.0015152946580201387
1.7294233177812844e+18,-0.0003449810901656747,0.0012273509055376053,-0.0006354640354402363
1.7294233177872845e+18,0.0012359742540866137,0.0011891208123415709,-0.0003864747122861445
1.7294233177932846e+18,0.0016115391626954079,0.0004632454365491867,0.0017346786335110664
1.7294233177992847e+18,0.0016514873132109642,-0.003088100114837289,0.004105968866497278
1.7294233178052849e+18,-0.0012178560718894005,-0.006053321063518524,0.016315622255206108
1.729423317811285e+18,0.000542858091648668,-0.0052294679917395115,0.02566106803715229
1.729423317817285e+18,0.0016426575602963567,-0.014267489314079285,0.03082978166639805
1.7294233178232852e+18,0.00010657952225301415,-0.02267494425177574,0.033735137432813644
1.7294233178292854e+18,-0.0009831913048401475,-0.027167165651917458,0.030940840020775795
1.7294233178352855e+18,0.0007244948064908385,-0.040582913905382156,0.029798485338687897
1.7294233178412856e+18,0.0009057970019057393,-0.04537506401538849,0.034302134066820145
1.7294233178472858e+18,0.00011189045471837744,-0.05018531158566475,0.029720691964030266
1.729423317853286e+18,0.0007327349158003926,-0.05404781922698021,0.030168505385518074
1.729423317859286e+18,0.0009418398840352893,-0.05469838157296181,0.03074422851204872
1.7294233178652861e+18,-0.0008473917841911316,-0.05082700401544571,0.03325311094522476
1.7294233178712863e+18,-0.0019260866101831198,-0.051265649497509,0.02749485895037651
1.7294233178742863e+18,-0.0039016357623040676,-0.05103557929396629,0.030813302844762802
1.7294233178832865e+18,0.00012435438111424446,-0.04608134180307388,0.030740514397621155
1.7294233178892867e+18,-0.003027507569640875,-0.047632262110710144,0.02606104128062725
1.7294233178952868e+18,-0.0032018055208027363,-0.050342198461294174,0.028234021738171577
1.729423317901287e+18,-0.004270064644515514,-0.04830705747008324,0.029163159430027008
1.729423317907287e+18,-0.0016569511499255896,-0.046858642250299454,0.027651898562908173
1.7294233179132872e+18,-0.00013146246783435345,-0.05226178467273712,0.027184559032320976
1.7294233179192873e+18,-0.0021760393865406513,-0.050935011357069016,0.02799210324883461
1.7294233179252874e+18,-0.0022482499480247498,-0.04798068106174469,0.024631982669234276
1.7294233179312876e+18,-0.0039468081668019295,-0.04129183664917946,0.024194881319999695
1.7294233179372877e+18,-0.0024774293415248394,-0.041593655943870544,0.02944645844399929
1.7294233179432878e+18,-0.002226486336439848,-0.03929681330919266,0.027274619787931442
1.7294233179462879e+18,-0.004387739114463329,-0.03798122704029083,0.027753815054893494
1.729423317955288e+18,-0.000202967319637537,-0.033100347965955734,0.02778630703687668
1.7294233179612882e+18,-0.000548081356100738,-0.032029300928115845,0.027412625029683113
1.7294233179672883e+18,-0.0019186800345778465,-0.02894025854766369,0.025957180187106133
1.7294233179732884e+18,-0.0046995519660413265,-0.02927091158926487,0.024200350046157837
1.7294233179792886e+18,-0.004389693960547447,-0.026829654350876808,0.026779815554618835
1.7294233179852887e+18,-0.005199355073273182,-0.02484806999564171,0.02576446160674095
1.7294233179912888e+18,-0.004602923057973385,-0.02112780697643757,0.023640716448426247
1.729423317997289e+18,-0.006429633125662804,-0.018763726577162743,0.026342984288930893
1.729423318003289e+18,-0.004862641915678978,-0.013833455741405487,0.023738333955407143
1.7294233180092892e+18,-0.004421696998178959,-0.011586884036660194,0.023427002131938934
1.7294233180152893e+18,-0.004176601301878691,-0.010131124407052994,0.02455522119998932
1.7294233180212895e+18,-0.0043006716296076775,-0.008820215240120888,0.02344677969813347
1.7294233180272896e+18,-0.001998974708840251,-0.008414956741034985,0.025097982957959175
1.7294233180332897e+18,-0.005111454986035824,-0.0059509361162781715,0.02330877259373665
1.7294233180362898e+18,-0.004815495572984219,-0.005384474061429501,0.02377176843583584
1.72942331804229e+18,-0.0075818561017513275,-0.005127199459820986,0.023504089564085007
1.72942331804829e+18,-0.009355646558105946,-0.0006015356630086899,0.026998208835721016
1.7294233180542902e+18,-0.008786967024207115,-0.0015188620891422033,0.024006254971027374
1.7294233180602903e+18,-0.010370825417339802,0.005896715447306633,0.0242146123200655
1.7294233180662904e+18,-0.009110888466238976,0.0056331162340939045,0.020011931657791138
1.7294233180722906e+18,-0.008419914171099663,0.00947079248726368,0.024618053808808327
1.7294233180782907e+18,-0.006055460311472416,0.012877138331532478,0.021993152797222137
1.7294233180842908e+18,-0.007779999636113644,0.007175830192863941,0.025022704154253006
1.729423318090291e+18,-0.007473318837583065,0.012244001030921936,0.02339927852153778
1.729423318096291e+18,-0.004953939467668533,0.012554345652461052,0.020349694415926933
1.7294233181022912e+18,-0.005713915918022394,0.012012737803161144,0.02040819451212883
1.7294233181082913e+18,-0.011980145238339901,0.01701197773218155,0.022610286250710487
1.7294233181142915e+18,-0.01126137562096119,0.01305445283651352,0.01798454485833645
1.7294233181172915e+18,-0.0075225429609417915,0.01410634070634842,0.022256700322031975
1.7294233181232916e+18,-0.01185607723891735,0.015948496758937836,0.019590949639678
1.7294233181292918e+18,-0.009987086988985538,0.012610673904418945,0.020907746627926826
1.729423318135292e+18,-0.011590997688472271,0.013141058385372162,0.02369954064488411
1.729423318141292e+18,-0.013122879900038242,0.01602117158472538,0.018537649884819984
1.7294233181472922e+18,-0.008882318623363972,0.017006248235702515,0.021442357450723648
1.7294233181532923e+18,-0.013418472371995449,0.018492545932531357,0.016662558540701866
1.7294233181592924e+18,-0.012346314266324043,0.018035396933555603,0.018756123259663582
1.7294233181652925e+18,-0.01586909033358097,0.018594946712255478,0.01877748779952526
1.7294233181712927e+18,-0.014722850173711777,0.016421731561422348,0.02014981582760811
1.7294233181772928e+18,-0.012123798951506615,0.01889517903327942,0.020882122218608856
1.729423318183293e+18,-0.013399052433669567,0.01589074730873108,0.019135024398565292
1.729423318186293e+18,-0.010259339585900307,0.018130537122488022,0.016550511121749878
1.7294233181952932e+18,-0.012201388366520405,0.01801430433988571,0.017548929899930954
1.7294233181982932e+18,-0.010417824611067772,0.020299581810832024,0.014921795576810837
1.7294233182042934e+18,-0.0066819824278354645,0.016725309193134308,0.01947566494345665
1.7294233182102935e+18,-0.0038410555571317673,0.018288254737854004,0.018886622041463852
1.7294233182162936e+18,-0.005582970101386309,0.018593674525618553,0.01824430748820305
1.7294233182222938e+18,-0.006800761446356773,0.020447084680199623,0.019982021301984787
1.729423318228294e+18,-0.005465513560920954,0.01558949425816536,0.017171207815408707
1.729423318231294e+18,-0.006995285861194134,0.017137017101049423,0.017380960285663605
1.729423318237294e+18,-0.008847846649587154,0.01799115724861622,0.015555311925709248
1.7294233182432942e+18,-0.010196205228567123,0.01794523186981678,0.017803821712732315
1.7294233182492943e+18,-0.009023950435221195,0.019307510927319527,0.01572456769645214
1.7294233182552945e+18,-0.008809257298707962,0.01772758550941944,0.0136336088180542
1.7294233182612946e+18,-0.010384547524154186,0.013743335381150246,0.01790795661509037
1.7294233182642947e+18,-0.009137787856161594,0.014476425014436245,0.013583756051957607
1.7294233182702948e+18,-0.008135773241519928,0.014652013778686523,0.015794074162840843
1.729423318276295e+18,-0.008619027212262154,0.012056645005941391,0.014181402511894703
1.729423318282295e+18,-0.00646018935367465,0.015457241795957088,0.015204444527626038
1.7294233182882952e+18,-0.006016182247549295,0.013567579910159111,0.015851423144340515
1.7294233182912952e+18,-0.007776754442602396,0.010298485867679119,0.014182327315211296
1.7294233182972954e+18,-0.007383130025118589,0.009462190791964531,0.014835459180176258
1.7294233183032955e+18,-0.0058637093752622604,0.011656224727630615,0.013005652464926243
1.7294233183092956e+18,-0.009924385696649551,0.009659640491008759,0.01452299952507019
1.7294233183122957e+18,-0.01065931934863329,0.011197168380022049,0.0159166119992733
1.7294233183182958e+18,-0.010384384542703629,0.011375653557479382,0.013058477081358433
1.729423318324296e+18,-0.012929827906191349,0.007300757337361574,0.014184175059199333
1.729423318330296e+18,-0.009735715575516224,0.011232036165893078,0.014481921680271626
1.729423318333296e+18,-0.01122243795543909,0.011098876595497131,0.010895363986492157
1.7294233183392963e+18,-0.004515212029218674,0.008868163451552391,0.010525076650083065
1.7294233183452964e+18,-0.005236398428678513,0.009599357843399048,0.01407639216631651
1.7294233183512965e+18,-0.0036728386767208576,0.009753463789820671,0.011882850900292397
1.7294233183542966e+18,-0.002276037121191621,0.01284818910062313,0.012285202741622925
1.7294233183602967e+18,-0.006643775850534439,0.007298348005861044,0.01226440817117691
1.7294233183662968e+18,-0.0037731463089585304,0.010059377178549767,0.007528034970164299
1.729423318372297e+18,-0.006568188779056072,0.011091182008385658,0.011110235005617142
1.729423318375297e+18,-0.007707084994763136,0.008118625730276108,0.012143170461058617
1.7294233183812972e+18,-0.010107242502272129,0.010471747256815434,0.009898158721625805
1.7294233183872973e+18,-0.013715019449591637,0.010525669902563095,0.01134317833930254
1.7294233183932974e+18,-0.009564805775880814,0.009650811553001404,0.009676733985543251
1.7294233183992975e+18,-0.00993679091334343,0.009177474305033684,0.012697144411504269
1.7294233184022976e+18,-0.007592841517180204,0.006608997005969286,0.010692531242966652
1.7294233184082977e+18,-0.007419711444526911,0.005831357091665268,0.010217336937785149
1.7294233184142979e+18,-0.009113168343901634,0.005691242404282093,0.011419398710131645
1.729423318420298e+18,-0.006087895017117262,0.006299906875938177,0.009719066321849823
1.729423318426298e+18,-0.009754817932844162,0.007724916562438011,0.009013773873448372
1.7294233184322982e+18,-0.007977558299899101,0.00669770548120141,0.009661735035479069
1.7294233184352983e+18,-0.010595232248306274,0.00567091628909111,0.011310620233416557
1.7294233184412984e+18,-0.00968023482710123,0.007363347336649895,0.009669026359915733
1.7294233184472986e+18,-0.01327730156481266,0.007146566174924374,0.00847310945391655
1.7294233184532987e+18,-0.01305415015667677,0.006432929076254368,0.009443406946957111
1.7294233184592988e+18,-0.012677880935370922,0.006412158720195293,0.007937981747090816
1.729423318465299e+18,-0.016735931858420372,0.005333845503628254,0.00940307043492794
1.729423318471299e+18,-0.009778309613466263,0.004818360786885023,0.009032664820551872
1.7294233184772992e+18,-0.015550709329545498,0.006168002262711525,0.00950277503579855
1.7294233184802993e+18,-0.013788126409053802,0.002156346570700407,0.006526893936097622
1.7294233184862994e+18,-0.008360031992197037,0.0021505870390683413,0.007990706712007523
1.7294233184922995e+18,-0.011598668061196804,0.003773458767682314,0.00843129027634859
1.7294233184982996e+18,-0.009229026734828949,0.0050593046471476555,0.00500268442556262
1.7294233185042998e+18,-0.00959791149944067,0.008502787910401821,0.007520837709307671
1.7294233185103e+18,-0.008967493660748005,0.006766967475414276,0.01010343711823225
1.7294233185163e+18,-0.01236626598984003,0.006144209299236536,0.0054902611300349236
1.7294233185223002e+18,-0.009068004786968231,0.0032308718655258417,0.007337289862334728
1.7294233185283003e+18,-0.007963215932250023,0.005077945534139872,0.009718579240143299
1.7294233185343004e+18,-0.008946618996560574,0.003480456303805113,0.009947208687663078
1.7294233185403005e+18,-0.009722099639475346,0.004131431691348553,0.008008335717022419
1.7294233185463007e+18,-0.010242241434752941,0.0014005295233801007,0.007742103189229965
1.7294233185523008e+18,-0.011402111500501633,0.005485155154019594,0.00340994237922132
1.729423318558301e+18,-0.012521103955805302,0.006875005550682545,0.004712636582553387
1.729423318567301e+18,-0.010821845382452011,0.0052091688849031925,0.006391675211489201
1.7294233185733012e+18,-0.012745209969580173,0.004760179668664932,0.009863553568720818
1.7294233185793014e+18,-0.013868693262338638,0.0031593393068760633,0.0037659548688679934
1.7294233185853015e+18,-0.01199380960315466,0.003955674823373556,0.005122560542076826
1.7294233185943017e+18,-0.012421097606420517,0.0020174593664705753,0.004998822696506977
1.729423318603302e+18,-0.012781227938830853,0.003906897734850645,0.0069051822647452354
1.729423318612302e+18,-0.011614189483225346,0.0024035312235355377,0.00537625327706337
1.7294233186213023e+18,-0.012874811887741089,0.00238063745200634,0.004652299452573061
1.7294233186303025e+18,-0.017416125163435936,0.004173206631094217,0.005504997447133064
1.7294233186393027e+18,-0.018647566437721252,0.002894843928515911,0.008125770837068558
1.7294233186453028e+18,-0.015995321795344353,0.004124082624912262,0.004151358734816313
1.729423318654303e+18,-0.019571853801608086,0.0017400302458554506,0.005320437252521515
1.7294233186633032e+18,-0.0168800987303257,0.0038831252604722977,0.0066216145642101765
1.7294233186723034e+18,-0.015336449258029461,0.0032271274831146,0.006277786567807198
1.7294233186783035e+18,-0.01661696843802929,0.0009519811719655991,0.004179618787020445
1.7294233186873037e+18,-0.017992883920669556,0.0012812798377126455,0.0030088871717453003
1.7294233186963039e+18,-0.019132127985358238,0.006108375731855631,0.00666056340560317
1.729423318705304e+18,-0.022145751863718033,0.006170350592583418,0.005406874231994152
1.7294233187113042e+18,-0.02052878960967064,0.00843398179858923,0.005602190271019936
1.7294233187203044e+18,-0.02091178484261036,0.007909159176051617,0.0029894416220486164
1.7294233187293046e+18,-0.016131242737174034,0.007098727859556675,0.0026056263595819473
1.7294233187383048e+18,-0.01641465537250042,0.006668769754469395,0.008231183513998985
1.729423318744305e+18,-0.016328416764736176,0.005661865696310997,0.0056953891180455685
1.729423318753305e+18,-0.014515535905957222,0.006777247413992882,0.004447846207767725
1.7294233187623053e+18,-0.017500054091215134,0.009140321053564548,0.004105410072952509
1.7294233187713055e+18,-0.016804181039333344,0.0063560414128005505,0.0016796505078673363
1.7294233187773056e+18,-0.01758793368935585,0.005350968800485134,0.004004157613962889
1.7294233187863058e+18,-0.02040458656847477,0.005749671719968319,0.005879253149032593
1.729423318792306e+18,-0.016230318695306778,0.00883562583476305,0.004314378835260868
1.729423318801306e+18,-0.019669614732265472,0.005291863810271025,0.003960763104259968
1.7294233188103063e+18,-0.01906442455947399,0.007870227098464966,0.0005476977676153183
1.7294233188163064e+18,-0.018052423372864723,0.006959098391234875,0.0007484361995011568
1.7294233188253066e+18,-0.014939157292246819,0.009905071929097176,0.0016260071424767375
1.7294233188343068e+18,-0.016293512657284737,0.00367250619456172,0.0008491910994052887
1.729423318840307e+18,-0.015316339209675789,0.005955832079052925,0.00044649397023022175
1.7294233188493071e+18,-0.015906499698758125,0.006865772884339094,-0.001128053991124034
1.7294233188583073e+18,-0.0161236971616745,0.005968951620161533,-0.0016777869313955307
1.7294233188643075e+18,-0.01844525709748268,0.00609556632116437,0.0021542187314480543
1.7294233188733076e+18,-0.015684949234128,0.008960126899182796,0.002980753080919385
1.7294233188823078e+18,-0.019641635939478874,0.007405864540487528,0.0014982048887759447
1.729423318891308e+18,-0.017009064555168152,0.008147054351866245,0.00152113800868392
1.7294233188973082e+18,-0.012686826288700104,0.007720470894128084,0.0029771924018859863
1.7294233189063084e+18,-0.015375599265098572,0.007222318556159735,0.001557708834297955
1.7294233189153085e+18,-0.010165676474571228,0.007844761945307255,0.003095438936725259
1.7294233189243087e+18,-0.011081255972385406,0.009498103521764278,0.0018511984962970018
1.729423318933309e+18,-0.012343169189989567,0.005409808363765478,0.00022377539426088333
1.729423318939309e+18,-0.011764567345380783,0.006022298708558083,0.0012327535077929497
1.7294233189483092e+18,-0.01354624330997467,0.00952207949012518,0.0031419945880770683
1.7294233189573094e+18,-0.01573854312300682,0.005444335285574198,0.0019169290317222476
1.7294233189663096e+18,-0.014142122119665146,0.005549563094973564,0.0027595730498433113
1.7294233189753098e+18,-0.011295993812382221,0.005081010051071644,0.004796810448169708
1.72942331898431e+18,-0.013835489749908447,0.007840505801141262,0.0019090346759185195
1.7294233189903101e+18,-0.01606587879359722,0.009094906970858574,8.411926683038473e-05
1.7294233189993103e+18,-0.014331938698887825,0.010311022400856018,0.0030861934646964073
1.7294233190083105e+18,-0.016237974166870117,0.006170711480081081,0.002766645746305585
1.7294233190173107e+18,-0.01850786991417408,0.008917996659874916,0.003028091974556446
1.729423319026311e+18,-0.013804599642753601,0.008183346129953861,0.0013584811240434647
1.729423319035311e+18,-0.016415052115917206,0.009738744236528873,0.004217298701405525
1.7294233190413112e+18,-0.011110060848295689,0.004710621200501919,-0.0005755992606282234
1.7294233190503114e+18,-0.015551190823316574,0.005149119067937136,0.002580923493951559
1.7294233190563116e+18,-0.016319481655955315,0.004722799174487591,0.004209771752357483
1.7294233190683118e+18,-0.016191231086850166,0.004136946983635426,0.002239577006548643
1.729423319074312e+18,-0.012625482864677906,0.006061960011720657,0.004148365464061499
1.729423319083312e+18,-0.015445244498550892,0.006683404557406902,0.004081932362169027
1.7294233190923123e+18,-0.017603876069188118,0.007544579450041056,0.004245078656822443
1.7294233191013125e+18,-0.017295755445957184,0.004504981450736523,-0.0014365526149049401
1.7294233191073126e+18,-0.018171261996030807,0.0037294335197657347,0.0004522797535173595
1.7294233191163128e+18,-0.015406019054353237,0.0015114803100004792,0.000826910836622119
1.729423319125313e+18,-0.01758876070380211,4.2575644329190254e-05,-0.0008214233675971627
1.7294233191313132e+18,-0.01377332303673029,0.001129519077949226,0.00233875447884202
1.7294233191403133e+18,-0.011634577997028828,0.005323916207998991,0.0007293404778465629
1.7294233191493135e+18,-0.013326589949429035,0.004067506641149521,-0.001105998526327312
1.7294233191553137e+18,-0.016010338440537453,0.0035198614932596684,0.0005716027808375657
1.7294233191643139e+18,-0.018015945330262184,0.005524171981960535,0.0004866549570579082
1.729423319173314e+18,-0.020054522901773453,0.0007965527474880219,-0.0004588316078297794
1.7294233191793142e+18,-0.019297391176223755,0.005582842975854874,-0.0015072952955961227
1.7294233191883144e+18,-0.016647808253765106,0.003767468733713031,0.001919410889968276
1.7294233191973146e+18,-0.009280618280172348,0.003354257671162486,0.00014784297673031688
1.7294233192063148e+18,-0.008841373026371002,0.003514476353302598,0.0003409588534850627
1.729423319215315e+18,-0.0070601268671453,0.001782708102837205,0.0016476872842758894
1.7294233192243151e+18,-0.010334651917219162,0.00032855820609256625,-0.0015556253492832184
1.7294233192303153e+18,-0.01521900575608015,0.0024122241884469986,-0.0001352298422716558
1.7294233192393155e+18,-0.013776459731161594,0.005792316980659962,-0.0016009280225262046
1.7294233192453156e+18,-0.0126670952886343,0.0035959805827587843,-0.002213090192526579
1.7294233192543158e+18,-0.013407275080680847,0.002517018001526594,0.0019209159072488546
1.729423319263316e+18,-0.00888015329837799,0.0037271645851433277,0.001472855219617486
1.7294233192723162e+18,-0.0088265435770154,0.0037842076271772385,0.00328872655518353
1.7294233192783163e+18,-0.009005271829664707,0.003292934037744999,0.0001632604980841279
1.7294233192873165e+18,-0.008394104428589344,0.0016795676201581955,0.0010900639463216066
1.7294233192963167e+18,-0.010467758402228355,0.0007328688516281545,-0.0005594460526481271
1.7294233193053169e+18,-0.014878258109092712,0.0013180277310311794,0.0022900779731571674
1.729423319311317e+18,-0.015289796516299248,0.002964549232274294,0.0018383003771305084
1.7294233193203172e+18,-0.012494285590946674,0.0052721197716891766,0.000781950366217643
1.7294233193293174e+18,-0.010678735561668873,0.0034364829771220684,-0.0007090461440384388
1.7294233193353175e+18,-0.01023836899548769,0.002120929304510355,-0.0009289504960179329
1.7294233193443177e+18,-0.006104117259383202,0.00453687971457839,0.0035651770886033773
1.7294233193503178e+18,-0.010761354118585587,0.004382203333079815,-0.002501637442037463
1.729423319359318e+18,-0.012911048717796803,0.0013502049259841442,-0.0008088774629868567
1.7294233193683182e+18,-0.011151673272252083,0.003442671149969101,-0.0017889299197122455
1.7294233193743183e+18,-0.01477415207773447,0.004637327045202255,0.0009296429925598204
1.7294233193863186e+18,-0.012180534191429615,0.005896382499486208,0.0011829081922769547
1.7294233193923187e+18,-0.008824321441352367,0.003567005507647991,-0.001211419701576233
1.729423319401319e+18,-0.00677322456613183,0.0033632051199674606,0.0013145403936505318
1.729423319410319e+18,-0.009103734977543354,0.005435457918792963,0.0024464577436447144
1.7294233194163192e+18,-0.010419021360576153,0.004204893950372934,-0.0003716845531016588
1.7294233194283195e+18,-0.010840428993105888,0.0024866992607712746,0.0020554489456117153
1.7294233194343196e+18,-0.009874454699456692,0.0033044852316379547,-0.00015364610590040684
1.7294233194433198e+18,-0.007621074095368385,0.0028912550769746304,-0.002421492477878928
1.72942331945232e+18,-0.008955838158726692,0.0030720659997314215,-0.004403210710734129
1.7294233194613202e+18,-0.004795860964804888,0.004300595261156559,0.0016780488658696413
1.7294233194673203e+18,-0.009561138227581978,-0.0001537890639156103,-0.00048413174226880074
1.7294233194763205e+18,-0.010062677785754204,0.004805839620530605,-0.00012222312216181308
1.7294233194853207e+18,-0.011654770001769066,0.0024615104775875807,-0.00040755339432507753
1.729423319494321e+18,-0.008099505677819252,0.004752567037940025,0.002533137332648039
1.729423319503321e+18,-0.011135591194033623,0.004574361257255077,0.001421539462171495
1.7294233195123213e+18,-0.007885517552495003,0.00489418301731348,-0.0031950189732015133
1.7294233195183214e+18,-0.008561130613088608,0.0023813839070498943,-0.0006658718921244144
1.7294233195273216e+18,-0.007534814067184925,0.0012592074926942587,0.0012376499362289906
1.7294233195333217e+18,-0.008609329350292683,0.006021002307534218,-0.0031842775642871857
1.729423319542322e+18,-0.011453983373939991,0.0016025479417294264,0.0012557720765471458
1.729423319551322e+18,-0.009938615374267101,0.005997268948704004,0.004617637023329735
1.7294233195573222e+18,-0.010549682192504406,0.0053857481107115746,0.002060922095552087
1.7294233195663224e+18,-0.010952189564704895,0.006262087728828192,0.0002569110656622797
1.7294233195723226e+18,-0.014436345547437668,0.004443664103746414,-0.001436043530702591
1.7294233195813228e+18,-0.011271905153989792,0.005424752365797758,-0.0007081326912157238
1.729423319593323e+18,-0.01301407441496849,0.006183380726724863,-0.00023380533093586564
1.7294233195993231e+18,-0.009716067463159561,0.005825180094689131,-9.069331281352788e-05
1.7294233196083233e+18,-0.01016694214195013,0.007223563268780708,5.8133999118581414e-05
1.7294233196173235e+18,-0.009853195399045944,0.005759165622293949,-0.000636876153293997
1.7294233196233236e+18,-0.010628048330545425,0.003147629089653492,-0.0009226632537320256
1.7294233196323238e+18,-0.010578068904578686,0.006643928587436676,-1.018380862660706e-05
1.729423319641324e+18,-0.01124150026589632,0.0056833019480109215,-0.0007301346631720662
1.7294233196473242e+18,-0.011557817459106445,0.004917630460113287,0.0016909759724512696
1.7294233196563244e+18,-0.007094548083841801,0.0025689401663839817,-0.001651708036661148
1.7294233196653245e+18,-0.008785770274698734,-0.0010442682541906834,-0.00023620889987796545
1.7294233196743247e+18,-0.01223992183804512,0.00012350291945040226,-0.0012061086017638445
1.7294233196803249e+18,-0.005759324878454208,0.000650123052764684,-0.0006344664143398404
1.729423319689325e+18,-0.006969807203859091,0.004046136513352394,-0.0023765210062265396
1.7294233196983252e+18,-0.00765656866133213,0.0048272497951984406,0.00014332219143398106
1.7294233197043254e+18,-0.008416394703090191,0.0054410528391599655,-0.0007644187426194549
1.7294233197133256e+18,-0.00569496676325798,0.0046117170713841915,0.0005441079847514629
1.7294233197193257e+18,-0.009238049387931824,0.0040877447463572025,-0.00034804089227691293
1.729423319728326e+18,-0.008598948828876019,0.004197983071208,0.00021572524565272033
1.729423319737326e+18,-0.010479636490345001,0.0008155503310263157,-0.0009098609443753958
1.7294233197463263e+18,-0.005701991729438305,0.0022630379535257816,0.002134048379957676
1.7294233197523264e+18,-0.003692949190735817,0.0001950897858478129,-0.0016413619741797447
1.7294233197613266e+18,-0.004062027204781771,0.0016269609332084656,-0.0009953632252290845
1.7294233197703268e+18,-0.007528876885771751,-0.00028706365264952183,0.0008759768679738045
1.729423319776327e+18,-0.006394334137439728,0.002981012687087059,-0.0027996988501399755
1.729423319785327e+18,-0.003313080407679081,0.001903511001728475,-0.002405434614047408
1.7294233197943273e+18,-0.004103865008801222,0.0002703965874388814,-0.0009163579670712352
1.7294233198003274e+18,-0.005833205301314592,-4.253012593835592e-05,0.0007744093891233206
1.7294233198093276e+18,-0.005058792885392904,0.0007799997692927718,-0.0006160851917229593
1.7294233198183278e+18,-0.0025878355372697115,-0.0008833419415168464,-0.00021861384448129684
1.729423319824328e+18,-0.0036028344184160233,-0.001437171595171094,0.00043293240014463663
1.729423319833328e+18,-0.0024346509017050266,-0.0029125199653208256,-0.0008823564276099205
1.7294233198423283e+18,-0.005025818943977356,-0.002516629174351692,-0.0005192683893255889
1.7294233198483284e+18,-0.00301213376224041,-0.005118002183735371,-0.0011560800485312939
1.7294233198573286e+18,-0.0026073462795466185,-0.0043092877604067326,0.0014505402650684118
1.7294233198663288e+18,-0.0037704790011048317,-0.0012567377416417003,-0.0014033232582733035
1.729423319872329e+18,-0.006611637771129608,0.0003239682409912348,-0.0012395675294101238
1.7294233198813292e+18,-0.006171284709125757,-0.00013906173990108073,-0.003609064966440201
1.7294233198903293e+18,-0.009859900921583176,-0.0018970645032823086,-0.0009841100545600057
1.7294233198963295e+18,-0.004621252417564392,-0.003430408425629139,-0.002286825329065323
1.7294233199053297e+18,-0.003676116932183504,-0.004316713660955429,5.244102794677019e-06
1.7294233199143299e+18,-0.007105276919901371,-0.004615421406924725,0.001844956073909998
1.72942331992333e+18,-0.004130572080612183,-0.0030326221603900194,-0.0010192670160904527
1.7294233199323302e+18,-0.004949846770614386,-0.0029253794346004725,-0.0012632806319743395
1.7294233199383304e+18,-0.003139409003779292,-0.001869548810645938,-0.0038958226796239614
1.7294233199473306e+18,-0.00040800555143505335,1.617101952433586e-05,-0.0018163063796237111
1.7294233199563308e+18,0.001596802263520658,-0.002763854106888175,-0.0013776938430964947
1.729423319962331e+18,0.00013649901666212827,-0.003173389006406069,-0.00047376894508488476
1.729423319971331e+18,0.0008909744210541248,-0.0026138126850128174,-0.0013928560074418783
1.7294233199803313e+18,-0.002137119183316827,-0.0031872582621872425,-0.00021866010501980782
1.7294233199863314e+18,-0.0022914994042366743,-0.005262329708784819,-0.0008308803662657738
1.7294233199953316e+18,-0.0037356107495725155,-0.005106396973133087,-0.00020779119222424924
1.7294233200043318e+18,-0.002590626012533903,-0.002245198003947735,-0.001265774597413838
1.729423320010332e+18,-0.0003755298675969243,-0.0025676123332232237,0.0018184887012466788
1.729423320019332e+18,0.0008020547102205455,-0.003082363400608301,-0.0026221484877169132
1.7294233200283323e+18,0.0028180463705211878,-0.0021389212924987078,-0.0005023179110139608
1.7294233200373325e+18,-0.00016572140157222748,-0.003266660962253809,-0.0021014497615396976
1.7294233200433326e+18,-0.0006693321047350764,-0.005250867921859026,-0.0007955233450047672
1.7294233200523328e+18,-0.0032471101731061935,-0.0031609830912202597,0.00042199355084449053
1.729423320058333e+18,-0.00499932374805212,-0.0029528923332691193,-0.0019278496038168669
1.729423320067333e+18,-0.007040178403258324,-0.0015382718993350863,0.0009714553598314524
1.7294233200763333e+18,-0.006948952563107014,-0.0001057642512023449,-0.0005358647322282195
1.7294233200853335e+18,-0.0032849109265953302,-0.0040325988084077835,0.001453294767998159
1.7294233200913336e+18,-0.0024273069575428963,-0.002578120678663254,0.0014743166975677013
1.7294233201003338e+18,0.0009762758854776621,-0.0022669117897748947,0.0005013183108530939
1.729423320109334e+18,-0.002163720317184925,-0.004812005441635847,-0.005041806027293205
1.7294233201183342e+18,-0.0034497312735766172,-0.0055313268676400185,0.00024040660355240107
1.7294233201243343e+18,-0.0053880056366324425,-0.0030357285868376493,-0.0020550601184368134
1.7294233201333345e+18,-0.008868695236742496,-0.005691893398761749,5.52439596503973e-05
1.7294233201423347e+18,-0.0019869403913617134,-0.004866333678364754,-0.001239062170498073
1.729423320151335e+18,-0.003438387531787157,-0.002801603404805064,-0.0011883028782904148
1.729423320157335e+18,-0.0018812159541994333,-0.0027706529945135117,-0.0031346059404313564
1.7294233201663352e+18,-0.00022740423446521163,-0.0034278766252100468,-0.0002461481199134141
1.7294233201753354e+18,0.00019430037355050445,-0.0040235682390630245,-0.0007966144476085901
1.7294233201843356e+18,0.0007693254738114774,-0.003380528651177883,-0.0001751088711898774
1.7294233201933358e+18,-0.001240926911123097,-0.0022391420789062977,6.359899998642504e-05
1.729423320199336e+18,-0.002710220403969288,-0.002611217088997364,-0.0023417838383466005
1.7294233202083361e+18,-0.00023187941405922174,0.00014996645040810108,-0.0015836196253076196
1.7294233202173363e+18,0.0002701895427890122,-0.005232539959251881,-0.0012137010926380754
1.7294233202263365e+18,-9.975978173315525e-05,-0.004357882775366306,-0.0027100471779704094
1.7294233202323366e+18,0.003932328894734383,-0.0008494125213474035,-0.002642272971570492
1.729423320244337e+18,0.0027645579539239407,-0.004359421320259571,0.0002464869467075914
1.7294233202563372e+18,0.001767453970387578,-0.0013655406655743718,-0.00262432056479156
1.7294233202653373e+18,0.002292959950864315,-0.0025535989552736282,0.0012633784208446741
1.7294233202773376e+18,0.002095399657264352,-0.0026575925294309855,-0.0019691043999046087
1.7294233202863378e+18,0.0034853864926844835,-0.005375393666327,-0.0017794775776565075
1.729423320295338e+18,0.0042807976715266705,-0.00653166975826025,-0.00015961765893734992
1.7294233203043382e+18,0.0030173349659889936,-0.007448987569659948,0.0016606090357527137
1.7294233203133384e+18,0.0032483835238963366,-0.00594371510669589,-0.0008920860127545893
1.7294233203193385e+18,0.002036468591541052,-0.004483498632907867,0.002124066697433591
1.7294233203283387e+18,0.0034535755403339863,-0.005808945279568434,-0.00036716985050588846
1.7294233203343388e+18,0.0019733349326997995,-0.00512915663421154,-0.0019236530642956495
1.729423320343339e+18,0.002171857748180628,0.0001851485576480627,0.001392345642670989
1.7294233203523392e+18,0.003348766127601266,-0.0021833397913724184,-0.0008877479122020304
1.7294233203613394e+18,0.0035443531814962626,-0.0035581481643021107,0.0009887393098324537
1.7294233203673395e+18,0.002949811751022935,-0.0007711728103458881,-0.002044480061158538
1.7294233203763397e+18,0.005077600944787264,-0.005793995689600706,0.001395316910929978
1.7294233203823398e+18,0.005658253561705351,-0.005905824713408947,-0.0033115006517618895
1.72942332039134e+18,0.001601736294105649,-0.009576408192515373,-0.0006537770968861878
1.7294233204003402e+18,0.005366079043596983,-0.006582196801900864,0.0013672115746885538
1.7294233204063404e+18,0.0072379810735583305,-0.0065583959221839905,-0.0008634317782707512
1.7294233204153405e+18,0.009811973199248314,-0.0029152031056582928,0.0013619394740089774
1.7294233204213407e+18,0.010302274487912655,-0.008254989981651306,-0.0017097513191401958
1.7294233204303409e+18,0.01023782603442669,-0.0053780702874064445,-0.004451894201338291
1.729423320439341e+18,0.0058336034417152405,-0.005826761480420828,-0.0012789100874215364
1.7294233204483412e+18,0.0048353904858231544,-0.007390516344457865,-0.00399074936285615
1.7294233204543414e+18,0.011021493002772331,-0.009567664004862309,-0.0022855689749121666
1.7294233204633416e+18,0.006920992396771908,-0.009342904202640057,-0.0003058569272980094
1.7294233204723418e+18,0.006436341442167759,-0.009794502519071102,-0.0030564195476472378
1.729423320478342e+18,0.006966611836105585,-0.00830917153507471,-0.0032650502398610115
1.729423320487342e+18,0.006304105743765831,-0.008771651424467564,-0.0007639008108526468
1.7294233204993423e+18,0.010112650692462921,-0.009915010072290897,-0.0009295004419982433
1.7294233205083425e+18,0.010130815207958221,-0.009715220890939236,-0.0017204061150550842
1.7294233205143427e+18,0.011175082996487617,-0.008121227845549583,-0.0005354792810976505
1.7294233205233428e+18,0.012624615803360939,-0.009042544290423393,-0.001669291639700532
1.729423320532343e+18,0.008193230256438255,-0.011082012206315994,0.001882562879472971
1.7294233205413432e+18,0.005098860710859299,-0.009477001614868641,-0.001613328349776566
1.7294233205473434e+18,0.006380124483257532,-0.008315189741551876,-0.004057041835039854
1.7294233205563436e+18,0.002573407720774412,-0.0065874867141246796,-0.005110275000333786
1.7294233205653437e+18,0.008287779055535793,-0.007784082088619471,-0.0004889046540483832
1.729423320574344e+18,0.011352327652275562,-0.0066940500400960445,-0.001814463408663869
1.729423320583344e+18,0.011153331957757473,-0.007907825522124767,-0.004073590971529484
1.7294233205893443e+18,0.01107022538781166,-0.00844189990311861,-0.004820909816771746
1.7294233205983444e+18,0.009508311748504639,-0.009846956469118595,-0.002275985898450017
1.7294233206073446e+18,0.008321952074766159,-0.007753552403301001,-0.003947790712118149
1.7294233206133448e+18,0.006461620330810547,-0.0093011986464262,-0.000501518021337688
1.729423320622345e+18,0.005834023933857679,-0.005242500454187393,0.0008364832028746605
1.7294233206313452e+18,0.007157972082495689,-0.005396497901529074,-0.0008982422295957804
1.7294233206403453e+18,0.011174607090651989,-0.006020739208906889,-0.0014741192571818829
1.7294233206463455e+18,0.009738966822624207,-0.0033697134349495173,-0.0012281707022339106
1.7294233206553457e+18,0.011028445325791836,-0.005913862027227879,-0.0008960759732872248
1.7294233206643459e+18,0.010001742281019688,-0.004373869858682156,-0.004986952058970928
1.729423320670346e+18,0.013063401915133,-0.0084708696231246,-0.00028659263625741005
1.7294233206793462e+18,0.009727904573082924,-0.010320174507796764,-0.0036375452764332294
1.7294233206913464e+18,0.007063552271574736,-0.009073528461158276,-0.0021747767459601164
1.7294233206973466e+18,0.00616637896746397,-0.009272282011806965,-0.0033363238908350468
1.7294233207063468e+18,0.009204716421663761,-0.007112869061529636,-0.0018395038787275553
1.729423320715347e+18,0.007951277308166027,-0.008418276906013489,-0.0034325432498008013
1.7294233207243471e+18,0.012039756402373314,-0.006366643123328686,-0.0023796590976417065
1.7294233207303473e+18,0.012234603986144066,-0.008932424709200859,0.000695487018674612
1.7294233207393475e+18,0.007437177002429962,-0.009933123365044594,-0.00486677885055542
1.7294233207483476e+18,0.011434992775321007,-0.009262477979063988,-0.0011827768757939339
1.7294233207543478e+18,0.007342600263655186,-0.007782307919114828,-0.0007195620564743876
1.729423320763348e+18,0.007693205028772354,-0.009881950914859772,-0.0006150418194010854
1.7294233207723482e+18,0.007217686623334885,-0.010287454351782799,-0.0006852743681520224
1.7294233207813484e+18,0.006766222417354584,-0.0075905174016952515,-0.001202307641506195
1.7294233207903485e+18,0.011145022697746754,-0.009483772329986095,-0.0035448989365249872
1.7294233207993487e+18,0.010763050988316536,-0.006100298836827278,-0.0032858289778232574
1.7294233208053489e+18,0.008123381994664669,-0.00831576157361269,-0.0015127650694921613
1.729423320814349e+18,0.004389303736388683,-0.006535375025123358,-0.0005909083411097527
1.7294233208203492e+18,0.007210631389170885,-0.0071095130406320095,-0.002085441257804632
1.7294233208293494e+18,0.005858425050973892,-0.009430051781237125,-0.001544465310871601
1.7294233208353495e+18,0.006211844272911549,-0.008050658740103245,-0.0026081549003720284
1.7294233208443497e+18,0.008449962362647057,-0.010196696035563946,-0.00434485636651516
1.72942332085335e+18,0.008230452425777912,-0.006537815555930138,-0.0008964414009824395
1.72942332085935e+18,0.0107282605022192,-0.007458938285708427,-0.004420282319188118
1.7294233208683502e+18,0.008551772683858871,-0.01040737610310316,-0.0029871100559830666
1.7294233208773504e+18,0.009626299142837524,-0.00759897893294692,-0.004165478982031345
1.7294233208833505e+18,0.004176618531346321,-0.00512737175449729,-0.002420624252408743
1.7294233208923507e+18,0.006753235124051571,-0.009519997984170914,-0.0023872405290603638
1.729423320901351e+18,0.0032455907203257084,-0.010128077119588852,5.0983624532818794e-05
1.729423320907351e+18,0.003292225068435073,-0.0057640415616333485,-0.0027291381265968084
1.7294233209163512e+18,0.009965859353542328,-0.008474874310195446,-0.0031113228760659695
1.7294233209253514e+18,0.009913763962686062,-0.008237157948315144,-0.001340743387117982
1.7294233209313516e+18,0.008693779818713665,-0.01010832004249096,-0.0019442883785814047
1.7294233209403517e+18,0.0067674932070076466,-0.009458905085921288,-0.0027168968226760626
1.729423320949352e+18,0.00494928564876318,-0.009399406611919403,-0.0052210320718586445
1.729423320955352e+18,0.0016273991204798222,-0.009794630110263824,0.0011305101215839386
1.7294233209643523e+18,0.0035306806676089764,-0.01199048850685358,-0.001598524977453053
1.7294233209703524e+18,0.006992985960096121,-0.008182820864021778,-0.0017489418387413025
1.7294233209793526e+18,0.004618293605744839,-0.011262360028922558,-0.001868446241132915
1.7294233209883528e+18,0.006955030374228954,-0.009677396155893803,-0.002999404910951853
1.729423320994353e+18,0.0025580795481801033,-0.009112263098359108,-0.003972874488681555
1.729423321003353e+18,-0.0007904848316684365,-0.006740879733115435,-0.0015778064262121916
1.7294233210123533e+18,0.0007965618860907853,-0.0068379235453903675,-0.0021253260783851147
1.7294233210213535e+18,0.004643594846129417,-0.010075859725475311,-0.003910940606147051
1.7294233210273536e+18,0.003649236634373665,-0.00751134380698204,-0.0023011609446257353
1.7294233210363538e+18,0.0054426733404397964,-0.00432044081389904,-0.0020462849643081427
1.729423321045354e+18,0.008542101830244064,-0.005436398554593325,-0.0011675800196826458
1.729423321051354e+18,0.006681391503661871,-0.00852527841925621,-0.0028629754669964314
1.7294233210603543e+18,0.0024988690856844187,-0.0067569799721241,-0.0031612617895007133
1.7294233210693545e+18,0.004205564968287945,-0.005281012039631605,-0.0005842352984473109
1.7294233210753546e+18,0.002467554761096835,-0.005987564567476511,-0.001001293770968914
1.7294233210843548e+18,0.0038647265173494816,-0.0038661547005176544,-0.002851962111890316
1.729423321090355e+18,0.0025167749263346195,-0.005623364821076393,-0.0010724652092903852
1.7294233210993551e+18,0.005311769433319569,-0.010697107762098312,-0.0019902042113244534
1.7294233211083553e+18,0.004331326112151146,-0.010650604031980038,-0.003225620836019516
1.7294233211143555e+18,0.003540006233379245,-0.011098778806626797,-0.002630204427987337
1.7294233211233556e+18,0.004618493840098381,-0.006785733625292778,-0.00561571167781949
1.7294233211293558e+18,0.0027126045897603035,-0.01087132841348648,-0.00021119241137057543
1.729423321138356e+18,0.0011867561843246222,-0.006483373232185841,-0.0020544063299894333
1.7294233211473562e+18,0.0013930760324001312,-0.00899593997746706,-0.0013363088946789503
1.7294233211563564e+18,0.0031688068993389606,-0.009110094979405403,-0.0005865216953679919
1.7294233211623565e+18,-0.0008073884528130293,-0.008875912055373192,-0.0017925379797816277
1.7294233211713567e+18,0.007015591021627188,-0.005599125288426876,-0.003268628614023328
1.7294233211803569e+18,0.007464037276804447,-0.005357434041798115,0.0006133295828476548
1.729423321189357e+18,0.00677857268601656,-0.005686318036168814,-0.00036454934161156416
1.7294233211953572e+18,0.006851637735962868,-0.006326581351459026,0.0005234183045104146
1.7294233212043574e+18,0.008868795819580555,-0.006655344273895025,-0.0018564495258033276
1.7294233212133576e+18,0.006526892073452473,-0.010312346741557121,0.002169619780033827
1.7294233212193577e+18,0.004164179787039757,-0.010194353759288788,-0.0036574117839336395
1.729423321228358e+18,0.004988198168575764,-0.012351986020803452,-0.004347218666225672
1.729423321234358e+18,0.01058913953602314,-0.011765065602958202,-0.002775655360892415
1.7294233212433582e+18,0.00821875873953104,-0.008030999451875687,-0.0003910795785486698
1.7294233212523584e+18,0.006561324931681156,-0.005940725095570087,-0.001815487165004015
1.7294233212613586e+18,0.006801148876547813,-0.011570485308766365,-0.003462625201791525
1.7294233212673587e+18,0.008002600632607937,-0.008662370964884758,0.00016230728942900896
1.729423321276359e+18,0.0032029664143919945,-0.005623652599751949,-0.0010861929040402174
1.729423321282359e+18,0.002391194924712181,-0.012535706162452698,-0.002700934186577797
1.7294233212913592e+18,0.007310633547604084,-0.008899882435798645,0.0018522590398788452
1.7294233212973594e+18,0.008409013971686363,-0.011530127376317978,-0.0035524307750165462
1.7294233213063596e+18,0.009444448165595531,-0.011234533041715622,0.00012177403550595045
1.7294233213153597e+18,0.007813955657184124,-0.010200439020991325,-0.0021617610473185778
1.72942332132136e+18,0.00601528724655509,-0.008827682584524155,-0.0006852322840131819
1.72942332133036e+18,0.0018856057431548834,-0.008295574225485325,-0.0020607844926416874
1.7294233213393603e+18,0.0020080674439668655,-0.009271986782550812,-0.0016332031227648258
1.7294233213453604e+18,0.0014988507609814405,-0.009614218026399612,0.001351384213194251
1.7294233213543606e+18,0.0006314939819276333,-0.011026261374354362,-4.600151441991329e-07
1.7294233213633608e+18,0.004639914724975824,-0.010920325294137001,-0.0006136694573797286
1.729423321369361e+18,0.009279029443860054,-0.007809400092810392,0.0009917672723531723
1.729423321378361e+18,0.006593508645892143,-0.008444471284747124,-0.0023194747045636177
1.7294233213843612e+18,0.006194722838699818,-0.003845224156975746,-0.00015414680819958448
1.7294233213933614e+18,0.0046681370586156845,-0.006494870409369469,0.0004805164644494653
1.7294233213993615e+18,0.0015796211082488298,-0.003459115279838443,-0.0032769786193966866
1.7294233214083617e+18,0.004014366306364536,-0.005864511709660292,-0.004391125403344631
1.729423321417362e+18,0.0035666076000779867,-0.007449695374816656,0.0009409383637830615
1.729423321426362e+18,0.006639914587140083,-0.012637532316148281,-0.0006203906377777457
1.7294233214353623e+18,0.012498883530497551,-0.011690981686115265,0.0011817787308245897
1.7294233214443625e+18,0.012039766646921635,-0.009008398279547691,-0.0007204188732430339
1.7294233214533627e+18,0.008635086938738823,-0.005611842032521963,0.0003050806699320674
1.7294233214593628e+18,0.005399399437010288,-0.004700736608356237,0.0009135278523899615
1.7294233214743631e+18,0.005574919283390045,-0.0016087390249595046,0.0006029191426932812
1.7294233214833633e+18,0.006146654952317476,-0.0013940958306193352,-0.0020037111826241016
1.7294233214893635e+18,0.008125385269522667,-0.003285852028056979,-0.0021536462008953094
1.7294233214983636e+18,0.010114915668964386,-0.0053996131755411625,-0.0011058708187192678
1.7294233215073638e+18,0.011672626249492168,-0.005037642549723387,-0.002850579796358943
1.729423321516364e+18,0.009468605741858482,-0.005465780384838581,-0.0013345072511583567
1.7294233215223642e+18,0.011091797612607479,-0.0024049151688814163,-0.004289794713258743
1.7294233215313644e+18,0.00923934392631054,0.0022601454984396696,0.0005912974593229592
1.7294233215373645e+18,0.005521985702216625,9.987124940380454e-05,-0.002197261666879058
1.7294233215463647e+18,0.008125156164169312,-0.0009490553638897836,-0.0003015309339389205
1.7294233215523648e+18,0.0077209556475281715,0.0006842419970780611,-0.0020202267915010452
1.729423321564365e+18,0.0071876319125294685,-0.003196315374225378,-0.002011105651035905
1.7294233215703652e+18,0.01309444010257721,-0.003642780939117074,0.00028879937599413097
1.7294233215793654e+18,0.009921819902956486,-0.002668115310370922,9.257235797122121e-05
1.7294233215853655e+18,0.011297477409243584,-0.0022983348462730646,-0.0031920457258820534
1.7294233215943657e+18,0.008400251157581806,-0.004453177563846111,-0.0020839872304350138
1.7294233216003658e+18,0.0071065062656998634,-0.0019742739386856556,-0.0012023287126794457
1.729423321612366e+18,0.007024240680038929,-0.0017416207119822502,0.0002589651267044246
1.7294233216213663e+18,0.009581202641129494,-0.00174624752253294,0.00047048251144587994
1.7294233216273664e+18,0.00869600847363472,-0.0011293628485873342,-0.0012677055783569813
1.7294233216363666e+18,0.007995814085006714,-0.003661785274744034,0.0004344888438936323
1.7294233216423667e+18,0.003239631187170744,-0.0024329149164259434,0.0019298321567475796
1.729423321651367e+18,0.0032857495825737715,-0.003649727674201131,0.0008495270158164203
1.729423321660367e+18,0.005258040502667427,-0.005227664485573769,0.0026306617073714733
1.7294233216663672e+18,0.00022006966173648834,-0.0038825119845569134,-0.00013213079364504665
1.7294233216753674e+18,0.0038160874973982573,0.00043783080764114857,-0.001706844661384821
1.7294233216843676e+18,0.005465352907776833,-0.0037474804557859898,-0.00195891922339797
1.7294233216933678e+18,0.00491992337629199,-0.0011680717580020428,-0.0003741720283869654
1.729423321702368e+18,0.007548146415501833,-0.004642663057893515,0.0016410602256655693
1.7294233217113682e+18,0.004934987053275108,-0.001934961648657918,-0.00021521621965803206
1.7294233217203684e+18,0.005133438855409622,-0.0046569714322686195,-0.003575658891350031
1.7294233217293686e+18,0.006103247404098511,-0.0018696050392463803,0.0016375759150832891
1.7294233217383688e+18,0.005521719343960285,-0.0007736349944025278,0.00011053324124077335
1.729423321747369e+18,0.002185516059398651,-0.005085602402687073,0.00013002788182348013
1.7294233217563692e+18,0.002076814416795969,-0.00014411844313144684,-0.00037422438617795706
1.7294233217683694e+18,0.006578618660569191,-0.004027205053716898,0.0005202003521844745
1.7294233217743695e+18,0.004454591311514378,-0.0016456693410873413,3.124506474705413e-05
1.7294233217863698e+18,0.007339371368288994,-0.00020256848074495792,-0.0017263006884604692
1.72942332179537e+18,0.009225636720657349,-0.004393542185425758,-0.0006131785339675844
1.72942332180137e+18,0.00597519101575017,-0.0017565533053129911,-0.00256542325951159
1.7294233218103703e+18,0.004607449285686016,-0.0026176220271736383,0.0002697729505598545
1.7294233218163704e+18,0.005823221057653427,-0.002740316092967987,0.0015851641073822975
1.7294233218253706e+18,0.0062297070398926735,-0.0023704839404672384,0.0014311056584119797
1.7294233218343708e+18,0.00705543952062726,-0.002447103150188923,-0.0008051798213273287
1.729423321840371e+18,0.008463560603559017,-0.00025256379740312696,0.00048424885608255863
1.7294233218493711e+18,0.010189698077738285,-0.0017101969569921494,0.0019119983771815896
1.7294233218583713e+18,0.011799775063991547,-0.0019269498297944665,0.0028206936549395323
1.7294233218643715e+18,0.006961837410926819,-0.00048486748710274696,-0.0018672562437132
1.7294233218733716e+18,0.006768063176423311,0.0012067193165421486,0.0033395930659025908
1.7294233218793718e+18,0.0037894155830144882,-0.0019247925374656916,0.0021632504649460316
1.729423321891372e+18,0.0020946902222931385,-0.0034787673503160477,-0.0008248690282925963
1.7294233219003722e+18,0.005078994203358889,-0.006451828870922327,0.0031013500411063433
1.7294233219063724e+18,0.0058154696598649025,-0.006729552987962961,-0.0002333943557459861
1.7294233219153725e+18,0.008789600804448128,-0.007398996967822313,0.000572758901398629
1.7294233219243727e+18,0.00833663996309042,-0.006126604974269867,-0.00043854769319295883
1.7294233219303729e+18,0.0058037168346345425,-0.00428619422018528,0.002438704948872328
1.729423321939373e+18,0.005399814806878567,-0.0030059022828936577,0.00036348364665172994
1.7294233219483732e+18,0.004883948247879744,-0.003938560839742422,0.0013251282507553697
1.7294233219543734e+18,0.006352564785629511,-0.003105888608843088,-0.0005279715405777097
1.7294233219633736e+18,0.006974502000957727,-0.005592581816017628,0.0006222280790098011
1.7294233219723738e+18,0.008844112977385521,-0.0054127806797623634,0.0025115064345300198
1.729423321981374e+18,0.01010558195412159,-0.005212717689573765,0.0003509699017740786
1.7294233219903741e+18,0.006028289906680584,-0.004152287263423204,-0.0006082592299208045
1.7294233219993743e+18,0.007429317105561495,-0.001084953430108726,0.0004045066889375448
1.7294233220083745e+18,0.007358314469456673,-0.0045252516865730286,-0.001886551035568118
1.7294233220143747e+18,0.004319699946790934,-0.0019341267179697752,-0.0005174187244847417
1.7294233220233748e+18,0.0041045695543289185,-0.0024756859056651592,-0.0004942138330079615
1.729423322032375e+18,0.008120535872876644,-0.0032496415078639984,0.0004366473003756255
1.7294233220383752e+18,0.00623423932120204,0.0006630548741668463,0.001170132658444345
1.7294233220473754e+18,0.00901431031525135,0.0012486216146498919,-8.192809764295816e-05
1.7294233220563756e+18,0.007541435305029154,0.00056469562696293,-0.00023050271556712687
1.7294233220623757e+18,0.006342269480228424,0.0011089749168604612,0.003703027730807662
1.729423322071376e+18,0.0059547326527535915,0.0008676392026245594,0.00169601000379771
1.729423322080376e+18,0.004932238254696131,-0.0005545647582039237,0.00012018412235192955
1.7294233220863762e+18,0.00422316137701273,-5.9427693486213684e-05,-6.0947961173951626e-05
1.7294233220953764e+18,0.0033049946650862694,-0.0011615012772381306,-0.00026824980159290135
1.7294233221043766e+18,0.002879651729017496,-0.000305243389448151,0.0018528682412579656
1.7294233221133768e+18,0.006078822538256645,0.0020110232289880514,-0.00045853175106458366
1.729423322122377e+18,0.0047829351387917995,0.00046192179434001446,-0.002234803047031164
1.7294233221313772e+18,0.004047180525958538,0.0032564837019890547,0.0018947642529383302
1.7294233221433774e+18,0.0022761428263038397,0.0028358614072203636,0.0015248769195750356
1.7294233221523776e+18,-0.00020618108101189137,0.002878037979826331,6.981095066294074e-05
1.7294233221613778e+18,0.004380241967737675,0.003817879594862461,-0.001314100343734026
1.729423322170378e+18,0.00329756666906178,0.00281865824945271,-0.00010842614574357867
1.7294233221793782e+18,0.008185389451682568,0.004987980239093304,-0.0015438866103067994
1.7294233221883784e+18,0.005436187610030174,0.0027281916700303555,-0.0010373159311711788
1.7294233221973786e+18,0.0035909307189285755,0.0049474211409688,0.00020301798940636218
1.7294233222063788e+18,0.005885810125619173,0.005255754105746746,0.0016425997018814087
1.729423322215379e+18,0.007309635169804096,0.003577942494302988,0.001958295935764909
1.7294233222243791e+18,0.005812021438032389,0.004098041448742151,0.003987543284893036
1.7294233222363794e+18,0.006419050972908735,0.004649056121706963,0.0022512245923280716
1.7294233222453796e+18,0.009247400797903538,0.005105998367071152,0.001218964229337871
1.7294233222543798e+18,0.012335221283137798,0.007294721435755491,0.001176935387775302
1.72942332226338e+18,0.013330446556210518,0.004461624193936586,0.0004896764876320958
1.7294233222723802e+18,0.011758476495742798,0.004265046678483486,-0.0003949249512515962
1.7294233222783803e+18,0.006747654639184475,0.008783934637904167,-0.0017212294042110443
1.7294233222873805e+18,0.004359480459243059,0.004756751470267773,-0.00032402551732957363
1.7294233222963807e+18,0.006188064813613892,0.006109477952122688,0.0010878266766667366
1.7294233223053809e+18,0.0046167015098035336,0.0005639104638248682,0.0018456405960023403
1.729423322314381e+18,0.011466039344668388,0.002056764205917716,-0.0006900234147906303
1.7294233223203812e+18,0.006555043626576662,0.0012976734433323145,-0.0006533364066854119
1.7294233223293814e+18,0.006797146517783403,0.0014043250121176243,0.000123671256005764
1.7294233223353815e+18,0.01152467168867588,0.007488378789275885,-0.0035288254730403423
1.7294233223443817e+18,0.009712204337120056,0.005916018970310688,0.0007917091716080904
1.729423322353382e+18,0.006784566678106785,0.008837779052555561,-0.00032026442931964993
1.729423322362382e+18,0.006861419416964054,0.005951253697276115,0.00018907905905507505
1.7294233223713823e+18,0.006189815700054169,0.008169657550752163,-0.0012150965631008148
1.7294233223773824e+18,0.003826738568022847,0.009330526925623417,-0.0005983508890494704
1.7294233223863826e+18,0.00578337674960494,0.008845312520861626,0.0025947613175958395
1.7294233223953828e+18,0.006981023121625185,0.006261616945266724,0.0015079932054504752
1.729423322404383e+18,0.010926160961389542,0.006674077361822128,0.0028183883987367153
1.7294233224133832e+18,0.01102079264819622,0.005590545944869518,-0.001412819605320692
1.7294233224223834e+18,0.008950963616371155,0.008511747233569622,0.0037827310152351856
1.7294233224283835e+18,0.007473891135305166,0.0072762989439070225,0.00012431875802576542
1.7294233224373837e+18,-0.000573392491787672,0.010247891768813133,0.0018406411400064826
1.7294233224463839e+18,0.0018111101817339659,0.008242398500442505,-0.0013044466031715274
1.729423322455384e+18,0.0014678676379844546,0.006588578224182129,-0.0026083404663950205
1.7294233224613842e+18,0.0012793797068297863,0.00556438323110342,-0.0010634205536916852
1.7294233224703844e+18,0.0071222251281142235,0.005539149511605501,0.0026831612922251225
1.7294233224793846e+18,0.008707543835043907,0.004726578015834093,-0.00047586762229911983
1.7294233224883848e+18,0.007797658443450928,0.004295609891414642,0.0009978872258216143
1.729423322497385e+18,0.0034109274856746197,0.005228946916759014,0.0006876634433865547
1.7294233225063852e+18,0.0033968850038945675,0.005723005160689354,-0.0010063969530165195
1.7294233225153853e+18,-0.0019238319946452975,0.00649076234549284,-0.000932681723497808
1.7294233225243855e+18,-0.0006920733721926808,0.006117209792137146,0.001282643643207848
1.7294233225333857e+18,-0.0009508859366178513,0.0020867169369012117,0.0003906182828359306
1.729423322542386e+18,0.0030088163912296295,0.0021530170924961567,0.0019124826649203897
1.729423322548386e+18,0.0002482763957232237,-0.000496862456202507,0.0018453779630362988
1.7294233225603863e+18,0.004522740840911865,-0.000806072901468724,0.002623590873554349
1.7294233225663864e+18,0.007412246894091368,0.002621152438223362,-0.0019073029980063438
1.7294233225753866e+18,0.0006514852284453809,0.0020273090340197086,0.002714507980272174
1.7294233225843868e+18,0.00025624444242566824,0.004713317379355431,0.00022816388809587806
1.729423322590387e+18,-0.000629891874268651,0.005215836688876152,-0.0034364592283964157
1.7294233225993871e+18,-0.0032325033098459244,-0.0008901460096240044,0.00029046577401459217
1.7294233226083873e+18,-0.001834742957726121,-0.001935876440256834,-0.002631691750138998
1.7294233226173875e+18,0.001171562704257667,0.0003798713441938162,0.0031631607562303543
1.7294233226263877e+18,0.0017487065633758903,0.0007330273510888219,0.0013130443403497338
1.7294233226323878e+18,0.004376315977424383,-0.0014624031027778983,-0.002121185651049018
1.729423322641388e+18,-0.0009318427182734013,0.0021993559785187244,-8.594361133873463e-06
1.7294233226503882e+18,0.003916564863175154,0.00175599311478436,-0.002189973136410117
1.7294233226593884e+18,0.0058388435281813145,0.004026375245302916,-0.003875407390296459
1.7294233226683886e+18,0.005822259932756424,0.0023022170644253492,-0.0020202910527586937
1.7294233226773888e+18,0.0043763467110693455,0.002042429056018591,-0.000553299265448004
1.729423322683389e+18,0.00522448867559433,0.0036569295916706324,0.0011395635083317757
1.729423322692389e+18,-0.0020966758020222187,0.0064848498441278934,-0.0020340443588793278
1.7294233227013893e+18,0.0019032449927181005,0.0047503323294222355,-0.0008112303330563009
1.7294233227103895e+18,0.0005558639531955123,0.009342670440673828,5.867852451046929e-05
1.7294233227163896e+18,0.003300032112747431,0.006366446148604155,0.00047113976324908435
1.7294233227253898e+18,0.0046665845438838005,0.007687592878937721,0.00029621177236549556
1.72942332273439e+18,0.004595819860696793,0.005144157912582159,-0.0006948993541300297
1.7294233227433902e+18,0.0005093428771942854,0.004872770980000496,-0.0010738697601482272
1.7294233227523904e+18,0.0017584494780749083,0.0059122806414961815,-0.001088154036551714
1.7294233227613906e+18,-0.0025630658492445946,0.004716313909739256,-0.002998556476086378
1.7294233227703908e+18,0.0016384629998356104,0.005932542495429516,0.0019233716884627938
1.729423322779391e+18,-0.0008501123520545661,0.0065828412771224976,-0.002169213257730007
1.7294233227883912e+18,0.0028976229950785637,0.007997501641511917,-0.0009491468663327396
1.7294233227943913e+18,0.005253488197922707,0.006833463441580534,-0.0013270349008962512
1.7294233228033915e+18,0.003594565438106656,0.006756369490176439,-0.0006863378803245723
1.7294233228123917e+18,0.001383317867293954,0.00638612313196063,0.001037522335536778
1.729423322821392e+18,-0.002448876854032278,0.0035500950179994106,-0.002968535292893648
1.729423322830392e+18,-0.0019758278504014015,0.003515204880386591,0.0011107493191957474
1.7294233228363922e+18,-0.00282705994322896,0.004250292666256428,-0.0015080939047038555
1.7294233228453924e+18,-0.0024200771003961563,0.006511206738650799,-0.001759364502504468
1.7294233228543926e+18,-0.0004004212678410113,0.008290151134133339,0.0006368833710439503
1.7294233228633928e+18,0.0017764400690793991,0.006743317004293203,-0.0005460804095491767
1.729423322869393e+18,0.0031758768018335104,0.006496052723377943,0.0008479448151774704
1.729423322878393e+18,0.003328694263473153,0.0056833988055586815,0.001978043932467699
1.7294233228843932e+18,0.00413289200514555,0.008733198046684265,0.0007009725086390972
1.7294233228933934e+18,-0.0002687550149857998,0.005405358038842678,9.975716238841414e-05
1.7294233229023936e+18,-0.005903865210711956,0.00676626106724143,0.0015750359743833542
1.7294233229083937e+18,-0.0031242244876921177,0.007548558991402388,-0.0018326446879655123
1.729423322917394e+18,-0.004215496126562357,0.006932451389729977,-0.002127653919160366
1.729423322923394e+18,0.0018520040903240442,0.007705450523644686,0.0003428076743148267
1.7294233229323942e+18,-0.0005590640939772129,0.011306562460958958,-0.00036740151699632406
1.7294233229413944e+18,0.0015626525273546576,0.004822006449103355,0.0005189520306885242
1.7294233229473946e+18,0.0002483292482793331,0.007048695348203182,-0.004372646100819111
1.7294233229563948e+18,-0.0014940252294763923,0.006194780580699444,-0.001065606134943664
1.729423322965395e+18,-0.002761710435152054,0.005384371150285006,0.00044847483513876796
1.729423322971395e+18,-0.003768488299101591,0.003782161045819521,-0.004022402688860893
1.7294233229803953e+18,-0.0024697149638086557,0.007562708575278521,-0.00013185793068259954
1.7294233229923955e+18,-0.0007182868430390954,0.007235950790345669,-0.002776584355160594
1.7294233230013957e+18,0.0033210511319339275,0.006200852338224649,-0.0017603468149900436
1.729423323010396e+18,0.001957901520654559,0.007975772023200989,-0.0015680032083764672
1.729423323016396e+18,0.0018455684185028076,0.006514647044241428,-0.0046024746261537075
1.7294233230253962e+18,-0.0005763415829278529,0.005201664287596941,-0.002328057773411274
1.7294233230313964e+18,-0.0007433990249410272,0.0028958055190742016,-0.0012506445636972785
1.7294233230403965e+18,-0.002561091911047697,0.003129172371700406,-0.002073090523481369
1.7294233230463967e+18,-0.0013940928038209677,0.0068754577077925205,0.0012053143000230193
1.7294233230553969e+18,7.90475751273334e-05,0.007337569259107113,-0.0011096344096586108
1.729423323064397e+18,0.003233728464692831,0.008518589660525322,0.00045292728464119136
1.7294233230733972e+18,0.0029956032522022724,0.01046780962496996,-2.0445528207346797e-05
1.7294233230823974e+18,0.0034597432240843773,0.009995374828577042,-0.0015459135174751282
1.7294233230913976e+18,0.0028454444836825132,0.008996177464723587,-0.0008724677609279752
1.7294233231003978e+18,0.002068465342745185,0.009986809454858303,-0.0003532094706315547
1.729423323109398e+18,0.0017541269771754742,0.007931815460324287,0.0001144039852079004
1.7294233231183982e+18,0.10792731493711472,-0.2166360765695572,-0.0019301377469673753
1.7294233231243983e+18,0.33534255623817444,-0.6781585216522217,-0.0005598573479801416
1.7294233231333985e+18,0.7336076498031616,-1.4794466495513916,-9.756677900440991e-05
1.7294233231423987e+18,1.2596255540847778,-2.2206294536590576,0.0034362049773335457
1.7294233231483988e+18,1.6960747241973877,-2.562987804412842,0.001254144823178649
1.729423323157399e+18,2.257930040359497,-2.7634525299072266,-0.0014126795576885343
1.7294233231663992e+18,2.608415365219116,-2.6666464805603027,-0.003661605529487133
1.7294233231723994e+18,2.6930510997772217,-2.5338294506073,-0.003340265015140176
1.7294233231813996e+18,2.6290340423583984,-2.365102767944336,-0.010253524407744408
1.7294233231903997e+18,2.462918996810913,-2.353323459625244,-0.012297662906348705
1.7294233231994e+18,2.342679023742676,-2.4727694988250732,-0.015162060968577862
1.7294233232084001e+18,2.347787618637085,-2.6312501430511475,-0.01966959610581398
1.7294233232144003e+18,2.4116194248199463,-2.700148344039917,-0.024405932053923607
1.7294233232234004e+18,2.5383336544036865,-2.6906731128692627,-0.02544553019106388
1.7294233232324006e+18,2.5962588787078857,-2.545825719833374,-0.029180480167269707
1.7294233232414008e+18,2.502845048904419,-2.32319712638855,-0.0355115681886673
1.729423323247401e+18,2.365827798843384,-2.1725568771362305,-0.03492984175682068
1.7294233232594012e+18,1.9940119981765747,-1.9440861940383911,-0.043492354452610016
1.7294233232654013e+18,1.8212018013000488,-1.869612693786621,-0.048847369849681854
1.7294233232744015e+18,1.6443161964416504,-1.8021328449249268,-0.05422414094209671
1.7294233232834017e+18,1.5643045902252197,-1.7273329496383667,-0.061870720237493515
1.729423323292402e+18,1.5411369800567627,-1.6188974380493164,-0.0675109475851059
1.729423323301402e+18,1.4925708770751953,-1.458520770072937,-0.0770982876420021
1.7294233233104023e+18,1.3655599355697632,-1.2775927782058716,-0.08683749288320541
1.7294233233194025e+18,1.1637401580810547,-1.100327491760254,-0.09503130614757538
1.7294233233284027e+18,0.9210665225982666,-0.9427403211593628,-0.10294631123542786
1.7294233233344028e+18,0.7800530195236206,-0.8580771684646606,-0.11079609394073486
1.729423323343403e+18,0.6203780770301819,-0.7507831454277039,-0.12136468291282654
1.7294233233524032e+18,0.5384265184402466,-0.6592577695846558,-0.1264534294605255
1.7294233233584033e+18,0.5119336247444153,-0.5928643941879272,-0.13498061895370483
1.7294233233674035e+18,0.4825255274772644,-0.4872957170009613,-0.14526964724063873
1.7294233233764037e+18,0.41787368059158325,-0.37239131331443787,-0.15483863651752472
1.729423323385404e+18,0.31121692061424255,-0.25802505016326904,-0.1657954305410385
1.729423323394404e+18,0.17100957036018372,-0.16165678203105927,-0.1712701916694641
1.7294233234004042e+18,0.07916305214166641,-0.10418402403593063,-0.17996779084205627
1.7294233234094044e+18,-0.031178977340459824,-0.03647368401288986,-0.18705013394355774
1.7294233234214047e+18,-0.10245698690414429,0.03566659986972809,-0.2002628892660141
1.7294233234304049e+18,-0.11356732249259949,0.0949522852897644,-0.20768125355243683
1.729423323439405e+18,-0.1287459433078766,0.15211449563503265,-0.21483086049556732
1.7294233234514053e+18,-0.18189053237438202,0.23364074528217316,-0.2280549854040146
1.7294233234604055e+18,-0.24884404242038727,0.2812466621398926,-0.23934639990329742
1.7294233234694057e+18,-0.31283092498779297,0.3175191283226013,-0.24673910439014435
1.729423323478406e+18,-0.3581245541572571,0.3357801139354706,-0.25346753001213074
1.729423323487406e+18,-0.36557433009147644,0.34834766387939453,-0.2599959075450897
1.7294233234964063e+18,-0.3562863767147064,0.36056169867515564,-0.2682953476905823
1.7294233235054065e+18,-0.346340149641037,0.37822332978248596,-0.2777116894721985
1.7294233235144067e+18,-0.35104450583457947,0.40321704745292664,-0.2842799127101898
1.7294233235234068e+18,-0.37484243512153625,0.4263618290424347,-0.288667231798172
1.729423323532407e+18,-0.41119787096977234,0.4390890300273895,-0.29724225401878357
1.7294233235414072e+18,-0.4275614321231842,0.4388474225997925,-0.3026829957962036
1.7294233235504074e+18,-0.4313807487487793,0.4322313666343689,-0.3087739050388336
1.7294233235594076e+18,-0.41261306405067444,0.42023226618766785,-0.31400710344314575
1.7294233235684078e+18,-0.3908920884132385,0.4144384562969208,-0.32261863350868225
1.729423323577408e+18,-0.37150442600250244,0.40974539518356323,-0.32743263244628906
1.729423323583408e+18,-0.36152341961860657,0.4089905917644501,-0.3284154236316681
1.7294233235924083e+18,-0.3722342252731323,0.4085843563079834,-0.33677688241004944
1.7294233236014085e+18,-0.39651522040367126,0.4141324460506439,-0.342073917388916
1.7294233236104087e+18,-0.41604819893836975,0.41159895062446594,-0.3488008677959442
1.7294233236164088e+18,-0.42450547218322754,0.4115124046802521,-0.3507671654224396
1.729423323625409e+18,-0.41529548168182373,0.40630197525024414,-0.35774585604667664
1.7294233236344092e+18,-0.3922032117843628,0.3941444158554077,-0.35978496074676514
1.7294233236434094e+18,-0.3636816143989563,0.37633687257766724,-0.36220505833625793
1.7294233236524096e+18,-0.33945152163505554,0.3622407019138336,-0.3650439381599426
1.7294233236614098e+18,-0.33716195821762085,0.3552187979221344,-0.36631515622138977
1.72942332367041e+18,-0.3481711745262146,0.35398080945014954,-0.3718910813331604
1.7294233236824102e+18,-0.3751998841762543,0.35481521487236023,-0.3771808445453644
1.7294233236884104e+18,-0.37771689891815186,0.3562726080417633,-0.38105112314224243
1.7294233236974106e+18,-0.37294402718544006,0.35366353392601013,-0.381740003824234
1.7294233237064108e+18,-0.3558129668235779,0.3407573699951172,-0.3839765787124634
1.729423323715411e+18,-0.3259391784667969,0.32979947328567505,-0.3882337212562561
1.7294233237244111e+18,-0.305574506521225,0.3173993229866028,-0.38793662190437317
1.7294233237334113e+18,-0.29705363512039185,0.3049933612346649,-0.39406347274780273
1.7294233237424115e+18,-0.3072280287742615,0.30208733677864075,-0.3938867747783661
1.7294233237514117e+18,-0.3175680637359619,0.2971609830856323,-0.3958595097064972
1.7294233237574118e+18,-0.32504937052726746,0.30182135105133057,-0.39519202709198
1.729423323766412e+18,-0.3244457244873047,0.29970163106918335,-0.3981878459453583
1.7294233237754122e+18,-0.31228548288345337,0.30144479870796204,-0.3956070840358734
1.7294233237814124e+18,-0.3001488447189331,0.29999086260795593,-0.3981563150882721
1.7294233237904125e+18,-0.28265419602394104,0.300149142742157,-0.40102890133857727
1.7294233237964127e+18,-0.28302210569381714,0.29597005248069763,-0.40300658345222473
1.7294233238054129e+18,-0.28545865416526794,0.29779309034347534,-0.4006725251674652
1.729423323811413e+18,-0.2920251786708832,0.29509636759757996,-0.4019238352775574
1.7294233238204132e+18,-0.28924208879470825,0.2883733808994293,-0.3999958038330078
1.7294233238294134e+18,-0.28490009903907776,0.2851422131061554,-0.40320971608161926
1.7294233238384136e+18,-0.27618125081062317,0.28410208225250244,-0.39854949712753296
1.7294233238474138e+18,-0.26498842239379883,0.2838582396507263,-0.3994555175304413
1.729423323856414e+18,-0.2631781995296478,0.29042941331863403,-0.40131238102912903
1.7294233238654141e+18,-0.26644858717918396,0.2979128062725067,-0.3968522846698761
1.7294233238744143e+18,-0.2704673409461975,0.29556047916412354,-0.3970080614089966
1.7294233238804145e+18,-0.2699887454509735,0.2927887439727783,-0.39753684401512146
1.7294233238894147e+18,-0.2621074914932251,0.28828325867652893,-0.3951089382171631
1.7294233238954148e+18,-0.25496357679367065,0.28273698687553406,-0.39543771743774414
1.729423323904415e+18,-0.24302397668361664,0.2823708653450012,-0.39223113656044006
1.7294233239134152e+18,-0.2376338094472885,0.28543365001678467,-0.3916286826133728
1.7294233239224154e+18,-0.23438163101673126,0.29291853308677673,-0.3900574743747711
1.7294233239314156e+18,-0.2415395975112915,0.29789355397224426,-0.38386690616607666
1.7294233239404157e+18,-0.24836529791355133,0.3023308217525482,-0.3813609480857849
1.7294233239464159e+18,-0.2559381425380707,0.3094608783721924,-0.38121095299720764
1.7294233239584161e+18,-0.2558952569961548,0.30893954634666443,-0.3770824372768402
1.7294233239674163e+18,-0.2584714889526367,0.31132426857948303,-0.3742155432701111
1.7294233239764165e+18,-0.24787567555904388,0.30729836225509644,-0.3710971176624298
1.7294233239854167e+18,-0.24534837901592255,0.3067220449447632,-0.36979639530181885
1.729423323994417e+18,-0.23926813900470734,0.30635175108909607,-0.3670870363712311
1.7294233240064172e+18,-0.2324998378753662,0.3057028651237488,-0.3593735992908478
1.7294233240154173e+18,-0.23108215630054474,0.3075166940689087,-0.3577684462070465
1.7294233240244175e+18,-0.23751616477966309,0.3089512288570404,-0.35373038053512573
1.7294233240304177e+18,-0.23883579671382904,0.30842095613479614,-0.35241276025772095
1.7294233240394179e+18,-0.24770429730415344,0.31196707487106323,-0.3448343276977539
1.729423324048418e+18,-0.25022292137145996,0.3125191032886505,-0.343504399061203
1.7294233240574182e+18,-0.2474280595779419,0.31004151701927185,-0.3411716818809509
1.7294233240664184e+18,-0.2348550409078598,0.31066638231277466,-0.3331490755081177
1.7294233240754186e+18,-0.22425146400928497,0.3096790313720703,-0.32880496978759766
1.7294233240844188e+18,-0.22088448703289032,0.3129889667034149,-0.3246152102947235
1.729423324093419e+18,-0.23166337609291077,0.31712859869003296,-0.32199424505233765
1.7294233241024192e+18,-0.24395468831062317,0.32524698972702026,-0.31520578265190125
1.7294233241114194e+18,-0.2529536783695221,0.32663029432296753,-0.30884894728660583
1.7294233241204196e+18,-0.2558043599128723,0.32287588715553284,-0.3036564290523529
1.7294233241294198e+18,-0.25267961621284485,0.3189549148082733,-0.29891324043273926
1.72942332413842e+18,-0.23894010484218597,0.3160952925682068,-0.2933304011821747
1.7294233241474202e+18,-0.22803835570812225,0.30985942482948303,-0.2898775637149811
1.7294233241564204e+18,-0.22055387496948242,0.31102773547172546,-0.28657668828964233
1.7294233241654205e+18,-0.2239740937948227,0.3101300597190857,-0.27969232201576233
1.7294233241744207e+18,-0.23394757509231567,0.30928364396095276,-0.2692030668258667
1.729423324183421e+18,-0.23576819896697998,0.3148408830165863,-0.26751643419265747
1.729423324189421e+18,-0.23785707354545593,0.31302276253700256,-0.2634090483188629
1.7294233241984212e+18,-0.235912024974823,0.31734105944633484,-0.2574974298477173
1.7294233242074214e+18,-0.23292961716651917,0.31908130645751953,-0.249267578125
1.7294233242164216e+18,-0.2241484522819519,0.3257709741592407,-0.24693438410758972
1.7294233242254218e+18,-0.21947701275348663,0.3216162323951721,-0.24186617136001587
1.729423324231422e+18,-0.21743661165237427,0.32041916251182556,-0.2383398413658142
1.7294233242404221e+18,-0.22006602585315704,0.31507501006126404,-0.22914819419384003
1.7294233242494223e+18,-0.2197464555501938,0.313601016998291,-0.22468586266040802
1.7294233242584225e+18,-0.22866041958332062,0.30828583240509033,-0.2178141325712204
1.7294233242674227e+18,-0.23126567900180817,0.30827268958091736,-0.21225036680698395
1.729423324276423e+18,-0.23313680291175842,0.3020411431789398,-0.20470790565013885
1.729423324285423e+18,-0.23459909856319427,0.30426883697509766,-0.19760273396968842
1.7294233242944233e+18,-0.2341986447572708,0.3073349893093109,-0.19126956164836884
1.7294233243034235e+18,-0.2270217090845108,0.3039943277835846,-0.18800602853298187
1.7294233243124237e+18,-0.21959742903709412,0.2979182302951813,-0.18215411901474
1.729423324321424e+18,-0.217838317155838,0.29529663920402527,-0.17062878608703613
1.729423324330424e+18,-0.2106310874223709,0.2910723090171814,-0.16709937155246735
1.7294233243394243e+18,-0.21046437323093414,0.29431411623954773,-0.1626269519329071
1.7294233243484244e+18,-0.21266743540763855,0.29711228609085083,-0.1569923311471939
1.7294233243574246e+18,-0.21182438731193542,0.2964865565299988,-0.14828018844127655
1.7294233243664248e+18,-0.21848012506961823,0.2946595847606659,-0.1453249603509903
1.729423324375425e+18,-0.2258020043373108,0.2908284068107605,-0.13592985272407532
1.7294233243844252e+18,-0.22426441311836243,0.2855273187160492,-0.13110296428203583
1.7294233243934254e+18,-0.21911484003067017,0.2833632230758667,-0.12288370728492737
1.7294233244024256e+18,-0.21873465180397034,0.28109973669052124,-0.11810869723558426
1.7294233244114258e+18,-0.21044978499412537,0.2783365249633789,-0.11096817255020142
1.729423324420426e+18,-0.2037118673324585,0.276405930519104,-0.10432283580303192
1.7294233244294262e+18,-0.19897396862506866,0.27149465680122375,-0.09961723536252975
1.7294233244384264e+18,-0.19987884163856506,0.2679809629917145,-0.09345342963933945
1.7294233244474266e+18,-0.20551620423793793,0.2638990581035614,-0.08931802213191986
1.7294233244564268e+18,-0.21586334705352783,0.2629290521144867,-0.08175790309906006
1.729423324465427e+18,-0.21642658114433289,0.2679292559623718,-0.07291776686906815
1.7294233244744271e+18,-0.20756874978542328,0.26780956983566284,-0.07002295553684235
1.7294233244864274e+18,-0.19563594460487366,0.2681295871734619,-0.06075555831193924
1.7294233244924275e+18,-0.18945567309856415,0.26242583990097046,-0.05950722470879555
1.7294233245014277e+18,-0.18827086687088013,0.2559256851673126,-0.05304194986820221
1.729423324510428e+18,-0.19616632163524628,0.2487603724002838,-0.043624501675367355
1.729423324516428e+18,-0.20322073996067047,0.2483014613389969,-0.041952721774578094
1.7294233245254282e+18,-0.21230848133563995,0.24853463470935822,-0.03902431204915047
1.7294233245344284e+18,-0.21379771828651428,0.24826157093048096,-0.03145755082368851
1.7294233245434286e+18,-0.2106774002313614,0.25008872151374817,-0.025679759681224823
1.7294233245494287e+18,-0.2071053832769394,0.24803659319877625,-0.022760262712836266
1.729423324558429e+18,-0.19466304779052734,0.2460758239030838,-0.014950303360819817
1.729423324564429e+18,-0.19255733489990234,0.24263139069080353,-0.014256627298891544
1.7294233245734292e+18,-0.19076459109783173,0.23962950706481934,-0.009004230611026287
1.7294233245824294e+18,-0.18908332288265228,0.23846909403800964,-0.0007106631528586149
1.7294233245914296e+18,-0.18785865604877472,0.23588000237941742,0.005480216816067696
1.7294233246004298e+18,-0.1906261444091797,0.2314494252204895,0.00892468448728323
1.72942332460643e+18,-0.18651926517486572,0.22907403111457825,0.010268673300743103
1.7294233246154301e+18,-0.18796417117118835,0.22281871736049652,0.01638994738459587
1.7294233246244303e+18,-0.18717806041240692,0.21781331300735474,0.021009312942624092
1.7294233246304305e+18,-0.18535904586315155,0.21593865752220154,0.023651624098420143
1.7294233246394307e+18,-0.18296968936920166,0.22086602449417114,0.027562031522393227
1.7294233246484308e+18,-0.1817566156387329,0.22443950176239014,0.03404831886291504
1.729423324654431e+18,-0.17740507423877716,0.224497988820076,0.036588847637176514
1.7294233246634312e+18,-0.1790274679660797,0.22280865907669067,0.04281022399663925
1.7294233246724314e+18,-0.18246184289455414,0.21286845207214355,0.04422873631119728
1.7294233246814316e+18,-0.18546970188617706,0.20443148910999298,0.05097033083438873
1.7294233246904317e+18,-0.18756349384784698,0.19719578325748444,0.05380606651306152
1.729423324699432e+18,-0.19242960214614868,0.19191572070121765,0.06019599363207817
1.7294233247084321e+18,-0.1913473755121231,0.19576753675937653,0.06174696981906891
1.7294233247174323e+18,-0.1908644735813141,0.1966126412153244,0.06760372221469879
1.7294233247234324e+18,-0.18741880357265472,0.19610720872879028,0.0699114054441452
1.7294233247324326e+18,-0.1783464550971985,0.19263900816440582,0.07527252286672592
1.7294233247414328e+18,-0.1727786511182785,0.18706034123897552,0.07713937014341354
1.729423324747433e+18,-0.17112308740615845,0.18661214411258698,0.08062399923801422
1.7294233247564332e+18,-0.17200687527656555,0.17958949506282806,0.08499293029308319
1.7294233247624333e+18,-0.17600949108600616,0.17727699875831604,0.08642177283763885
1.7294233247714335e+18,-0.17765548825263977,0.17296959459781647,0.09075923264026642
1.7294233247804337e+18,-0.17806608974933624,0.17437493801116943,0.09112662822008133
1.7294233247864338e+18,-0.17670929431915283,0.17676231265068054,0.09478506445884705
1.729423324795434e+18,-0.17078863084316254,0.17944024503231049,0.09757337719202042
1.7294233248044342e+18,-0.16492243111133575,0.1841820478439331,0.09881217032670975
1.7294233248134344e+18,-0.1611003428697586,0.1846405565738678,0.10482319444417953
1.7294233248194345e+18,-0.16125190258026123,0.1828991174697876,0.10634519904851913
1.7294233248314348e+18,-0.1598357856273651,0.1849217712879181,0.11010638624429703
1.729423324840435e+18,-0.15948081016540527,0.1762036681175232,0.11301132291555405
1.7294233248494351e+18,-0.15512947738170624,0.1729590892791748,0.11547954380512238
1.7294233248554353e+18,-0.15205296874046326,0.16956423223018646,0.117810919880867
1.7294233248674355e+18,-0.14540590345859528,0.1813449263572693,0.11873610317707062
1.7294233248734356e+18,-0.14886124432086945,0.18274927139282227,0.11998096853494644
1.7294233248824358e+18,-0.15041884779930115,0.18768520653247833,0.1235661655664444
1.729423324891436e+18,-0.15241731703281403,0.18518221378326416,0.12543074786663055
1.7294233248974362e+18,-0.15797385573387146,0.18306997418403625,0.12849725782871246
1.7294233249064364e+18,-0.15733233094215393,0.17112019658088684,0.13040919601917267
1.7294233249154365e+18,-0.1485758125782013,0.17087218165397644,0.1303461194038391
1.7294233249244367e+18,-0.1404389590024948,0.1778275966644287,0.13377270102500916
1.729423324933437e+18,-0.13132500648498535,0.1855155974626541,0.1336682289838791
1.729423324942437e+18,-0.12320566177368164,0.19263707101345062,0.1352924406528473
1.7294233249484372e+18,-0.12176690250635147,0.19989517331123352,0.13563042879104614
1.7294233249574374e+18,-0.11982829123735428,0.20837236940860748,0.1380891501903534
1.7294233249664376e+18,-0.12036753445863724,0.21649035811424255,0.1398400217294693
1.7294233249724378e+18,-0.11707409471273422,0.22711195051670074,0.1367863565683365
1.729423324981438e+18,-0.11330511420965195,0.24246203899383545,0.14013710618019104
1.7294233249904381e+18,-0.10695292055606842,0.24152986705303192,0.14330534636974335
1.7294233249964383e+18,-0.09842437505722046,0.24477103352546692,0.14175650477409363
1.7294233250054385e+18,-0.1023065373301506,0.2311815768480301,0.1442026048898697
1.7294233250114386e+18,-0.10204636305570602,0.2236437350511551,0.14206033945083618
1.7294233250204388e+18,-0.1069791316986084,0.21844777464866638,0.14722636342048645
1.729423325029439e+18,-0.10948152840137482,0.22129201889038086,0.14232513308525085
1.7294233250384392e+18,-0.1081736832857132,0.23674620687961578,0.1450757086277008
1.7294233250444393e+18,-0.10132468491792679,0.24443694949150085,0.14537906646728516
1.7294233250534395e+18,-0.09800639748573303,0.25579530000686646,0.14574302732944489
1.7294233250594396e+18,-0.1081416979432106,0.24743439257144928,0.14290575683116913
1.7294233250684398e+18,-0.18567965924739838,0.152178555727005,0.14335766434669495
1.72942332507744e+18,-0.2885913550853729,0.03865210711956024,0.14720916748046875
1.7294233250864402e+18,-0.3833102881908417,-0.06599032878875732,0.14790843427181244
1.7294233250924403e+18,-0.4317742884159088,-0.12470738589763641,0.14978332817554474
1.7294233251014405e+18,-0.44436115026474,-0.15891556441783905,0.1485900580883026
1.7294233251104407e+18,-0.4133090078830719,-0.14675454795360565,0.15171070396900177
1.729423325119441e+18,-0.3643742799758911,-0.11871370673179626,0.14915038645267487
1.729423325128441e+18,-0.32689130306243896,-0.09610193967819214,0.15174295008182526
1.7294233251344412e+18,-0.32542183995246887,-0.0988103523850441,0.15000298619270325
1.7294233251434414e+18,-0.34762728214263916,-0.11736590415239334,0.14864781498908997
1.7294233251524416e+18,-0.3753560483455658,-0.1315479725599289,0.14745627343654633
1.7294233251614418e+18,-0.3923238515853882,-0.1442335993051529,0.15074405074119568
1.729423325170442e+18,-0.37859252095222473,-0.13121961057186127,0.14932815730571747
1.7294233251794422e+18,-0.3386014997959137,-0.11335831135511398,0.14868232607841492
1.7294233251884424e+18,-0.28903308510780334,-0.08683940023183823,0.14846175909042358
1.7294233251974426e+18,-0.2517552673816681,-0.05853479355573654,0.14794066548347473
1.7294233252034427e+18,-0.24017372727394104,-0.0411582812666893,0.15051457285881042
1.729423325215443e+18,-0.2410985380411148,-0.00986719410866499,0.14631371200084686
1.7294233252244431e+18,-0.24881485104560852,0.0043210601434111595,0.14737452566623688
1.7294233252304433e+18,-0.2544460892677307,0.009567875415086746,0.14554156363010406
1.7294233252424435e+18,-0.23640069365501404,0.019391965121030807,0.14815357327461243
1.7294233252514437e+18,-0.20380063354969025,0.03002769686281681,0.14167554676532745
1.729423325260444e+18,-0.16984830796718597,0.0461009256541729,0.1413630098104477
1.729423325269444e+18,-0.1441243439912796,0.061947498470544815,0.14175516366958618
1.7294233252784443e+18,-0.12794989347457886,0.0711667388677597,0.1382295787334442
1.7294233252874445e+18,-0.1326640248298645,0.08196162432432175,0.13834388554096222
1.7294233252964447e+18,-0.1390460878610611,0.08948969095945358,0.13660737872123718
1.7294233253054449e+18,-0.1387002170085907,0.09704656898975372,0.13703638315200806
1.729423325314445e+18,-0.12607888877391815,0.10641857236623764,0.13636377453804016
1.7294233253204452e+18,-0.11399305611848831,0.11352239549160004,0.13599924743175507
1.7294233253294454e+18,-0.09246755391359329,0.12267328053712845,0.1331758052110672
1.7294233253384456e+18,-0.0739346444606781,0.12706401944160461,0.1300821155309677
1.7294233253444457e+18,-0.06764830648899078,0.1250353902578354,0.13647082448005676
1.729423325353446e+18,-0.07213058322668076,0.13209231197834015,0.13068625330924988
1.729423325362446e+18,-0.07879898697137833,0.13438929617404938,0.12992936372756958
1.7294233253714463e+18,-0.08779137581586838,0.13839298486709595,0.12821009755134583
1.7294233253804465e+18,-0.08616349846124649,0.14451631903648376,0.12545177340507507
1.7294233253894467e+18,-0.07434532791376114,0.15414558351039886,0.1257670819759369
1.7294233253984468e+18,-0.059663351625204086,0.15479165315628052,0.1173403188586235
1.729423325407447e+18,-0.05076109990477562,0.15530380606651306,0.11905409395694733
1.7294233254164472e+18,-0.05007803812623024,0.1588110327720642,0.11857621371746063
1.7294233254254474e+18,-0.053079940378665924,0.158670112490654,0.11673545837402344
1.7294233254344476e+18,-0.06466615200042725,0.1554364562034607,0.11421819776296616
1.7294233254434478e+18,-0.06725247949361801,0.15285488963127136,0.11447571963071823
1.729423325452448e+18,-0.06901921331882477,0.15077362954616547,0.1111045703291893
1.7294233254614482e+18,-0.06378695368766785,0.14757834374904633,0.1090339794754982
1.7294233254704484e+18,-0.057710904628038406,0.13762986660003662,0.10851968079805374
1.7294233254794486e+18,-0.055144332349300385,0.13523700833320618,0.10859096795320511
1.7294233254884488e+18,-0.061033520847558975,0.1293313205242157,0.10589880496263504
1.7294233255094492e+18,-0.0738261342048645,0.11806099116802216,0.10214472562074661
1.7294233255184494e+18,-0.07299258559942245,0.10780133306980133,0.09954805672168732
1.7294233255274496e+18,-0.07336179912090302,0.09334696829319,0.09313938021659851
1.7294233255364498e+18,-0.06954602897167206,0.08840544521808624,0.09507590532302856
1.72942332554845e+18,-0.07373956590890884,0.08296453207731247,0.09217937290668488
1.7294233255574502e+18,-0.07329999655485153,0.08086847513914108,0.09089554846286774
1.7294233255664504e+18,-0.07823683321475983,0.07756239920854568,0.08499561250209808
1.7294233255754506e+18,-0.08015401661396027,0.06140492111444473,0.08476947993040085
1.7294233255844508e+18,-0.07866253703832626,0.0546284094452858,0.0830346941947937
1.729423325593451e+18,-0.07924240827560425,0.04752569645643234,0.08034832775592804
1.7294233256024512e+18,-0.08296152204275131,0.04060034826397896,0.07899446040391922
1.7294233256114514e+18,-0.08238884806632996,0.03709860518574715,0.07469813525676727
1.7294233256204516e+18,-0.07968518882989883,0.0332961268723011,0.07421015202999115
