timestamp,accel_x,accel_y,accel_z
1.727526798707932e+18,0.015784364193677902,0.05892699584364891,-9.849296569824219
1.727526798716932e+18,0.023385867476463318,0.05475068464875221,-9.768427848815918
1.7275267987229322e+18,0.004077163524925709,-0.03006933629512787,-9.821501731872559
1.7275267987259323e+18,-0.012205640785396099,-0.01741686649620533,-9.806522369384766
1.7275267987319324e+18,0.02313743159174919,0.09266336262226105,-9.863608360290527
1.7275267987379325e+18,-0.0049539050087332726,-0.024327071383595467,-9.89118480682373
1.7275267987439327e+18,-0.09426320344209671,-0.013342086225748062,-9.755413055419922
1.7275267987469327e+18,-0.03869498893618584,-0.018105523660779,-9.881645202636719
1.7275267987529329e+18,0.011384367942810059,-0.001007894636131823,-9.858819961547852
1.727526798758933e+18,0.051522139459848404,-0.06702463328838348,-9.858386039733887
1.727526798761933e+18,0.04801594838500023,-0.010710013099014759,-9.821125984191895
1.7275267987679332e+18,-0.0027597718872129917,0.04182668775320053,-9.756051063537598
1.7275267987739333e+18,0.008005425333976746,-0.05712085962295532,-9.797049522399902
1.7275267987799334e+18,0.044714897871017456,0.007676772307604551,-9.793745994567871
1.7275267987859336e+18,0.06979881227016449,0.02657139115035534,-9.783693313598633
1.7275267987889336e+18,-0.06869740039110184,0.002411921275779605,-9.792105674743652
1.7275267987949338e+18,0.028828445822000504,0.03012499399483204,-9.832069396972656
1.727526798800934e+18,0.061610251665115356,-0.060053709894418716,-9.711968421936035
1.727526798806934e+18,-0.05206069350242615,0.03601453825831413,-9.836681365966797
1.727526798809934e+18,-0.032248515635728836,-0.009525885805487633,-9.751768112182617
1.7275267988159342e+18,-0.044500142335891724,0.0035989705938845873,-9.787357330322266
1.7275267988219343e+18,-0.07029923796653748,0.018743447959423065,-9.738359451293945
1.7275267988279345e+18,-0.026455430313944817,0.005766857881098986,-9.782194137573242
1.7275267988309345e+18,0.0789511576294899,-0.0861075147986412,-9.805485725402832
1.7275267988369347e+18,-0.01275655161589384,0.012304679490625858,-9.745264053344727
1.7275267988429348e+18,-0.009977662935853004,-0.05585049092769623,-9.793313026428223
1.7275267988459348e+18,-0.015090500004589558,0.006197084207087755,-9.75660514831543
1.727526798851935e+18,0.0017841514199972153,0.0385286808013916,-9.75922679901123
1.727526798857935e+18,0.0007437200983986259,0.017700694501399994,-9.779977798461914
1.7275267988609352e+18,-0.02027207240462303,-0.01843016967177391,-9.790932655334473
1.7275267988669353e+18,0.018484611064195633,-0.0224160049110651,-9.833414077758789
1.7275267988729354e+18,-0.004068424459546804,-0.036391519010066986,-9.76535701751709
1.7275267988789356e+18,-0.04858441278338432,0.010484347119927406,-9.737371444702148
1.7275267988819356e+18,0.05970674753189087,-0.00046744418796151876,-9.78760051727295
1.7275267988879357e+18,-0.008664017543196678,0.04690997302532196,-9.853117942810059
1.7275267988939359e+18,0.0198555625975132,0.015877215191721916,-9.762421607971191
1.727526798899936e+18,0.020876185968518257,0.05266695097088814,-9.76960277557373
1.727526798902936e+18,0.0388602577149868,0.02369956485927105,-9.839882850646973
1.7275267989089362e+18,0.00395622756332159,0.052048973739147186,-9.769458770751953
1.7275267989149363e+18,0.0747988298535347,-0.03778088837862015,-9.82412338256836
1.7275267989179364e+18,-0.0054641542956233025,0.018200643360614777,-9.804222106933594
1.7275267989239365e+18,0.011270962655544281,0.005610163789242506,-9.821488380432129
1.7275267989299366e+18,-0.03153382986783981,-0.007336275652050972,-9.835013389587402
1.7275267989359368e+18,0.005397394299507141,-0.06365908682346344,-9.75867748260498
1.7275267989389368e+18,0.08940684050321579,0.013718117028474808,-9.807881355285645
1.727526798944937e+18,0.041417717933654785,0.10035540908575058,-9.773655891418457
1.727526798950937e+18,0.010222637094557285,-0.02242252789437771,-9.837136268615723
1.7275267989569372e+18,0.01599653996527195,0.02045542187988758,-9.90166187286377
1.7275267989599373e+18,0.009214523248374462,0.04048556834459305,-9.77957820892334
1.7275267989659374e+18,-0.07706915587186813,-0.09018829464912415,-9.83875560760498
1.7275267989719375e+18,-0.010730906389653683,-0.03483011573553085,-9.762200355529785
1.7275267989749376e+18,-0.058930762112140656,0.04289368912577629,-9.906539916992188
1.7275267989809377e+18,-0.03745045140385628,0.05693800747394562,-9.77991008758545
1.7275267989869379e+18,-0.06731941550970078,0.017212623730301857,-9.79369831085205
1.727526798992938e+18,-0.08339589834213257,0.017787663266062737,-9.837274551391602
1.727526798995938e+18,0.034887269139289856,0.04560070484876633,-9.719616889953613
1.7275267990019382e+18,0.003652575658634305,0.010723735205829144,-9.800448417663574
1.7275267990079383e+18,-0.040843985974788666,0.041795216500759125,-9.7990083694458
1.7275267990139384e+18,-0.002372180577367544,0.012882248498499393,-9.779486656188965
1.7275267990169385e+18,0.009876593016088009,-0.007772528100758791,-9.811079025268555
1.7275267990229386e+18,-0.011286141350865364,0.0420561321079731,-9.835155487060547
1.7275267990289388e+18,-0.019646648317575455,-0.02240651659667492,-9.790403366088867
1.7275267990319388e+18,-0.012121639214456081,-0.009949629195034504,-9.85494327545166
1.727526799037939e+18,-0.01480620726943016,-0.10429828613996506,-9.783218383789062
1.727526799043939e+18,-0.0347403921186924,0.03536331653594971,-9.873502731323242
1.7275267990499392e+18,-0.06897197663784027,-0.029068859294056892,-9.913658142089844
1.7275267990529393e+18,-0.029118172824382782,-0.044443149119615555,-9.789532661437988
1.7275267990589394e+18,0.07953736186027527,-0.03372347727417946,-9.738701820373535
1.7275267990649395e+18,-0.006808120757341385,0.056459106504917145,-9.80174732208252
1.7275267990679396e+18,-0.04897378757596016,-0.04190649464726448,-9.737696647644043
1.7275267990739397e+18,-0.04847843945026398,0.048070549964904785,-9.814898490905762
1.7275267990799398e+18,-0.02570362202823162,0.046505823731422424,-9.876473426818848
1.72752679908294e+18,-0.007088181097060442,0.02356603369116783,-9.777983665466309
1.72752679908894e+18,0.02835957705974579,0.016139360144734383,-9.856027603149414
1.7275267990949402e+18,0.059781983494758606,0.003137759165838361,-9.84424877166748
1.7275267990979402e+18,0.0016865846700966358,-0.07847097516059875,-9.782666206359863
1.7275267991039404e+18,0.0027121189050376415,0.05641084909439087,-9.862382888793945
1.7275267991099405e+18,0.061500053852796555,0.036766063421964645,-9.783673286437988
1.7275267991129405e+18,0.00894224364310503,0.08159817010164261,-9.824333190917969
1.7275267991189407e+18,0.019858291372656822,0.04443471506237984,-9.799776077270508
1.7275267991249408e+18,0.009971406310796738,0.005286153871566057,-9.816537857055664
1.727526799130941e+18,0.028867030516266823,-0.01191334705799818,-9.84426498413086
1.727526799133941e+18,0.01805540733039379,-0.01820642687380314,-9.82973861694336
1.727526799139941e+18,0.04296829551458359,-0.01845533587038517,-9.816880226135254
1.7275267991459412e+18,-0.03216167911887169,0.0567953996360302,-9.772459983825684
1.7275267991489413e+18,0.07346434891223907,0.02094356156885624,-9.828452110290527
1.7275267991549414e+18,0.05869027227163315,-0.06270832568407059,-9.728002548217773
1.7275267991609416e+18,0.057131871581077576,-0.008162233047187328,-9.842494010925293
1.7275267991639416e+18,-0.007021745666861534,0.022111676633358,-9.822230339050293
1.7275267991699418e+18,-0.052607499063014984,0.01980043202638626,-9.789862632751465
1.727526799175942e+18,-0.10431454330682755,-0.02217758633196354,-9.833537101745605
1.727526799178942e+18,0.0001515263138571754,-0.08187317103147507,-9.772320747375488
1.7275267991879421e+18,0.0880277082324028,-0.07018617540597916,-9.852180480957031
1.7275267991909422e+18,0.052264053374528885,-0.008695496246218681,-9.867033958435059
1.7275267991969423e+18,0.009136042557656765,0.0011223123874515295,-9.862133026123047
1.7275267992029425e+18,0.08989755064249039,-0.03649948537349701,-9.8364896774292
1.7275267992059425e+18,-0.031017538160085678,0.0344507172703743,-9.856339454650879
1.7275267992119427e+18,0.027087831869721413,0.06438012421131134,-9.862797737121582
1.7275267992179428e+18,0.03288145363330841,-0.00926116667687893,-9.808989524841309
1.7275267992209428e+18,0.038023464381694794,0.0342344306409359,-9.867493629455566
1.727526799226943e+18,0.06741295754909515,-0.04511804133653641,-9.900856018066406
1.727526799232943e+18,-0.042228877544403076,0.064247265458107,-9.83848762512207
1.7275267992359432e+18,0.06528229266405106,-0.0055267284624278545,-9.868447303771973
1.7275267992419433e+18,0.05145558342337608,0.01027652807533741,-9.92403793334961
1.7275267992479434e+18,0.02190449833869934,-0.017644185572862625,-9.765130043029785
1.7275267992539436e+18,0.006151619832962751,-0.014628487639129162,-9.878366470336914
1.7275267992569436e+18,-0.009714396670460701,-0.031250737607479095,-9.848976135253906
1.7275267992629437e+18,-0.027494795620441437,-0.045888107270002365,-9.903145790100098
1.727526799268944e+18,0.059204649180173874,-0.12024082988500595,-9.868130683898926
1.727526799274944e+18,0.065902478992939,-0.0418202206492424,-9.920976638793945
1.727526799280944e+18,-0.028135137632489204,0.02993120811879635,-9.912132263183594
1.7275267992869443e+18,0.05426517501473427,0.01898353174328804,-10.098475456237793
1.7275267992899443e+18,-0.06445722281932831,-0.07493191957473755,-10.06057357788086
1.7275267992959444e+18,-0.043146487325429916,0.010749900713562965,-10.185830116271973
1.7275267993019446e+18,-0.04244518652558327,0.07968015223741531,-10.207503318786621
1.7275267993049446e+18,0.05992187559604645,-0.030737005174160004,-10.185917854309082
1.7275267993109448e+18,0.01233131717890501,-0.020190829411149025,-10.308238983154297
1.727526799316945e+18,-0.04549692943692207,0.025066638365387917,-10.295125007629395
1.727526799319945e+18,0.015364293940365314,-0.014639042317867279,-10.32384204864502
1.727526799325945e+18,0.020321989431977272,0.01936754584312439,-10.343610763549805
1.7275267993319452e+18,-0.02972717583179474,-0.02890811860561371,-10.462018966674805
1.7275267993349453e+18,-0.07415375113487244,0.025060690939426422,-10.4714994430542
1.7275267993409454e+18,-0.021643560379743576,-0.037799954414367676,-10.48387336730957
1.7275267993469455e+18,0.009460116736590862,0.07656477391719818,-10.6195707321167
1.7275267993529457e+18,0.07291249930858612,0.01606837846338749,-10.632742881774902
1.7275267993559457e+18,-0.09856866300106049,-0.005235516000539064,-10.643919944763184
1.7275267993619459e+18,0.04150310158729553,-0.08625815063714981,-10.694252967834473
1.727526799364946e+18,-0.04649881646037102,-0.020505156368017197,-10.685049057006836
1.727526799370946e+18,-0.028955597430467606,0.024676542729139328,-10.642362594604492
1.7275267993769462e+18,-0.015450863167643547,-0.06260471791028976,-10.717714309692383
1.7275267993799462e+18,-0.023044580593705177,-0.023172153159976006,-10.578652381896973
1.7275267993859464e+18,0.004487921483814716,-0.0071649374440312386,-10.620258331298828
1.7275267993919465e+18,0.07749108225107193,0.006894025951623917,-10.697589874267578
1.7275267993979466e+18,-0.01761195994913578,0.06978801637887955,-10.785051345825195
1.7275267994009467e+18,-0.07254566997289658,-0.04961177334189415,-10.723615646362305
1.7275267994069468e+18,0.03844065964221954,-0.020335355773568153,-10.721207618713379
1.727526799412947e+18,0.09324609488248825,0.014100086875259876,-10.757013320922852
1.727526799415947e+18,-0.0014415946789085865,0.028969595208764076,-10.78793716430664
1.7275267994219471e+18,-0.06253506988286972,0.05391452834010124,-10.76826286315918
1.7275267994249472e+18,-0.016086068004369736,0.020848458632826805,-10.733230590820312
1.7275267994309473e+18,0.08748219907283783,0.018631208688020706,-10.79765510559082
1.7275267994369475e+18,-0.021464210003614426,0.049652211368083954,-10.81152057647705
1.7275267994399475e+18,-0.016839846968650818,0.025388699024915695,-10.81965160369873
1.7275267994459476e+18,0.0025453465059399605,-0.023619867861270905,-10.77525806427002
1.7275267994519478e+18,-0.0008481568656861782,0.022566668689250946,-10.756182670593262
1.727526799457948e+18,0.0908002033829689,-0.023149212822318077,-10.839768409729004
1.727526799460948e+18,-0.06712530553340912,-0.048379190266132355,-10.75607681274414
1.727526799466948e+18,0.004595291335135698,-0.02925640158355236,-10.846860885620117
1.7275267994699482e+18,0.004172491375356913,0.013353517279028893,-10.742918968200684
1.7275267994759483e+18,-0.06677209585905075,-0.049741555005311966,-10.76923656463623
1.7275267994819484e+18,-0.011739302426576614,-0.03045976348221302,-10.743319511413574
1.7275267994849485e+18,-0.02051815390586853,0.03785446658730507,-10.747612953186035
1.7275267994909486e+18,-0.1074976846575737,0.13247963786125183,-10.771387100219727
1.7275267994969487e+18,-0.012603895738720894,0.005659377668052912,-10.776572227478027
1.7275267994999488e+18,-0.027092840522527695,0.08942118287086487,-10.741644859313965
1.727526799505949e+18,0.03058897703886032,0.014923344366252422,-10.763174057006836
1.727526799511949e+18,-0.043186675757169724,0.03036159835755825,-10.799077987670898
1.727526799514949e+18,0.02879379130899906,-0.008652151562273502,-10.78840446472168
1.7275267995209492e+18,0.03840404003858566,-0.058366429060697556,-10.724749565124512
1.7275267995269494e+18,-0.0668940618634224,0.028055185452103615,-10.751630783081055
1.7275267995329495e+18,-0.040351081639528275,0.01951422169804573,-10.768410682678223
1.7275267995359496e+18,0.05269559100270271,-0.007754744030535221,-10.761922836303711
1.7275267995419497e+18,0.037079762667417526,0.038390543311834335,-10.753104209899902
1.7275267995479498e+18,0.011497115716338158,0.02018495835363865,-10.648691177368164
1.72752679955095e+18,-0.003156838705763221,0.032132573425769806,-10.800271987915039
1.72752679955695e+18,0.02456595189869404,-0.020326808094978333,-10.73706340789795
1.7275267995629501e+18,-0.0010181248653680086,-0.03627127781510353,-10.760489463806152
1.7275267995659502e+18,-0.024001741781830788,0.03093598783016205,-10.710326194763184
1.7275267995719503e+18,-0.027509871870279312,0.048080794513225555,-10.735184669494629
1.7275267995779505e+18,0.08857228606939316,-0.027758147567510605,-10.826087951660156
1.7275267995839506e+18,0.08077768981456757,-0.011251484975218773,-10.684266090393066
1.7275267995869507e+18,0.09221018105745316,-0.007821659557521343,-10.798235893249512
1.7275267995929508e+18,-0.006944581866264343,0.0112800607457757,-10.77409839630127
1.727526799598951e+18,0.003804213833063841,0.019439494237303734,-10.79710865020752
1.727526799604951e+18,-0.008471357636153698,-0.04128960147500038,-10.797636985778809
1.727526799607951e+18,0.004397934768348932,-0.005204574670642614,-10.745063781738281
1.7275267996139512e+18,-0.02979501336812973,0.03616493195295334,-10.813042640686035
1.7275267996199514e+18,-0.010036704130470753,-0.028462303802371025,-10.822261810302734
1.7275267996259515e+18,-0.0057717300951480865,0.03428839147090912,-10.784221649169922
1.7275267996289516e+18,-0.010661430656909943,0.0016565523110330105,-10.820013046264648
1.7275267996349517e+18,-0.001976152416318655,-0.0034271341282874346,-10.76805591583252
1.7275267996409518e+18,-0.03542091324925423,-0.01187045220285654,-10.8482084274292
1.7275267996439519e+18,0.03745701536536217,-0.03157580643892288,-10.707425117492676
1.727526799649952e+18,-0.01225210539996624,-0.016174810007214546,-10.773786544799805
1.7275267996559521e+18,-0.0010541959200054407,-0.026180986315011978,-10.754800796508789
1.7275267996589522e+18,0.03464970737695694,-0.037720367312431335,-10.760208129882812
1.7275267996649523e+18,-0.05541675537824631,-0.06464362889528275,-10.824067115783691
1.7275267996709524e+18,0.023706631734967232,-0.005785329733043909,-10.809043884277344
1.7275267996739525e+18,0.03118356689810753,-0.06168290972709656,-10.775314331054688
1.7275267996799526e+18,0.02887306734919548,0.03545568510890007,-10.713396072387695
1.7275267996859528e+18,0.03173629194498062,-0.04725366458296776,-10.701517105102539
1.7275267996889528e+18,-0.009571629576385021,0.012678984552621841,-10.753623008728027
1.727526799694953e+18,-0.08739562332630157,0.013115188106894493,-10.794868469238281
1.727526799700953e+18,0.06040932610630989,-0.02679407224059105,-10.731679916381836
1.7275267997069532e+18,0.0015099189477041364,-0.015941623598337173,-10.752925872802734
1.7275267997099533e+18,0.026378899812698364,0.02759978175163269,-10.752824783325195
1.7275267997159534e+18,-0.011539855040609837,0.025663839653134346,-10.7405366897583
1.7275267997219535e+18,-0.10021986067295074,-0.04823952540755272,-10.753257751464844
1.7275267997279537e+18,-0.01941962167620659,0.02877378650009632,-10.727763175964355
1.7275267997339538e+18,-0.05263161286711693,-0.09187290072441101,-10.781757354736328
1.7275267997369539e+18,-0.034986987709999084,0.022537050768733025,-10.804930686950684
1.727526799742954e+18,0.0216935183852911,0.005304406862705946,-10.752653121948242
1.727526799748954e+18,0.06798022985458374,0.006815870758146048,-10.715561866760254
1.7275267997519542e+18,-0.01249508187174797,0.026944098994135857,-10.778139114379883
1.7275267997579543e+18,-0.025419151410460472,-0.04057906195521355,-10.840177536010742
1.7275267997639544e+18,0.05977082625031471,-0.005358670372515917,-10.682077407836914
1.7275267997699546e+18,-0.03162241727113724,0.020677484571933746,-10.794439315795898
1.7275267997729546e+18,-0.05664369463920593,-0.07444148510694504,-10.810772895812988
1.7275267997789548e+18,-0.016909517347812653,0.03120681829750538,-10.766056060791016
1.727526799784955e+18,-0.04121788591146469,0.05588160455226898,-10.694221496582031
1.727526799787955e+18,-0.01764281466603279,-0.052244801074266434,-10.744879722595215
1.727526799793955e+18,0.03870060294866562,0.02244429662823677,-10.709312438964844
1.7275267997999552e+18,0.06875814497470856,-0.021860141307115555,-10.79159164428711
1.7275267998029553e+18,-0.0836724117398262,-0.05150376260280609,-10.754910469055176
1.7275267998089554e+18,-0.0006065567140467465,0.053620655089616776,-10.754047393798828
1.7275267998149555e+18,-0.014297541230916977,0.07686690986156464,-10.791450500488281
1.7275267998179556e+18,0.08397488296031952,0.01472427323460579,-10.725122451782227
1.7275267998239557e+18,-0.01066143810749054,-0.01617504470050335,-10.76156234741211
1.7275267998299558e+18,-0.027831217274069786,0.019584964960813522,-10.919289588928223
1.727526799835956e+18,-0.02220156416296959,-0.011215967126190662,-11.056503295898438
1.727526799838956e+18,-0.03849820792675018,0.08705993741750717,-11.01691722869873
1.7275267998449562e+18,0.10116644948720932,-0.07057002186775208,-11.098265647888184
1.7275267998509563e+18,-0.03779815137386322,-0.035562772303819656,-11.10910701751709
1.7275267998569564e+18,-0.06543091684579849,0.05067567154765129,-11.064197540283203
1.7275267998599565e+18,0.06821900606155396,0.02975311502814293,-11.209693908691406
1.7275267998659566e+18,0.008501420728862286,0.012043686583638191,-11.132491111755371
1.7275267998719567e+18,0.0017403787933290005,-0.0340014286339283,-11.214468955993652
1.7275267998749568e+18,-0.019379306584596634,0.012676328420639038,-11.309452056884766
1.727526799880957e+18,-0.0157131589949131,-0.04497344046831131,-11.513755798339844
1.727526799886957e+18,0.028005773201584816,-0.020808080211281776,-11.54650592803955
1.727526799889957e+18,0.07428211718797684,0.002058573765680194,-11.564001083374023
1.7275267998959572e+18,0.025540867820382118,-0.01276241522282362,-11.724892616271973
1.7275267999019574e+18,-0.06776158511638641,0.04301828145980835,-11.77515983581543
1.7275267999079575e+18,-0.04441167786717415,-0.031820330768823624,-11.782955169677734
1.7275267999109576e+18,0.09826241433620453,-0.030197424814105034,-11.827165603637695
1.7275267999169577e+18,0.015901632606983185,0.010068664327263832,-11.921042442321777
1.7275267999229578e+18,-0.006369093433022499,0.04510817304253578,-11.891448020935059
1.727526799925958e+18,0.04333879053592682,0.06070375442504883,-11.899317741394043
1.727526799931958e+18,0.03936763107776642,-0.008263297379016876,-11.956352233886719
1.7275267999379581e+18,-0.025066660717129707,0.07471368461847305,-11.903690338134766
1.7275267999409582e+18,-0.02855347841978073,-0.05525237321853638,-11.927894592285156
1.7275267999469583e+18,0.000779922993388027,0.039476774632930756,-11.89633846282959
1.7275267999529585e+18,-0.011991368606686592,0.08435765653848648,-12.022540092468262
1.7275267999559585e+18,-0.006504179909825325,-0.0071079060435295105,-11.930201530456543
1.7275267999619587e+18,0.055282775312662125,-0.011194138787686825,-11.950576782226562
1.7275267999679588e+18,-0.011374272406101227,0.008385739289224148,-11.87757682800293
1.7275267999709588e+18,-0.01827855408191681,-0.04785862937569618,-11.953829765319824
1.727526799976959e+18,-0.06513809412717819,-0.031772881746292114,-11.95981502532959
1.727526799982959e+18,0.016681762412190437,-0.05654754489660263,-12.033156394958496
1.7275267999889592e+18,-0.038737669587135315,-0.026215191930532455,-11.903253555297852
1.7275267999919593e+18,0.04582276940345764,0.0627891793847084,-12.000432014465332
1.7275267999979594e+18,0.0052465880289673805,-0.027887027710676193,-11.959144592285156
1.7275268000039596e+18,-0.02204849012196064,0.081633560359478,-11.963335990905762
1.7275268000069596e+18,-0.020026538521051407,0.00965456198900938,-12.027267456054688
1.7275268000129597e+18,-0.019694557413458824,0.05366054177284241,-11.892658233642578
1.72752680001896e+18,0.02611900120973587,-0.06125756353139877,-11.87475872039795
1.72752680002196e+18,0.05153020843863487,-0.06340747326612473,-11.930521011352539
1.72752680002796e+18,0.01872292160987854,-0.004599486477673054,-11.923307418823242
1.7275268000339602e+18,-0.04082416743040085,0.026482444256544113,-11.976189613342285
1.7275268000399603e+18,-0.06731859594583511,-0.01200530119240284,-11.894679069519043
1.7275268000429604e+18,-0.004013326019048691,-0.03470688313245773,-11.912322998046875
1.7275268000489605e+18,0.0069118463434278965,0.020961029455065727,-11.818849563598633
1.7275268000549606e+18,-0.09836043417453766,-0.10488336533308029,-11.924280166625977
1.7275268000579607e+18,-0.018494484946131706,-0.03634408861398697,-11.967193603515625
1.7275268000639608e+18,-0.033712372183799744,-0.022258400917053223,-11.937772750854492
1.727526800069961e+18,-0.02350562810897827,0.036305975168943405,-11.964417457580566
1.727526800072961e+18,0.025355832651257515,0.004734726622700691,-11.966577529907227
1.7275268000789612e+18,0.0004403629573062062,0.010227173566818237,-11.937737464904785
1.7275268000849613e+18,0.03773385286331177,-0.006781260948628187,-11.924410820007324
1.7275268000879613e+18,0.051093894988298416,0.018041525036096573,-11.884355545043945
1.7275268000939615e+18,-0.012470880523324013,-0.078079953789711,-11.853893280029297
1.7275268000999616e+18,0.0016686301678419113,0.042807433754205704,-11.861114501953125
1.7275268001029617e+18,0.030334416776895523,0.02954237163066864,-11.877494812011719
1.7275268001089618e+18,-0.0666990801692009,0.00704323872923851,-11.793111801147461
1.727526800114962e+18,0.05713004991412163,-0.05052315816283226,-11.815613746643066
1.727526800120962e+18,-0.043037690222263336,0.007115615531802177,-11.893651962280273
1.727526800123962e+18,-0.002336624078452587,-0.012685810215771198,-11.79881477355957
1.7275268001329623e+18,-0.052081286907196045,-0.017175279557704926,-11.915295600891113
1.7275268001359624e+18,0.016697730869054794,-0.02151273936033249,-11.871145248413086
1.7275268001419625e+18,-0.0139519814401865,0.007725445553660393,-11.875340461730957
1.7275268001479626e+18,-0.0467388778924942,0.007142411544919014,-11.80948543548584
1.7275268001509627e+18,0.01331140473484993,0.0005288906395435333,-11.875237464904785
1.7275268001569628e+18,-0.033457476645708084,0.021927127614617348,-11.975203514099121
1.727526800162963e+18,0.05027672275900841,-0.0016600788803771138,-11.730149269104004
1.727526800165963e+18,-0.05085001885890961,0.02056906744837761,-11.742764472961426
1.7275268001719631e+18,-0.049195319414138794,-0.026380175724625587,-11.8583984375
1.7275268001779633e+18,0.01662040315568447,-0.06804940849542618,-11.841691017150879
1.7275268001839634e+18,0.014539210125803947,0.03328458219766617,-11.891963958740234
1.7275268001869635e+18,-0.03310401737689972,0.003423341317102313,-11.787871360778809
1.7275268001929636e+18,-0.008579200133681297,-0.0020483944099396467,-11.919659614562988
1.7275268001989637e+18,-0.044633783400058746,0.0059281582944095135,-11.873263359069824
1.7275268002019638e+18,0.01484344620257616,0.008068220689892769,-11.805766105651855
1.727526800207964e+18,0.049904655665159225,0.054498203098773956,-11.853422164916992
1.727526800213964e+18,0.0044881622307002544,0.004173890221863985,-11.791641235351562
1.727526800216964e+18,0.035688433796167374,-0.050356119871139526,-11.862723350524902
1.7275268002229642e+18,0.038174621760845184,-0.0008261321927420795,-11.819610595703125
1.7275268002289644e+18,0.04085578769445419,0.06647129356861115,-11.893399238586426
1.7275268002319644e+18,-0.011251464486122131,-0.054441988468170166,-11.794917106628418
1.7275268002379645e+18,-0.026801686733961105,-0.010217762552201748,-11.731871604919434
1.7275268002439647e+18,-0.06615108996629715,-0.006037443410605192,-11.854696273803711
1.7275268002469647e+18,0.01073688268661499,-3.8766251236665994e-05,-11.748038291931152
1.7275268002529649e+18,-0.009213553741574287,0.02465604990720749,-11.7759428024292
1.727526800258965e+18,-0.08095913380384445,-0.06678866595029831,-11.797643661499023
1.727526800264965e+18,-0.004584503825753927,-0.005190952681005001,-11.773228645324707
1.7275268002679652e+18,-0.009735100902616978,0.018078841269016266,-11.751126289367676
1.7275268002739653e+18,0.021665122359991074,-0.012155449949204922,-11.816914558410645
1.7275268002799654e+18,0.03433046489953995,-0.05501595512032509,-11.828903198242188
1.7275268002859656e+18,-0.011993133462965488,0.033499542623758316,-11.760481834411621
1.7275268002889656e+18,0.023720454424619675,-0.0063101304695010185,-11.667601585388184
1.7275268002949658e+18,0.03755117952823639,0.0676722377538681,-11.7183198928833
1.727526800300966e+18,0.022485001012682915,0.047712765634059906,-11.758406639099121
1.727526800306966e+18,-0.006860766559839249,0.04841207340359688,-11.815658569335938
1.7275268003129661e+18,0.03659627586603165,-0.006143572740256786,-11.779576301574707
1.7275268003189663e+18,0.04706539586186409,-0.015294943936169147,-11.725886344909668
1.7275268003219663e+18,0.009292364120483398,0.0373782254755497,-11.733911514282227
1.7275268003279665e+18,0.05653797462582588,0.016240311786532402,-11.725224494934082
1.7275268003339666e+18,0.05234825983643532,0.03730998560786247,-11.748099327087402
1.7275268003369667e+18,0.06036437675356865,0.029950251802802086,-11.738887786865234
1.7275268003429668e+18,0.005946177523583174,-0.010846602730453014,-11.74941349029541
1.727526800348967e+18,7.607677980558947e-05,-0.022647790610790253,-11.711750984191895
1.727526800351967e+18,-0.022730115801095963,0.04825002700090408,-11.764348983764648
1.727526800357967e+18,-0.05196640267968178,-0.03307216241955757,-11.77537727355957
1.7275268003639672e+18,0.05707533657550812,0.004559015855193138,-11.690404891967773
1.7275268003669673e+18,0.06656587868928909,0.011749200522899628,-11.656455039978027
1.7275268003729674e+18,-0.039152223616838455,0.012111054733395576,-11.635504722595215
1.7275268003789676e+18,-0.02084498479962349,-0.013468343764543533,-11.776766777038574
1.7275268003819676e+18,-0.029790805652737617,0.08325055986642838,-11.675860404968262
1.7275268003879677e+18,-0.015218015760183334,0.028338465839624405,-11.672840118408203
1.7275268003939679e+18,0.018560821190476418,-0.03988458961248398,-11.66441535949707
1.727526800396968e+18,-0.03446722775697708,0.012645617127418518,-11.721292495727539
1.727526800402968e+18,0.022053072229027748,-0.035840414464473724,-11.662022590637207
1.7275268004089682e+18,-0.02466793730854988,-0.0111606540158391,-11.66519832611084
1.7275268004119683e+18,-0.023015793412923813,0.03336808457970619,-11.709464073181152
1.7275268004179684e+18,-0.033186957240104675,0.07559948414564133,-11.611978530883789
1.7275268004239685e+18,-0.040082089602947235,0.06590195745229721,-11.689984321594238
1.7275268004269686e+18,-0.024804897606372833,0.02688554674386978,-11.665388107299805
1.7275268004329687e+18,-0.008811253122985363,0.0020029705483466387,-11.6480712890625
1.7275268004389688e+18,-0.03064611181616783,0.022443218156695366,-11.648087501525879
1.727526800441969e+18,0.05021185055375099,0.044704049825668335,-11.65084171295166
1.727526800447969e+18,0.06500846892595291,-0.03316275402903557,-11.630084037780762
1.7275268004539692e+18,0.013948312029242516,-0.04466330260038376,-11.655501365661621
1.7275268004599693e+18,-0.02918725460767746,-0.01291742268949747,-11.624751091003418
1.7275268004629693e+18,-0.00040791675564832985,0.025170965120196342,-11.660614967346191
1.7275268004689695e+18,-0.031035082414746284,-0.0004371983523014933,-11.695661544799805
1.7275268004749696e+18,-0.029560502618551254,0.011683981865644455,-11.646435737609863
1.7275268004809697e+18,-0.06445588916540146,-0.05248970538377762,-11.6260986328125
1.7275268004839698e+18,0.0951450988650322,0.004791861400008202,-11.603005409240723
1.72752680048997e+18,-0.047857578843832016,-0.06483960151672363,-11.62763500213623
1.72752680049597e+18,-0.01458374597132206,-0.009180423803627491,-11.610443115234375
1.72752680049897e+18,-0.05406227707862854,0.03509456291794777,-11.640837669372559
1.7275268005049702e+18,-0.005161935929208994,-0.008274266496300697,-11.557462692260742
1.7275268005079703e+18,-0.03359450027346611,-0.015925144776701927,-11.67488956451416
1.7275268005139704e+18,0.05052952095866203,-0.0881982296705246,-11.602700233459473
1.7275268005199706e+18,0.031364355236291885,-0.07245069742202759,-11.629027366638184
1.7275268005229706e+18,-0.06425103545188904,-0.0065388246439397335,-11.577675819396973
1.7275268005289708e+18,0.04880114272236824,0.006261692848056555,-11.60466194152832
1.727526800534971e+18,-0.013563240878283978,-0.005380709655582905,-11.564058303833008
1.727526800537971e+18,-0.004550352226942778,-0.00011256575089646503,-11.525006294250488
1.727526800543971e+18,0.05827357992529869,0.0027926061302423477,-11.533403396606445
1.7275268005499712e+18,0.02602071687579155,-0.0026776916347444057,-11.6265869140625
1.7275268005529713e+18,-0.0353252999484539,0.0813862755894661,-11.5144681930542
1.7275268005589714e+18,-0.0695330873131752,0.06333111971616745,-11.490148544311523
1.7275268005649715e+18,0.013974717818200588,-0.003417529631406069,-11.587389945983887
1.7275268005679716e+18,0.021921509876847267,-0.03380280360579491,-11.574874877929688
1.7275268005739717e+18,0.06262487173080444,-0.00566049013286829,-11.516454696655273
1.7275268005799718e+18,-0.03741764649748802,-0.033348239958286285,-11.530327796936035
1.727526800582972e+18,0.04982452467083931,0.02733345702290535,-11.515646934509277
1.727526800588972e+18,0.05069248750805855,-0.010770798660814762,-11.541299819946289
1.7275268005949722e+18,0.06085365638136864,0.03872009739279747,-11.48076343536377
1.7275268006009723e+18,-0.004400636535137892,0.008018948137760162,-11.489861488342285
1.7275268006069724e+18,-0.047348715364933014,-0.052606143057346344,-11.457701683044434
1.7275268006099725e+18,0.01926773227751255,-0.008484401740133762,-11.427894592285156
1.7275268006159726e+18,-0.07419627159833908,-0.04830064997076988,-11.334553718566895
1.7275268006219727e+18,0.015731707215309143,0.07167210429906845,-11.347021102905273
1.7275268006249728e+18,-0.020565833896398544,-0.01896125264465809,-11.397818565368652
1.727526800630973e+18,0.02389310672879219,0.05659725144505501,-11.374251365661621
1.727526800633973e+18,-0.0034871739335358143,-0.02620728500187397,-11.299291610717773
1.727526800639973e+18,0.045241519808769226,-0.0895160436630249,-11.349143028259277
1.7275268006459732e+18,0.011995360255241394,-0.011088743805885315,-11.326288223266602
1.7275268006519734e+18,-0.006720039527863264,0.016140760853886604,-11.189449310302734
1.7275268006549734e+18,0.0221342071890831,0.06572844833135605,-11.276182174682617
1.7275268006609736e+18,0.05884188413619995,0.03631211072206497,-11.205046653747559
1.7275268006669737e+18,0.04429187998175621,0.05749289691448212,-11.2183256149292
1.7275268006699738e+18,-0.05349612608551979,-0.01398320123553276,-11.178972244262695
1.727526800675974e+18,0.016055962070822716,0.06094544380903244,-11.099444389343262
1.727526800681974e+18,-0.005907402373850346,-0.046995338052511215,-11.089056015014648
1.7275268006879741e+18,-0.07228104770183563,0.04946764186024666,-11.120672225952148
1.7275268006909742e+18,-0.04296359419822693,-0.016403300687670708,-11.130635261535645
1.7275268006969743e+18,-0.008900495246052742,-0.02855750545859337,-11.078330993652344
1.7275268007029745e+18,-0.0036625389475375414,0.03430890291929245,-11.082024574279785
1.7275268007059745e+18,-0.04719468578696251,0.002416391624137759,-11.055662155151367
1.7275268007119747e+18,-0.01736065186560154,-0.016884760931134224,-10.971155166625977
1.7275268007179748e+18,0.09772513061761856,0.02562224306166172,-11.050982475280762
1.727526800723975e+18,-0.0718640685081482,0.002302349777892232,-10.930078506469727
1.727526800729975e+18,-0.012542465701699257,0.07498913258314133,-10.936134338378906
1.7275268007359752e+18,0.011879382655024529,0.07663227617740631,-10.921537399291992
1.7275268007419753e+18,-0.011420417577028275,-0.02357589825987816,-10.805912017822266
1.7275268007479754e+18,0.114361472427845,0.047109998762607574,-10.896230697631836
1.7275268007509755e+18,-0.005358444061130285,0.025504518300294876,-10.871817588806152
1.7275268007569756e+18,-0.0009830374037846923,-0.022435486316680908,-10.772439956665039
1.7275268007629757e+18,0.03449365124106407,-0.017171088606119156,-10.877839088439941
1.7275268007659758e+18,-0.11037951707839966,0.07142945379018784,-10.804232597351074
1.727526800771976e+18,0.024188898503780365,0.05250735208392143,-10.781105041503906
1.727526800777976e+18,-0.034183427691459656,0.07303749769926071,-10.660676002502441
1.727526800780976e+18,0.023813501000404358,0.016145722940564156,-10.707923889160156
1.7275268007869763e+18,0.04226737096905708,0.04249952733516693,-10.569106101989746
1.7275268007929764e+18,-0.003052608110010624,-0.034526556730270386,-10.67398738861084
1.7275268007959764e+18,-0.003077547065913677,-0.007137052249163389,-10.592265129089355
1.7275268008019766e+18,0.0038238170091062784,0.019450144842267036,-10.602255821228027
1.7275268008079767e+18,0.05402645841240883,0.05023033916950226,-10.658243179321289
1.7275268008139768e+18,-0.06503544002771378,0.020878763869404793,-10.609366416931152
1.727526800816977e+18,-0.014880260452628136,-0.02447645179927349,-10.665909767150879
1.727526800822977e+18,-0.031762465834617615,0.014442123472690582,-10.650053024291992
1.7275268008289772e+18,0.0004206394369248301,0.00952603854238987,-10.651565551757812
1.7275268008319772e+18,-0.017994998022913933,0.056226760149002075,-10.568534851074219
1.7275268008379773e+18,0.03223118185997009,0.05384472385048866,-10.645700454711914
1.7275268008439775e+18,-0.024872444570064545,0.017054559662938118,-10.648366928100586
1.7275268008499776e+18,0.01646050438284874,-0.03424078971147537,-10.623185157775879
1.7275268008529777e+18,-0.04293632507324219,-0.004771206993609667,-10.6873779296875
1.7275268008589778e+18,0.0059386612847447395,-0.019443299621343613,-10.634421348571777
1.727526800864978e+18,0.0397941917181015,0.028435060754418373,-10.700067520141602
1.727526800867978e+18,-0.008494135923683643,-0.014453856274485588,-10.596600532531738
1.727526800873978e+18,-0.025024382397532463,0.028562603518366814,-10.493766784667969
1.7275268008799782e+18,0.03702991455793381,-0.013654553331434727,-10.62878131866455
1.7275268008829783e+18,0.0683847963809967,0.10711875557899475,-10.601926803588867
1.7275268008889784e+18,-0.07550183683633804,-0.00979853980243206,-10.660831451416016
1.7275268008949786e+18,-0.01903865858912468,-0.013099274598062038,-10.628790855407715
1.7275268008979786e+18,0.000417498464230448,0.058393992483615875,-10.670811653137207
1.7275268009039788e+18,0.013654590584337711,-0.025400497019290924,-10.605548858642578
1.727526800909979e+18,0.028389038518071175,0.05161072686314583,-10.708968162536621
1.727526800915979e+18,0.013008808717131615,0.014986883848905563,-10.562860488891602
1.727526800918979e+18,0.05352839455008507,0.06722380965948105,-10.623295783996582
1.7275268009249792e+18,-0.0021498589776456356,0.07768881320953369,-10.555136680603027
1.7275268009309793e+18,0.0026675330009311438,0.0297645665705204,-10.614179611206055
1.7275268009339794e+18,0.013745209202170372,-0.00820527970790863,-10.5830717086792
1.7275268009399795e+18,0.00880090519785881,0.02734212949872017,-10.551597595214844
1.7275268009459796e+18,-0.011091664433479309,0.004402135964483023,-10.602608680725098
1.7275268009489797e+18,0.07463917136192322,0.034921593964099884,-10.586569786071777
1.7275268009549798e+18,0.043167248368263245,0.03211648762226105,-10.551029205322266
1.72752680096098e+18,0.053677160292863846,-0.05751144140958786,-10.553349494934082
1.72752680096698e+18,0.05048903077840805,-0.040813855826854706,-10.530595779418945
1.7275268009699802e+18,0.0936783030629158,0.06522579491138458,-10.521267890930176
1.7275268009759803e+18,-0.04115485027432442,-0.06990505754947662,-10.54648208618164
1.7275268009819804e+18,-0.16214649379253387,-0.08799329400062561,-10.543896675109863
1.7275268009879805e+18,-0.02845011278986931,0.02779104746878147,-10.573198318481445
1.7275268009909806e+18,0.03743014112114906,0.01490520965307951,-10.566027641296387
1.7275268009969807e+18,-0.01967182196676731,-0.04795166105031967,-10.52027702331543
1.7275268010029809e+18,0.002370997332036495,-0.03727882727980614,-10.558924674987793
1.727526801008981e+18,-0.004931961186230183,-0.03236893564462662,-10.536602973937988
1.727526801011981e+18,0.0028304907027632,0.013050404377281666,-10.599206924438477
1.7275268010179812e+18,-0.01990186609327793,0.05785819888114929,-10.543354988098145
1.7275268010239813e+18,-0.03679072856903076,-0.07437405735254288,-10.515244483947754
1.7275268010299814e+18,-0.019632048904895782,0.06636223942041397,-10.574760437011719
1.7275268010329815e+18,-0.010580253787338734,-0.010955143719911575,-10.61115550994873
1.7275268010389816e+18,0.0640578642487526,-0.023880833759903908,-10.585870742797852
1.7275268010449818e+18,0.04021429643034935,0.0017010769806802273,-10.518787384033203
1.7275268010479818e+18,-0.06439268589019775,-0.10965892672538757,-10.456808090209961
1.727526801053982e+18,0.010666828602552414,-0.016442138701677322,-10.53632926940918
1.727526801059982e+18,0.03022357076406479,0.010517975315451622,-10.650391578674316
1.7275268010629821e+18,-0.043419331312179565,-0.046703215688467026,-10.477368354797363
1.7275268010689823e+18,0.009042222984135151,-0.08991961926221848,-10.522427558898926
1.7275268010749824e+18,-0.02085093967616558,-0.019445301964879036,-10.441710472106934
1.7275268010809825e+18,0.03024500049650669,-0.006969539448618889,-10.457941055297852
1.7275268010839826e+18,-0.02741566300392151,-0.049502260982990265,-10.478261947631836
1.7275268010899827e+18,0.09489370882511139,0.013483932241797447,-10.484142303466797
1.7275268010929828e+18,0.00691811041906476,-0.020111864432692528,-10.464493751525879
1.727526801098983e+18,0.004180991090834141,0.047111719846725464,-10.558608055114746
1.727526801104983e+18,0.038437142968177795,0.0007996230269782245,-10.511134147644043
1.7275268011109832e+18,-0.0095194261521101,-0.012883307412266731,-10.513397216796875
1.7275268011139832e+18,0.01115470565855503,0.05736853554844856,-10.46129035949707
1.7275268011199834e+18,0.009448290802538395,-0.03170890733599663,-10.48869800567627
1.7275268011259835e+18,-0.013202670961618423,0.05630460008978844,-10.420836448669434
1.7275268011319836e+18,-0.025292621925473213,0.029873820021748543,-10.55905532836914
1.7275268011349837e+18,-0.054503872990608215,0.05347497761249542,-10.481518745422363
1.7275268011409838e+18,0.04874911531805992,-0.018614836037158966,-10.472132682800293
1.727526801146984e+18,0.026383135467767715,-0.01749952882528305,-10.487765312194824
1.727526801149984e+18,0.023780900985002518,-0.0015896374825388193,-10.458992958068848
1.7275268011559841e+18,0.0015769735909998417,0.002653631381690502,-10.502538681030273
1.7275268011619843e+18,-0.02273540012538433,0.04595361649990082,-10.509014129638672
1.7275268011649843e+18,0.036793068051338196,-0.08620770275592804,-10.449366569519043
1.7275268011709844e+18,0.024782545864582062,0.059598542749881744,-10.460959434509277
1.7275268011769846e+18,-0.04298163950443268,-0.008547570556402206,-10.4761962890625
1.7275268011829847e+18,-0.008125819265842438,0.05909526348114014,-10.47659683227539
1.7275268011859848e+18,0.049482110887765884,-0.057116471230983734,-10.518725395202637
1.727526801191985e+18,0.019496867433190346,0.03048683889210224,-10.54318904876709
1.727526801194985e+18,-0.03886934742331505,-0.07335539162158966,-10.433507919311523
1.727526801200985e+18,-0.039278384298086166,-0.011416777037084103,-10.431231498718262
1.7275268012069852e+18,-0.063802570104599,0.008334903046488762,-10.468788146972656
1.7275268012099853e+18,-0.026435306295752525,0.010897769592702389,-10.440125465393066
1.7275268012159854e+18,0.009035025723278522,0.02088776044547558,-10.417325973510742
1.7275268012189855e+18,0.017124921083450317,-0.04280007258057594,-10.427733421325684
1.7275268012249856e+18,0.012100884690880775,0.015585001558065414,-10.462639808654785
1.7275268012309857e+18,0.00027639736072160304,0.08105520904064178,-10.476436614990234
1.7275268012369859e+18,0.020419184118509293,-0.06481552869081497,-10.444116592407227
1.727526801242986e+18,-0.03952318802475929,0.01160590723156929,-10.450267791748047
1.727526801245986e+18,0.05603056028485298,-0.003270360641181469,-10.418170928955078
1.7275268012519862e+18,-0.025325380265712738,0.12023158371448517,-10.445181846618652
1.7275268012579863e+18,0.022375600412487984,-0.03625422716140747,-10.445191383361816
1.7275268012609864e+18,0.04197440296411514,-0.01655067503452301,-10.411688804626465
1.7275268012669865e+18,-0.04538621008396149,-0.051892682909965515,-10.370182991027832
1.7275268012729866e+18,-0.04206297546625137,-0.0746653601527214,-10.444971084594727
1.7275268012789868e+18,-0.009848030284047127,0.011473042890429497,-10.450157165527344
1.7275268012819868e+18,0.06886541843414307,-0.06649011373519897,-10.439266204833984
1.727526801287987e+18,0.0462401881814003,0.01786128431558609,-10.421621322631836
1.727526801293987e+18,0.011670512147247791,-0.00039752922020852566,-10.458495140075684
1.7275268012969871e+18,-0.08620832860469818,-0.07161027938127518,-10.395645141601562
1.7275268013029873e+18,-0.013200070708990097,0.07173638790845871,-10.354667663574219
1.7275268013089874e+18,-0.007697580382227898,-0.02643747068941593,-10.436124801635742
1.7275268013149875e+18,-0.015624603256583214,-0.03656981885433197,-10.403014183044434
1.7275268013179876e+18,-0.03961625322699547,-0.01935643143951893,-10.54093074798584
1.7275268013239877e+18,0.041778214275836945,-0.013607650995254517,-10.454029083251953
1.7275268013299878e+18,-0.05271525681018829,-0.06880868226289749,-10.438719749450684
1.727526801332988e+18,0.052930742502212524,0.004334213212132454,-10.39471435546875
1.727526801338988e+18,-0.0395556278526783,0.10785483568906784,-10.41463851928711
1.7275268013449882e+18,-0.013243705965578556,-0.05675949156284332,-10.387633323669434
1.7275268013509883e+18,-0.018850943073630333,0.07950655370950699,-10.418249130249023
1.7275268013539884e+18,0.0841061919927597,0.011655766516923904,-10.429676055908203
1.7275268013599885e+18,-0.0012686054687947035,0.06985803693532944,-10.489785194396973
1.7275268013659886e+18,0.03316149115562439,-0.012923949398100376,-10.452980041503906
1.7275268013719887e+18,-0.015166599303483963,-0.04016982018947601,-10.417675971984863
1.7275268013749888e+18,0.05688506364822388,-0.04843911528587341,-10.387673377990723
1.727526801380989e+18,0.012778470292687416,-0.005365307442843914,-10.433921813964844
1.727526801386989e+18,-0.020991716533899307,-0.027338949963450432,-10.414278030395508
1.727526801389989e+18,0.023944031447172165,0.06280431151390076,-10.363152503967285
1.7275268013959892e+18,0.03682862967252731,0.06285078078508377,-10.416337966918945
1.7275268014019894e+18,-0.014773854985833168,0.055785171687603,-10.453719139099121
1.7275268014049894e+18,0.027084864675998688,0.0274036955088377,-10.344597816467285
1.7275268014109896e+18,-0.024405159056186676,-0.01502828486263752,-10.401268005371094
1.7275268014169897e+18,0.026535339653491974,-0.020476846024394035,-10.43685531616211
1.7275268014229898e+18,-0.07355368137359619,-0.018566986545920372,-10.410314559936523
1.72752680142899e+18,0.012827785685658455,0.06266503036022186,-10.382364273071289
1.72752680143199e+18,-0.02795501798391342,-0.057051099836826324,-10.329254150390625
1.7275268014379901e+18,0.03427090495824814,0.023934558033943176,-10.39863395690918
1.7275268014439903e+18,-0.017130667343735695,-0.03814871236681938,-10.445337295532227
1.7275268014469903e+18,-0.013492312282323837,-0.01303725317120552,-10.327313423156738
1.7275268014529905e+18,-0.01539646741002798,0.010323598049581051,-10.346274375915527
1.7275268014589906e+18,0.05863836407661438,-0.06706900894641876,-10.32316780090332
1.7275268014619907e+18,0.00244656833820045,0.07269883900880814,-10.357630729675293
1.7275268014679908e+18,-0.05009564384818077,-0.008187978528439999,-10.357124328613281
1.727526801473991e+18,-0.07909953594207764,-0.017041821032762527,-10.375518798828125
1.727526801479991e+18,-0.055206798017024994,-0.02315327897667885,-10.441509246826172
1.727526801482991e+18,0.0007073209853842854,-0.11660856753587723,-10.316164016723633
1.7275268014889912e+18,-0.10841034352779388,-0.0063262879848480225,-10.296051979064941
1.7275268014949914e+18,-0.09285641461610794,-0.015233601443469524,-10.33907699584961
1.7275268014979914e+18,0.02188245579600334,-0.027413757517933846,-10.34471607208252
1.7275268015039916e+18,0.0793917179107666,0.03211313113570213,-10.348939895629883
1.7275268015099917e+18,-0.029046786949038506,-0.077895388007164,-10.381063461303711
1.7275268015129917e+18,0.0319109670817852,0.014479503035545349,-10.339111328125
1.727526801518992e+18,-0.03692837804555893,0.013540254905819893,-10.380024909973145
1.727526801524992e+18,-0.036239877343177795,-0.05084185674786568,-10.305525779724121
1.727526801527992e+18,-0.04199756681919098,-0.03387479856610298,-10.333758354187012
1.7275268015339922e+18,-0.0013234959915280342,-0.031529463827610016,-10.300201416015625
1.7275268015399923e+18,-0.02447282336652279,-0.13060663640499115,-10.335325241088867
1.7275268015459924e+18,-0.024355439469218254,0.08243696391582489,-10.284195899963379
1.7275268015489925e+18,-0.019422752782702446,-0.06223681569099426,-10.35469913482666
1.7275268015549926e+18,-0.02319267764687538,-0.05194901302456856,-10.30117416381836
1.7275268015609928e+18,0.00982352253049612,-0.018550142645835876,-10.381742477416992
1.7275268015639928e+18,0.06044403836131096,-0.05155108869075775,-10.302322387695312
1.727526801569993e+18,0.033391620963811874,-0.04977540671825409,-10.295512199401855
1.727526801575993e+18,0.03404264152050018,-0.06207672506570816,-10.358734130859375
1.7275268015819932e+18,-0.0884447693824768,-0.019417885690927505,-10.300455093383789
1.7275268015849933e+18,-0.016214679926633835,-0.01327527780085802,-10.305339813232422
1.7275268015909934e+18,0.03549432381987572,0.03756941109895706,-10.253430366516113
1.7275268015969935e+18,-0.027645807713270187,0.05782549828290939,-10.323095321655273
1.7275268015999936e+18,0.055121246725320816,0.02874872088432312,-10.300374031066895
1.7275268016059937e+18,-0.05091460794210434,-0.024931689724326134,-10.274323463439941
1.7275268016119939e+18,-0.019420700147747993,0.008264472708106041,-10.235172271728516
1.727526801617994e+18,0.02819044329226017,0.04014507681131363,-10.276756286621094
1.727526801620994e+18,0.0024308841675519943,-0.06141447648406029,-10.290186882019043
1.7275268016269942e+18,0.01489497534930706,-0.01160166785120964,-10.315534591674805
1.7275268016329943e+18,0.03708679974079132,-0.06773436069488525,-10.308849334716797
1.7275268016359944e+18,0.03673313558101654,-0.026248713955283165,-10.326169967651367
1.7275268016419945e+18,-0.030412988737225533,0.002160395495593548,-10.35053539276123
1.7275268016479946e+18,0.014308956451714039,0.023947415873408318,-10.274321556091309
1.7275268016539948e+18,-0.022884832695126534,0.06357603520154953,-10.31893253326416
1.727526801659995e+18,-0.03101971559226513,-0.028139393776655197,-10.323199272155762
1.727526801665995e+18,0.10165797173976898,0.006535971537232399,-10.297008514404297
1.727526801668995e+18,0.08873496949672699,-0.0038373954594135284,-10.294303894042969
1.7275268016749952e+18,0.003010739106684923,-0.02584630250930786,-10.331954956054688
1.7275268016809953e+18,-0.001890367129817605,-0.07733500003814697,-10.249551773071289
1.7275268016869955e+18,-0.021350611001253128,-0.06796807050704956,-10.286572456359863
1.7275268016899955e+18,0.029524246230721474,-0.03458082675933838,-10.299424171447754
1.7275268016959956e+18,0.06701988726854324,0.019039029255509377,-10.329122543334961
1.7275268017019958e+18,0.02707100845873356,-0.05450917407870293,-10.252726554870605
1.727526801707996e+18,-0.007329659536480904,-0.02537710778415203,-10.215455055236816
1.727526801710996e+18,-0.027659039944410324,0.03647799417376518,-10.205451965332031
1.727526801716996e+18,-0.034497641026973724,-0.03517051041126251,-10.248387336730957
1.7275268017229962e+18,-0.07152598351240158,-0.056894201785326004,-10.29456901550293
1.7275268017289964e+18,-0.002263125963509083,-0.003802575170993805,-10.243293762207031
1.7275268017349965e+18,0.01571090705692768,0.019146908074617386,-10.29631519317627
1.7275268017379965e+18,-0.005367720499634743,-0.000301148509606719,-10.281135559082031
1.7275268017439967e+18,-0.04097089543938637,-0.05817050859332085,-10.225202560424805
1.7275268017499968e+18,0.03878234326839447,-0.06694254279136658,-10.239105224609375
1.727526801755997e+18,-0.04918740689754486,0.010346551425755024,-10.285783767700195
1.727526801761997e+18,0.03560125455260277,0.02515292540192604,-10.212676048278809
1.7275268017679972e+18,-0.023743845522403717,0.05667286738753319,-10.293017387390137
1.7275268017739973e+18,-0.04907497391104698,0.02528326027095318,-10.204460144042969
1.7275268017799974e+18,0.025156809017062187,-0.044799935072660446,-10.244638442993164
1.7275268017859976e+18,-0.04624507948756218,0.01046628225594759,-10.251482009887695
1.7275268017949978e+18,0.019104452803730965,0.04623235762119293,-10.287885665893555
1.727526801800998e+18,0.06743495166301727,0.002426663413643837,-10.216388702392578
1.727526801809998e+18,-0.03053469769656658,0.05551737919449806,-10.23845386505127
1.7275268018159982e+18,-0.029134482145309448,-0.01927652209997177,-10.238090515136719
1.7275268018219983e+18,-0.028642747551202774,-0.0022737139370292425,-10.209176063537598
1.7275268018309985e+18,0.04197202995419502,0.0013843701453879476,-10.234137535095215
1.7275268018369987e+18,0.06864126771688461,-0.0006879314314574003,-10.19901180267334
1.7275268018429988e+18,0.041762541979551315,-0.016007736325263977,-10.250679969787598
1.727526801848999e+18,0.06715922802686691,-0.02111523039638996,-10.18531608581543
1.727526801854999e+18,0.06600698828697205,-0.021274130791425705,-10.255956649780273
1.7275268018609992e+18,0.006047178991138935,0.034952063113451004,-10.216705322265625
1.7275268018639992e+18,-0.02157600224018097,0.032239947468042374,-10.271492004394531
1.7275268018699994e+18,0.02062135748565197,0.0019967409316450357,-10.219727516174316
1.7275268018759995e+18,0.014949724078178406,-0.04963565617799759,-10.207639694213867
1.7275268018819996e+18,-0.019714605063199997,0.05977235734462738,-10.160921096801758
1.7275268018849997e+18,0.08546440303325653,-0.03252848610281944,-10.147255897521973
1.7275268018909998e+18,-0.012119999155402184,-0.058860745280981064,-10.27650260925293
1.727526801897e+18,0.01882963627576828,-0.057529352605342865,-10.191744804382324
1.727526801903e+18,0.01640504226088524,-0.030824394896626472,-10.223542213439941
1.7275268019090002e+18,0.02469601295888424,0.057936474680900574,-10.236320495605469
1.7275268019150003e+18,0.05149253085255623,-0.09230763465166092,-10.234151840209961
1.7275268019180004e+18,0.049909237772226334,0.03160163760185242,-10.213235855102539
1.7275268019240005e+18,-0.007151855155825615,-0.02200036495923996,-10.159252166748047
1.7275268019300006e+18,0.014807059429585934,0.028162062168121338,-10.172024726867676
1.7275268019360008e+18,-0.03153418377041817,-0.032435864210128784,-10.161791801452637
1.727526801942001e+18,-0.0016186308348551393,-0.08421926200389862,-10.15039348602295
1.727526801945001e+18,0.03412431851029396,-0.025642283260822296,-10.158066749572754
1.727526801951001e+18,-0.030262259766459465,-0.00669808778911829,-10.1612548828125
1.7275268019570012e+18,0.006504120770841837,-0.09508659690618515,-10.200191497802734
1.7275268019630013e+18,-0.07040247321128845,0.039187729358673096,-10.044618606567383
1.7275268019690015e+18,0.07280305027961731,0.02146778628230095,-10.150511741638184
1.7275268019720015e+18,0.05141209438443184,-0.02094084769487381,-10.113434791564941
1.7275268019780017e+18,-0.033485859632492065,0.0763511136174202,-10.133237838745117
1.7275268019840018e+18,0.033708371222019196,-0.04451495409011841,-10.14317798614502
1.727526801990002e+18,-0.06823395937681198,-0.024335311725735664,-10.170247077941895
1.727526801993002e+18,-0.045314546674489975,-0.04902300611138344,-10.105216026306152
1.727526801999002e+18,-0.006864028982818127,0.02188950963318348,-10.142440795898438
1.7275268020050022e+18,0.08624522387981415,0.0711042582988739,-10.113799095153809
1.7275268020110024e+18,0.023735210299491882,-0.08435282856225967,-10.168009757995605
1.7275268020140024e+18,-0.04057864099740982,0.034705594182014465,-10.125481605529785
1.7275268020200026e+18,0.06239338591694832,-0.01539499033242464,-10.253798484802246
1.7275268020260027e+18,0.0024931728839874268,0.0440988764166832,-10.133952140808105
1.7275268020320028e+18,0.0006304311100393534,0.045201752334833145,-10.154122352600098
1.727526802038003e+18,-0.032240498811006546,-0.06505391001701355,-10.09228801727295
1.727526802044003e+18,0.012798674404621124,0.01872965320944786,-10.1838960647583
1.7275268020500032e+18,0.03312920406460762,0.012621325440704823,-10.061707496643066
1.7275268020530033e+18,-0.06271268427371979,-0.09873593598604202,-10.118185043334961
1.7275268020590034e+18,0.014463510364294052,-0.033244553953409195,-10.093816757202148
1.7275268020650035e+18,-0.0036761355586349964,-0.04301195591688156,-10.11125659942627
1.7275268020710036e+18,-0.03584172576665878,0.03778219595551491,-10.088382720947266
1.7275268020770038e+18,0.05049559101462364,0.03139196336269379,-10.028974533081055
1.727526802083004e+18,0.0001385734067298472,-0.07016929984092712,-10.05380916595459
1.727526802089004e+18,-0.033376384526491165,0.11069760471582413,-10.081522941589355
1.727526802092004e+18,-0.061000656336545944,-0.009886412881314754,-10.137845039367676
1.7275268020980042e+18,-0.05306653305888176,-0.07913751155138016,-10.172740936279297
1.7275268021040044e+18,0.022058598697185516,-0.004645049571990967,-10.006595611572266
1.7275268021100045e+18,-0.0928998589515686,0.055162377655506134,-10.117646217346191
1.7275268021160046e+18,-0.0029008835554122925,0.003903138916939497,-10.104673385620117
1.7275268021220047e+18,-0.022118017077445984,0.02960897795855999,-10.152935981750488
1.7275268021280049e+18,-0.09644206613302231,0.03036569617688656,-10.067571640014648
1.727526802134005e+18,-0.0009976497385650873,-0.045849792659282684,-10.068238258361816
1.727526802140005e+18,0.012241511605679989,0.07442986965179443,-10.105731964111328
1.7275268021460052e+18,-0.008717537857592106,0.062092237174510956,-10.028282165527344
1.7275268021490053e+18,0.009827216155827045,-0.003972485661506653,-10.119296073913574
1.7275268021550054e+18,-0.054289381951093674,0.0625704750418663,-10.13279914855957
1.7275268021610056e+18,0.0021843065042048693,0.051992837339639664,-10.067325592041016
1.7275268021640056e+18,-0.000908277987036854,0.03440999984741211,-10.126358985900879
1.7275268021700058e+18,0.002651653252542019,-0.0160075593739748,-10.109175682067871
1.727526802176006e+18,0.010614300146698952,0.014964556321501732,-10.07147216796875
1.727526802182006e+18,0.0806710347533226,0.026773344725370407,-10.154894828796387
1.727526802185006e+18,0.01239289902150631,-0.02317284420132637,-10.07060432434082
1.7275268021910062e+18,-0.03886060789227486,-0.01737607829272747,-10.121439933776855
1.7275268021970063e+18,-0.01695871353149414,-0.04144909232854843,-10.08403491973877
1.7275268022000064e+18,0.03588225692510605,0.005756606347858906,-10.169011116027832
1.7275268022060065e+18,-0.07913962006568909,0.04592454433441162,-10.09760570526123
1.7275268022120067e+18,-0.15528056025505066,-0.015807516872882843,-10.073882102966309
1.7275268022150067e+18,0.059812840074300766,0.05301574245095253,-10.13599681854248
1.7275268022210068e+18,-0.023773418739438057,-0.0008584698662161827,-10.20224666595459
1.727526802227007e+18,0.010049359872937202,0.05568298324942589,-10.11301326751709
1.727526802230007e+18,0.022500107064843178,0.08707383275032043,-10.112250328063965
1.7275268022360072e+18,0.039101146161556244,0.01949840597808361,-10.09665298461914
1.7275268022420073e+18,0.0215766578912735,0.08071951568126678,-10.087861061096191
1.7275268022480074e+18,-0.018006417900323868,0.030662477016448975,-10.091947555541992
1.7275268022510075e+18,0.03669435530900955,0.044104352593421936,-10.080670356750488
1.7275268022570076e+18,0.03377055004239082,-0.009631947614252567,-10.020514488220215
1.7275268022630077e+18,0.07062868773937225,0.011906640604138374,-10.147673606872559
1.7275268022660078e+18,-0.09276124089956284,0.04817897826433182,-10.195408821105957
1.727526802272008e+18,0.0011402684031054378,0.014096138998866081,-10.131376266479492
1.727526802278008e+18,-0.003952957224100828,0.03877614066004753,-10.130367279052734
1.727526802281008e+18,-0.0061887335032224655,0.053656596690416336,-10.074868202209473
1.7275268022870083e+18,0.022736217826604843,0.07173029333353043,-10.17685604095459
1.7275268022930084e+18,0.04836953431367874,0.007868299260735512,-10.166353225708008
1.7275268022960084e+18,0.007241455372422934,0.02251731976866722,-10.176321983337402
1.7275268023020086e+18,-0.028325725346803665,-0.0324607789516449,-10.13266658782959
1.7275268023080087e+18,-0.0023276861757040024,-0.05621052533388138,-10.17916202545166
1.7275268023110088e+18,0.06925949454307556,0.027010515332221985,-10.100851058959961
1.727526802317009e+18,-0.006898854859173298,0.0672968178987503,-10.004415512084961
1.727526802323009e+18,-0.020761286839842796,-0.04569617658853531,-10.041437149047852
1.7275268023290092e+18,0.010494142770767212,-0.07978241890668869,-10.090913772583008
1.7275268023320092e+18,0.021567532792687416,-0.010958179831504822,-10.208931922912598
1.7275268023380093e+18,-0.051160357892513275,0.023325126618146896,-10.122833251953125
1.7275268023440095e+18,0.016117695719003677,0.06715371459722519,-10.106395721435547
1.7275268023470095e+18,0.009028663858771324,0.11037839204072952,-10.112915992736816
1.7275268023530097e+18,-0.05097605288028717,-0.07414014637470245,-10.129129409790039
1.7275268023590098e+18,0.01653560809791088,0.04378132522106171,-10.1593599319458
1.7275268023620099e+18,-0.06281745433807373,0.006093481555581093,-10.130570411682129
1.72752680236801e+18,0.04924123361706734,-0.042324189096689224,-10.0728120803833
1.72752680237401e+18,0.01682230457663536,0.04820971190929413,-10.18309211730957
1.7275268023800102e+18,-0.022578289732336998,-0.04778143763542175,-10.165938377380371
1.7275268023830103e+18,-0.007568755187094212,-0.04142334312200546,-10.112927436828613
1.7275268023890104e+18,-0.04289403557777405,0.019538702443242073,-10.126642227172852
1.7275268023950106e+18,-0.024039020761847496,-0.07115907967090607,-10.115325927734375
1.7275268023980106e+18,-0.011029422283172607,0.0697443038225174,-10.157832145690918
1.7275268024040108e+18,-0.05730890855193138,0.04884027689695358,-10.13170337677002
1.7275268024070108e+18,0.0022785752080380917,0.042556747794151306,-10.214140892028809
1.727526802413011e+18,0.008412052877247334,0.014815418981015682,-10.115145683288574
1.727526802419011e+18,-0.07550571858882904,-0.03545477241277695,-10.212638854980469
1.7275268024220111e+18,0.03463524207472801,-0.007732267491519451,-10.163583755493164
1.7275268024280113e+18,-0.06322253495454788,-0.01819946989417076,-10.159038543701172
1.7275268024340114e+18,0.004649002104997635,-0.07986330986022949,-10.171297073364258
1.7275268024400115e+18,-0.013412119820713997,0.002271737903356552,-10.103841781616211
1.7275268024460116e+18,-0.009055630303919315,0.03767358511686325,-10.071372985839844
1.7275268024490117e+18,-0.0020554049406200647,-0.04032450169324875,-10.095314979553223
1.7275268024550118e+18,0.02162405103445053,-0.06118348240852356,-10.0868558883667
1.727526802461012e+18,-0.09439237415790558,0.006660511717200279,-10.087066650390625
1.727526802467012e+18,-0.061190735548734665,-0.06211993470788002,-10.179527282714844
1.7275268024700122e+18,-0.05387653410434723,0.02743031457066536,-10.08442497253418
1.7275268024760123e+18,-0.03701723366975784,0.03812910243868828,-10.102949142456055
1.7275268024820124e+18,-0.0843007043004036,0.027846820652484894,-10.142537117004395
1.7275268024880125e+18,-0.046229951083660126,0.015634216368198395,-10.037936210632324
1.7275268024940127e+18,0.08337460458278656,-0.00799081102013588,-10.146893501281738
1.7275268025000128e+18,0.04341374337673187,0.00536773819476366,-10.074921607971191
1.727526802506013e+18,0.016062933951616287,-0.020784256979823112,-10.119237899780273
1.727526802512013e+18,-0.055484455078840256,-0.02196165919303894,-10.174741744995117
1.727526802515013e+18,-0.008163380436599255,0.08187475800514221,-10.141042709350586
1.7275268025210132e+18,0.023626459762454033,-0.022750359028577805,-10.142910957336426
1.7275268025270134e+18,-0.014494718983769417,-0.020865697413682938,-10.084918022155762
1.7275268025330135e+18,-0.05762726068496704,0.02304677665233612,-10.139483451843262
1.7275268025390136e+18,0.020815206691622734,0.018477391451597214,-10.091024398803711
1.7275268025450138e+18,0.025489455088973045,0.005137855187058449,-10.102670669555664
1.727526802551014e+18,0.020695136860013008,-0.024753570556640625,-10.106477737426758
1.727526802557014e+18,0.030008943751454353,0.01197373028844595,-10.120522499084473
1.727526802560014e+18,-0.03422608971595764,-0.02689480036497116,-10.087410926818848
1.7275268025690143e+18,-0.06597696989774704,0.02465987578034401,-10.05186653137207
1.7275268025750144e+18,-0.04152851179242134,0.031544800847768784,-10.116029739379883
1.7275268025780145e+18,-0.0356416329741478,-0.04619746655225754,-10.110868453979492
1.7275268025840146e+18,0.015239955857396126,0.05212220549583435,-10.1100492477417
1.7275268025900147e+18,0.03981563821434975,0.0056658657267689705,-9.989992141723633
1.7275268025960148e+18,-0.010064378380775452,-0.009101983159780502,-10.10755443572998
1.727526802602015e+18,0.02922404557466507,-0.025647439062595367,-10.078845977783203
1.727526802605015e+18,-0.10840074717998505,-0.030813969671726227,-10.133244514465332
1.7275268026110152e+18,-0.05093047395348549,-0.05421260744333267,-10.03172779083252
1.7275268026170153e+18,0.018175257369875908,-0.010133907198905945,-10.09168815612793
1.7275268026230154e+18,-0.028416503220796585,-0.037007708102464676,-10.017630577087402
1.7275268026290156e+18,0.056200433522462845,-0.021288905292749405,-10.125868797302246
1.7275268026320156e+18,0.026925787329673767,-0.0011499309912323952,-10.08079719543457
1.7275268026380157e+18,0.030088424682617188,-0.04197049140930176,-10.09814453125
1.7275268026440159e+18,0.022677911445498466,0.00543286744505167,-10.048554420471191
1.727526802650016e+18,0.002859738888218999,0.06653272360563278,-10.054938316345215
1.727526802653016e+18,-0.012410979717969894,-0.0368339829146862,-9.986647605895996
1.7275268026590162e+18,0.001815921626985073,-0.08358070999383926,-10.032333374023438
1.7275268026650163e+18,0.002880028448998928,-0.027809560298919678,-10.1307954788208
1.7275268026680164e+18,0.03902879357337952,-0.055107034742832184,-10.021965980529785
1.7275268026740165e+18,-0.05578772723674774,-0.04555365443229675,-10.068109512329102
1.7275268026800166e+18,-0.11357364058494568,-0.027348939329385757,-10.077723503112793
1.7275268026860168e+18,0.01958892121911049,0.0007208632305264473,-9.93720531463623
1.727526802692017e+18,-0.029873281717300415,-0.01657027192413807,-10.038347244262695
1.727526802698017e+18,-0.0873081237077713,0.03251957148313522,-9.877860069274902
1.7275268027040172e+18,-0.003505946137011051,-0.07032635807991028,-9.874974250793457
1.7275268027070172e+18,-0.017890727147459984,-0.018599996343255043,-9.902902603149414
1.7275268027130173e+18,0.016743173822760582,0.013460811227560043,-9.819722175598145
1.7275268027190175e+18,-0.0160715039819479,-0.007015375420451164,-9.866951942443848
1.7275268027220175e+18,-0.00759583804756403,0.03239952772855759,-9.801435470581055
1.7275268027280177e+18,0.021301526576280594,-0.0014906376600265503,-9.818666458129883
1.7275268027340178e+18,0.011800090782344341,0.06075044348835945,-9.750328063964844
1.727526802740018e+18,-0.07886214554309845,-0.030709438025951385,-9.756155014038086
1.727526802743018e+18,0.032878004014492035,0.0006650956347584724,-9.79792308807373
1.727526802749018e+18,0.01264928001910448,0.027251796796917915,-9.820494651794434
1.7275268027550182e+18,0.013339306227862835,-0.017775241285562515,-9.83188533782959
1.7275268027580183e+18,0.050741616636514664,-0.021322479471564293,-9.836219787597656
1.7275268027640184e+18,-0.0948605015873909,-0.041266169399023056,-9.88625717163086
1.7275268027700186e+18,0.05208408832550049,-0.013724918477237225,-9.793474197387695
1.7275268027760187e+18,0.014255991205573082,-0.06884732842445374,-9.770485877990723
1.7275268027820188e+18,-0.000302410451695323,-0.08908446133136749,-9.810577392578125
1.727526802785019e+18,0.0305897556245327,-0.030583476647734642,-9.82978630065918
1.727526802791019e+18,0.0503511056303978,0.02045758068561554,-9.80530071258545
1.7275268027970191e+18,-0.02718043327331543,0.02128266915678978,-9.753958702087402
1.7275268028000192e+18,0.04163511097431183,-0.01092278677970171,-9.789690017700195
1.7275268028060193e+18,-0.01208080630749464,0.01672610267996788,-9.746274948120117
1.7275268028120195e+18,0.01593439094722271,-0.08115259557962418,-9.75430965423584
1.7275268028150195e+18,-0.040742818266153336,-0.02692589908838272,-9.726282119750977
1.7275268028210196e+18,0.0020113312639296055,-0.03427240997552872,-9.788858413696289
1.7275268028270198e+18,-0.02581656165421009,-0.0461248904466629,-9.795682907104492
1.72752680283302e+18,0.06976839900016785,0.08333555608987808,-9.797928810119629
1.72752680283602e+18,0.044237591326236725,-0.06460190564393997,-9.748748779296875
1.72752680284202e+18,-0.040478967130184174,-0.00029804371297359467,-9.784321784973145
1.7275268028450202e+18,0.050970979034900665,0.008889465592801571,-9.777741432189941
1.7275268028510203e+18,-0.02299097180366516,-0.06984379887580872,-9.786559104919434
1.7275268028570204e+18,0.036906540393829346,0.012933972291648388,-9.783010482788086
1.7275268028630205e+18,-0.10290904343128204,-0.026101410388946533,-9.794676780700684
1.7275268028690207e+18,-0.020532097667455673,-0.06406629830598831,-9.737478256225586
1.7275268028720207e+18,-0.023366782814264297,0.05017945170402527,-9.746641159057617
1.7275268028780209e+18,-0.013209821656346321,-0.03264670819044113,-9.73847484588623
1.727526802881021e+18,-0.015554824844002724,-0.06263983249664307,-9.812663078308105
1.727526802887021e+18,0.046923067420721054,-0.07610292732715607,-9.75153636932373
1.7275268028930212e+18,-0.013925413601100445,-0.05796762555837631,-9.704875946044922
1.7275268028960212e+18,-0.027840634807944298,0.030938666313886642,-9.831332206726074
1.7275268029020214e+18,0.04769869148731232,0.08207613229751587,-9.762681007385254
1.7275268029080215e+18,-0.010547494515776634,-0.0012980038300156593,-9.769865036010742
1.7275268029110216e+18,0.04887515306472778,0.0033900542184710503,-9.701216697692871
1.7275268029170217e+18,0.041694171726703644,-0.034143444150686264,-9.76315689086914
1.7275268029230218e+18,-0.0727187991142273,-0.021100573241710663,-9.728056907653809
1.727526802929022e+18,-0.029725873842835426,-0.057888276875019073,-9.839015007019043
1.727526802932022e+18,-0.05215059965848923,-0.0645807683467865,-9.776061058044434
1.7275268029380221e+18,-0.018576549366116524,0.03534172475337982,-9.716713905334473
1.7275268029440223e+18,-0.07263432443141937,0.036772847175598145,-9.711871147155762
1.7275268029470223e+18,0.001958714332431555,0.035954274237155914,-9.745322227478027
1.7275268029530225e+18,0.05634571611881256,-0.055981531739234924,-9.774548530578613
1.7275268029590226e+18,-0.0559818334877491,0.025919977575540543,-9.765667915344238
1.7275268029620227e+18,-0.03788594529032707,-0.028811153024435043,-9.798104286193848
1.7275268029680228e+18,-0.007075916510075331,-0.013454766944050789,-9.766682624816895
1.727526802974023e+18,-0.04468901455402374,-0.12705488502979279,-9.710277557373047
1.727526802980023e+18,-0.07669910043478012,-0.015582103282213211,-9.800162315368652
1.727526802983023e+18,0.02412247285246849,0.0005406681448221207,-9.785926818847656
1.7275268029890232e+18,0.014443498104810715,-0.03664260357618332,-9.756306648254395
1.7275268029950234e+18,0.08295463770627975,0.00441215094178915,-9.732501983642578
1.7275268029980234e+18,0.08018516004085541,-0.005552960559725761,-9.812670707702637
1.7275268030040236e+18,-0.019421523436903954,-0.014982291497290134,-9.707173347473145
1.7275268030100237e+18,0.05210044980049133,-0.012139017693698406,-9.765416145324707
1.7275268030130237e+18,-0.004970068112015724,-0.048571743071079254,-9.745404243469238
1.727526803019024e+18,0.051520440727472305,-0.06181599199771881,-9.699676513671875
1.727526803025024e+18,-0.022299790754914284,0.025262320414185524,-9.683137893676758
1.727526803031024e+18,0.007404784671962261,-0.01073479000478983,-9.797452926635742
1.7275268030340242e+18,-0.02160073071718216,-0.06632991880178452,-9.79594898223877
1.7275268030400243e+18,-0.02912251651287079,-0.021872960031032562,-9.749017715454102
1.7275268030460244e+18,-0.06157345697283745,0.03450293466448784,-9.79338550567627
1.7275268030490245e+18,-0.03297966346144676,-0.033252086490392685,-9.766860008239746
1.7275268030550246e+18,0.02866298332810402,0.05260021984577179,-9.758209228515625
1.7275268030610248e+18,0.022600293159484863,0.0027497541159391403,-9.80961799621582
1.7275268030640248e+18,0.08619781583547592,0.0036195823922753334,-9.714856147766113
1.727526803070025e+18,-0.029538847506046295,-0.08665068447589874,-9.756949424743652
1.727526803076025e+18,0.04602107033133507,-0.05619841068983078,-9.674276351928711
1.7275268030820252e+18,0.03542768955230713,-0.09768420457839966,-9.771886825561523
1.7275268030850253e+18,0.029271069914102554,0.024696577340364456,-9.757221221923828
1.7275268030910254e+18,-0.0033258029725402594,-0.015777742490172386,-9.771119117736816
1.7275268030970255e+18,-0.03874696418642998,0.013338624499738216,-9.741772651672363
1.7275268031030257e+18,-0.08370476216077805,-0.048478059470653534,-9.739107131958008
1.7275268031060257e+18,-0.064207062125206,0.07714889943599701,-9.771801948547363
1.7275268031120259e+18,0.017328768968582153,-0.07059817016124725,-9.798921585083008
1.727526803118026e+18,0.031215306371450424,-0.05371428281068802,-9.754263877868652
1.727526803124026e+18,0.0016778227873146534,-0.0327424481511116,-9.81153678894043
1.7275268031300262e+18,0.021013781428337097,-0.011654224246740341,-9.769499778747559
1.7275268031360264e+18,0.028035810217261314,0.024196386337280273,-9.76147174835205
1.7275268031390264e+18,-0.05302366986870766,-0.04233827069401741,-9.793625831604004
1.7275268031450266e+18,-0.015975505113601685,-0.06896664202213287,-9.840777397155762
1.7275268031480266e+18,0.011782774701714516,0.020482957363128662,-9.791810989379883
1.7275268031540268e+18,0.028526151552796364,-0.008915450423955917,-9.767556190490723
1.727526803160027e+18,0.0777101218700409,-0.025055427104234695,-9.760279655456543
1.727526803163027e+18,-0.0055864290334284306,-0.10321720689535141,-9.759565353393555
1.727526803169027e+18,-0.11620748043060303,0.09952714294195175,-9.778017044067383
1.7275268031750272e+18,0.010582324117422104,-0.04114712029695511,-9.821236610412598
1.7275268031780273e+18,0.024907592684030533,0.02608618699014187,-9.758512496948242
1.7275268031840274e+18,-0.007979415357112885,-0.05440834164619446,-9.789734840393066
1.7275268031900275e+18,-0.10098016262054443,0.01374864298850298,-9.792248725891113
1.7275268031930276e+18,0.1324251890182495,0.032537661492824554,-9.772769927978516
1.7275268031990277e+18,0.012114953249692917,0.026203960180282593,-9.730403900146484
1.7275268032050278e+18,-0.0657307431101799,0.010441357269883156,-9.781627655029297
1.727526803211028e+18,0.008103069849312305,0.0001191040500998497,-9.85718822479248
1.727526803214028e+18,0.007476336322724819,-0.032044149935245514,-9.812356948852539
1.7275268032200282e+18,0.027651023119688034,0.03913167864084244,-9.74796199798584
1.7275268032260283e+18,0.07215078175067902,0.017648031935095787,-9.757174491882324
1.7275268032320284e+18,-0.07480107247829437,-0.037309348583221436,-9.794078826904297
1.7275268032380285e+18,0.038992226123809814,-0.008416082710027695,-9.778401374816895
1.7275268032410286e+18,-0.06921155750751495,-0.027531884610652924,-9.735596656799316
1.7275268032470287e+18,0.014943640679121017,0.04072864353656769,-9.778287887573242
1.7275268032500288e+18,-0.0492434948682785,-0.07713831961154938,-9.762465476989746
1.727526803256029e+18,-0.01783158630132675,-0.07245677709579468,-9.774307250976562
1.727526803262029e+18,-0.01229795627295971,-0.04337096959352493,-9.785418510437012
1.7275268032680292e+18,-0.04097802937030792,-0.08473050594329834,-9.823540687561035
1.7275268032710292e+18,0.037203460931777954,0.04858143627643585,-9.822653770446777
1.7275268032770294e+18,-0.036666352301836014,0.03104417771100998,-9.786738395690918
1.7275268032830295e+18,0.02458583563566208,0.020284943282604218,-9.712594032287598
1.7275268032890296e+18,-0.024392573162913322,-0.015093646012246609,-9.787738800048828
1.7275268032920297e+18,-8.39803833514452e-05,0.043102528899908066,-9.831944465637207
1.7275268032980298e+18,-0.0005224377382546663,0.07284767180681229,-9.799625396728516
1.72752680330403e+18,-0.09046722203493118,-0.026799075305461884,-9.771693229675293
1.72752680330703e+18,0.018383309245109558,-0.019527597352862358,-9.739133834838867
1.7275268033130301e+18,0.03651845455169678,-0.06082472577691078,-9.7756929397583
1.7275268033190303e+18,-0.02911970764398575,-0.019289761781692505,-9.83731746673584
1.7275268033250304e+18,0.005360494367778301,-0.0296478271484375,-9.782692909240723
1.7275268033280305e+18,-0.032048698514699936,-0.025559350848197937,-9.75867748260498
1.7275268033340306e+18,-0.011240706779062748,-0.030274346470832825,-9.772361755371094
1.7275268033400307e+18,0.012342310510575771,-0.07578316330909729,-9.773148536682129
1.7275268033430308e+18,0.015741251409053802,0.07536044716835022,-9.788423538208008
1.727526803349031e+18,-0.042203109711408615,-0.04297172278165817,-9.769789695739746
1.727526803355031e+18,-0.0008132022339850664,-0.059342093765735626,-9.80572509765625
1.7275268033610312e+18,-0.0427374392747879,0.0013913000002503395,-9.815047264099121
1.7275268033640312e+18,-0.06927100569009781,-0.07185941934585571,-9.830686569213867
1.7275268033700314e+18,0.03860441595315933,-0.03625737875699997,-9.837484359741211
1.7275268033760315e+18,-0.018319856375455856,0.04707319289445877,-9.85501766204834
1.7275268033790316e+18,0.07270434498786926,0.032243505120277405,-9.787435531616211
1.7275268033850317e+18,0.03798823803663254,-0.040494807064533234,-9.731998443603516
1.7275268033910318e+18,-0.0017105997540056705,-0.12346375733613968,-9.824562072753906
1.7275268033940319e+18,0.0908074900507927,-0.05256859213113785,-9.778373718261719
1.727526803400032e+18,-0.023736706003546715,-0.04164035618305206,-9.794458389282227
1.7275268034060321e+18,-0.02061191201210022,-0.04155537858605385,-9.790531158447266
1.7275268034120323e+18,0.037811048328876495,-0.05949106067419052,-9.7590913772583
1.7275268034150323e+18,-0.019923968240618706,-0.04179580137133598,-9.80201244354248
1.7275268034210324e+18,-0.0859045460820198,0.008780492469668388,-9.7977876663208
1.7275268034270326e+18,0.009474254213273525,-0.020058438181877136,-9.780012130737305
1.7275268034300326e+18,-0.023990949615836143,0.013432074338197708,-9.793511390686035
1.7275268034360328e+18,0.03120800107717514,0.030255384743213654,-9.744067192077637
1.727526803442033e+18,-0.032522477209568024,-0.020754806697368622,-9.835488319396973
1.727526803445033e+18,-0.029900899156928062,0.030513441190123558,-9.803288459777832
1.727526803451033e+18,0.00438475888222456,-0.023683365434408188,-9.775124549865723
1.7275268034570332e+18,0.07317736744880676,-0.034800127148628235,-9.77572250366211
1.7275268034630333e+18,0.012318586930632591,0.06890050321817398,-9.806387901306152
1.7275268034660334e+18,-0.03284894675016403,0.014700774103403091,-9.855293273925781
1.7275268034720335e+18,0.02289643883705139,0.04106425493955612,-9.8590726852417
1.7275268034780337e+18,-0.007043926510959864,0.001080564223229885,-9.785115242004395
1.7275268034810337e+18,-0.0390394888818264,-0.020779527723789215,-9.793333053588867
1.7275268034870339e+18,-0.048421651124954224,-0.04121851921081543,-9.852361679077148
1.727526803493034e+18,0.011618757620453835,0.02864757366478443,-9.862253189086914
1.727526803496034e+18,-0.0625545084476471,-0.01248350739479065,-9.813532829284668
1.7275268035020342e+18,0.011703742668032646,0.03188084810972214,-9.712261199951172
1.7275268035080343e+18,0.04064517095685005,-0.04486396163702011,-9.77095890045166
1.7275268035140344e+18,0.023055071011185646,0.005575691349804401,-9.72111701965332
1.7275268035200346e+18,-0.018985098227858543,-0.05358849838376045,-9.861178398132324
1.7275268035230346e+18,0.022886672988533974,0.039595477283000946,-9.708349227905273
1.7275268035290348e+18,-0.013438276946544647,0.04445701092481613,-9.720987319946289
1.727526803535035e+18,-0.01835910603404045,0.014562765136361122,-9.736424446105957
1.727526803541035e+18,-0.022153310477733612,-0.07125133275985718,-9.758071899414062
1.727526803544035e+18,-0.08760454505681992,-0.055882975459098816,-9.786641120910645
1.7275268035500352e+18,-0.04670189321041107,-0.03624401241540909,-9.734813690185547
1.7275268035560353e+18,-0.08533108979463577,-0.06308352947235107,-9.789196014404297
1.7275268035620355e+18,0.01411985233426094,-0.04516669362783432,-9.772850036621094
1.7275268035650355e+18,-0.0014604302123188972,0.06046780198812485,-9.7853422164917
1.7275268035710356e+18,0.002136640250682831,0.008626606315374374,-9.747992515563965
1.7275268035770358e+18,-0.054529063403606415,0.0450068935751915,-9.701292991638184
1.727526803583036e+18,0.031039277091622353,-0.005173736251890659,-9.761466979980469
1.727526803589036e+18,-0.000205229502171278,-0.00043994979932904243,-9.63946533203125
1.7275268035950362e+18,0.0313991904258728,0.013027653098106384,-9.832425117492676
1.7275268035980362e+18,-0.011163134127855301,0.012151870876550674,-9.816250801086426
1.7275268036040364e+18,-0.052925944328308105,-0.05166075378656387,-9.69720458984375
1.7275268036100365e+18,0.032166071236133575,-0.004213307052850723,-9.771191596984863
1.7275268036130365e+18,0.02656441554427147,0.01680862531065941,-9.800891876220703
1.7275268036190367e+18,0.0043556950986385345,-0.003747424576431513,-9.786321640014648
1.7275268036250368e+18,-0.021485481411218643,-0.02163149043917656,-9.788459777832031
1.727526803631037e+18,-0.01062347274273634,-0.0754299908876419,-9.7379732131958
1.727526803637037e+18,-0.006802269257605076,-0.019480407238006592,-9.817707061767578
1.727526803640037e+18,0.007124518044292927,-0.022411465644836426,-9.799574851989746
1.7275268036460372e+18,0.0013540210202336311,0.009113981388509274,-9.752392768859863
1.7275268036520374e+18,-0.02153955027461052,-0.03475937247276306,-9.802458763122559
1.7275268036580375e+18,0.010437743738293648,-0.0780528336763382,-9.782678604125977
1.7275268036610376e+18,-0.02679697424173355,-0.06599682569503784,-9.81667423248291
1.7275268036670377e+18,-0.056498751044273376,-0.033669933676719666,-9.747549057006836
1.7275268036730378e+18,-0.05409567803144455,0.023098783567547798,-9.810230255126953
1.727526803679038e+18,-0.06816983968019485,-0.05058314651250839,-9.868863105773926
1.727526803682038e+18,-0.02696535363793373,-0.014295772649347782,-9.830723762512207
1.7275268036880381e+18,-0.032198887318372726,0.00810726173222065,-9.791483879089355
1.7275268036940383e+18,-0.04280247911810875,-0.04950989782810211,-9.718875885009766
1.7275268036970383e+18,-0.014300411567091942,0.03845406323671341,-9.799544334411621
1.7275268037030385e+18,-0.06376359611749649,0.03695981949567795,-9.824532508850098
1.7275268037090386e+18,-0.09142331033945084,0.030597932636737823,-9.7731351852417
1.7275268037150387e+18,0.04039037600159645,-0.03426505625247955,-9.797582626342773
1.7275268037180388e+18,-0.05927600711584091,0.04785926267504692,-9.795097351074219
1.727526803724039e+18,-0.016139017418026924,-0.0908079743385315,-9.792150497436523
1.727526803730039e+18,-0.023099472746253014,-0.02897750772535801,-9.844069480895996
1.7275268037360392e+18,0.0026869429275393486,0.06353642791509628,-9.841487884521484
1.7275268037420393e+18,-0.06991209089756012,0.10574114322662354,-9.806124687194824
1.7275268037480394e+18,-0.06076163798570633,-0.011365801095962524,-9.84200382232666
1.7275268037540396e+18,-0.07289724797010422,0.041460081934928894,-9.770007133483887
1.7275268037570396e+18,-0.015498045831918716,0.01622888445854187,-9.757793426513672
1.7275268037630397e+18,0.01178160309791565,-0.007440786808729172,-9.751853942871094
1.72752680376904e+18,-0.052414070814847946,0.019650498405098915,-9.759344100952148
1.72752680377504e+18,0.011983590200543404,-0.004195411689579487,-9.799598693847656
1.72752680378104e+18,-0.08206920325756073,0.033235352486371994,-9.703405380249023
1.7275268037870403e+18,-0.02391267754137516,0.02204989641904831,-9.804476737976074
1.7275268037930404e+18,-0.007842936553061008,-0.029897071421146393,-9.814131736755371
1.7275268037990405e+18,-0.01554584875702858,0.00444511603564024,-9.737787246704102
1.7275268038020406e+18,0.035934023559093475,0.033210985362529755,-9.791340827941895
1.7275268038080407e+18,0.04386138170957565,0.06291527301073074,-9.844820022583008
1.7275268038140408e+18,-0.0648430734872818,-0.009228741750121117,-9.85719108581543
1.727526803817041e+18,-0.01900966838002205,-0.06275007873773575,-9.769771575927734
1.727526803823041e+18,-0.01562841795384884,-0.020952869206666946,-9.797942161560059
1.7275268038290412e+18,-0.08675894141197205,0.07166151702404022,-9.763683319091797
1.7275268038350413e+18,-0.10243524610996246,0.004338738974183798,-9.728638648986816
1.7275268038410414e+18,-0.10171232372522354,-0.05486728623509407,-9.776954650878906
1.7275268038470415e+18,-0.024763762950897217,0.009557606652379036,-9.770808219909668
1.7275268038530417e+18,-0.08188237249851227,-0.0005454740021377802,-9.818394660949707
1.7275268038560417e+18,-0.016962073743343353,-0.055389776825904846,-9.769596099853516
1.7275268038620419e+18,0.0064086634665727615,0.023678192868828773,-9.888553619384766
1.727526803868042e+18,0.013005752116441727,-0.019153915345668793,-9.792941093444824
1.727526803874042e+18,0.008196860551834106,0.017667483538389206,-9.728157997131348
1.7275268038800422e+18,-0.035045213997364044,-0.04819997400045395,-9.81722640991211
1.7275268038860424e+18,-0.08663392812013626,0.06715364754199982,-9.791694641113281
1.7275268038890424e+18,-0.054586224257946014,0.09462999552488327,-9.764965057373047
1.7275268038950426e+18,0.0121481753885746,-0.07799167931079865,-9.841561317443848
1.7275268039010427e+18,-0.04246674105525017,-0.08622254431247711,-9.682610511779785
1.7275268039070428e+18,-0.08439165353775024,-0.02099531702697277,-9.814454078674316
1.727526803913043e+18,-0.02787790261209011,-0.06768534332513809,-9.647500038146973
1.727526803919043e+18,-0.08098287880420685,-0.004281322937458754,-9.727887153625488
1.7275268039250432e+18,0.006855301558971405,0.015090638771653175,-9.64884090423584
1.7275268039280433e+18,-0.0035570431500673294,-0.030502676963806152,-9.714089393615723
1.7275268039340434e+18,-0.048887982964515686,0.0032776850275695324,-9.693349838256836
1.7275268039400435e+18,-0.032840680330991745,0.01506568118929863,-9.708373069763184
1.7275268039430436e+18,0.020330194383859634,0.008768766187131405,-9.805737495422363
1.7275268039490437e+18,-0.10346194356679916,0.002196492627263069,-9.747467994689941
1.7275268039550438e+18,0.02757381647825241,-0.04476542770862579,-9.6873140335083
1.727526803958044e+18,-0.010898414999246597,-0.012415147386491299,-9.65153980255127
1.727526803964044e+18,-0.05091360956430435,0.031161591410636902,-9.685563087463379
1.7275268039700442e+18,-0.07857434451580048,0.047042116522789,-9.739893913269043
1.7275268039760443e+18,-0.01591609977185726,0.05142403393983841,-9.652249336242676
1.7275268039790444e+18,0.0047656819224357605,0.033817391842603683,-9.67188549041748
1.7275268039850445e+18,-0.050585485994815826,0.05156235024333,-9.702095031738281
1.7275268039910446e+18,-0.04601606726646423,0.023339029401540756,-9.728033065795898
1.7275268039940447e+18,-0.012171750888228416,0.0045036994852125645,-9.657254219055176
1.7275268040000448e+18,-0.06542536616325378,-0.017841681838035583,-9.69257926940918
1.727526804006045e+18,-0.06580381095409393,0.03320683166384697,-9.642782211303711
1.727526804009045e+18,-0.10076175630092621,-0.008728615939617157,-9.687196731567383
1.727526804015045e+18,-0.08181928098201752,0.01838693395256996,-9.669172286987305
1.7275268040210452e+18,0.003845755010843277,-0.05968795716762543,-9.607223510742188
1.7275268040240453e+18,-0.024716543033719063,0.025926334783434868,-9.680028915405273
1.7275268040300454e+18,-0.050803352147340775,0.012685115449130535,-9.594886779785156
1.7275268040360456e+18,-0.054201629012823105,0.008598963730037212,-9.669976234436035
1.7275268040390456e+18,-0.0005789417773485184,0.08980358392000198,-9.672518730163574
1.7275268040450458e+18,-0.11656993627548218,-0.08304818719625473,-9.56290340423584
1.727526804051046e+18,-0.01637565717101097,0.010183158330619335,-9.526378631591797
1.727526804054046e+18,-0.03216153383255005,0.014107923023402691,-9.623722076416016
1.727526804060046e+18,-0.038228265941143036,0.0017061363905668259,-9.621417999267578
1.7275268040660462e+18,-0.03964534401893616,0.013478677719831467,-9.609557151794434
1.7275268040690463e+18,-0.014018348418176174,-0.03443998098373413,-9.640816688537598
1.7275268040750464e+18,0.0033910851925611496,-0.016526849940419197,-9.569892883300781
1.7275268040810465e+18,0.05109584331512451,-0.05721849575638771,-9.599745750427246
1.7275268040840466e+18,-0.0050431955605745316,-0.04780999943614006,-9.629528045654297
1.7275268040900467e+18,0.01437375694513321,0.014128503389656544,-9.587821960449219
1.7275268040960468e+18,-0.020043181255459785,-0.02579527162015438,-9.641512870788574
1.727526804102047e+18,-0.02710924670100212,-0.006879408843815327,-9.630945205688477
1.727526804105047e+18,0.014896512031555176,0.026823077350854874,-9.618480682373047
1.7275268041110472e+18,0.04722549766302109,-0.014307931065559387,-9.6274995803833
1.7275268041170473e+18,-0.008851079270243645,0.0399160236120224,-9.606584548950195
1.7275268041200474e+18,0.028828412294387817,-0.09575221687555313,-9.5780668258667
1.7275268041260475e+18,-0.043864332139492035,0.10179605334997177,-9.613308906555176
1.7275268041320476e+18,-0.006368664093315601,0.026483723893761635,-9.58292007446289
1.7275268041380477e+18,-0.0007099732756614685,-0.007922222837805748,-9.561322212219238
1.7275268041410478e+18,0.0709896832704544,-0.0008252884144894779,-9.598713874816895
1.727526804147048e+18,-0.020565440878272057,-0.012968294322490692,-9.645203590393066
1.727526804150048e+18,0.008137542754411697,0.05558650568127632,-9.616674423217773
1.7275268041560481e+18,-0.04631501063704491,-0.0411020964384079,-9.5430269241333
1.7275268041620483e+18,-0.1564958244562149,-0.06649293750524521,-9.550043106079102
1.7275268041650483e+18,-0.011610973626375198,-0.009861072525382042,-9.562972068786621
1.7275268041710484e+18,0.040248557925224304,-0.028169959783554077,-9.594423294067383
1.7275268041770486e+18,-0.01145404763519764,-0.019106753170490265,-9.51990795135498
1.7275268041830487e+18,-0.11264152079820633,-0.053702179342508316,-9.555378913879395
1.7275268041860488e+18,0.02826116234064102,-0.003908283542841673,-9.61193561553955
1.727526804192049e+18,0.00942305289208889,0.002178736962378025,-9.510443687438965
1.727526804198049e+18,-0.016575230285525322,0.00785487424582243,-9.55776596069336
1.727526804201049e+18,-0.06359386444091797,0.014478391036391258,-9.453635215759277
1.7275268042070492e+18,-0.10054429620504379,-0.009112267754971981,-9.509076118469238
1.7275268042130493e+18,0.06781788170337677,0.033177174627780914,-9.621614456176758
1.7275268042190495e+18,-0.0016051800921559334,-0.08670631051063538,-9.599111557006836
1.7275268042250496e+18,0.06430838257074356,0.10140901803970337,-9.61365032196045
1.7275268042280497e+18,-0.07083079218864441,0.01791824959218502,-9.59042739868164
1.7275268042340498e+18,0.018986038863658905,0.06120140478014946,-9.576748847961426
1.72752680424005e+18,0.05284395068883896,0.034193336963653564,-9.547966003417969
1.72752680424305e+18,0.007802223786711693,0.08800797164440155,-9.517120361328125
1.72752680424905e+18,-0.0038849739357829094,0.013512811623513699,-9.554571151733398
1.7275268042550502e+18,-0.06806203722953796,-0.02829768881201744,-9.535527229309082
1.7275268042580503e+18,-0.015581446699798107,-0.023625215515494347,-9.59644889831543
1.7275268042640504e+18,-0.04078470915555954,-0.003302907571196556,-9.52863597869873
1.7275268042700506e+18,0.004390725865960121,0.022265926003456116,-9.551300048828125
1.7275268042760507e+18,-0.043412741273641586,0.04423089697957039,-9.504572868347168
1.7275268042820508e+18,0.0019446276128292084,0.07271599769592285,-9.53691291809082
1.727526804285051e+18,-0.018439818173646927,0.0717921108007431,-9.495434761047363
1.727526804291051e+18,-0.006469088140875101,-0.0001258024713024497,-9.552751541137695
1.7275268042970511e+18,-0.02679157629609108,0.027137072756886482,-9.523072242736816
1.7275268043000512e+18,-0.032671570777893066,0.007658594287931919,-9.49088191986084
1.7275268043060513e+18,-0.03439655900001526,0.06242740526795387,-9.466208457946777
1.7275268043120515e+18,-0.04045239835977554,0.06139259785413742,-9.533326148986816
1.7275268043180516e+18,-0.039417073130607605,-0.05262460559606552,-9.476574897766113
1.7275268043210516e+18,-0.006295744329690933,-0.009672671556472778,-9.559286117553711
1.7275268043270518e+18,-0.034237030893564224,0.03931865468621254,-9.4767484664917
1.727526804333052e+18,0.02545939013361931,-0.09477311372756958,-9.599210739135742
1.727526804339052e+18,0.010495532304048538,-0.05451232194900513,-9.528793334960938
1.7275268043450522e+18,0.05159439891576767,0.017345629632472992,-9.483152389526367
1.7275268043480522e+18,0.046966370195150375,-0.012723737396299839,-9.45438003540039
1.7275268043540524e+18,-0.03287013620138168,0.049865834414958954,-9.50714111328125
1.7275268043600525e+18,0.005019711330533028,0.01155493501573801,-9.52051067352295
1.7275268043630525e+18,0.021703440696001053,-0.06105511635541916,-9.509775161743164
1.7275268043690527e+18,-0.013701604679226875,0.008480094373226166,-9.611326217651367
1.7275268043750528e+18,0.06924551725387573,-0.021267108619213104,-9.553833961486816
1.7275268043780529e+18,0.008336910977959633,0.0013405891368165612,-9.58582878112793
1.727526804384053e+18,0.0314812958240509,-0.057741474360227585,-9.549300193786621
1.727526804390053e+18,0.002641519531607628,-0.039497412741184235,-9.534558296203613
1.7275268043960532e+18,0.00039019063115119934,0.04195844382047653,-9.515915870666504
1.7275268043990533e+18,-0.003927717916667461,-0.010741614736616611,-9.584738731384277
1.7275268044050534e+18,-0.0684606060385704,-0.018799837678670883,-9.52454948425293
1.7275268044110536e+18,-0.004519318230450153,0.06457628309726715,-9.550607681274414
1.7275268044140536e+18,-0.02136179246008396,0.01767437532544136,-9.52922248840332
1.7275268044200538e+18,-0.02053632028400898,-0.07187655568122864,-9.588777542114258
1.7275268044230538e+18,0.031640179455280304,-0.028442583978176117,-9.564179420471191
1.727526804429054e+18,-0.06587719917297363,-0.026741832494735718,-9.557994842529297
1.727526804435054e+18,0.012946520000696182,-0.03190591186285019,-9.465688705444336
1.7275268044380541e+18,-0.0014092661440372467,0.014971176162362099,-9.528779029846191
1.7275268044440543e+18,-0.04739208146929741,0.021638251841068268,-9.491917610168457
1.7275268044500544e+18,0.036903489381074905,0.03203686326742172,-9.48791217803955
1.7275268044530545e+18,0.0628029927611351,0.05341741815209389,-9.421964645385742
1.7275268044590546e+18,0.03283651918172836,0.04673752561211586,-9.490859031677246
1.7275268044650547e+18,-0.04235877841711044,0.008188935928046703,-9.537320137023926
1.7275268044680548e+18,-0.08105906844139099,0.08827356994152069,-9.51923942565918
1.727526804474055e+18,-0.07130732387304306,-0.005273825488984585,-9.569211959838867
1.727526804480055e+18,-0.011997931636869907,0.026541687548160553,-9.5196533203125
1.7275268044860552e+18,0.03649354726076126,0.0037000563461333513,-9.564223289489746
1.7275268044890552e+18,0.016897093504667282,0.008386257104575634,-9.514904975891113
1.7275268044950554e+18,-0.00037126801908016205,0.004193506203591824,-9.531118392944336
1.7275268045010555e+18,-0.02792152762413025,-0.004594351164996624,-9.551714897155762
1.7275268045040556e+18,0.0390508696436882,-0.019002506509423256,-9.538541793823242
1.7275268045100557e+18,0.009021032601594925,-0.07959706336259842,-9.502933502197266
1.7275268045160558e+18,0.042932040989398956,0.017033595591783524,-9.563858985900879
1.727526804519056e+18,-0.11760706454515457,-0.002343849278986454,-9.498649597167969
1.727526804525056e+18,0.018208704888820648,0.05763399600982666,-9.561935424804688
1.727526804531056e+18,-0.020209044218063354,0.015542954206466675,-9.437992095947266
1.7275268045340562e+18,-0.00551869161427021,-0.015906646847724915,-9.473126411437988
1.7275268045400563e+18,-0.037970997393131256,0.06412507593631744,-9.504537582397461
1.7275268045460564e+18,-0.05593719333410263,-0.08081028610467911,-9.53912353515625
1.7275268045490565e+18,-0.04185880720615387,0.022248953580856323,-9.488934516906738
1.7275268045550566e+18,-0.021715128794312477,0.011444143019616604,-9.584957122802734
1.7275268045610568e+18,-0.01804233528673649,0.007906711660325527,-9.567607879638672
1.7275268045640568e+18,-0.06817227602005005,0.0438472144305706,-9.565524101257324
1.727526804570057e+18,-0.021403929218649864,-0.006502729374915361,-9.516416549682617
1.727526804576057e+18,-0.03813450038433075,0.08455877751111984,-9.427017211914062
1.7275268045820572e+18,0.02484814077615738,0.05702919140458107,-9.515494346618652
1.7275268045850573e+18,0.03304343298077583,-0.04302103817462921,-9.595452308654785
1.7275268045910574e+18,0.0032298974692821503,-0.005643770098686218,-9.525007247924805
1.7275268045970575e+18,-0.009132632985711098,0.13119833171367645,-9.56405258178711
1.7275268046000576e+18,-0.07756466418504715,0.035496413707733154,-9.442869186401367
1.7275268046060577e+18,0.044908761978149414,-0.0514095239341259,-9.610146522521973
1.7275268046120579e+18,-0.12374501675367355,0.05870115011930466,-9.523626327514648
1.727526804615058e+18,-0.07908175885677338,0.075942762196064,-9.54554271697998
1.727526804621058e+18,-0.034126993268728256,0.0036692977882921696,-9.51390552520752
1.7275268046270582e+18,0.010555043816566467,-0.04987557977437973,-9.570826530456543
1.7275268046300582e+18,-0.05381873995065689,-0.012854622676968575,-9.599703788757324
1.7275268046360584e+18,-0.03828554227948189,0.032691411674022675,-9.584057807922363
1.7275268046390584e+18,-0.09126465767621994,-0.07700995355844498,-9.54052448272705
1.7275268046450586e+18,0.024176016449928284,0.023369545117020607,-9.495037078857422
1.7275268046510587e+18,-0.026610631495714188,-0.006071615032851696,-9.584550857543945
1.7275268046540588e+18,0.0001584365963935852,-0.006778061855584383,-9.576205253601074
1.727526804660059e+18,-0.043249066919088364,-0.0075472379103302956,-9.53818416595459
1.727526804666059e+18,-0.03394210338592529,-0.03915278986096382,-9.47778034210205
1.727526804669059e+18,0.034003354609012604,-0.05076099932193756,-9.508223533630371
1.7275268046750592e+18,0.04806635528802872,0.0720164105296135,-9.582748413085938
1.7275268046810593e+18,0.017706062644720078,-0.03254203498363495,-9.625162124633789
1.7275268046840594e+18,0.032715246081352234,0.047451432794332504,-9.51213550567627
1.7275268046900595e+18,-0.0279536210000515,0.059974268078804016,-9.603262901306152
1.7275268046960596e+18,-0.06622723489999771,-0.049291204661130905,-9.543120384216309
1.7275268046990597e+18,-0.09125517308712006,-0.016007570549845695,-9.518168449401855
1.7275268047050598e+18,0.011771809309720993,-0.07178624719381332,-9.572793960571289
1.72752680471106e+18,-0.05246911197900772,0.05366474390029907,-9.578639030456543
1.72752680471406e+18,0.028396107256412506,-0.0376262292265892,-9.510934829711914
1.7275268047200602e+18,-0.03534766659140587,-0.0712888240814209,-9.557291030883789
1.7275268047260603e+18,-0.04131824150681496,0.02006889320909977,-9.647521018981934
1.7275268047290604e+18,-0.0651407465338707,-0.0008790959836915135,-9.52463436126709
1.7275268047350605e+18,-0.094325490295887,0.04054710268974304,-9.459465026855469
1.7275268047410606e+18,-0.05128193274140358,-0.05668456852436066,-9.61729907989502
1.7275268047470607e+18,-0.11218517273664474,0.06159517541527748,-9.597649574279785
1.727526804756061e+18,-0.07807504385709763,0.07182083278894424,-9.567096710205078
1.727526804762061e+18,-0.07230892032384872,-0.005892664659768343,-9.595077514648438
1.7275268047680612e+18,-0.12650170922279358,0.022659383714199066,-9.48249626159668
1.7275268047740613e+18,-0.03206588327884674,-0.02350720204412937,-9.59264087677002
1.7275268047800614e+18,-0.051764946430921555,0.016600359231233597,-9.538663864135742
1.7275268047860616e+18,-0.04610893502831459,0.09371885657310486,-9.6077299118042
1.7275268047890616e+18,-0.0803273618221283,-0.005248944275081158,-9.517600059509277
1.7275268047950618e+18,0.011077914386987686,0.011745044030249119,-9.529940605163574
1.727526804801062e+18,-0.03281722217798233,-0.0217093788087368,-9.564401626586914
1.727526804804062e+18,-0.07150129973888397,0.056548770517110825,-9.648372650146484
1.727526804810062e+18,-0.10762154310941696,-0.022871840745210648,-9.584715843200684
1.7275268048160622e+18,-0.030003372579813004,-0.006949292495846748,-9.551337242126465
1.7275268048190623e+18,0.0013560913503170013,0.0082466509193182,-9.556096076965332
1.7275268048250624e+18,-0.021230116486549377,-0.03191104158759117,-9.506542205810547
1.7275268048310625e+18,0.001219727098941803,0.03236299753189087,-9.589746475219727
1.7275268048370627e+18,-0.0670003592967987,-0.0009567319648340344,-9.551358222961426
1.7275268048400627e+18,-0.017530925571918488,0.0552021861076355,-9.594619750976562
1.7275268048460628e+18,0.009779971092939377,0.019146470353007317,-9.616318702697754
1.727526804852063e+18,0.053991034626960754,0.01774928718805313,-9.498221397399902
1.727526804855063e+18,-0.14201460778713226,-0.03591221943497658,-9.579828262329102
1.7275268048610632e+18,-0.06703172624111176,-0.026280762627720833,-9.628345489501953
1.7275268048670633e+18,-0.02172991819679737,0.04488178715109825,-9.57447338104248
1.7275268048700634e+18,0.005130365490913391,0.00908051710575819,-9.557984352111816
1.7275268048760635e+18,0.03771907836198807,-0.023603428155183792,-9.571013450622559
1.7275268048820636e+18,-0.09602676331996918,-0.041661567986011505,-9.574457168579102
1.7275268048880637e+18,-0.03511014208197594,0.0776209607720375,-9.553638458251953
1.7275268048910638e+18,-0.09131092578172684,0.047806914895772934,-9.501215934753418
1.727526804897064e+18,-0.05101220682263374,0.03869282081723213,-9.604730606079102
1.727526804903064e+18,-0.06948050856590271,-0.008141268976032734,-9.56853199005127
1.7275268049090642e+18,-0.048557132482528687,0.04375630244612694,-9.545392990112305
1.7275268049120643e+18,-0.006914153695106506,-0.01762399822473526,-9.544388771057129
1.7275268049180644e+18,-0.023129720240831375,0.039687830954790115,-9.593598365783691
1.7275268049210644e+18,-0.0998351126909256,0.02634182944893837,-9.582464218139648
1.7275268049270646e+18,-0.09218761324882507,-0.02076941356062889,-9.563358306884766
1.7275268049330647e+18,-0.03784451261162758,-0.06129079684615135,-9.558573722839355
1.7275268049360648e+18,-0.018324263393878937,0.05026794970035553,-9.53519344329834
1.727526804942065e+18,-0.050293177366256714,0.05422862991690636,-9.598820686340332
1.727526804948065e+18,-0.06705482304096222,0.023259462788701057,-9.566434860229492
1.727526804951065e+18,-0.07424423843622208,0.031450528651475906,-9.580860137939453
1.7275268049570652e+18,-0.13499245047569275,0.0701947957277298,-9.615628242492676
1.7275268049630653e+18,-0.06239676475524902,-0.0478893518447876,-9.58035945892334
1.7275268049690655e+18,0.0011595264077186584,0.008367101661860943,-9.47148609161377
1.7275268049720655e+18,-0.09978339821100235,-0.0404241718351841,-9.582108497619629
1.7275268049780657e+18,-0.01721452921628952,0.03268275782465935,-9.593536376953125
1.7275268049840658e+18,-0.042346201837062836,-0.01494237594306469,-9.512389183044434
1.7275268049870659e+18,-0.030966004356741905,-0.052997346967458725,-9.55107593536377
1.727526804993066e+18,-0.07235321402549744,-0.02752816677093506,-9.560917854309082
1.727526804999066e+18,-0.06476669013500214,-0.02679319493472576,-9.598350524902344
1.7275268050050662e+18,-0.04638294130563736,0.013314896263182163,-9.555063247680664
1.7275268050080663e+18,-0.03182520717382431,-0.04148775711655617,-9.504963874816895
1.7275268050140664e+18,-0.07057500630617142,0.0681823343038559,-9.628776550292969
1.7275268050200666e+18,0.0007979497313499451,-0.11075616627931595,-9.584192276000977
1.7275268050260667e+18,-0.0011885538697242737,-0.0038303518667817116,-9.637517929077148
1.7275268050320668e+18,-0.14323502779006958,0.07218386232852936,-9.585234642028809
1.727526805035067e+18,-0.038365405052900314,0.04529019072651863,-9.504721641540527
1.727526805044067e+18,-0.10541941970586777,-0.050255186855793,-9.597668647766113
1.7275268050500672e+18,-0.07239870727062225,0.07651446759700775,-9.534266471862793
1.7275268050560673e+18,0.06900407373905182,-0.010815009474754333,-9.655379295349121
1.7275268050620675e+18,0.04224063456058502,0.07058657705783844,-9.417285919189453
1.7275268050680676e+18,0.08537732064723969,-0.011678996495902538,-9.340641975402832
1.7275268050710676e+18,-0.08232837915420532,0.057984866201877594,-9.28653335571289
1.7275268050770678e+18,-0.05302370339632034,-0.011385808698832989,-9.335926055908203
1.727526805083068e+18,-0.0435338020324707,0.021561263129115105,-9.399480819702148
1.727526805089068e+18,-0.10198406875133514,0.02397419884800911,-9.31312370300293
1.727526805092068e+18,-0.060391731560230255,0.01150515303015709,-9.321613311767578
1.7275268050980682e+18,-0.035305991768836975,-0.017873795703053474,-9.205035209655762
1.7275268051040684e+18,-0.16793248057365417,0.002314490033313632,-9.324012756347656
1.7275268051070684e+18,-0.09553470462560654,0.03544880077242851,-9.28416919708252
1.7275268051130685e+18,-0.05878859758377075,0.016712870448827744,-9.17416763305664
1.7275268051190687e+18,-0.06462173908948898,0.006925762630999088,-9.281393051147461
1.7275268051250688e+18,-0.09507957845926285,-0.02770603634417057,-9.155029296875
1.7275268051280689e+18,-0.13693854212760925,-0.03142307698726654,-9.294939994812012
1.727526805134069e+18,-0.11230021715164185,0.05119120702147484,-9.213020324707031
1.727526805140069e+18,-0.1552245020866394,-0.048819366842508316,-9.260945320129395
1.7275268051460692e+18,0.0008216351270675659,-0.029186924919486046,-9.239548683166504
1.7275268051490693e+18,-0.0874815434217453,0.08298409730195999,-9.193610191345215
1.7275268051550694e+18,-0.05275609344244003,-0.021863378584384918,-9.169510841369629
1.7275268051610696e+18,-0.09316033124923706,0.031208861619234085,-9.212076187133789
1.7275268051640696e+18,-0.0986221581697464,0.009403756819665432,-9.212377548217773
1.7275268051700698e+18,-0.04910312592983246,-0.032869890332221985,-9.213831901550293
1.72752680517607e+18,-0.14127081632614136,0.029603885486721992,-9.214542388916016
1.72752680517907e+18,-0.09036245942115784,0.0074996342882514,-9.251906394958496
1.72752680518507e+18,-0.06665317714214325,-0.001977214589715004,-9.098800659179688
1.7275268051910702e+18,-0.07980429381132126,0.08007946610450745,-9.206110000610352
1.7275268051940703e+18,-0.1472591757774353,-0.04540036618709564,-9.200309753417969
1.7275268052000704e+18,-0.14896857738494873,-0.009524723514914513,-9.220376968383789
1.7275268052060705e+18,-0.16551947593688965,-0.008674666285514832,-9.276239395141602
1.7275268052090706e+18,-0.12331707775592804,-0.013755856081843376,-9.262508392333984
1.7275268052150707e+18,-0.09033310413360596,-0.02759660594165325,-9.230632781982422
1.7275268052210708e+18,-0.12133608758449554,0.08946437388658524,-9.224298477172852
1.727526805224071e+18,-0.05482805147767067,0.04625825583934784,-9.209916114807129
1.727526805230071e+18,-0.12155526876449585,0.03668123483657837,-9.323274612426758
1.7275268052360712e+18,-0.14383238554000854,-0.026756251230835915,-9.2229642868042
1.7275268052390712e+18,-0.06797390431165695,0.05099250748753548,-9.192620277404785
1.7275268052450714e+18,-0.04132667928934097,-0.015114536508917809,-9.32253360748291
1.7275268052510715e+18,-0.124079629778862,-0.0438358299434185,-9.351773262023926
1.7275268052570716e+18,-0.10278251767158508,-0.03831596300005913,-9.31789493560791
1.7275268052600717e+18,-0.11440367996692657,-0.008522450923919678,-9.283110618591309
1.7275268052660718e+18,-0.03692119941115379,-0.022274073213338852,-9.398401260375977
1.727526805272072e+18,-0.04593905806541443,0.023662546649575233,-9.286874771118164
1.727526805275072e+18,-0.03935469686985016,-0.04217568784952164,-9.342569351196289
1.727526805281072e+18,-0.024758707731962204,0.0454578772187233,-9.377238273620605
1.7275268052870723e+18,-0.02008996158838272,-0.016816535964608192,-9.284136772155762
1.7275268052900723e+18,-0.05256390571594238,-0.012690149247646332,-9.324249267578125
1.7275268052960724e+18,-0.1563747227191925,-0.005092819221317768,-9.355936050415039
1.7275268053020726e+18,-0.12380705773830414,-0.0371086485683918,-9.363407135009766
1.7275268053050726e+18,-0.20029476284980774,0.024704942479729652,-9.388982772827148
1.7275268053110728e+18,-0.126875638961792,0.013516093604266644,-9.390386581420898
1.727526805317073e+18,-0.050652001053094864,-0.010192613117396832,-9.438652992248535
1.727526805323073e+18,-0.07227782160043716,0.029777616262435913,-9.3998441696167
1.7275268053290732e+18,-0.1650794893503189,-0.013254424557089806,-9.451111793518066
1.7275268053350733e+18,-0.08239512145519257,-0.025332029908895493,-9.39279842376709
1.7275268053380733e+18,-0.006419621407985687,0.09737104177474976,-9.501568794250488
1.7275268053440735e+18,-0.12628670036792755,-0.003240687306970358,-9.370622634887695
1.7275268053500736e+18,-0.12063665688037872,-0.034492071717977524,-9.392748832702637
1.7275268053530737e+18,-0.18677034974098206,-0.07215916365385056,-9.45329475402832
1.7275268053590738e+18,-0.17548778653144836,0.11005445569753647,-9.533447265625
1.727526805365074e+18,-0.12414524704217911,-0.0436396487057209,-9.468966484069824
1.727526805371074e+18,-0.06244814023375511,0.05503186583518982,-9.553444862365723
1.727526805374074e+18,-0.1094902828335762,0.017479239031672478,-9.55555534362793
1.7275268053800742e+18,-0.0844426080584526,-0.06256799399852753,-9.509736061096191
1.7275268053860744e+18,-0.12896092236042023,-0.10440018773078918,-9.505448341369629
1.7275268053890744e+18,-0.06627557426691055,0.008616248145699501,-9.586536407470703
1.7275268053950746e+18,-0.1575470268726349,-0.07964161783456802,-9.537224769592285
1.7275268054010747e+18,-0.1153484433889389,0.008140470832586288,-9.509037971496582
1.7275268054070748e+18,-0.09580408781766891,-0.06449396908283234,-9.567748069763184
1.727526805410075e+18,-0.04996819421648979,-0.059675849974155426,-9.57351016998291
1.727526805416075e+18,-0.18481555581092834,0.022493820637464523,-9.612565040588379
1.7275268054220751e+18,-0.11488808691501617,-0.040656886994838715,-9.54560375213623
1.7275268054280753e+18,-0.10760825127363205,-0.067204050719738,-9.610360145568848
1.7275268054340754e+18,-0.007471010088920593,-0.025925755500793457,-9.634928703308105
1.7275268054400755e+18,-0.10317673534154892,-0.01906977780163288,-9.608670234680176
1.7275268054430756e+18,-0.0193491131067276,-0.01729029417037964,-9.62316608428955
1.7275268054490757e+18,-0.09291265904903412,-0.013762850314378738,-9.62716293334961
1.7275268054550758e+18,-0.13635869324207306,0.03487977758049965,-9.6733980178833
1.727526805461076e+18,-0.02685440331697464,0.01256653293967247,-9.629903793334961
1.727526805467076e+18,-0.14527301490306854,-0.04891081154346466,-9.666025161743164
1.7275268054700762e+18,-0.058538418263196945,0.049131251871585846,-9.635783195495605
1.7275268054760763e+18,-0.10934045910835266,0.010514173656702042,-9.659378051757812
1.7275268054820764e+18,-0.11134565621614456,0.046239785850048065,-9.734635353088379
1.7275268054880765e+18,-0.13466475903987885,0.0064946748316287994,-9.762739181518555
1.7275268054910766e+18,-0.1212405413389206,-0.054614339023828506,-9.713740348815918
1.7275268054970767e+18,-0.17727646231651306,-0.017964737489819527,-9.73591423034668
1.7275268055030769e+18,-0.08364354074001312,-2.5909394025802612e-05,-9.621962547302246
1.727526805509077e+18,-0.11452523618936539,-0.04371897876262665,-9.693329811096191
1.727526805512077e+18,-0.07976867258548737,-0.03843959420919418,-9.652259826660156
1.7275268055180772e+18,-0.18873104453086853,-0.08604542165994644,-9.764610290527344
1.7275268055240773e+18,-0.10707852989435196,-0.0636829286813736,-9.712020874023438
1.7275268055270774e+18,-0.1357342153787613,-0.06279177963733673,-9.731402397155762
1.7275268055330775e+18,-0.08474186062812805,-0.14300236105918884,-9.749761581420898
1.7275268055390776e+18,-0.11834028363227844,-0.08474715054035187,-9.77783489227295
1.7275268055420777e+18,-0.1176077350974083,-0.0021256301552057266,-9.734498977661133
1.7275268055480778e+18,-0.10562209784984589,0.029421068727970123,-9.821715354919434
1.727526805554078e+18,-0.08341927826404572,0.028349407017230988,-9.76146125793457
1.727526805557078e+18,-0.08048276603221893,0.006803868338465691,-9.824463844299316
1.7275268055630781e+18,-0.07240625470876694,-0.04908216744661331,-9.786660194396973
1.7275268055690783e+18,-0.0817866399884224,0.0030538849532604218,-9.802228927612305
1.7275268055750784e+18,-0.08943416178226471,-0.057411834597587585,-9.825483322143555
1.7275268055780785e+18,-0.08967506140470505,-0.08402951806783676,-9.824651718139648
1.7275268055840786e+18,-0.10746976733207703,0.007278898730874062,-9.832991600036621
1.7275268055900787e+18,-0.10295487195253372,-0.03828585147857666,-9.887795448303223
1.7275268055960788e+18,-0.16799017786979675,-0.014212600886821747,-9.900306701660156
1.727526805599079e+18,-0.21618571877479553,-0.01849786937236786,-9.885115623474121
1.727526805605079e+18,-0.11999713629484177,-0.025048518553376198,-9.848073959350586
1.7275268056110792e+18,-0.08811008930206299,-0.029371630400419235,-9.863177299499512
1.7275268056140792e+18,-0.18381473422050476,0.023608747869729996,-9.844744682312012
1.7275268056200794e+18,-0.16906526684761047,-0.0643642395734787,-9.90108585357666
1.7275268056260795e+18,-0.1212003082036972,-0.06746025383472443,-9.870635986328125
1.7275268056320796e+18,-0.16420385241508484,0.00911850854754448,-9.834935188293457
1.7275268056380797e+18,-0.15973617136478424,-0.04017506539821625,-9.841103553771973
1.72752680564708e+18,-0.09814600646495819,-0.04133882373571396,-9.963132858276367
1.72752680565308e+18,-0.15308889746665955,-0.10775785893201828,-9.952341079711914
1.7275268056560801e+18,-0.06479813158512115,-0.08469878137111664,-9.90107536315918
1.7275268056620803e+18,-0.1892474889755249,-0.1342574954032898,-9.950204849243164
1.7275268056680804e+18,-0.024946458637714386,-0.12293916195631027,-9.815191268920898
1.7275268056740805e+18,-0.09167351573705673,0.012527287006378174,-9.799383163452148
1.7275268056800806e+18,-0.17144940793514252,0.05694030970335007,-9.935399055480957
1.7275268056830807e+18,-0.12702593207359314,-0.07704897969961166,-9.912602424621582
1.7275268056890808e+18,-0.06588879227638245,-0.024609774351119995,-9.903512954711914
1.727526805695081e+18,-0.181819885969162,-0.08001071214675903,-9.893510818481445
1.727526805701081e+18,-0.1804582178592682,0.0009957989677786827,-9.998065948486328
1.7275268057070812e+18,-0.010710783302783966,-0.042388103902339935,-9.964101791381836
1.7275268057130813e+18,-0.10095880925655365,-0.006531830877065659,-9.896995544433594
1.7275268057190815e+18,-0.07616901397705078,0.017030758783221245,-9.87099552154541
1.7275268057220815e+18,-0.16501575708389282,-0.020972751080989838,-9.919910430908203
1.7275268057280817e+18,-0.16545988619327545,0.026192646473646164,-9.955718994140625
1.7275268057340818e+18,-0.12176844477653503,-0.04340404272079468,-9.86905288696289
1.727526805740082e+18,-0.15220250189304352,0.01155022718012333,-9.900043487548828
1.727526805743082e+18,-0.10794126987457275,-0.01704736426472664,-9.933650016784668
1.727526805749082e+18,-0.09988656640052795,-0.02780546247959137,-9.897621154785156
1.7275268057580823e+18,-0.1098041832447052,-0.08113402873277664,-9.923418045043945
1.7275268057640824e+18,-0.18822720646858215,0.050119467079639435,-9.833990097045898
1.7275268057700826e+18,-0.19601866602897644,-0.024404525756835938,-9.883017539978027
1.7275268057760827e+18,-0.07862778007984161,-0.08774404227733612,-10.011490821838379
1.7275268057790828e+18,-0.16796085238456726,-0.019287776201963425,-9.926667213439941
1.727526805785083e+18,-0.19480116665363312,-0.05516519770026207,-9.863668441772461
1.727526805791083e+18,-0.1514367163181305,0.016953641548752785,-9.938756942749023
1.7275268057970831e+18,-0.10527847707271576,-0.0594407394528389,-9.853231430053711
1.7275268058000832e+18,-0.08797594904899597,0.006303119473159313,-9.923070907592773
1.7275268058060833e+18,-0.18587811291217804,-0.03952236846089363,-9.908453941345215
1.7275268058120835e+18,-0.1186370775103569,-0.023915493860840797,-9.917729377746582
1.7275268058180836e+18,-0.1796969622373581,-0.030627824366092682,-9.957551002502441
1.7275268058210836e+18,-0.14797496795654297,-0.00454851146787405,-9.91983413696289
1.7275268058270838e+18,-0.15563899278640747,-0.027574965730309486,-9.892440795898438
1.727526805833084e+18,-0.18337659537792206,0.018171129748225212,-9.93567180633545
1.727526805839084e+18,-0.13035720586776733,-0.009417586959898472,-9.936630249023438
1.7275268058450842e+18,-0.08904419839382172,-0.07978545129299164,-9.87623405456543
1.7275268058480842e+18,-0.13346655666828156,-0.03185495361685753,-9.966501235961914
1.7275268058540844e+18,-0.14617203176021576,-0.054018761962652206,-9.891942977905273
1.7275268058600845e+18,-0.11646085232496262,0.05737561732530594,-9.870275497436523
1.7275268058660846e+18,-0.15175053477287292,0.055878352373838425,-10.01707649230957
1.7275268058690847e+18,-0.1205214112997055,0.008079592138528824,-9.837227821350098
1.7275268058750848e+18,-0.2383585125207901,-0.0820959061384201,-9.917963981628418
1.727526805881085e+18,-0.18580971658229828,0.030677657574415207,-9.951164245605469
1.727526805887085e+18,-0.14589659869670868,0.05984486639499664,-9.857863426208496
1.727526805890085e+18,-0.13531234860420227,0.04041960462927818,-9.802427291870117
1.7275268058960852e+18,-0.1968158483505249,0.002594329882413149,-9.80329418182373
1.7275268059020854e+18,-0.12505193054676056,0.023691561073064804,-9.918439865112305
1.7275268059080855e+18,-0.07513705641031265,-0.05440816655755043,-9.867257118225098
1.7275268059140856e+18,-0.10058412700891495,0.009020975790917873,-9.92214584350586
1.7275268059200858e+18,-0.13585920631885529,-0.01308437529951334,-9.883174896240234
1.7275268059230858e+18,-0.14975303411483765,0.014930149540305138,-9.840958595275879
1.727526805929086e+18,-0.09832797944545746,0.00395522266626358,-9.876703262329102
1.727526805935086e+18,-0.18736577033996582,0.06548307090997696,-9.99737548828125
1.7275268059410862e+18,-0.1621362864971161,0.020494922995567322,-9.925963401794434
1.7275268059440863e+18,-0.14224371314048767,-0.008855854161083698,-9.918846130371094
1.7275268059500864e+18,-0.14075076580047607,-0.03955655172467232,-9.832979202270508
1.7275268059560865e+18,-0.04236128181219101,-0.0014893899206072092,-9.893210411071777
1.7275268059620867e+18,-0.10465759038925171,0.004893798381090164,-9.97146224975586
1.7275268059650867e+18,-0.1821366250514984,-0.08876721560955048,-9.924796104431152
1.7275268059710868e+18,-0.14479203522205353,-0.08030713349580765,-9.925956726074219
1.727526805977087e+18,-0.10359601676464081,-0.0021011638455092907,-9.916901588439941
1.727526805983087e+18,-0.030347898602485657,-0.014232623390853405,-9.923171997070312
1.7275268059890872e+18,-0.11637315154075623,-0.0701068639755249,-9.95255184173584
1.7275268059950874e+18,-0.07493653893470764,-0.04994242265820503,-9.916200637817383
1.7275268060010875e+18,-0.1581575721502304,-0.042435288429260254,-9.884506225585938
1.7275268060040876e+18,-0.14162103831768036,0.021886132657527924,-9.848095893859863
1.7275268060100877e+18,-0.21257907152175903,-0.050038233399391174,-9.837162017822266
1.7275268060160878e+18,-0.0717552900314331,-0.009524120949208736,-9.853074073791504
1.727526806022088e+18,-0.11012522876262665,0.05501492694020271,-9.850404739379883
1.727526806025088e+18,-0.16776859760284424,-0.006176706403493881,-9.86962604522705
1.727526806031088e+18,-0.1428375393152237,-0.06170051917433739,-9.820930480957031
1.7275268060370883e+18,-0.17926456034183502,0.013140251860022545,-9.89317512512207
1.7275268060430884e+18,-0.1461857110261917,-0.0028810915537178516,-9.91013240814209
1.7275268060490885e+18,-0.09700907766819,-0.005856953561306,-9.832612991333008
1.7275268060520886e+18,-0.12226523458957672,-0.0039397780783474445,-9.861494064331055
1.7275268060580887e+18,-0.16102150082588196,0.019612377509474754,-9.78995132446289
1.7275268060640888e+18,-0.12437200546264648,0.03367753326892853,-9.853161811828613
1.727526806067089e+18,-0.11397060751914978,-0.04601289704442024,-9.881389617919922
1.727526806073089e+18,-0.13247515261173248,0.003288059961050749,-9.8673734664917
1.7275268060790892e+18,-0.18853388726711273,-0.006516125053167343,-9.84741497039795
1.7275268060850893e+18,-0.062147192656993866,-0.025363244116306305,-9.933719635009766
1.7275268060880893e+18,-0.12488774955272675,0.016220396384596825,-9.84518814086914
1.7275268060940895e+18,-0.08403821289539337,-0.042862702161073685,-9.876111030578613
1.7275268061000896e+18,-0.10419716686010361,0.03464594855904579,-9.870574951171875
1.7275268061030897e+18,-0.0815308541059494,0.003842465579509735,-9.856559753417969
1.7275268061090898e+18,-0.19141097366809845,-0.025741327553987503,-9.934412956237793
1.72752680611509e+18,-0.1257411390542984,0.005486601963639259,-9.95068073272705
1.72752680611809e+18,-0.09950166940689087,-0.030216751620173454,-9.801703453063965
1.72752680612409e+18,-0.17761114239692688,-0.06145333871245384,-9.833260536193848
1.7275268061300902e+18,-0.04110223799943924,-0.049480732530355453,-9.858169555664062
1.7275268061360904e+18,-0.2239936888217926,0.006343340501189232,-9.909208297729492
1.7275268061420905e+18,-0.1244237869977951,-0.06003603711724281,-9.835041046142578
1.7275268061450906e+18,-0.1136934831738472,0.0642905905842781,-9.935348510742188
