timestamp,gyro_x,gyro_y,gyro_z
1.727526798707932e+18,0.0005306479870341718,-0.0022339222487062216,0.002131547313183546
1.727526798716932e+18,0.0034707074519246817,-0.0016240617260336876,3.0098237402853556e-05
1.7275267987229322e+18,-0.0014176862314343452,4.966252890881151e-05,0.0004046881222166121
1.7275267987259323e+18,0.0007222266285680234,0.0002042133710347116,-0.0020735880825668573
1.7275267987319324e+18,-0.002261445391923189,-0.002472070511430502,0.004119150340557098
1.7275267987379325e+18,0.0017111285123974085,0.003064389107748866,-0.0005681859911419451
1.7275267987439327e+18,0.0037279969546943903,4.14614005421754e-05,-0.0022110017016530037
1.7275267987469327e+18,0.00016276323003694415,-0.0001555547642055899,0.0005728320684283972
1.7275267987529329e+18,-0.0016164659755304456,-0.0005143286543898284,0.0007477262406609952
1.727526798758933e+18,-0.002419679658487439,0.0018628026591613889,0.0014820790383964777
1.727526798761933e+18,-0.000280428008409217,-0.005531024187803268,0.00043386014294810593
1.7275267987679332e+18,-0.000887487200088799,-0.0015724478289484978,-0.0037536541931331158
1.7275267987739333e+18,-0.0012499717995524406,0.001114727114327252,-0.001208508969284594
1.7275267987799334e+18,0.0017426136182621121,0.00027325889095664024,0.0007786810747347772
1.7275267987859336e+18,-0.001270751003175974,0.00047958779032342136,-0.000227257507503964
1.7275267987889336e+18,-0.0013900988269597292,-0.0016564360121265054,-0.000538260443136096
1.7275267987949338e+18,0.00022524244559463114,0.0017624777974560857,0.0004864469519816339
1.727526798800934e+18,0.0002409314038231969,0.0008118874975480139,0.0004503361415117979
1.727526798806934e+18,-0.001912910956889391,-0.0027400946710258722,0.00025402792380191386
1.727526798809934e+18,0.0026503789704293013,-0.0034556924365460873,-0.00013351254165172577
1.7275267988159342e+18,0.0015522690955549479,0.0007001450285315514,-0.0007585324929095805
1.7275267988219343e+18,-0.0008335784659720957,0.0002462913398630917,-0.00025941620697267354
1.7275267988279345e+18,-0.000568499555811286,0.004483853932470083,-0.0005139631102792919
1.7275267988309345e+18,-0.000984676880761981,0.00044895734754391015,-0.002228435128927231
1.7275267988369347e+18,0.003057951806113124,0.0011303662322461605,0.0034773300867527723
1.7275267988429348e+18,-0.002504260279238224,0.0008918584790080786,-0.001034802058711648
1.7275267988459348e+18,-0.001364744151942432,0.0023548128083348274,-0.002204159740358591
1.727526798851935e+18,5.063098797108978e-05,-4.227753743180074e-05,-0.002514318795874715
1.727526798857935e+18,-0.0007377638830803335,-0.0023320699110627174,0.00191633147187531
1.7275267988609352e+18,-0.0019054777221754193,-0.0011952916393056512,-0.0018279511714354157
1.7275267988669353e+18,0.000588113151025027,-0.00022467286908067763,0.001159768900834024
1.7275267988729354e+18,-0.0004070749564561993,0.0003449342038948089,-3.843154991045594e-05
1.7275267988789356e+18,0.0021938749123364687,-0.0007239277474582195,0.0019029768882319331
1.7275267988819356e+18,-0.00034704493009485304,0.0003341808042023331,-0.003638890339061618
1.7275267988879357e+18,0.0010482141515240073,-0.0023700108285993338,0.0010879230685532093
1.7275267988939359e+18,0.0007441282505169511,-0.001445068046450615,0.0021658872719854116
1.727526798899936e+18,0.0007537851925007999,-0.0023517890367656946,0.003346697660163045
1.727526798902936e+18,-0.00045635129208676517,-0.00021115709387231618,-0.0016673894133418798
1.7275267989089362e+18,-0.0008971360512077808,-0.0025449160020798445,0.00011434908083174378
1.7275267989149363e+18,0.0014566164463758469,-0.0025952928699553013,-0.0004198100068606436
1.7275267989179364e+18,-0.002336992649361491,0.0020528286695480347,0.0026568148750811815
1.7275267989239365e+18,-0.00010813313565449789,-0.004236722830682993,4.490658102440648e-05
1.7275267989299366e+18,-0.003963177558034658,-0.001665289979428053,0.0018064387841150165
1.7275267989359368e+18,-0.0008244370110332966,-5.299947952153161e-05,0.0013888959074392915
1.7275267989389368e+18,-0.0016401573084294796,0.001395976054482162,0.0005367494304664433
1.727526798944937e+18,-0.0010680198902264237,-0.0016035543521866202,-0.0016277661779895425
1.727526798950937e+18,-0.002060871571302414,-0.0010342014720663428,-0.003228262532502413
1.7275267989569372e+18,-0.001091540209017694,-0.0031687086448073387,0.00019060280465055257
1.7275267989599373e+18,-0.000512989005073905,0.0030320531222969294,-0.0015814666403457522
1.7275267989659374e+18,-0.001135223894380033,9.350226173410192e-05,-0.0011754248989745975
1.7275267989719375e+18,0.0018557766452431679,-0.00024290700093843043,0.00302810943685472
1.7275267989749376e+18,0.000580564490519464,-0.004370689857751131,-0.0023370475973933935
1.7275267989809377e+18,0.0017435324843972921,0.0020405957475304604,-0.00040993321454152465
1.7275267989869379e+18,0.00016475650772918016,-0.0003800712001975626,0.0014349714620038867
1.727526798992938e+18,-0.0003810943162534386,-0.0005952971987426281,-0.0012958148727193475
1.727526798995938e+18,-0.0005175590049475431,0.00028545729583129287,0.00256582023575902
1.7275267990019382e+18,-0.0028267453890293837,-0.0001302437885897234,-0.001237155287526548
1.7275267990079383e+18,0.0017431395826861262,0.0016603342955932021,-0.0005921467090956867
1.7275267990139384e+18,0.0007868326501920819,-0.0014842876698821783,-0.0025417401921004057
1.7275267990169385e+18,-0.0010542565723881125,-0.002105063060298562,0.0008892157347872853
1.7275267990229386e+18,-0.0008410540176555514,-0.0005228277295827866,0.00022647048172075301
1.7275267990289388e+18,-0.0002211605169577524,0.0010721819708123803,0.0013003313215449452
1.7275267990319388e+18,-0.0007625253638252616,0.00014585521421395242,0.0013730995124205947
1.727526799037939e+18,-0.0024044651072472334,-0.0017455096822232008,0.0008277137530967593
1.727526799043939e+18,0.0014279619790613651,0.0014923373237252235,-4.4394753786036745e-05
1.7275267990499392e+18,0.0005950926570221782,-0.0014678006991744041,-0.00014751234266441315
1.7275267990529393e+18,-0.0001361732283839956,-8.46166440169327e-05,0.0017795746680349112
1.7275267990589394e+18,-0.0015974105335772038,-0.0016832506516948342,-0.00019251625053584576
1.7275267990649395e+18,-9.958623559214175e-05,-0.0018556041177362204,0.0015384332509711385
1.7275267990679396e+18,-0.0004969053552486002,-0.0005452680052258074,0.0011569836642593145
1.7275267990739397e+18,-0.0020823460072278976,-0.000686545972712338,-0.0003645026299636811
1.7275267990799398e+18,-0.0015368181047961116,0.001410791533999145,-0.002272647572681308
1.72752679908294e+18,-0.002230457728728652,0.002856817562133074,0.0007701684953644872
1.72752679908894e+18,-0.0010502022923901677,-0.0015552103286609054,-0.0009636157192289829
1.7275267990949402e+18,0.001336210872977972,-0.0009745531133376062,0.0026261107996106148
1.7275267990979402e+18,-0.0008890164899639785,0.0009399966802448034,-0.000377488526282832
1.7275267991039404e+18,-0.00017701994511298835,0.0018570018000900745,-0.0008080374100245535
1.7275267991099405e+18,-0.0005369524005800486,-0.0012579947942867875,-0.0034314740914851427
1.7275267991129405e+18,0.0010909494012594223,-0.001455472782254219,0.0007464195950888097
1.7275267991189407e+18,-0.0008419228252023458,-0.0006254593026824296,0.0010986598208546638
1.7275267991249408e+18,-0.0013206212315708399,0.0017612759256735444,-0.00025225416175089777
1.727526799130941e+18,0.0007626174483448267,0.0024119559675455093,0.0006210135761648417
1.727526799133941e+18,0.0018695988692343235,0.0011879095109179616,-0.002284978749230504
1.727526799139941e+18,-0.0008186455816030502,0.0018804577412083745,0.0019522667862474918
1.7275267991459412e+18,0.000364551815437153,-0.00037120922934263945,-0.0020077270455658436
1.7275267991489413e+18,0.0012072604149580002,0.0013780740555375814,-5.781025538453832e-05
1.7275267991549414e+18,0.0009589470573700964,0.0018301752861589193,0.002819417044520378
1.7275267991609416e+18,0.0028351552318781614,-0.0005282668862491846,-0.0008437217329628766
1.7275267991639416e+18,0.0029137516394257545,-0.002677356591448188,0.0008505387231707573
1.7275267991699418e+18,-0.000361091922968626,-0.00031039450550451875,-0.0028110803104937077
1.727526799175942e+18,-0.0015149114187806845,0.000780560658313334,0.00038221621070988476
1.727526799178942e+18,0.0006796247907914221,0.0008113055373542011,0.0023316512815654278
1.7275267991879421e+18,0.0017167573096230626,-0.002522569615393877,-0.001479937694966793
1.7275267991909422e+18,0.01186387985944748,-0.0027841883711516857,-0.0012848619371652603
1.7275267991969423e+18,0.023522570729255676,-0.011530900374054909,-0.0011020826641470194
1.7275267992029425e+18,0.033669840544462204,-0.01501028798520565,0.0003228489658795297
1.7275267992059425e+18,0.04146525263786316,-0.01866650953888893,-0.0014113178476691246
1.7275267992119427e+18,0.052107639610767365,-0.018630051985383034,-0.0009243582608178258
1.7275267992179428e+18,0.056998200714588165,-0.02309444174170494,-0.0031169261783361435
1.7275267992209428e+18,0.06453437358140945,-0.022953340783715248,-0.003134399186819792
1.727526799226943e+18,0.06008538603782654,-0.027051161974668503,-0.0013491809368133545
1.727526799232943e+18,0.058968789875507355,-0.024292342364788055,-0.0013490687124431133
1.7275267992359432e+18,0.054278548806905746,-0.02409907430410385,-0.0022814269177615643
1.7275267992419433e+18,0.03969471901655197,-0.02580258436501026,-0.0008206143975257874
1.7275267992479434e+18,0.03694671019911766,-0.022410184144973755,-0.004122354090213776
1.7275267992539436e+18,0.03433670848608017,-0.019524231553077698,-0.004978114739060402
1.7275267992569436e+18,0.035814788192510605,-0.020363856106996536,-0.006209668703377247
1.7275267992629437e+18,0.036769162863492966,-0.021923862397670746,-0.006482263095676899
1.727526799268944e+18,0.040429964661598206,-0.017708875238895416,-0.003120600478723645
1.727526799274944e+18,0.04419327899813652,-0.023032551631331444,-0.006455444265156984
1.727526799280944e+18,0.048568252474069595,-0.023106951266527176,-0.0070282649248838425
1.7275267992869443e+18,0.05465378239750862,-0.025522390380501747,-0.00786794163286686
1.7275267992899443e+18,0.05122432857751846,-0.024423766881227493,-0.0051673403941094875
1.7275267992959444e+18,0.053973935544490814,-0.020610937848687172,-0.009018396027386189
1.7275267993019446e+18,0.04653757065534592,-0.023906966671347618,-0.009207680821418762
1.7275267993049446e+18,0.0438065305352211,-0.019759884104132652,-0.01329606119543314
1.7275267993109448e+18,0.04216305539011955,-0.019304519519209862,-0.012534181587398052
1.727526799316945e+18,0.03365359827876091,-0.018662409856915474,-0.014345673844218254
1.727526799319945e+18,0.0292750783264637,-0.015775414183735847,-0.008404282853007317
1.727526799325945e+18,0.024996869266033173,-0.017278114333748817,-0.010465418919920921
1.7275267993319452e+18,0.023333322256803513,-0.012377904728055,-0.012551164254546165
1.7275267993349453e+18,0.022893445566296577,-0.014114879071712494,-0.015552952885627747
1.7275267993409454e+18,0.022657830268144608,-0.013490665704011917,-0.014112774282693863
1.7275267993469455e+18,0.025328826159238815,-0.014897189103066921,-0.01591523364186287
1.7275267993529457e+18,0.030583910644054413,-0.012173389084637165,-0.01198382955044508
1.7275267993559457e+18,0.03373805806040764,-0.016305454075336456,-0.015900790691375732
1.7275267993619459e+18,0.0322137288749218,-0.012198977172374725,-0.011670634150505066
1.727526799364946e+18,0.030583219602704048,-0.013359122909605503,-0.016426904127001762
1.727526799370946e+18,0.03246850147843361,-0.014003138989210129,-0.021127041429281235
1.7275267993769462e+18,0.0272173173725605,-0.011575448326766491,-0.019156426191329956
1.7275267993799462e+18,0.024524696171283722,-0.011226539500057697,-0.018044577911496162
1.7275267993859464e+18,0.01650686003267765,-0.00930270366370678,-0.019169030711054802
1.7275267993919465e+18,0.009880045428872108,-0.007254709955304861,-0.022273698821663857
1.7275267993979466e+18,0.0114632872864604,-0.0050700390711426735,-0.017834877595305443
1.7275267994009467e+18,0.006791423540562391,-0.005615711212158203,-0.019414719194173813
1.7275267994069468e+18,0.005691552069038153,-0.005955549422651529,-0.021282769739627838
1.727526799412947e+18,0.009119529277086258,-0.007015993352979422,-0.021682405844330788
1.727526799415947e+18,0.008299186825752258,-0.006984151899814606,-0.020744575187563896
1.7275267994219471e+18,0.01073255855590105,-0.007729547563940287,-0.020746996626257896
1.7275267994249472e+18,0.010209147818386555,-0.007536805234849453,-0.022674035280942917
1.7275267994309473e+18,0.014292148873209953,-0.006894642487168312,-0.02249249257147312
1.7275267994369475e+18,0.0166470929980278,-0.008155434392392635,-0.02563156932592392
1.7275267994399475e+18,0.013179119676351547,-0.007293187081813812,-0.024761507287621498
1.7275267994459476e+18,0.014358339831233025,-0.004904326982796192,-0.025926338508725166
1.7275267994519478e+18,0.011194802820682526,-0.000517125939950347,-0.027393866330385208
1.727526799457948e+18,0.007790938951075077,-0.0022044628858566284,-0.023632073774933815
1.727526799460948e+18,0.002901090309023857,-0.0022694591898471117,-0.023560773581266403
1.727526799466948e+18,0.002413194626569748,-0.003119225613772869,-0.02598300576210022
1.7275267994699482e+18,-0.0007070772117003798,-0.0018654015148058534,-0.025088394060730934
1.7275267994759483e+18,-0.0020249616354703903,-0.0014096645172685385,-0.027051059529185295
1.7275267994819484e+18,-0.004314015619456768,0.0013508428819477558,-0.02837061882019043
1.7275267994849485e+18,-3.4512486308813095e-05,-0.0004418924218043685,-0.026207461953163147
1.7275267994909486e+18,-0.002348456997424364,-0.0007278652628883719,-0.024566054344177246
1.7275267994969487e+18,0.0012697377242147923,-0.0023562032729387283,-0.02528688684105873
1.7275267994999488e+18,0.003915015142410994,-0.00021330069284886122,-0.023998167365789413
1.727526799505949e+18,0.005795861594378948,-0.0011132386280223727,-0.025734106078743935
1.727526799511949e+18,0.006714309565722942,0.000959400087594986,-0.026284266263246536
1.727526799514949e+18,0.00217837980017066,-0.0013641675468534231,-0.026945222169160843
1.7275267995209492e+18,0.0036052612122148275,-0.0024667084217071533,-0.026992017403244972
1.7275267995269494e+18,0.002410172950476408,0.0012891346123069525,-0.029495296999812126
1.7275267995329495e+18,-0.0011196986306458712,0.0002866624854505062,-0.029443752020597458
1.7275267995359496e+18,-0.004806153010576963,0.0016848095692694187,-0.02719903364777565
1.7275267995419497e+18,-0.007528822403401136,-0.0013102050870656967,-0.03028791770339012
1.7275267995479498e+18,-0.005636047571897507,-0.00030305414111353457,-0.030230732634663582
1.72752679955095e+18,-0.009583859704434872,-0.0006641197251155972,-0.03041950613260269
1.72752679955695e+18,-0.007088867016136646,-0.0011948620667681098,-0.029673129320144653
1.7275267995629501e+18,-0.003040703246369958,-0.00014122511493042111,-0.02857610024511814
1.7275267995659502e+18,-0.0042796507477760315,-0.001045693177729845,-0.02946452982723713
1.7275267995719503e+18,-0.0014051513280719519,-0.0009485044283792377,-0.0285154040902853
1.7275267995779505e+18,-0.000297175080049783,0.001794057316146791,-0.03046305477619171
1.7275267995839506e+18,0.002439846284687519,0.003943710587918758,-0.031273066997528076
1.7275267995869507e+18,0.0019275278318673372,0.0008586494368501008,-0.027876902371644974
1.7275267995929508e+18,-0.00044250264181755483,0.0014652367681264877,-0.031706713140010834
1.727526799598951e+18,-0.003445727750658989,0.0022656209766864777,-0.030664706602692604
1.727526799604951e+18,-0.00468069314956665,-0.0006178611656650901,-0.02761756256222725
1.727526799607951e+18,-0.00020626327022910118,0.0003429671050980687,-0.03116396628320217
1.7275267996139512e+18,-0.006731483619660139,0.0010998852085322142,-0.03076166659593582
1.7275267996199514e+18,-0.006363120395690203,-0.0006855344399809837,-0.03408545255661011
1.7275267996259515e+18,-0.009373197332024574,0.0010669613257050514,-0.03153664246201515
1.7275267996289516e+18,-0.007323670666664839,0.0028392374515533447,-0.03284803405404091
1.7275267996349517e+18,-0.005659355316311121,0.002779626054689288,-0.03154353052377701
1.7275267996409518e+18,-0.004827234428375959,0.004550422541797161,-0.03083534725010395
1.7275267996439519e+18,-0.002381037687882781,0.004254112020134926,-0.03209006041288376
1.727526799649952e+18,-0.0006963719497434795,0.00037469074595719576,-0.02882423810660839
1.7275267996559521e+18,0.0028616960626095533,0.006020206958055496,-0.033959899097681046
1.7275267996589522e+18,9.799463441595435e-05,0.002726484090089798,-0.032946404069662094
1.7275267996649523e+18,-0.0022455721627920866,0.0005054408102296293,-0.03222121298313141
1.7275267996709524e+18,-0.0018203528597950935,0.0030020230915397406,-0.03338128328323364
1.7275267996739525e+18,0.0005600496660917997,0.000714113877620548,-0.032725125551223755
1.7275267996799526e+18,-0.005480926483869553,0.0010790287051349878,-0.028471508994698524
1.7275267996859528e+18,-0.0063249110244214535,-0.0010573165491223335,-0.03185373544692993
1.7275267996889528e+18,-0.008131003007292747,0.0010304268216714263,-0.03131421282887459
1.727526799694953e+18,-0.01107039488852024,0.0011539687402546406,-0.0327671654522419
1.727526799700953e+18,-0.0065836431458592415,0.0008131030481308699,-0.02900156006217003
1.7275267997069532e+18,-0.006281109061092138,-0.0017601330764591694,-0.03405729681253433
1.7275267997099533e+18,-0.005352579057216644,-0.001957543194293976,-0.03355465829372406
1.7275267997159534e+18,-0.0029732035472989082,0.00010719159035943449,-0.033789850771427155
1.7275267997219535e+18,-0.0005566973704844713,0.0012123604537919164,-0.031247125938534737
1.7275267997279537e+18,-0.00014300632756203413,0.0026661281008273363,-0.028630763292312622
1.7275267997339538e+18,0.0013240400003269315,-4.988547880202532e-05,-0.030740728601813316
1.7275267997369539e+18,-0.0021615794394165277,0.000974053458776325,-0.029230298474431038
1.727526799742954e+18,-0.002946330700069666,0.0015229954151436687,-0.03264995291829109
1.727526799748954e+18,-0.007428335025906563,0.0031425058841705322,-0.033079344779253006
1.7275267997519542e+18,-0.004287727177143097,0.00021217588800936937,-0.030673427507281303
1.7275267997579543e+18,-0.00860221590846777,-0.0029425323009490967,-0.031946636736392975
1.7275267997639544e+18,-0.008992931805551052,-0.0010681304847821593,-0.03252969682216644
1.7275267997699546e+18,-0.0072501408867537975,-0.0017384745879098773,-0.031216582283377647
1.7275267997729546e+18,-0.007030300330370665,6.362429121509194e-05,-0.033536676317453384
1.7275267997789548e+18,-0.003878401592373848,-0.0005556328687816858,-0.03196891024708748
1.727526799784955e+18,-0.002452168380841613,0.0010729978093877435,-0.03466324508190155
1.727526799787955e+18,-0.0012391095515340567,0.001117436564527452,-0.03338172659277916
1.727526799793955e+18,-0.0017761043272912502,0.0004120954545214772,-0.02986396662890911
1.7275267997999552e+18,0.002395962830632925,0.003110894002020359,-0.02990894950926304
1.7275267998029553e+18,0.001107817399315536,0.00180606369394809,-0.03280922770500183
1.7275267998089554e+18,3.994675353169441e-05,0.0030797068029642105,-0.029305055737495422
1.7275267998149555e+18,-0.004607957322150469,0.0048335520550608635,-0.03477367386221886
1.7275267998179556e+18,-0.004930122289806604,0.0007329329382628202,-0.03303074836730957
1.7275267998239557e+18,-0.005550985224545002,0.0014245366910472512,-0.031165894120931625
1.7275267998299558e+18,-0.007255028933286667,-0.0009650037391111255,-0.033301714807748795
1.727526799835956e+18,-0.007394320797175169,-0.0017859457293525338,-0.03150319680571556
1.727526799838956e+18,-0.003352588042616844,-0.0020772756543010473,-0.034925129264593124
1.7275267998449562e+18,-0.00023330887779593468,-6.468186620622873e-05,-0.03181278333067894
1.7275267998509563e+18,-0.002297529950737953,0.0003953356936108321,-0.033486321568489075
1.7275267998569564e+18,2.2296153474599123e-05,0.0012248419225215912,-0.03497103974223137
1.7275267998599565e+18,0.0018434571102261543,0.002387317130342126,-0.033678531646728516
1.7275267998659566e+18,0.000929119240026921,0.0008055617217905819,-0.03517131507396698
1.7275267998719567e+18,-0.0018471453804522753,9.886710904538631e-05,-0.03284645825624466
1.7275267998749568e+18,-0.0012403707951307297,0.0006746083963662386,-0.03294952213764191
1.727526799880957e+18,-0.003524789121001959,0.0013407551450654864,-0.03524729236960411
1.727526799886957e+18,-0.0014155915705487132,-0.0005825095577165484,-0.03212114796042442
1.727526799889957e+18,-0.00418662978336215,0.00031229652813635767,-0.03233599290251732
1.7275267998959572e+18,-0.004092826973646879,-0.0007619871757924557,-0.03224259987473488
1.7275267999019574e+18,-0.0025496669113636017,0.0007447938551194966,-0.03427131101489067
1.7275267999079575e+18,-0.0010831430554389954,0.0013701538555324078,-0.033754728734493256
1.7275267999109576e+18,-0.0030049337074160576,0.002117705764248967,-0.03473040089011192
1.7275267999169577e+18,-0.0002936894306913018,0.003096854779869318,-0.032404083758592606
1.7275267999229578e+18,-0.002267683856189251,0.00513168890029192,-0.03328841179609299
1.727526799925958e+18,-0.0016635021893307567,0.005421441048383713,-0.03680717945098877
1.727526799931958e+18,-0.00265495665371418,0.0009331025648862123,-0.03484303876757622
1.7275267999379581e+18,-0.004813581705093384,-2.5593384634703398e-05,-0.03955788165330887
1.7275267999409582e+18,-0.0013526447582989931,-0.0007809497183188796,-0.036966368556022644
1.7275267999469583e+18,-0.005067172460258007,-0.0015054747927933931,-0.035683099180459976
1.7275267999529585e+18,-0.00321485148742795,-0.0030933325178921223,-0.03465219959616661
1.7275267999559585e+18,-0.0034020941238850355,-0.001707767485640943,-0.037079960107803345
1.7275267999619587e+18,-0.004612667951732874,-0.0008915535872802138,-0.035108648240566254
1.7275267999679588e+18,-0.004141503479331732,-0.0016056655440479517,-0.034218739718198776
1.7275267999709588e+18,-0.0003217782359570265,-0.0013603356201201677,-0.034887708723545074
1.727526799976959e+18,-0.004818115383386612,0.0018374051433056593,-0.03886905685067177
1.727526799982959e+18,0.00012994371354579926,0.0026808292604982853,-0.03624117001891136
1.7275267999889592e+18,-0.0007966527482494712,0.002051485935226083,-0.03717219457030296
1.7275267999919593e+18,-0.0017735579749569297,0.0004988946602679789,-0.0391402505338192
1.7275267999979594e+18,-0.0021442787256091833,0.0027212691493332386,-0.040175069123506546
1.7275268000039596e+18,-0.0015947078354656696,-0.0007700896821916103,-0.03538772836327553
1.7275268000069596e+18,-0.003810354508459568,0.0010947512928396463,-0.04096477851271629
1.7275268000129597e+18,-0.0043450999073684216,-0.00184458470903337,-0.03992309421300888
1.72752680001896e+18,-0.0024994262494146824,0.00010313827078789473,-0.03991370275616646
1.72752680002196e+18,-0.001153641496784985,-0.0007776475977152586,-0.04034784063696861
1.72752680002796e+18,-0.00010639568790793419,0.0008988447953015566,-0.03684438765048981
1.7275268000339602e+18,-0.001503711100667715,6.040856533218175e-05,-0.03675492852926254
1.7275268000399603e+18,-0.0007085056276991963,0.0016814488917589188,-0.037252843379974365
1.7275268000429604e+18,-0.0014488052111119032,0.0029620793648064137,-0.04194073751568794
1.7275268000489605e+18,-0.004204202443361282,0.0016663570422679186,-0.04039248451590538
1.7275268000549606e+18,-0.0020430288277566433,0.0009615888120606542,-0.03941256180405617
1.7275268000579607e+18,-0.005442787893116474,8.730276022106409e-05,-0.03979405015707016
1.7275268000639608e+18,-0.003147033741697669,-0.00011497130617499352,-0.03987306356430054
1.727526800069961e+18,-0.005054868292063475,0.0013649192405864596,-0.04251347482204437
1.727526800072961e+18,-0.00509105809032917,-0.0017075990326702595,-0.041667282581329346
1.7275268000789612e+18,-0.002572193741798401,0.001987466122955084,-0.04109327495098114
1.7275268000849613e+18,-0.0025010218378156424,0.0045633018016815186,-0.04232938960194588
1.7275268000879613e+18,-0.0036912858486175537,-0.001182582345791161,-0.04125237464904785
1.7275268000939615e+18,0.0002082450082525611,0.001137851970270276,-0.040435075759887695
1.7275268000999616e+18,0.0008122933795675635,0.0005516773671843112,-0.041314128786325455
1.7275268001029617e+18,0.0008220882155001163,0.0002718704054132104,-0.041674111038446426
1.7275268001089618e+18,-0.0008243423071689904,-0.001482766936533153,-0.04070163518190384
1.727526800114962e+18,0.0030233156867325306,-0.0021159525495022535,-0.04229594022035599
1.727526800120962e+18,0.0014239022275432944,-0.002256260020658374,-0.04559216648340225
1.727526800123962e+18,-0.0014804202364757657,-0.0021393815986812115,-0.042664896696805954
1.7275268001329623e+18,0.00023285020142793655,0.00010310008656233549,-0.04180494695901871
1.7275268001359624e+18,-0.005415641702711582,-0.0017483826959505677,-0.041814304888248444
1.7275268001419625e+18,-0.004616516176611185,-0.0007801358005963266,-0.04018585756421089
1.7275268001479626e+18,-0.004864409100264311,0.0006775365909561515,-0.04422168806195259
1.7275268001509627e+18,-0.0032841304782778025,0.0021246899850666523,-0.04415731504559517
1.7275268001569628e+18,0.0003024537581950426,0.002357058459892869,-0.045627743005752563
1.727526800162963e+18,-0.000830005737952888,0.0013598734512925148,-0.04405814781785011
1.727526800165963e+18,0.00027104781474918127,0.0002809659345075488,-0.042852506041526794
1.7275268001719631e+18,0.001447438495233655,0.003851459827274084,-0.04427604749798775
1.7275268001779633e+18,0.0034729274921119213,0.0016486791428178549,-0.04374263435602188
1.7275268001839634e+18,0.001142382505349815,-0.0009852293878793716,-0.04356219992041588
1.7275268001869635e+18,0.002424360252916813,-0.0013524126261472702,-0.04052755981683731
1.7275268001929636e+18,-0.0036051503848284483,-0.005016731098294258,-0.04316195845603943
1.7275268001989637e+18,-0.00308056827634573,-0.0005288691609166563,-0.04507698863744736
1.7275268002019638e+18,-0.004819631576538086,-0.003641883609816432,-0.04323747009038925
1.727526800207964e+18,-0.005425133742392063,0.0012946859933435917,-0.04164697974920273
1.727526800213964e+18,-0.005423783790320158,-0.0005569100030697882,-0.03988352045416832
1.727526800216964e+18,-0.002463428769260645,-0.00037605821853503585,-0.045302994549274445
1.7275268002229642e+18,-0.008325403556227684,0.0028535255696624517,-0.04285726696252823
1.7275268002289644e+18,-0.0013931107241660357,0.00449502095580101,-0.04119470342993736
1.7275268002319644e+18,-0.004007405135780573,0.0011889201123267412,-0.04471273347735405
1.7275268002379645e+18,-0.001111220452003181,0.0018321884563192725,-0.04671132564544678
1.7275268002439647e+18,-0.0032211400102823973,0.0014797826297581196,-0.041972242295742035
1.7275268002469647e+18,0.00030235154554247856,0.002063299994915724,-0.043794743716716766
1.7275268002529649e+18,0.0007192594348452985,-3.260179073549807e-05,-0.0432199127972126
1.727526800258965e+18,-0.0019872705452144146,0.0004532574093900621,-0.04260171577334404
1.727526800264965e+18,-0.002123540733009577,4.763639299198985e-05,-0.04334638640284538
1.7275268002679652e+18,0.0016706106252968311,-0.00014805968385189772,-0.04035239294171333
1.7275268002739653e+18,-0.0011469409801065922,-0.001651034690439701,-0.046512067317962646
1.7275268002799654e+18,-0.00479965889826417,0.00045123216114006937,-0.04058393836021423
1.7275268002859656e+18,-0.003355142194777727,-0.0007688590558245778,-0.04291608929634094
1.7275268002889656e+18,-0.002727692946791649,-0.0008310405537486076,-0.04247892647981644
1.7275268002949658e+18,-0.003291723784059286,-0.0010621263645589352,-0.04218507185578346
1.727526800300966e+18,-0.0033747851848602295,0.0010959490900859237,-0.04105674475431442
1.727526800306966e+18,-0.0006547183729708195,0.001955383690074086,-0.042722515761852264
1.7275268003129661e+18,-0.0005452620098367333,0.002097561489790678,-0.04381895437836647
1.7275268003189663e+18,0.001682025846093893,0.0026233484968543053,-0.04365633428096771
1.7275268003219663e+18,0.001688264892436564,0.0014494406059384346,-0.04349132627248764
1.7275268003279665e+18,0.0019653718918561935,0.001934360945597291,-0.042609453201293945
1.7275268003339666e+18,0.0018676978070288897,0.003169535892084241,-0.04387613385915756
1.7275268003369667e+18,-0.001079675043001771,0.0010917329927906394,-0.0431230403482914
1.7275268003429668e+18,0.00010575883788987994,-0.0017796349711716175,-0.04090132191777229
1.727526800348967e+18,-0.0019974203314632177,0.00012336944928392768,-0.04389272630214691
1.727526800351967e+18,-0.0013054703595116735,0.0003781996201723814,-0.039708416908979416
1.727526800357967e+18,-0.003142064204439521,7.319124415516853e-05,-0.04163101688027382
1.7275268003639672e+18,-0.0017683357000350952,-0.001656935317441821,-0.03782244771718979
1.7275268003669673e+18,-5.647772923111916e-06,-0.0016544782556593418,-0.04319041594862938
1.7275268003729674e+18,-0.0024605002254247665,-0.0037513982970267534,-0.04266384616494179
1.7275268003789676e+18,0.00021561235189437866,0.0012701493687927723,-0.042367737740278244
1.7275268003819676e+18,-0.0011700538452714682,0.00010500161442905664,-0.04043847694993019
1.7275268003879677e+18,-0.0012844812590628862,0.00048778197378851473,-0.037195321172475815
1.7275268003939679e+18,-0.002160974545404315,0.0015648778062313795,-0.039541881531476974
1.727526800396968e+18,0.0020599227864295244,-0.002975854557007551,-0.04085807502269745
1.727526800402968e+18,0.00019206214346922934,0.0007768672658130527,-0.037043191492557526
1.7275268004089682e+18,0.00012684293324127793,0.0024454519152641296,-0.0396297425031662
1.7275268004119683e+18,-0.0012776954099535942,0.001944877440109849,-0.04288768395781517
1.7275268004179684e+18,-0.00035275897243991494,0.001229391898959875,-0.03848964348435402
1.7275268004239685e+18,-0.0022184494882822037,-0.002003889763727784,-0.04163392633199692
1.7275268004269686e+18,-0.004353879950940609,0.0013781226007267833,-0.038769710808992386
1.7275268004329687e+18,-0.00210357247851789,0.0018908840138465166,-0.04070381820201874
1.7275268004389688e+18,-0.0022274123039096594,0.0008147562621161342,-0.03992355987429619
1.727526800441969e+18,-5.5804732255637646e-05,-0.002622535452246666,-0.041942697018384933
1.727526800447969e+18,-0.0007132425671443343,-0.0008834924083203077,-0.0409027561545372
1.7275268004539692e+18,0.0004445945960469544,-0.0015437196707352996,-0.03998664394021034
1.7275268004599693e+18,0.0004996037459932268,-0.0005142976297065616,-0.04067809134721756
1.7275268004629693e+18,0.00230532418936491,0.002463036682456732,-0.038998082280159
1.7275268004689695e+18,-0.0003809056361205876,0.000264732982032001,-0.03982341289520264
1.7275268004749696e+18,-0.00108031602576375,-0.0015468164347112179,-0.03770480677485466
1.7275268004809697e+18,-0.000698298797942698,-0.0031757422257214785,-0.03955194726586342
1.7275268004839698e+18,0.00022232742048799992,-0.0008766430546529591,-0.03942765295505524
1.72752680048997e+18,-0.0031131566502153873,-0.0019783987663686275,-0.03644370287656784
1.72752680049597e+18,-0.0024019728880375624,-0.0028894569259136915,-0.03889840096235275
1.72752680049897e+18,-0.0015800879336893559,-0.002480854047462344,-0.038003019988536835
1.7275268005049702e+18,-0.0015777632361277938,0.0010799503652378917,-0.03495224937796593
1.7275268005079703e+18,-0.0009780474938452244,-0.0025553987361490726,-0.032347049564123154
1.7275268005139704e+18,-0.0021203537471592426,0.001963711343705654,-0.037007953971624374
1.7275268005199706e+18,-0.0013708305777981877,0.0006095119751989841,-0.03565266355872154
1.7275268005229706e+18,-0.002552491845563054,0.0020872140303254128,-0.036335162818431854
1.7275268005289708e+18,0.0012827841565012932,0.0028210687451064587,-0.03376384451985359
1.727526800534971e+18,-9.942468022927642e-05,-0.0005196277052164078,-0.040207818150520325
1.727526800537971e+18,0.00018561480101197958,0.0012451184447854757,-0.037945497781038284
1.727526800543971e+18,0.00026420323411002755,-0.003522841027006507,-0.03253403306007385
1.7275268005499712e+18,-1.9880208128597587e-05,-0.004019940737634897,-0.03564848750829697
1.7275268005529713e+18,0.0017420926596969366,-0.0056596435606479645,-0.034013960510492325
1.7275268005589714e+18,-0.0011206556810066104,-0.005028514191508293,-0.033035758882761
1.7275268005649715e+18,-0.004139523953199387,-0.0026034009642899036,-0.0330863855779171
1.7275268005679716e+18,-0.0012944312766194344,-0.0021103103645145893,-0.032224781811237335
1.7275268005739717e+18,-0.002982001518830657,0.0014701078180223703,-0.030612124130129814
1.7275268005799718e+18,-0.005445391871035099,0.00132179562933743,-0.033605270087718964
1.727526800582972e+18,-0.0016638768138363957,0.0008325576782226562,-0.032918207347393036
1.727526800588972e+18,-0.003513054456561804,0.003721919609233737,-0.03456630930304527
1.7275268005949722e+18,-0.0018711534794420004,0.002079292666167021,-0.031926512718200684
1.7275268006009723e+18,0.001095294370315969,0.0034888768568634987,-0.032112907618284225
1.7275268006069724e+18,0.0052659278735518456,0.003418524283915758,-0.029521239921450615
1.7275268006099725e+18,0.001222093473188579,-0.001972835510969162,-0.031735021620988846
1.7275268006159726e+18,0.0033484664745628834,-0.0015153506537899375,-0.029981713742017746
1.7275268006219727e+18,0.0006785803125239909,-0.0020337088499218225,-0.02827979438006878
1.7275268006249728e+18,-0.0014972325880080462,-0.003014408051967621,-0.032279081642627716
1.727526800630973e+18,-0.0030160988681018353,-0.0028147464618086815,-0.02954862266778946
1.727526800633973e+18,-0.0005279171746224165,-0.0017420947551727295,-0.030583903193473816
1.727526800639973e+18,-0.004590705037117004,-0.003716515377163887,-0.02695957012474537
1.7275268006459732e+18,-0.004489902872592211,-0.0007975462358444929,-0.02931220456957817
1.7275268006519734e+18,-0.002999508287757635,0.003004819620400667,-0.0274494756013155
1.7275268006549734e+18,-0.002915838733315468,-0.0011087177554145455,-0.027367999777197838
1.7275268006609736e+18,0.0011182797607034445,-0.001089646713808179,-0.024632152169942856
1.7275268006669737e+18,0.0024759795051068068,0.004192788153886795,-0.025565335527062416
1.7275268006699738e+18,0.004912332631647587,0.0012545455247163773,-0.024245640262961388
1.727526800675974e+18,0.0032527686562389135,-0.001682257279753685,-0.02266990952193737
1.727526800681974e+18,0.004651541355997324,-0.0011742969509214163,-0.023851506412029266
1.7275268006879741e+18,-0.0003127425443381071,-0.0006045454647392035,-0.023664958775043488
1.7275268006909742e+18,0.0014942028792575002,0.0020994236692786217,-0.025456156581640244
1.7275268006969743e+18,-0.0015445436583831906,-0.0004860211629420519,-0.0225629024207592
1.7275268007029745e+18,-0.0017867133719846606,0.00021900120191276073,-0.02322620153427124
1.7275268007059745e+18,-0.002692713402211666,-0.0010053601581603289,-0.02284630760550499
1.7275268007119747e+18,-0.00285713910125196,0.00037281765253283083,-0.02171226218342781
1.7275268007179748e+18,-0.003776469500735402,-0.0010359376901760697,-0.022729724645614624
1.727526800723975e+18,-0.0046309479512274265,0.0015971367247402668,-0.020621178671717644
1.727526800729975e+18,-0.0027537615969777107,3.689355798996985e-05,-0.021378176286816597
1.7275268007359752e+18,-0.001839370816014707,0.0007989198202267289,-0.019802676513791084
1.7275268007419753e+18,-0.0005018674419261515,-0.0002788836136460304,-0.017372852191329002
1.7275268007479754e+18,-0.0009269755682907999,0.003538520075380802,-0.02006692625582218
1.7275268007509755e+18,0.00020853150635957718,0.003467697650194168,-0.018786119297146797
1.7275268007569756e+18,0.002594543155282736,0.0002220974420197308,-0.01994531974196434
1.7275268007629757e+18,0.00026592647191137075,0.001829258049838245,-0.015964027494192123
1.7275268007659758e+18,4.858417742070742e-05,-0.0023134658113121986,-0.017574673518538475
1.727526800771976e+18,0.0007646026788279414,-0.0016275744419544935,-0.016326190903782845
1.727526800777976e+18,-0.0008993031224235892,0.0009603084763512015,-0.014924286864697933
1.727526800780976e+18,-0.0019081351347267628,-8.031468314584345e-05,-0.015477978624403477
1.7275268007869763e+18,-0.0056202346459031105,-0.0031168400309979916,-0.013739439658820629
1.7275268007929764e+18,-0.006183099001646042,0.0018283368553966284,-0.011273018084466457
1.7275268007959764e+18,0.0004560451488941908,-0.002423669211566448,-0.01503254659473896
1.7275268008019766e+18,-0.003978160209953785,0.003410623176023364,-0.01442871056497097
1.7275268008079767e+18,-0.0009363237186335027,-0.0013120316434651613,-0.014247989282011986
1.7275268008139768e+18,-0.0008147379849106073,-0.0014299878384917974,-0.013556893914937973
1.727526800816977e+18,0.0029466692358255386,0.0005464685382321477,-0.010021879337728024
1.727526800822977e+18,0.000524703529663384,0.001606092555448413,-0.014811287634074688
1.7275268008289772e+18,0.0018773783231154084,-0.0010472078574821353,-0.01306955236941576
1.7275268008319772e+18,0.0005669859237968922,-0.0003568923566490412,-0.01328370999544859
1.7275268008379773e+18,0.000770126935094595,-0.0008709749672561884,-0.012414327822625637
1.7275268008439775e+18,0.0004274627717677504,-0.001131819561123848,-0.0104440338909626
1.7275268008499776e+18,0.002591109834611416,-0.00013294065138325095,-0.010083423927426338
1.7275268008529777e+18,0.001390020246617496,-0.0012185067171230912,-0.008709242567420006
1.7275268008589778e+18,-0.0030984615441411734,0.002338157733902335,-0.010781410150229931
1.727526800864978e+18,-0.0011245560599491,0.0028337123803794384,-0.01067950390279293
1.727526800867978e+18,0.000640859710983932,-0.00017555916565470397,-0.010051730088889599
1.727526800873978e+18,-0.00038935343036428094,-3.843533340841532e-05,-0.010097752325236797
1.7275268008799782e+18,0.001571930362842977,-0.0018976640421897173,-0.007674802094697952
1.7275268008829783e+18,0.002119171665981412,-0.0011806213296949863,-0.008261390030384064
1.7275268008889784e+18,0.003128285286948085,0.0016313710948452353,-0.01193692721426487
1.7275268008949786e+18,0.000438083108747378,0.0010897325119003654,-0.00991253461688757
1.7275268008979786e+18,-0.00052502634935081,6.476120324805379e-05,-0.00848039798438549
1.7275268009039788e+18,0.00016111048171296716,-0.00017749491962604225,-0.006425275467336178
1.727526800909979e+18,0.0006005975883454084,-0.0006462640594691038,-0.0060845790430903435
1.727526800915979e+18,0.0024169492535293102,-0.0025007023941725492,-0.011831963434815407
1.727526800918979e+18,0.0008420570520684123,-0.0009295592899434268,-0.0064275385811924934
1.7275268009249792e+18,-0.002753790933638811,-0.0013408537488430738,-0.0024016816169023514
1.7275268009309793e+18,-0.0025171912275254726,0.0013215524377301335,-0.007368593476712704
1.7275268009339794e+18,-0.0022609224542975426,-0.0006440386059693992,-0.007626288570463657
1.7275268009399795e+18,-0.000357887358404696,-0.0028311347123235464,-0.008980310522019863
1.7275268009459796e+18,-0.0028281928971409798,-0.0004601379041559994,-0.009293993934988976
1.7275268009489797e+18,0.0009912863606587052,0.0007411321857944131,-0.00827212817966938
1.7275268009549798e+18,0.00027686089742928743,-0.0004731762455776334,-0.007462614681571722
1.72752680096098e+18,0.000506169511936605,-0.0007636460941284895,-0.008294552564620972
1.72752680096698e+18,-0.0003491822280921042,-0.003079721238464117,-0.012326537631452084
1.7275268009699802e+18,-0.0011119882110506296,-0.0008439189987257123,-0.009514671750366688
1.7275268009759803e+18,-0.0010631396435201168,0.001354673528112471,-0.009409097954630852
1.7275268009819804e+18,-0.0023480812087655067,0.0018419704865664244,-0.008603790774941444
1.7275268009879805e+18,-0.0022697693202644587,0.002571630757302046,-0.010083098895847797
1.7275268009909806e+18,-0.0016266095917671919,0.0012006321921944618,-0.009946021251380444
1.7275268009969807e+18,-0.0019329835195094347,-0.00014383223606273532,-0.013539127074182034
1.7275268010029809e+18,-0.001083725830540061,0.0036102095618844032,-0.012612801045179367
1.727526801008981e+18,-0.0005362972733564675,0.0002458447706885636,-0.013684813864529133
1.727526801011981e+18,0.0008242718176916242,-0.0025381981395184994,-0.010875317268073559
1.7275268010179812e+18,-0.0003938369336538017,-0.0016431005205959082,-0.013077689334750175
1.7275268010239813e+18,0.003166021779179573,-0.0020869262516498566,-0.013053902424871922
1.7275268010299814e+18,-0.0014541196869686246,-0.0003951129037886858,-0.01473014336079359
1.7275268010329815e+18,-0.003624090924859047,-0.0012497622519731522,-0.010878942906856537
1.7275268010389816e+18,-0.003066528122872114,0.00021723343525081873,-0.014519527554512024
1.7275268010449818e+18,-0.0009429710917174816,-0.0023606522008776665,-0.016266677528619766
1.7275268010479818e+18,0.00020425696857273579,0.002120072254911065,-0.017532704398036003
1.727526801053982e+18,-0.002886174013838172,0.001678665168583393,-0.013142167590558529
1.727526801059982e+18,0.001578896539285779,-0.00353266135789454,-0.012909308075904846
1.7275268010629821e+18,-0.002798220608383417,0.0015997204463928938,-0.013888290151953697
1.7275268010689823e+18,-0.0036137118004262447,0.00022724551672581583,-0.018337659537792206
1.7275268010749824e+18,0.0007548492285422981,-0.0022967453114688396,-0.01716146245598793
1.7275268010809825e+18,0.0009312126785516739,0.0009045663755387068,-0.018322814255952835
1.7275268010839826e+18,0.001254597445949912,-0.002422480611130595,-0.018753431737422943
1.7275268010899827e+18,-0.003968195989727974,-0.0007650586776435375,-0.01933404430747032
1.7275268010929828e+18,0.0014039890374988317,0.0012426492758095264,-0.018154550343751907
1.727526801098983e+18,-2.8608134016394615e-05,-0.0010445096995681524,-0.01906084455549717
1.727526801104983e+18,0.00041398557368665934,-0.000721084710676223,-0.016834594309329987
1.7275268011109832e+18,-7.626783917658031e-05,0.0012051197700202465,-0.021167466416954994
1.7275268011139832e+18,0.0006816708482801914,-0.0016208041924983263,-0.01995205506682396
1.7275268011199834e+18,-0.000619327649474144,0.0017348258988931775,-0.017746923491358757
1.7275268011259835e+18,-0.0007041693897917867,0.0019658603705465794,-0.016901452094316483
1.7275268011319836e+18,0.00012908328790217638,-0.0032347049564123154,-0.022490965202450752
1.7275268011349837e+18,-0.0019994722679257393,0.0029434440657496452,-0.016881369054317474
1.7275268011409838e+18,-0.0002747162361629307,0.0002895232173614204,-0.0212456863373518
1.727526801146984e+18,0.0018290509469807148,-0.002005927264690399,-0.02059183642268181
1.727526801149984e+18,-0.0027560023590922356,0.002243020571768284,-0.02284957654774189
1.7275268011559841e+18,0.0026355592999607325,0.0028885924257338047,-0.021896345540881157
1.7275268011619843e+18,-0.0005797269404865801,-0.0018912627128884196,-0.02010054886341095
1.7275268011649843e+18,-0.0017320978222414851,-0.0006910025840625167,-0.018474994227290154
1.7275268011709844e+18,0.0005945190787315369,-0.0004309865180402994,-0.021278388798236847
1.7275268011769846e+18,-0.00046829087659716606,0.0031378245912492275,-0.021659180521965027
1.7275268011829847e+18,0.0010696081444621086,0.0012711914023384452,-0.0209402646869421
1.7275268011859848e+18,-0.0020711258985102177,1.0450603440403938e-06,-0.02049742080271244
1.727526801191985e+18,7.251690840348601e-05,-0.0024948283098638058,-0.016984976828098297
1.727526801194985e+18,0.002401638077571988,0.0031209723092615604,-0.022313645109534264
1.727526801200985e+18,0.0011580451391637325,-0.00023828912526369095,-0.018084587529301643
1.7275268012069852e+18,0.003928851801902056,-0.0007355418056249619,-0.020649321377277374
1.7275268012099853e+18,0.002154156332835555,-0.00152592861559242,-0.022478433325886726
1.7275268012159854e+18,0.0010062308283522725,-0.0035377955064177513,-0.018633605912327766
1.7275268012189855e+18,0.00020639674039557576,-0.0020608408376574516,-0.02244410291314125
1.7275268012249856e+18,-0.001896736677736044,-0.001292323344387114,-0.02077351324260235
1.7275268012309857e+18,-0.0033082454465329647,-0.0030842141713947058,-0.0187453031539917
1.7275268012369859e+18,-0.0008413332980126143,-0.001153487479314208,-0.02243499457836151
1.727526801242986e+18,0.007227056659758091,0.0019329407950863242,-0.018295757472515106
1.727526801245986e+18,0.017850397154688835,0.0005258172750473022,-0.020315654575824738
1.7275268012519862e+18,0.036841873079538345,-0.002836726838722825,-0.02051992528140545
1.7275268012579863e+18,0.05832407623529434,0.0011901704128831625,-0.018040457740426064
1.7275268012609864e+18,0.06610698997974396,0.004095087293535471,-0.0199232529848814
1.7275268012669865e+18,0.08670970052480698,0.0022284542210400105,-0.021822134032845497
1.7275268012729866e+18,0.10065986961126328,0.0003007975174114108,-0.018310148268938065
1.7275268012789868e+18,0.1032898798584938,-0.003822038881480694,-0.020702309906482697
1.7275268012819868e+18,0.1040157899260521,-0.004177856259047985,-0.018336188048124313
1.727526801287987e+18,0.09723862260580063,-0.0008516067173331976,-0.02032814919948578
1.727526801293987e+18,0.08887547999620438,-0.0020188922062516212,-0.019834045320749283
1.7275268012969871e+18,0.0822606161236763,-0.004456563387066126,-0.01885823905467987
1.7275268013029873e+18,0.07866539061069489,-0.004357925150543451,-0.019724858924746513
1.7275268013089874e+18,0.07446695864200592,-0.0016737997066229582,-0.01601565256714821
1.7275268013149875e+18,0.07599689811468124,-0.00011287466622889042,-0.01589738391339779
1.7275268013179876e+18,0.07457379251718521,-0.0008031448815017939,-0.018337519839406013
1.7275268013239877e+18,0.08661480247974396,-0.001400879817083478,-0.019618216902017593
1.7275268013299878e+18,0.10043279826641083,3.427336923778057e-05,-0.018769748508930206
1.727526801332988e+18,0.10838998854160309,0.002167786005884409,-0.017769230529665947
1.727526801338988e+18,0.12291638553142548,-0.00018685637041926384,-0.020135799422860146
1.7275268013449882e+18,0.13952557742595673,-0.004249343182891607,-0.01694781705737114
1.7275268013509883e+18,0.16041618585586548,-0.0033091220539063215,-0.019023872911930084
1.7275268013539884e+18,0.1708715409040451,-0.0026394580490887165,-0.017909076064825058
1.7275268013599885e+18,0.1914720982313156,-0.0016734898090362549,-0.014039567671716213
1.7275268013659886e+18,0.21592575311660767,-0.006205901503562927,-0.018200280144810677
1.7275268013719887e+18,0.24526984989643097,-0.004485325422137976,-0.013293817639350891
1.7275268013749888e+18,0.25848308205604553,-0.0040303491987288,-0.015885278582572937
1.727526801380989e+18,0.28393954038619995,-0.007600872777402401,-0.014236470684409142
1.727526801386989e+18,0.3090475797653198,-0.00258912006393075,-0.01524809468537569
1.727526801389989e+18,0.3187110424041748,-0.007172991521656513,-0.01577131450176239
1.7275268013959892e+18,0.3380129635334015,-0.005041508469730616,-0.013224304653704166
1.7275268014019894e+18,0.347983717918396,0.0009419659618288279,-0.013111677952110767
1.7275268014049894e+18,0.3505725860595703,-0.002957842545583844,-0.011638980358839035
1.7275268014109896e+18,0.3550824522972107,-0.004710701294243336,-0.015166191384196281
1.7275268014169897e+18,0.36156824231147766,-0.003845120780169964,-0.012914326041936874
1.7275268014229898e+18,0.36351272463798523,-0.004464779514819384,-0.01338867750018835
1.72752680142899e+18,0.3642168939113617,-0.004702880047261715,-0.011917885392904282
1.72752680143199e+18,0.3756067156791687,-0.005638431757688522,-0.009883129969239235
1.7275268014379901e+18,0.40166980028152466,-0.000655406154692173,-0.008355407044291496
1.7275268014439903e+18,0.4339635968208313,-0.002353342715650797,-0.008228106424212456
1.7275268014469903e+18,0.4486696422100067,-0.0010226229205727577,-0.009983154013752937
1.7275268014529905e+18,0.4897717833518982,-0.0049910168163478374,-0.00827055610716343
1.7275268014589906e+18,0.539214015007019,-0.0017606306355446577,-0.007138500921428204
1.7275268014619907e+18,0.5601506233215332,-0.0019695251248776913,-0.00660293735563755
1.7275268014679908e+18,0.5957114100456238,-0.0011077076196670532,-0.006608236115425825
1.727526801473991e+18,0.6349170804023743,-0.006327128037810326,-0.00853766594082117
1.727526801479991e+18,0.6692156791687012,-0.006988398730754852,-0.005948131438344717
1.727526801482991e+18,0.6755577325820923,-0.004641200415790081,-0.005668685771524906
1.7275268014889912e+18,0.6952493786811829,-0.004466264974325895,-0.004067225847393274
1.7275268014949914e+18,0.6993468999862671,-0.004729230888187885,-0.004029938019812107
1.7275268014979914e+18,0.7042891383171082,-0.0034450781531631947,-0.006365030072629452
1.7275268015039916e+18,0.700281023979187,-0.0055664838291704655,-0.0044452594593167305
1.7275268015099917e+18,0.6934473514556885,-0.002869760151952505,-0.004448496270924807
1.7275268015129917e+18,0.6890501379966736,-0.004824073053896427,-0.001600039773620665
1.727526801518992e+18,0.6881470084190369,-0.006407728884369135,-0.0032549668103456497
1.727526801524992e+18,0.6840752959251404,-0.0033692684955894947,-0.00033696996979415417
1.727526801527992e+18,0.6850866079330444,-0.007003607228398323,0.0012194726150482893
1.7275268015339922e+18,0.6824162006378174,-0.006370665971189737,-0.0012577936286106706
1.7275268015399923e+18,0.6820945143699646,-0.00546802394092083,0.002215414773672819
1.7275268015459924e+18,0.6698301434516907,-0.007187563925981522,0.00030694325687363744
1.7275268015489925e+18,0.6665384769439697,-0.0051609063521027565,0.0016640005633234978
1.7275268015549926e+18,0.6516857743263245,-0.006050278898328543,7.939414354041219e-05
1.7275268015609928e+18,0.6314383745193481,-0.005590745247900486,-0.0006465994520112872
1.7275268015639928e+18,0.6171818375587463,-0.005053665488958359,-0.0015945775667205453
1.727526801569993e+18,0.5894953608512878,-0.0038545671850442886,0.0010224763536825776
1.727526801575993e+18,0.5625353455543518,-0.006561879068613052,0.0022610602900385857
1.7275268015819932e+18,0.5367342829704285,-0.004533417988568544,0.0013430386316031218
1.7275268015849933e+18,0.5267343521118164,-0.004505021497607231,0.001966342329978943
1.7275268015909934e+18,0.5039560794830322,-0.003980221692472696,0.0023915187921375036
1.7275268015969935e+18,0.488860547542572,-0.005463713314384222,0.0021595621947199106
1.7275268015999936e+18,0.4832227826118469,-0.004494798835366964,0.003877670504152775
1.7275268016059937e+18,0.4660099744796753,-0.002659708959981799,0.005167871713638306
1.7275268016119939e+18,0.44998466968536377,-0.0035292732063680887,0.0048655117861926556
1.727526801617994e+18,0.4316815435886383,-0.005884560756385326,0.006497193593531847
1.727526801620994e+18,0.42418307065963745,-0.0031742784194648266,0.0072225965559482574
1.7275268016269942e+18,0.40494903922080994,-0.006018437445163727,0.007970704697072506
1.7275268016329943e+18,0.37820056080818176,-0.0009285015985369682,0.004675563424825668
1.7275268016359944e+18,0.36469680070877075,-0.0025565538089722395,0.009081919677555561
1.7275268016419945e+18,0.3412322998046875,-0.003166678361594677,0.008620289154350758
1.7275268016479946e+18,0.31873470544815063,-0.0016628659795969725,0.010058530606329441
1.7275268016539948e+18,0.29591625928878784,0.0005568236811086535,0.00984838418662548
1.727526801659995e+18,0.2778383791446686,-0.0032430344726890326,0.010237030684947968
1.727526801665995e+18,0.26174408197402954,-4.3901149183511734e-05,0.013083718717098236
1.727526801668995e+18,0.2568899095058441,-0.003635002765804529,0.009037268348038197
1.7275268016749952e+18,0.24161319434642792,-0.0006644873647019267,0.011345095001161098
1.7275268016809953e+18,0.22725693881511688,-0.0012010852806270123,0.013813603669404984
1.7275268016869955e+18,0.20449748635292053,-0.002626705216243863,0.01288068387657404
1.7275268016899955e+18,0.19390568137168884,-0.0038216805551201105,0.012181280180811882
1.7275268016959956e+18,0.16865581274032593,0.001283549121581018,0.016168463975191116
1.7275268017019958e+18,0.14401771128177643,0.002188275335356593,0.0127295833081007
1.727526801707996e+18,0.12408804893493652,0.0021520238369703293,0.017211755737662315
1.727526801710996e+18,0.10867748409509659,-0.000687302672304213,0.013804503716528416
1.727526801716996e+18,0.09537295252084732,0.00025636248756200075,0.01609943062067032
1.7275268017229962e+18,0.08071189373731613,0.0011551257921382785,0.01876877248287201
1.7275268017289964e+18,0.0716681256890297,-0.0005048791645094752,0.01435641385614872
1.7275268017349965e+18,0.06701760739088058,0.00025914021534845233,0.020603086799383163
1.7275268017379965e+18,0.06485046446323395,0.0015181864146143198,0.016311662271618843
1.7275268017439967e+18,0.06032033637166023,0.0016729640774428844,0.015732096508145332
1.7275268017499968e+18,0.054682545363903046,-0.0006617088802158833,0.01971851848065853
1.727526801755997e+18,0.04203028231859207,-0.002696271985769272,0.019333479925990105
1.727526801761997e+18,0.032187171280384064,0.0011420800583437085,0.020054863765835762
1.7275268017679972e+18,0.022168951109051704,-0.001534932409413159,0.020506437867879868
1.7275268017739973e+18,0.007768888492137194,-0.00045450503239408135,0.021283099427819252
1.7275268017799974e+18,-0.0017272811383008957,0.003241763450205326,0.024631019681692123
1.7275268017859976e+18,-0.01796739175915718,0.002701518824324012,0.024903977289795876
1.7275268017949978e+18,-0.040918316692113876,0.00020233966642990708,0.023213300853967667
1.727526801800998e+18,-0.04909779876470566,0.002165338024497032,0.02531527914106846
1.727526801809998e+18,-0.060275208204984665,-0.001823423895984888,0.025859951972961426
1.7275268018159982e+18,-0.061872780323028564,-0.002720655407756567,0.027943527325987816
1.7275268018219983e+18,-0.06234303489327431,-0.004123389720916748,0.028676506131887436
1.7275268018309985e+18,-0.06012403964996338,-0.005557524971663952,0.03139728307723999
1.7275268018369987e+18,-0.05850280448794365,-0.002719639567658305,0.03009861148893833
1.7275268018429988e+18,-0.0600501112639904,-0.0035656634718179703,0.02973257564008236
1.727526801848999e+18,-0.062053583562374115,-0.0017422597156837583,0.02955305017530918
1.727526801854999e+18,-0.0647546648979187,-0.003701189300045371,0.027614591643214226
1.7275268018609992e+18,-0.06685645878314972,-0.003585119964554906,0.03086838684976101
1.7275268018639992e+18,-0.07007653266191483,-0.004654304590076208,0.029802249744534492
1.7275268018699994e+18,-0.07058355212211609,-0.004716784693300724,0.028897913172841072
1.7275268018759995e+18,-0.07194207608699799,-0.006182747893035412,0.03239382058382034
1.7275268018819996e+18,-0.07239766418933868,-0.006313104182481766,0.03002207726240158
1.7275268018849997e+18,-0.07361969351768494,-0.007063460536301136,0.029043635353446007
1.7275268018909998e+18,-0.07077790051698685,-0.008709617890417576,0.03141512721776962
1.727526801897e+18,-0.06850367784500122,-0.011937197297811508,0.030984502285718918
1.727526801903e+18,-0.06467050313949585,-0.009807838127017021,0.03258831426501274
1.7275268019090002e+18,-0.06023796275258064,-0.008357062004506588,0.031801581382751465
1.7275268019150003e+18,-0.058522168546915054,-0.011056648567318916,0.03384079039096832
1.7275268019180004e+18,-0.05642746761441231,-0.008250247687101364,0.0326249785721302
1.7275268019240005e+18,-0.055530816316604614,-0.009517798200249672,0.03508396074175835
1.7275268019300006e+18,-0.054803479462862015,-0.010209506377577782,0.03328971192240715
1.7275268019360008e+18,-0.05444100499153137,-0.009250607341527939,0.031918298453092575
1.727526801942001e+18,-0.05563393235206604,-0.01302824355661869,0.030782563611865044
1.727526801945001e+18,-0.05250919982790947,-0.01017704140394926,0.032591722905635834
1.727526801951001e+18,-0.0558568611741066,-0.011733448132872581,0.03152889013290405
1.7275268019570012e+18,-0.05308050289750099,-0.011721968650817871,0.03417687118053436
1.7275268019630013e+18,-0.06122454255819321,-0.013516098260879517,0.03131399676203728
1.7275268019690015e+18,-0.06491237878799438,-0.00991044007241726,0.03024980053305626
1.7275268019720015e+18,-0.06751331686973572,-0.010215205140411854,0.030224593356251717
1.7275268019780017e+18,-0.07603102177381516,-0.00983949564397335,0.03368570655584335
1.7275268019840018e+18,-0.08226530253887177,-0.01351897232234478,0.03179387375712395
1.727526801990002e+18,-0.08630796521902084,-0.01245969720184803,0.031886566430330276
1.727526801993002e+18,-0.08505240082740784,-0.01530236192047596,0.03083786554634571
1.727526801999002e+18,-0.0857027992606163,-0.013148419559001923,0.030376290902495384
1.7275268020050022e+18,-0.0809154063463211,-0.014244609512388706,0.030673034489154816
1.7275268020110024e+18,-0.078618623316288,-0.012726237066090107,0.032979048788547516
1.7275268020140024e+18,-0.07592891901731491,-0.012418866157531738,0.032077014446258545
1.7275268020200026e+18,-0.07595869898796082,-0.010578589513897896,0.03320915624499321
1.7275268020260027e+18,-0.08443246781826019,-0.012749883346259594,0.03173092007637024
1.7275268020320028e+18,-0.09348420798778534,-0.01049919705837965,0.030049854889512062
1.727526802038003e+18,-0.1090552806854248,-0.008181935176253319,0.02963588573038578
1.727526802044003e+18,-0.13076606392860413,-0.008568130433559418,0.02961251325905323
1.7275268020500032e+18,-0.15019233524799347,-0.009701059199869633,0.03148866817355156
1.7275268020530033e+18,-0.15455834567546844,-0.00909850187599659,0.03111191838979721
1.7275268020590034e+18,-0.16828568279743195,-0.011407044716179371,0.029649898409843445
1.7275268020650035e+18,-0.1814330518245697,-0.012913314625620842,0.02875804901123047
1.7275268020710036e+18,-0.1941537708044052,-0.009115081280469894,0.027913037687540054
1.7275268020770038e+18,-0.20031523704528809,-0.012409678660333157,0.02670978754758835
1.727526802083004e+18,-0.21014590561389923,-0.007941408082842827,0.025547707453370094
1.727526802089004e+18,-0.22660990059375763,-0.01041247695684433,0.029521582648158073
1.727526802092004e+18,-0.2365453690290451,-0.008807371370494366,0.02951241284608841
1.7275268020980042e+18,-0.2611614763736725,-0.008100209757685661,0.026188910007476807
1.7275268021040044e+18,-0.2950470447540283,-0.006885957438498735,0.03112371824681759
1.7275268021100045e+18,-0.3283762037754059,-0.0015162182971835136,0.02788476273417473
1.7275268021160046e+18,-0.3587337136268616,-0.0027629483956843615,0.029806124046444893
1.7275268021220047e+18,-0.3887535333633423,-0.005308234598487616,0.03170143812894821
1.7275268021280049e+18,-0.4164718687534332,-0.0032267512287944555,0.02817697636783123
1.727526802134005e+18,-0.4339645206928253,-0.003482470056042075,0.027594586834311485
1.727526802140005e+18,-0.44909000396728516,-0.004147038795053959,0.027276990935206413
1.7275268021460052e+18,-0.47811639308929443,0.0004827918019145727,0.029506832361221313
1.7275268021490053e+18,-0.49093571305274963,-0.0016707319300621748,0.026651812717318535
1.7275268021550054e+18,-0.5239691734313965,-6.38093042653054e-05,0.028858602046966553
1.7275268021610056e+18,-0.5494475960731506,0.0005628852522931993,0.028255995362997055
1.7275268021640056e+18,-0.5666552186012268,0.0006628650007769465,0.02728925086557865
1.7275268021700058e+18,-0.6072354912757874,0.005061831325292587,0.02602366916835308
1.727526802176006e+18,-0.6442233324050903,0.004837351385504007,0.030371924862265587
1.727526802182006e+18,-0.6778880953788757,0.0035082893446087837,0.030001619830727577
1.727526802185006e+18,-0.685758650302887,0.008125808089971542,0.03145745024085045
1.7275268021910062e+18,-0.7048624753952026,0.0013870054390281439,0.031900811940431595
1.7275268021970063e+18,-0.7143036127090454,0.004842163994908333,0.02758282795548439
1.7275268022000064e+18,-0.7140357494354248,0.0028045563958585262,0.031133191660046577
1.7275268022060065e+18,-0.7042092084884644,-0.00044169509783387184,0.028533628210425377
1.7275268022120067e+18,-0.6836857795715332,0.002938819583505392,0.02980581298470497
1.7275268022150067e+18,-0.6752341985702515,0.0029737595468759537,0.030734693631529808
1.7275268022210068e+18,-0.6561245322227478,0.004381334409117699,0.03128476440906525
1.727526802227007e+18,-0.636820375919342,0.004676646552979946,0.03066384792327881
1.727526802230007e+18,-0.6282681822776794,0.0026022661477327347,0.028609981760382652
1.7275268022360072e+18,-0.6109573245048523,0.004523094743490219,0.030312014743685722
1.7275268022420073e+18,-0.6005335450172424,0.008629215881228447,0.02954067662358284
1.7275268022480074e+18,-0.5898630619049072,0.006903006695210934,0.031128427013754845
1.7275268022510075e+18,-0.5806982517242432,0.005864946637302637,0.031213384121656418
1.7275268022570076e+18,-0.5759576559066772,0.005566819570958614,0.030018752440810204
1.7275268022630077e+18,-0.5592267513275146,0.00560874305665493,0.029938437044620514
1.7275268022660078e+18,-0.5509570240974426,0.0030005425214767456,0.032093387097120285
1.727526802272008e+18,-0.5341740250587463,0.002455695765092969,0.0284432265907526
1.727526802278008e+18,-0.5092880725860596,0.0023226880002766848,0.03203444182872772
1.727526802281008e+18,-0.49133914709091187,0.004389964044094086,0.03020143136382103
1.7275268022870083e+18,-0.465014785528183,0.0037844302132725716,0.03421087935566902
1.7275268022930084e+18,-0.4385077655315399,0.0017579870764166117,0.032359976321458817
1.7275268022960084e+18,-0.42225322127342224,0.004138154909014702,0.034710463136434555
1.7275268023020086e+18,-0.3964414894580841,0.003715147729963064,0.03284511715173721
1.7275268023080087e+18,-0.37754130363464355,0.004640860483050346,0.03353187441825867
1.7275268023110088e+18,-0.3667911887168884,8.641090244054794e-05,0.02820061519742012
1.727526802317009e+18,-0.35005199909210205,0.004240807145833969,0.03178158402442932
1.727526802323009e+18,-0.3378145396709442,0.001712903962470591,0.032405681908130646
1.7275268023290092e+18,-0.32650357484817505,0.002368310233578086,0.03263996168971062
1.7275268023320092e+18,-0.31799811124801636,0.0032452393788844347,0.03546469658613205
1.7275268023380093e+18,-0.30223581194877625,0.0017687184736132622,0.034960947930812836
1.7275268023440095e+18,-0.28831759095191956,0.0013127943966537714,0.03368794545531273
1.7275268023470095e+18,-0.278939425945282,0.002171723637729883,0.03458380326628685
1.7275268023530097e+18,-0.25737228989601135,0.002009935909882188,0.033736493438482285
1.7275268023590098e+18,-0.2363532930612564,0.003891199827194214,0.033990196883678436
1.7275268023620099e+18,-0.22455660998821259,0.0026096708606928587,0.037151455879211426
1.72752680236801e+18,-0.2059166431427002,0.004239573609083891,0.037634436041116714
1.72752680237401e+18,-0.1877499371767044,0.002256424631923437,0.03448081761598587
1.7275268023800102e+18,-0.1756507158279419,0.0034522591158747673,0.03414708003401756
1.7275268023830103e+18,-0.17025695741176605,0.0038735205307602882,0.03567749261856079
1.7275268023890104e+18,-0.16035646200180054,0.0005245246575213969,0.032643407583236694
1.7275268023950106e+18,-0.1511349081993103,0.0008645334746688604,0.03349325433373451
1.7275268023980106e+18,-0.15004146099090576,0.00034005651832558215,0.03823746368288994
1.7275268024040108e+18,-0.14173321425914764,-0.003068811260163784,0.036456815898418427
1.7275268024070108e+18,-0.13518467545509338,-0.0006238780333660543,0.03364330902695656
1.727526802413011e+18,-0.1273644119501114,0.0008526619058102369,0.03739259019494057
1.727526802419011e+18,-0.1176498606801033,-0.002585213165730238,0.033370260149240494
1.7275268024220111e+18,-0.11015131324529648,0.002375177573412657,0.03511510416865349
1.7275268024280113e+18,-0.09722018241882324,-0.00015205849194899201,0.03598419204354286
1.7275268024340114e+18,-0.08560673147439957,0.0010309541830793023,0.03784835338592529
1.7275268024400115e+18,-0.07626540958881378,0.001517709344625473,0.03670469671487808
1.7275268024460116e+18,-0.0645148754119873,0.0032399024348706007,0.03644194453954697
1.7275268024490117e+18,-0.06365594267845154,0.0008465305436402559,0.037791479378938675
1.7275268024550118e+18,-0.06026989594101906,0.00017836039478424937,0.03695053979754448
1.727526802461012e+18,-0.0547439269721508,-0.001488058129325509,0.036694299429655075
1.727526802467012e+18,-0.05492546036839485,-0.0038521834649145603,0.03432513773441315
1.7275268024700122e+18,-0.05208723992109299,-0.001079644076526165,0.03699221462011337
1.7275268024760123e+18,-0.04970404878258705,-0.0019139786018058658,0.036845117807388306
1.7275268024820124e+18,-0.04802693426609039,-0.0016507082618772984,0.033853959292173386
1.7275268024880125e+18,-0.0424002967774868,-0.0013466195669025183,0.03413332626223564
1.7275268024940127e+18,-0.034541256725788116,-0.0004844066861551255,0.03530163690447807
1.7275268025000128e+18,-0.03022264875471592,0.000500525173265487,0.035082075744867325
1.727526802506013e+18,-0.023874320089817047,-0.00050334632396698,0.036803461611270905
1.727526802512013e+18,-0.01946559175848961,0.0002176503767259419,0.032885003834962845
1.727526802515013e+18,-0.014488518238067627,-0.0011539944680407643,0.036732155829668045
1.7275268025210132e+18,-0.013452249579131603,-0.0037174501921981573,0.035256385803222656
1.7275268025270134e+18,-0.010740561410784721,-2.7975795092061162e-05,0.03480446711182594
1.7275268025330135e+18,-0.009308148175477982,0.0007471699500456452,0.035182155668735504
1.7275268025390136e+18,-0.010472799651324749,-0.0010131127201020718,0.03383050858974457
1.7275268025450138e+18,-0.013171846978366375,-0.000991056440398097,0.036220550537109375
1.727526802551014e+18,-0.0095907524228096,0.00024591153487563133,0.03748666122555733
1.727526802557014e+18,-0.009453454986214638,-0.001263919984921813,0.037744320929050446
1.727526802560014e+18,-0.008817818947136402,0.002457534661516547,0.033881183713674545
1.7275268025690143e+18,-0.0040953378193080425,-0.0020522698760032654,0.03179651498794556
1.7275268025750144e+18,-0.0015207243850454688,-0.0013516949256882071,0.03380691632628441
1.7275268025780145e+18,0.0012344951974228024,-0.003186226123943925,0.037477076053619385
1.7275268025840146e+18,0.0008043437264859676,-0.002480973955243826,0.03247388079762459
1.7275268025900147e+18,0.005462956614792347,-0.001320989103987813,0.03799016773700714
1.7275268025960148e+18,0.00406271917745471,-0.0016049420228227973,0.035167206078767776
1.727526802602015e+18,0.004119369201362133,-0.00015412934590131044,0.03326767683029175
1.727526802605015e+18,0.0053659845143556595,0.0011704866774380207,0.03573328256607056
1.7275268026110152e+18,-0.0021582534536719322,0.001405250048264861,0.03571270778775215
1.7275268026170153e+18,0.0012000976130366325,5.728800897486508e-05,0.03536410257220268
1.7275268026230154e+18,-0.0005857044016011059,-0.0023955735377967358,0.03701242804527283
1.7275268026290156e+18,-0.0019383509643375874,0.0034677041694521904,0.03652928024530411
1.7275268026320156e+18,0.0012369249016046524,-0.00010472911526449025,0.03485910966992378
1.7275268026380157e+18,0.0012687125708907843,-0.0008934145444072783,0.033847104758024216
1.7275268026440159e+18,0.006485510617494583,-0.0014142765430733562,0.038024768233299255
1.727526802650016e+18,0.004858034662902355,0.0023578712716698647,0.03751608356833458
1.727526802653016e+18,0.00986219011247158,0.0016441018087789416,0.03449137881398201
1.7275268026590162e+18,0.008180276490747929,0.0011616670526564121,0.0358736515045166
1.7275268026650163e+18,0.006957527715712786,0.0015999218448996544,0.03753584995865822
1.7275268026680164e+18,0.006732109468430281,0.002052478026598692,0.03807934373617172
1.7275268026740165e+18,0.004637398757040501,0.0013149399310350418,0.04015485197305679
1.7275268026800166e+18,0.005235463380813599,0.000765947625041008,0.04280935600399971
1.7275268026860168e+18,-0.004516356159001589,0.001409405143931508,0.04308459907770157
1.727526802692017e+18,0.003000127850100398,-0.0004960576188750565,0.0465332567691803
1.727526802698017e+18,-0.003152283374220133,0.0013506722170859575,0.050304263830184937
1.7275268027040172e+18,-0.003426755778491497,-0.0013826440554112196,0.05505822226405144
1.7275268027070172e+18,-0.002434294670820236,-0.0022785321343690157,0.05256002023816109
1.7275268027130173e+18,0.003722335444763303,-0.002916548168286681,0.06075946241617203
1.7275268027190175e+18,0.0018065397161990404,0.0020703866612166166,0.067860446870327
1.7275268027220175e+18,0.002946407999843359,0.0018550597596913576,0.07177547365427017
1.7275268027280177e+18,0.0033341851085424423,0.00047952088061720133,0.07871557772159576
1.7275268027340178e+18,0.008441811427474022,-0.0003401006106287241,0.08136044442653656
1.727526802740018e+18,0.004519280511885881,0.0044599054381251335,0.08820085972547531
1.727526802743018e+18,0.006081001833081245,-0.001662369119003415,0.0964667946100235
1.727526802749018e+18,0.005053567234426737,0.0030137873254716396,0.10091786831617355
1.7275268027550182e+18,-0.0003581554628908634,0.0017945128493010998,0.10949885845184326
1.7275268027580183e+18,-3.098722663708031e-05,0.0006365951849147677,0.11236214637756348
1.7275268027640184e+18,0.0005190437659621239,0.0011378114577382803,0.12244336307048798
1.7275268027700186e+18,-0.003221039893105626,-0.0007911648135632277,0.13083802163600922
1.7275268027760187e+18,-0.0004528105491772294,0.0010109132854267955,0.13637636601924896
1.7275268027820188e+18,-0.0025910683907568455,-0.002425840590149164,0.14660239219665527
1.727526802785019e+18,0.00020034042245242745,0.0012290633749216795,0.15277038514614105
1.727526802791019e+18,0.0027567357756197453,-0.0009015460964292288,0.16153600811958313
1.7275268027970191e+18,0.002589515643194318,-0.0005234084092080593,0.1708788126707077
1.7275268028000192e+18,0.006760722026228905,0.0017462106188759208,0.17385174334049225
1.7275268028060193e+18,0.006869044620543718,0.001887843944132328,0.18518394231796265
1.7275268028120195e+18,0.004409627988934517,0.0013891052221879363,0.1939609944820404
1.7275268028150195e+18,0.0044014714658260345,-0.0010952717857435346,0.203352153301239
1.7275268028210196e+18,0.0006163902580738068,-0.0009569104295223951,0.2139909714460373
1.7275268028270198e+18,-0.0011856829514726996,-0.001365363597869873,0.21993042528629303
1.72752680283302e+18,-0.002633866388350725,-0.0006341927219182253,0.2306235432624817
1.72752680283602e+18,-0.001911556115373969,0.0007731773657724261,0.23937074840068817
1.72752680284202e+18,-0.00152997812256217,0.002053209114819765,0.2481546550989151
1.7275268028450202e+18,-0.0029558371752500534,0.0004287911287974566,0.2550847828388214
1.7275268028510203e+18,-0.0018086762866005301,0.0023527031298726797,0.26583385467529297
1.7275268028570204e+18,-0.0007377975853160024,0.004307309631258249,0.27194222807884216
1.7275268028630205e+18,0.0010530157014727592,0.0005286921514198184,0.28711819648742676
1.7275268028690207e+18,0.001509860740043223,-0.0005938631948083639,0.2971346080303192
1.7275268028720207e+18,0.0003897211281582713,0.001828368753194809,0.30465027689933777
1.7275268028780209e+18,0.00039310299325734377,-0.0011061665136367083,0.31407788395881653
1.727526802881021e+18,0.0008522486896254122,0.003556441515684128,0.3241761028766632
1.727526802887021e+18,0.002699654083698988,0.0011649626540020108,0.33496126532554626
1.7275268028930212e+18,0.0014603693271055818,-0.0003166555834468454,0.34389495849609375
1.7275268028960212e+18,-0.001716979080811143,-0.0008174099493771791,0.3486974537372589
1.7275268029020214e+18,-0.0022363823372870684,-4.9674068577587605e-05,0.3598889112472534
1.7275268029080215e+18,-0.0034870554227381945,0.003011123975738883,0.3737708330154419
1.7275268029110216e+18,-0.0024800284299999475,0.0032628518529236317,0.3825138509273529
1.7275268029170217e+18,-0.0013121295487508178,0.0005421823007054627,0.38944587111473083
1.7275268029230218e+18,0.0004346430068835616,0.0031687654554843903,0.405677855014801
1.727526802929022e+18,-0.0018350838217884302,0.0025326982140541077,0.4143649637699127
1.727526802932022e+18,0.000261541863437742,-0.0008291816338896751,0.4206951856613159
1.7275268029380221e+18,0.003338920185342431,-0.0027135899290442467,0.433848112821579
1.7275268029440223e+18,0.0009323240956291556,0.0004834876162931323,0.44579842686653137
1.7275268029470223e+18,-0.00214134412817657,-0.001460843370296061,0.45147427916526794
1.7275268029530225e+18,0.0015772782498970628,-0.002238926477730274,0.4633045494556427
1.7275268029590226e+18,0.0010735758114606142,-0.001520827179774642,0.47554636001586914
1.7275268029620227e+18,-0.0004971360322088003,0.0015322343679144979,0.48364463448524475
1.7275268029680228e+18,0.0003905659541487694,0.0015701475786045194,0.49330124258995056
1.727526802974023e+18,-0.0061810375191271305,0.0012326834257692099,0.507008969783783
1.727526802980023e+18,-0.002534957369789481,0.0001334037515334785,0.521226167678833
1.727526802983023e+18,-0.0013215874787420034,0.002107069129124284,0.5289286375045776
1.7275268029890232e+18,-0.002109464956447482,0.001906257588416338,0.5369337201118469
1.7275268029950234e+18,0.0037655888590961695,0.0007687857141718268,0.5501725673675537
1.7275268029980234e+18,0.0005898596718907356,0.0004027842660434544,0.5539776682853699
1.7275268030040236e+18,0.0007298237760551274,-0.0005661497707478702,0.5663818717002869
1.7275268030100237e+18,-0.0006065171910449862,-0.001380101777613163,0.5778858661651611
1.7275268030130237e+18,-0.00047142384573817253,0.0008320700726471841,0.5846861600875854
1.727526803019024e+18,0.0028744458686560392,-0.0007391045219264925,0.5949414372444153
1.727526803025024e+18,-0.0008362062508240342,-8.432089816778898e-05,0.6091381907463074
1.727526803031024e+18,0.0007411020924337208,0.0011130854254588485,0.6150407791137695
1.7275268030340242e+18,-0.002468989696353674,-0.0003624324453994632,0.6252354383468628
1.7275268030400243e+18,-0.0027415258809924126,-0.000724690209608525,0.636379599571228
1.7275268030460244e+18,-0.0021034853998571634,-0.001669854624196887,0.6460607647895813
1.7275268030490245e+18,-0.0010686928872019053,0.0010522478260099888,0.6526703238487244
1.7275268030550246e+18,0.00023086764849722385,0.0011300609912723303,0.6602475643157959
1.7275268030610248e+18,-0.001740382518619299,0.0006647014524787664,0.6736447811126709
1.7275268030640248e+18,0.003751941490918398,-0.0007725570467300713,0.6788707375526428
1.727526803070025e+18,0.0010292523074895144,0.0007835522992536426,0.6923545598983765
1.727526803076025e+18,-0.0024478482082486153,0.002817395608872175,0.7016805410385132
1.7275268030820252e+18,0.00021734365145675838,-0.0003490583912935108,0.7114096283912659
1.7275268030850253e+18,0.0006870759534649551,0.0006785718142054975,0.7179288268089294
1.7275268030910254e+18,0.0006753423949703574,-0.00066490622702986,0.7266640067100525
1.7275268030970255e+18,-0.0007142108515836298,0.0008719003526493907,0.734126091003418
1.7275268031030257e+18,-0.002278766594827175,0.00022404117044061422,0.7455013990402222
1.7275268031060257e+18,-0.0006012929370626807,-0.0012646466493606567,0.7515402436256409
1.7275268031120259e+18,-0.0012917486019432545,0.0001567561412230134,0.7616032958030701
1.727526803118026e+18,-0.0008824508404359221,6.016844417899847e-05,0.7715376019477844
1.727526803124026e+18,-0.0036754989996552467,-0.0014253673143684864,0.783292829990387
1.7275268031300262e+18,-0.0025283903814852238,-0.001477301586419344,0.7916660308837891
1.7275268031360264e+18,-0.002381229307502508,-0.001656559994444251,0.8028798699378967
1.7275268031390264e+18,-0.003509053960442543,-0.001037360867485404,0.8028048276901245
1.7275268031450266e+18,-0.0008659778977744281,-0.001311769592575729,0.8140764832496643
1.7275268031480266e+18,0.0017665599007159472,0.002878836588934064,0.8157108426094055
1.7275268031540268e+18,0.0003264075785409659,-0.00040156670729629695,0.8277633786201477
1.727526803160027e+18,0.0009750330937094986,0.0015294598415493965,0.8362560868263245
1.727526803163027e+18,0.0003396525280550122,-0.0030961264856159687,0.8406116962432861
1.727526803169027e+18,0.000360876671038568,-0.0005174364196136594,0.8515015840530396
1.7275268031750272e+18,0.0008264565258286893,-0.0017790092388167977,0.8575537204742432
1.7275268031780273e+18,0.0014205186162143946,-0.001575599191710353,0.8635146021842957
1.7275268031840274e+18,0.002241057576611638,-0.0016968394629657269,0.8727887868881226
1.7275268031900275e+18,-0.002721920609474182,-0.0006170038250274956,0.8777324557304382
1.7275268031930276e+18,0.0014136204263195395,0.0024504319299012423,0.8825572729110718
1.7275268031990277e+18,-0.001571350498124957,-0.0018512754468247294,0.8876864314079285
1.7275268032050278e+18,0.0006627618568018079,-0.0011859512887895107,0.899675190448761
1.727526803211028e+18,-0.0006195488385856152,0.0017081169644370675,0.9048898816108704
1.727526803214028e+18,-0.0012390081537887454,0.0014308165991678834,0.9106975793838501
1.7275268032200282e+18,0.0003300991957075894,-0.001157462364062667,0.9186167120933533
1.7275268032260283e+18,-0.000561675347853452,-0.0008460442768409848,0.9245713353157043
1.7275268032320284e+18,-8.410599548369646e-05,0.00013356623821891844,0.92988121509552
1.7275268032380285e+18,-0.0032894108444452286,-0.0017882623942568898,0.9386833906173706
1.7275268032410286e+18,-0.001280174357816577,-0.0017772673163563013,0.9392802119255066
1.7275268032470287e+18,-0.0014226287603378296,-6.302700785454363e-05,0.9511513710021973
1.7275268032500288e+18,-0.001097820932045579,-0.0012437778059393167,0.9528518915176392
1.727526803256029e+18,0.002046517562121153,0.0018565141363069415,0.9590024948120117
1.727526803262029e+18,0.00018175534205511212,0.0009767048759385943,0.9694035649299622
1.7275268032680292e+18,0.0007014386355876923,-0.0005500342813320458,0.9703177809715271
1.7275268032710292e+18,0.002271853620186448,0.0024271535221487284,0.9749473929405212
1.7275268032770294e+18,0.0023653602693229914,-0.0001985363196581602,0.9830617904663086
1.7275268032830295e+18,0.002610584953799844,0.0046819946728646755,0.9848432540893555
1.7275268032890296e+18,-0.0032240119762718678,-0.00038812088314443827,0.9936338663101196
1.7275268032920297e+18,-0.0020950287580490112,0.0035387759562581778,1.0002905130386353
1.7275268032980298e+18,-0.005956543143838644,0.004073571413755417,1.0037742853164673
1.72752680330403e+18,-0.0037314856890589,-0.002979375422000885,1.0073975324630737
1.72752680330703e+18,-0.0035792882554233074,0.0021879856940358877,1.010489821434021
1.7275268033130301e+18,-0.0002669061068445444,0.0018983969930559397,1.0173931121826172
1.7275268033190303e+18,0.0014031149912625551,-0.002208945108577609,1.0194560289382935
1.7275268033250304e+18,0.0017859437502920628,-0.0011506234295666218,1.0217032432556152
1.7275268033280305e+18,0.001994495280086994,-0.0017605465836822987,1.0245084762573242
1.7275268033340306e+18,0.000555537873879075,0.0007708461489528418,1.0304222106933594
1.7275268033400307e+18,0.0021962900646030903,-9.775342186912894e-05,1.03557550907135
1.7275268033430308e+18,0.002005515620112419,0.0007532562012784183,1.0364164113998413
1.727526803349031e+18,-0.0009355784859508276,0.002106759697198868,1.0444804430007935
1.727526803355031e+18,-0.004770345985889435,0.0008108778856694698,1.0458718538284302
1.7275268033610312e+18,-0.004108221270143986,0.0023183368612080812,1.0484683513641357
1.7275268033640312e+18,-0.005888953804969788,0.0010445164516568184,1.0526163578033447
1.7275268033700314e+18,-0.0021104749757796526,0.0010372379329055548,1.0536611080169678
1.7275268033760315e+18,-0.004307112656533718,0.0004944760585203767,1.055304765701294
1.7275268033790316e+18,-0.0018706952687352896,-0.002900284482166171,1.0618821382522583
1.7275268033850317e+18,0.004297172650694847,-0.00012056238483637571,1.0614783763885498
1.7275268033910318e+18,0.001194868702441454,-0.0018871702486649156,1.067040205001831
1.7275268033940319e+18,0.004479954484850168,-0.0006017056293785572,1.0656154155731201
1.727526803400032e+18,0.0037419621367007494,-0.003794128308072686,1.0708179473876953
1.7275268034060321e+18,0.0037979574408382177,0.0005806691478937864,1.0726215839385986
1.7275268034120323e+18,0.0002929938491433859,-0.001604363089427352,1.0735585689544678
1.7275268034150323e+18,0.0024788270238786936,-0.0006652561132796109,1.0761768817901611
1.7275268034210324e+18,-0.0005041143158450723,-0.0026498637162148952,1.078548550605774
1.7275268034270326e+18,-0.0021670102141797543,0.0035695421975106,1.081970453262329
1.7275268034300326e+18,-0.003030250547453761,0.0027804202400147915,1.0836269855499268
1.7275268034360328e+18,-0.002575265010818839,0.002065589651465416,1.0855467319488525
1.727526803442033e+18,-0.001789149479009211,-0.000988126965239644,1.0846889019012451
1.727526803445033e+18,-0.0018743538530543447,-7.139836088754237e-05,1.0835858583450317
1.727526803451033e+18,-0.00023994361981749535,-0.00024110381491482258,1.089242696762085
1.7275268034570332e+18,-0.0015319758094847202,-0.0006763440906070173,1.089820146560669
1.7275268034630333e+18,-0.0010210559703409672,-0.0003622437361627817,1.0902822017669678
1.7275268034660334e+18,0.0024845516309142113,-0.0028256173245608807,1.0916661024093628
1.7275268034720335e+18,-0.00044740119483321905,-0.0020531017798930407,1.090044379234314
1.7275268034780337e+18,0.002187649719417095,-0.00017784672672860324,1.0932599306106567
1.7275268034810337e+18,0.00014839600771665573,-0.0002220774331362918,1.09434974193573
1.7275268034870339e+18,0.0021560562308877707,0.0001954274339368567,1.0935956239700317
1.727526803493034e+18,0.0005020600510761142,0.002145898062735796,1.0918946266174316
1.727526803496034e+18,0.0002785459510050714,0.002523389644920826,1.0926966667175293
1.7275268035020342e+18,0.0001561829703859985,0.00440880935639143,1.0948926210403442
1.7275268035080343e+18,-0.001086121192201972,-0.002035699784755707,1.0957711935043335
1.7275268035140344e+18,-0.0030763517133891582,0.0015603785868734121,1.0963362455368042
1.7275268035200346e+18,0.0031071612611413,-6.754056084901094e-05,1.0963613986968994
1.7275268035230346e+18,0.0011157696135342121,0.0014361216453835368,1.0960413217544556
1.7275268035290348e+18,0.000753288040868938,-0.0009589781402610242,1.0935956239700317
1.727526803535035e+18,0.003992512822151184,0.002397076226770878,1.097212314605713
1.727526803541035e+18,0.0006800867849960923,0.0032414456363767385,1.094252347946167
1.727526803544035e+18,0.0028123806696385145,0.0003617185866460204,1.097517967224121
1.7275268035500352e+18,0.0010944567620754242,-0.0013851271942257881,1.0899385213851929
1.7275268035560353e+18,0.0009399298578500748,-0.0016428630333393812,1.0923501253128052
1.7275268035620355e+18,-0.0003655346226878464,-0.0006414790987037122,1.0944139957427979
1.7275268035650355e+18,-0.0008554154774174094,-0.0007937265327200294,1.0920886993408203
1.7275268035710356e+18,-0.004917086102068424,-0.0014796648174524307,1.0893666744232178
1.7275268035770358e+18,-0.002888168441131711,0.001577602932229638,1.0903509855270386
1.727526803583036e+18,-0.002409624867141247,0.003967393189668655,1.0888725519180298
1.727526803589036e+18,-0.0015398941468447447,0.0014463202096521854,1.0872218608856201
1.7275268035950362e+18,-0.0007888621184974909,7.122883107513189e-05,1.0882904529571533
1.7275268035980362e+18,0.00031098717590793967,0.0016770040383562446,1.0848180055618286
1.7275268036040364e+18,0.002288994612172246,-0.004798822104930878,1.0879040956497192
1.7275268036100365e+18,0.00010341417510062456,0.0006157731404528022,1.0853227376937866
1.7275268036130365e+18,0.000479145091958344,-0.0009890442015603185,1.083775520324707
1.7275268036190367e+18,0.0016882827039808035,-0.00047499360516667366,1.0808451175689697
1.7275268036250368e+18,0.0003216996556147933,-0.00302246049977839,1.0786374807357788
1.727526803631037e+18,-0.0015099606243893504,-0.003240940161049366,1.075228214263916
1.727526803637037e+18,0.0011840551160275936,3.464064866420813e-05,1.0770611763000488
1.727526803640037e+18,-0.0037477929145097733,0.0011907812440767884,1.0756233930587769
1.7275268036460372e+18,-0.0012660104548558593,0.0034500861074775457,1.0698997974395752
1.7275268036520374e+18,0.001936068176291883,0.0016550389118492603,1.0691853761672974
1.7275268036580375e+18,-0.0019583916291594505,4.647357854992151e-06,1.0617291927337646
1.7275268036610376e+18,0.0008981082937680185,-0.0009282585815526545,1.0638691186904907
1.7275268036670377e+18,-0.0006939166341908276,-0.0022144094109535217,1.0612064599990845
1.7275268036730378e+18,-0.0030188756063580513,0.0007191795157268643,1.0532398223876953
1.727526803679038e+18,0.0009963910561054945,-0.0006808979669585824,1.0531494617462158
1.727526803682038e+18,0.0015412517823278904,-0.0007018803153187037,1.053985595703125
1.7275268036880381e+18,0.001413517165929079,-0.0018057026900351048,1.0500330924987793
1.7275268036940383e+18,-0.0016891367267817259,0.0004062799853272736,1.0476986169815063
1.7275268036970383e+18,0.0010186696890741587,0.00014076314982958138,1.041892647743225
1.7275268037030385e+18,0.00023686834902036935,0.0019825403578579426,1.0414669513702393
1.7275268037090386e+18,0.0005761479842476547,-0.0018251653527840972,1.0366648435592651
1.7275268037150387e+18,-0.00045042019337415695,-0.001657793065533042,1.0343471765518188
1.7275268037180388e+18,-0.0014406281989067793,-0.0013812752440571785,1.0322870016098022
1.727526803724039e+18,-0.0018980507738888264,-0.008086541667580605,1.0263229608535767
1.727526803730039e+18,-6.580189801752567e-05,-0.014274639077484608,1.021490216255188
1.7275268037360392e+18,-0.0012195262825116515,-0.021418919786810875,1.0183672904968262
1.7275268037420393e+18,0.0016704404260963202,-0.03944628685712814,1.0143219232559204
1.7275268037480394e+18,0.0002720446209423244,-0.053590528666973114,1.008515477180481
1.7275268037540396e+18,0.0005059906980022788,-0.0690331682562828,1.002877950668335
1.7275268037570396e+18,0.0004516834451351315,-0.07238062471151352,1.0023527145385742
1.7275268037630397e+18,0.0018487782217562199,-0.0805354192852974,1.0003818273544312
1.72752680376904e+18,0.00011433869076427072,-0.0987611785531044,0.9924769401550293
1.72752680377504e+18,-8.827773854136467e-05,-0.12583114206790924,0.9857612252235413
1.72752680378104e+18,-0.000999453361146152,-0.15454451739788055,0.9813908338546753
1.7275268037870403e+18,-0.0020400304347276688,-0.19223293662071228,0.9791426658630371
1.7275268037930404e+18,-0.005044867284595966,-0.23142509162425995,0.9721537232398987
1.7275268037990405e+18,-0.00327953789383173,-0.26257893443107605,0.9668973684310913
1.7275268038020406e+18,-0.003866804065182805,-0.27849406003952026,0.9622176885604858
1.7275268038080407e+18,-0.0070838602259755135,-0.3060128688812256,0.9571378827095032
1.7275268038140408e+18,-0.006339401938021183,-0.32907652854919434,0.9522159695625305
1.727526803817041e+18,-0.001616067485883832,-0.33646756410598755,0.9467115998268127
1.727526803823041e+18,-0.0011602286249399185,-0.35445860028266907,0.9414697289466858
1.7275268038290412e+18,-0.004653580021113157,-0.37030187249183655,0.938226044178009
1.7275268038350413e+18,-0.003948019817471504,-0.3829830288887024,0.9305340051651001
1.7275268038410414e+18,-0.0028779238928109407,-0.39663052558898926,0.9246472716331482
1.7275268038470415e+18,-0.00265324953943491,-0.42252427339553833,0.917849600315094
1.7275268038530417e+18,-0.006957453675568104,-0.4452228844165802,0.9125662446022034
1.7275268038560417e+18,-0.006640303414314985,-0.45378947257995605,0.9118993878364563
1.7275268038620419e+18,-0.008704678155481815,-0.4735141694545746,0.9045383334159851
1.727526803868042e+18,-0.006385857239365578,-0.5008273124694824,0.8986629247665405
1.727526803874042e+18,-0.011696116998791695,-0.5343850255012512,0.8907600045204163
1.7275268038800422e+18,-0.0083621796220541,-0.5647466778755188,0.8849614262580872
1.7275268038860424e+18,-0.011130624450743198,-0.5884023904800415,0.8804539442062378
1.7275268038890424e+18,-0.010411491617560387,-0.6041780710220337,0.8757042288780212
1.7275268038950426e+18,-0.011494680307805538,-0.638805091381073,0.8679426908493042
1.7275268039010427e+18,-0.012874369509518147,-0.6695411205291748,0.8618928790092468
1.7275268039070428e+18,-0.01199076697230339,-0.6877012252807617,0.8567483425140381
1.727526803913043e+18,-0.014655538834631443,-0.7125358581542969,0.8459231853485107
1.727526803919043e+18,-0.01590481773018837,-0.730848491191864,0.8394087553024292
1.7275268039250432e+18,-0.01734888181090355,-0.7458760142326355,0.8324758410453796
1.7275268039280433e+18,-0.018767621368169785,-0.7570310831069946,0.8324050307273865
1.7275268039340434e+18,-0.02061891369521618,-0.7801735997200012,0.8240696787834167
1.7275268039400435e+18,-0.02154810167849064,-0.7984119057655334,0.8143064975738525
1.7275268039430436e+18,-0.023346122354269028,-0.8072493672370911,0.8102623820304871
1.7275268039490437e+18,-0.02563071995973587,-0.8270188570022583,0.8036252856254578
1.7275268039550438e+18,-0.024590156972408295,-0.8465306758880615,0.7971283197402954
1.727526803958044e+18,-0.02249716781079769,-0.8575075268745422,0.7933403849601746
1.727526803964044e+18,-0.025435181334614754,-0.8711515069007874,0.7839327454566956
1.7275268039700442e+18,-0.0242842398583889,-0.8736400604248047,0.7786077857017517
1.7275268039760443e+18,-0.026777295395731926,-0.8811358213424683,0.7693936228752136
1.7275268039790444e+18,-0.024228589609265327,-0.8863468766212463,0.7649058103561401
1.7275268039850445e+18,-0.029831765219569206,-0.8821138143539429,0.7547900080680847
1.7275268039910446e+18,-0.030458783730864525,-0.8793519139289856,0.746292769908905
1.7275268039940447e+18,-0.030167315155267715,-0.8741894364356995,0.7463522553443909
1.7275268040000448e+18,-0.030806556344032288,-0.8610487580299377,0.7362017631530762
1.727526804006045e+18,-0.02945038676261902,-0.8434041738510132,0.7278760075569153
1.727526804009045e+18,-0.027425752952694893,-0.8355361223220825,0.7240486145019531
1.727526804015045e+18,-0.024667350575327873,-0.8146644234657288,0.7161828875541687
1.7275268040210452e+18,-0.025655804201960564,-0.8017111420631409,0.710128128528595
1.7275268040240453e+18,-0.0219992995262146,-0.7948303818702698,0.7037194967269897
1.7275268040300454e+18,-0.020218050107359886,-0.7761341333389282,0.6982296109199524
1.7275268040360456e+18,-0.018304310739040375,-0.7659091353416443,0.6849902868270874
1.7275268040390456e+18,-0.021255774423480034,-0.7536430954933167,0.683590829372406
1.7275268040450458e+18,-0.015019748359918594,-0.735062301158905,0.6765137314796448
1.727526804051046e+18,-0.015915047377347946,-0.7108075022697449,0.6648831367492676
1.727526804054046e+18,-0.01629968360066414,-0.6987913250923157,0.6636754274368286
1.727526804060046e+18,-0.017021382227540016,-0.673055112361908,0.652104914188385
1.7275268040660462e+18,-0.016686365008354187,-0.642272412776947,0.6426575183868408
1.7275268040690463e+18,-0.01376572996377945,-0.6302855014801025,0.6387345194816589
1.7275268040750464e+18,-0.01291043683886528,-0.600799560546875,0.6334893703460693
1.7275268040810465e+18,-0.011005176231265068,-0.578787624835968,0.6264259219169617
1.7275268040840466e+18,-0.00965767353773117,-0.5658636093139648,0.6201940178871155
1.7275268040900467e+18,-0.010834158398211002,-0.553765058517456,0.6114906072616577
1.7275268040960468e+18,-0.006949486676603556,-0.5409334897994995,0.6014885306358337
1.727526804102047e+18,-0.003934906795620918,-0.5257670879364014,0.595427393913269
1.727526804105047e+18,-0.004100469872355461,-0.5206889510154724,0.5886101722717285
1.7275268041110472e+18,-0.0012267427518963814,-0.502178430557251,0.57863450050354
1.7275268041170473e+18,-0.0031230098102241755,-0.4818074405193329,0.5710514187812805
1.7275268041200474e+18,-0.002875334583222866,-0.47542640566825867,0.5659335851669312
1.7275268041260475e+18,-0.007356130052357912,-0.44893941283226013,0.5575404167175293
1.7275268041320476e+18,-0.0039783804677426815,-0.4202495217323303,0.5509610772132874
1.7275268041380477e+18,-0.004537532106041908,-0.39460259675979614,0.5415036678314209
1.7275268041410478e+18,-0.003783440450206399,-0.38168779015541077,0.5360159277915955
1.727526804147048e+18,-0.006295757368206978,-0.3524938225746155,0.5265993475914001
1.727526804150048e+18,-0.011485684663057327,-0.3417355418205261,0.5211352109909058
1.7275268041560481e+18,-0.01246121246367693,-0.32179659605026245,0.5077264904975891
1.7275268041620483e+18,-0.016462836414575577,-0.302530974149704,0.4971984922885895
1.7275268041650483e+18,-0.01918173022568226,-0.29654622077941895,0.49301648139953613
1.7275268041710484e+18,-0.022581538185477257,-0.2797141969203949,0.4817807972431183
1.7275268041770486e+18,-0.024174360558390617,-0.264870285987854,0.46608254313468933
1.7275268041830487e+18,-0.028433676809072495,-0.2506035566329956,0.4557793140411377
1.7275268041860488e+18,-0.02753140963613987,-0.24370479583740234,0.45130330324172974
1.727526804192049e+18,-0.029056288301944733,-0.22687682509422302,0.4379937946796417
1.727526804198049e+18,-0.031743042171001434,-0.21033719182014465,0.4298095107078552
1.727526804201049e+18,-0.03103359043598175,-0.20182569324970245,0.41896992921829224
1.7275268042070492e+18,-0.0333215668797493,-0.1851864457130432,0.4090088903903961
1.7275268042130493e+18,-0.03837025538086891,-0.1699305921792984,0.3931974172592163
1.7275268042190495e+18,-0.04378432407975197,-0.15353618562221527,0.38495317101478577
1.7275268042250496e+18,-0.04391293600201607,-0.13799788057804108,0.36800745129585266
1.7275268042280497e+18,-0.04612153768539429,-0.13467608392238617,0.3643520474433899
1.7275268042340498e+18,-0.04890068992972374,-0.11754908412694931,0.35024145245552063
1.72752680424005e+18,-0.04649873077869415,-0.10732866823673248,0.33697962760925293
1.72752680424305e+18,-0.05293158069252968,-0.10498198121786118,0.3312119245529175
1.72752680424905e+18,-0.0506429560482502,-0.09066194295883179,0.3194577097892761
1.7275268042550502e+18,-0.046584755182266235,-0.08438416570425034,0.3014463782310486
1.7275268042580503e+18,-0.04350384324789047,-0.0825536847114563,0.29664722084999084
1.7275268042640504e+18,-0.04115799814462662,-0.07302303612232208,0.28732267022132874
1.7275268042700506e+18,-0.040372446179389954,-0.0658736303448677,0.275917112827301
1.7275268042760507e+18,-0.04010719805955887,-0.06081731617450714,0.2648530900478363
1.7275268042820508e+18,-0.04020949825644493,-0.051563091576099396,0.24921415746212006
1.727526804285051e+18,-0.03852378576993942,-0.04910210892558098,0.24559840559959412
1.727526804291051e+18,-0.04462619498372078,-0.041903305798769,0.23188769817352295
1.7275268042970511e+18,-0.04224788397550583,-0.029903819784522057,0.21979732811450958
1.7275268043000512e+18,-0.04327933490276337,-0.027086056768894196,0.21408848464488983
1.7275268043060513e+18,-0.04495266452431679,-0.02432108297944069,0.20287108421325684
1.7275268043120515e+18,-0.04098346829414368,-0.018386365845799446,0.19257967174053192
1.7275268043180516e+18,-0.03771447390317917,-0.013725626282393932,0.1813385933637619
1.7275268043210516e+18,-0.03705805912613869,-0.010243290103971958,0.17411082983016968
1.7275268043270518e+18,-0.03213885799050331,-0.00914648175239563,0.1604337990283966
1.727526804333052e+18,-0.02641448937356472,6.329105235636234e-05,0.14875353872776031
1.727526804339052e+18,-0.024437259882688522,-0.0026916912756860256,0.13718904554843903
1.7275268043450522e+18,-0.02421095035970211,0.002329738112166524,0.12689313292503357
1.7275268043480522e+18,-0.02202867716550827,0.0040702857077121735,0.12101317197084427
1.7275268043540524e+18,-0.0270623080432415,0.00659516453742981,0.10973145812749863
1.7275268043600525e+18,-0.024669157341122627,0.011627325788140297,0.0990324467420578
1.7275268043630525e+18,-0.026125412434339523,0.012542203068733215,0.09519359469413757
1.7275268043690527e+18,-0.023553496226668358,0.01356834452599287,0.08431876450777054
1.7275268043750528e+18,-0.024096885696053505,0.01949380710721016,0.0707428976893425
1.7275268043780529e+18,-0.02636563964188099,0.01743122562766075,0.06802819669246674
1.727526804384053e+18,-0.025667792186141014,0.018250515684485435,0.05771012604236603
1.727526804390053e+18,-0.020756913349032402,0.02073121815919876,0.04720188304781914
1.7275268043960532e+18,-0.019502755254507065,0.02319333143532276,0.037584513425827026
1.7275268043990533e+18,-0.012988847680389881,0.026874462142586708,0.03507496416568756
1.7275268044050534e+18,-0.014532139524817467,0.029809271916747093,0.019705630838871002
1.7275268044110536e+18,-0.01136101596057415,0.03160249814391136,0.012189362198114395
1.7275268044140536e+18,-0.012809567153453827,0.030200297012925148,0.005556455813348293
1.7275268044200538e+18,-0.007464694790542126,0.03365464508533478,-0.0030440257396548986
1.7275268044230538e+18,-0.005072109866887331,0.03229762613773346,-0.009560976177453995
1.727526804429054e+18,-0.004266390111297369,0.03397884592413902,-0.01930169202387333
1.727526804435054e+18,-0.007368622347712517,0.03414803370833397,-0.02337734028697014
1.7275268044380541e+18,-0.006246909499168396,0.03169628232717514,-0.028664136305451393
1.7275268044440543e+18,-0.007785062305629253,0.033361710608005524,-0.04025908559560776
1.7275268044500544e+18,-0.009321428835391998,0.031112078577280045,-0.046280816197395325
1.7275268044530545e+18,-0.008218709379434586,0.027875881642103195,-0.05369266867637634
1.7275268044590546e+18,-0.008556770160794258,0.033216752111911774,-0.06194113567471504
1.7275268044650547e+18,-0.006708164233714342,0.029988139867782593,-0.07330779731273651
1.7275268044680548e+18,-0.004067488946020603,0.034726567566394806,-0.07371824979782104
1.727526804474055e+18,-0.0055505940690636635,0.030246004462242126,-0.08310192078351974
1.727526804480055e+18,-0.0022210280876606703,0.035864636301994324,-0.0907517820596695
1.7275268044860552e+18,0.0037250814493745565,0.03329316899180412,-0.09917085617780685
1.7275268044890552e+18,0.002810751087963581,0.027961187064647675,-0.10649289190769196
1.7275268044950554e+18,0.0019997968338429928,0.03261749818921089,-0.11314185708761215
1.7275268045010555e+18,0.003638538531959057,0.030499272048473358,-0.11922620236873627
1.7275268045040556e+18,0.0021448011975735426,0.029944108799099922,-0.12583592534065247
1.7275268045100557e+18,0.0006256161723285913,0.03022008389234543,-0.131513774394989
1.7275268045160558e+18,0.0014657194260507822,0.03086305409669876,-0.13966025412082672
1.727526804519056e+18,0.0015894381795078516,0.03118990734219551,-0.1430213302373886
1.727526804525056e+18,4.608510062098503e-05,0.032852064818143845,-0.14997456967830658
1.727526804531056e+18,0.0001708341296762228,0.03321223333477974,-0.15908706188201904
1.7275268045340562e+18,0.0005201055901125073,0.034794338047504425,-0.15769246220588684
1.7275268045400563e+18,0.004633916076272726,0.03674910217523575,-0.1687292903661728
1.7275268045460564e+18,0.005133219063282013,0.04411740228533745,-0.17487137019634247
1.7275268045490565e+18,0.004035946913063526,0.05234166234731674,-0.18007461726665497
1.7275268045550566e+18,0.012708066031336784,0.05981497839093208,-0.1844056397676468
1.7275268045610568e+18,0.01674240082502365,0.06918471306562424,-0.1931752860546112
1.7275268045640568e+18,0.01613224856555462,0.0744168609380722,-0.19623853266239166
1.727526804570057e+18,0.020896021276712418,0.08216491341590881,-0.1999482363462448
1.727526804576057e+18,0.01922285370528698,0.08334202319383621,-0.2054763287305832
1.7275268045820572e+18,0.018347889184951782,0.08323810249567032,-0.21032463014125824
1.7275268045850573e+18,0.01837242767214775,0.08257004618644714,-0.2179652750492096
1.7275268045910574e+18,0.014324341900646687,0.07925404608249664,-0.21987774968147278
1.7275268045970575e+18,0.012649736367166042,0.0771171897649765,-0.23022843897342682
1.7275268046000576e+18,0.01405695267021656,0.07516121864318848,-0.2284398376941681
1.7275268046060577e+18,0.01167223509401083,0.07362672686576843,-0.2341645359992981
1.7275268046120579e+18,0.012495310045778751,0.070548415184021,-0.24154452979564667
1.727526804615058e+18,0.011506272479891777,0.07212571799755096,-0.24347856640815735
1.727526804621058e+18,0.010855702683329582,0.06983461230993271,-0.2490457445383072
1.7275268046270582e+18,0.013735581189393997,0.07337287813425064,-0.2547888457775116
1.7275268046300582e+18,0.01556900143623352,0.07403074204921722,-0.25341683626174927
1.7275268046360584e+18,0.015793735161423683,0.07117421925067902,-0.2604820430278778
1.7275268046390584e+18,0.01809011958539486,0.07331735640764236,-0.26132524013519287
1.7275268046450586e+18,0.013625756837427616,0.07105161994695663,-0.2647618055343628
1.7275268046510587e+18,0.01736421324312687,0.07284323871135712,-0.2721484303474426
1.7275268046540588e+18,0.016957221552729607,0.0699499323964119,-0.27483806014060974
1.727526804660059e+18,0.015872105956077576,0.06776782125234604,-0.28057625889778137
1.727526804666059e+18,0.012630943208932877,0.06819652020931244,-0.28115442395210266
1.727526804669059e+18,0.01278764195740223,0.06686649471521378,-0.28340449929237366
1.7275268046750592e+18,0.013819703832268715,0.06566270440816879,-0.2876860201358795
1.7275268046810593e+18,0.01265008095651865,0.06296336650848389,-0.2922461926937103
1.7275268046840594e+18,0.011575188487768173,0.06451564282178879,-0.29044410586357117
1.7275268046900595e+18,0.01572195068001747,0.06572742760181427,-0.2957853078842163
1.7275268046960596e+18,0.012005266733467579,0.06293930858373642,-0.2992323040962219
1.7275268046990597e+18,0.013682572171092033,0.060592226684093475,-0.29942870140075684
1.7275268047050598e+18,0.014299464412033558,0.06226770579814911,-0.3038000464439392
1.72752680471106e+18,0.013316159136593342,0.06301853805780411,-0.30840474367141724
1.72752680471406e+18,0.013392987661063671,0.05992179363965988,-0.30906060338020325
1.7275268047200602e+18,0.016229752451181412,0.0596792958676815,-0.31040701270103455
1.7275268047260603e+18,0.01266090851277113,0.06098084896802902,-0.3115801215171814
1.7275268047290604e+18,0.010991914197802544,0.05920782312750816,-0.3137640357017517
1.7275268047350605e+18,0.015285447239875793,0.0573304146528244,-0.3162972629070282
1.7275268047410606e+18,0.01161360926926136,0.055210720747709274,-0.3218362033367157
1.7275268047470607e+18,0.011204121634364128,0.05014265328645706,-0.32064342498779297
1.727526804756061e+18,0.009530123323202133,0.0524807907640934,-0.32586735486984253
1.727526804762061e+18,0.010254940018057823,0.051608938723802567,-0.32980552315711975
1.7275268047680612e+18,0.00969693809747696,0.05060145631432533,-0.32773256301879883
1.7275268047740613e+18,0.010720783844590187,0.05509050562977791,-0.3309516906738281
1.7275268047800614e+18,0.009149396792054176,0.051582857966423035,-0.3314225971698761
1.7275268047860616e+18,0.008761786855757236,0.04916474595665932,-0.33369317650794983
1.7275268047890616e+18,0.01036132127046585,0.051996830850839615,-0.334978312253952
1.7275268047950618e+18,0.0097432192414999,0.05408183112740517,-0.33690938353538513
1.727526804801062e+18,0.012126578018069267,0.06147448346018791,-0.33819079399108887
1.727526804804062e+18,0.013507249765098095,0.06689636409282684,-0.33688560128211975
1.727526804810062e+18,0.012809740379452705,0.07560952752828598,-0.33644983172416687
1.7275268048160622e+18,0.013384719379246235,0.08350129425525665,-0.33840298652648926
1.7275268048190623e+18,0.01608286052942276,0.08841431885957718,-0.3391258120536804
1.7275268048250624e+18,0.015354440547525883,0.09546127170324326,-0.33790531754493713
1.7275268048310625e+18,0.013815638609230518,0.10249527543783188,-0.33448535203933716
1.7275268048370627e+18,0.014260265044867992,0.10007061064243317,-0.3378608226776123
1.7275268048400627e+18,0.013135711662471294,0.0977901816368103,-0.33632081747055054
1.7275268048460628e+18,0.012657934799790382,0.09454701095819473,-0.33959877490997314
1.727526804852063e+18,0.008955856785178185,0.0922171100974083,-0.33789345622062683
1.727526804855063e+18,0.010478232987225056,0.09197171032428741,-0.3418794274330139
1.7275268048610632e+18,0.009076501242816448,0.08583167940378189,-0.341461718082428
1.7275268048670633e+18,0.008467279374599457,0.081619031727314,-0.3388068974018097
1.7275268048700634e+18,0.010478428564965725,0.080326609313488,-0.3371586799621582
1.7275268048760635e+18,0.011475710198283195,0.0810028538107872,-0.3375258147716522
1.7275268048820636e+18,0.011721952818334103,0.08412954211235046,-0.3376902639865875
1.7275268048880637e+18,0.013816376216709614,0.08958131819963455,-0.3377130329608917
1.7275268048910638e+18,0.015098200179636478,0.09161344170570374,-0.3362716734409332
1.727526804897064e+18,0.015325975604355335,0.0902162715792656,-0.3341413736343384
1.727526804903064e+18,0.012667217291891575,0.0915183424949646,-0.33710211515426636
1.7275268049090642e+18,0.011456423439085484,0.09026339650154114,-0.33196166157722473
1.7275268049120643e+18,0.011878281831741333,0.09011904895305634,-0.3313281238079071
1.7275268049180644e+18,0.008447371423244476,0.08628366887569427,-0.33247873187065125
1.7275268049210644e+18,0.011255031451582909,0.08529435098171234,-0.33380311727523804
1.7275268049270646e+18,0.007214481011033058,0.0807972103357315,-0.3292967677116394
1.7275268049330647e+18,0.007052985485643148,0.07915876060724258,-0.33378738164901733
1.7275268049360648e+18,0.00629006139934063,0.07637035101652145,-0.3274679481983185
1.727526804942065e+18,0.007789204362779856,0.07790135592222214,-0.3292180299758911
1.727526804948065e+18,0.0045820861123502254,0.07492897659540176,-0.3286450207233429
1.727526804951065e+18,0.008755025453865528,0.07331698387861252,-0.32514116168022156
1.7275268049570652e+18,0.009039808064699173,0.0718451514840126,-0.3240295350551605
1.7275268049630653e+18,0.009618787094950676,0.07170654088258743,-0.32349005341529846
1.7275268049690655e+18,0.010506381280720234,0.07046093046665192,-0.32002389430999756
1.7275268049720655e+18,0.011113099753856659,0.07019925117492676,-0.3213701844215393
1.7275268049780657e+18,0.011541150510311127,0.07409364730119705,-0.3149934709072113
1.7275268049840658e+18,0.00678872037678957,0.08216266334056854,-0.31360822916030884
1.7275268049870659e+18,0.008145522326231003,0.08818401396274567,-0.3101777136325836
1.727526804993066e+18,0.008814136497676373,0.09304574131965637,-0.3091881573200226
1.727526804999066e+18,0.009457279928028584,0.10175979882478714,-0.30821236968040466
1.7275268050050662e+18,0.005555984564125538,0.10654504597187042,-0.3080701529979706
1.7275268050080663e+18,0.006032225210219622,0.10706692188978195,-0.3046489655971527
1.7275268050140664e+18,0.009373202919960022,0.10894325375556946,-0.3043280839920044
1.7275268050200666e+18,0.007165372837334871,0.10602884739637375,-0.29760581254959106
1.7275268050260667e+18,0.008451001718640327,0.10557384043931961,-0.2950230836868286
1.7275268050320668e+18,0.01081671379506588,0.10018721222877502,-0.2938139736652374
1.727526805035067e+18,0.006895727012306452,0.09448162466287613,-0.2955876886844635
1.727526805044067e+18,0.009321377612650394,0.09210792183876038,-0.2903355360031128
1.7275268050500672e+18,0.00521516241133213,0.09051775187253952,-0.28623664379119873
1.7275268050560673e+18,0.00621237326413393,0.08909159153699875,-0.28074419498443604
1.7275268050620675e+18,0.00472605973482132,0.08660951256752014,-0.27959001064300537
1.7275268050680676e+18,0.005324068013578653,0.08932910859584808,-0.278775691986084
1.7275268050710676e+18,0.003788613248616457,0.08900361508131027,-0.27501827478408813
1.7275268050770678e+18,0.006628550589084625,0.09243547171354294,-0.2722800374031067
1.727526805083068e+18,0.006890043616294861,0.0886111930012703,-0.2706761360168457
1.727526805089068e+18,0.0019264128059148788,0.08800704777240753,-0.26816946268081665
1.727526805092068e+18,0.004366055130958557,0.08580831438302994,-0.2603311538696289
1.7275268050980682e+18,0.004688783548772335,0.0796966627240181,-0.2594590485095978
1.7275268051040684e+18,0.0029287016950547695,0.07440126687288284,-0.2567005157470703
1.7275268051070684e+18,0.006243211217224598,0.07400175929069519,-0.25783079862594604
1.7275268051130685e+18,0.005378845147788525,0.06875603646039963,-0.2509419620037079
1.7275268051190687e+18,0.0010526957921683788,0.06670039892196655,-0.24962982535362244
1.7275268051250688e+18,0.00021331082098186016,0.0661148950457573,-0.24378682672977448
1.7275268051280689e+18,0.002274611499160528,0.07265174388885498,-0.24095985293388367
1.727526805134069e+18,0.0016020303592085838,0.07779401540756226,-0.23989304900169373
1.727526805140069e+18,0.00486442307010293,0.09234488010406494,-0.2340484857559204
1.7275268051460692e+18,0.006647542119026184,0.1036762222647667,-0.2298414707183838
1.7275268051490693e+18,0.004337457474321127,0.10793126374483109,-0.23272177577018738
1.7275268051550694e+18,0.010945684276521206,0.11364090442657471,-0.22604712843894958
1.7275268051610696e+18,0.010778941214084625,0.11681778728961945,-0.22128693759441376
1.7275268051640696e+18,0.011729875579476357,0.11896058917045593,-0.21713995933532715
1.7275268051700698e+18,0.01198525819927454,0.11914310604333878,-0.21430805325508118
1.72752680517607e+18,0.013067002408206463,0.1244276836514473,-0.20828719437122345
1.72752680517907e+18,0.01434862706810236,0.12639740109443665,-0.20642626285552979
1.72752680518507e+18,0.011856233701109886,0.1287154257297516,-0.20261725783348083
1.7275268051910702e+18,0.008328506723046303,0.13601373136043549,-0.1973770558834076
1.7275268051940703e+18,0.01138985063880682,0.14347074925899506,-0.19395320117473602
1.7275268052000704e+18,0.00684781838208437,0.15785132348537445,-0.18857675790786743
1.7275268052060705e+18,0.004409048706293106,0.17453791201114655,-0.18617655336856842
1.7275268052090706e+18,0.008213947527110577,0.17946314811706543,-0.1839788854122162
1.7275268052150707e+18,0.006142582278698683,0.20122961699962616,-0.18008454144001007
1.7275268052210708e+18,0.004938794765621424,0.2202100157737732,-0.1716594398021698
1.727526805224071e+18,0.005810327362269163,0.2247765064239502,-0.17026470601558685
1.727526805230071e+18,0.005559124983847141,0.23824571073055267,-0.1643708050251007
1.7275268052360712e+18,0.005353974178433418,0.2546956539154053,-0.15961697697639465
1.7275268052390712e+18,0.008450599387288094,0.2640916109085083,-0.15728405117988586
1.7275268052450714e+18,0.004931303672492504,0.26939332485198975,-0.1523418128490448
1.7275268052510715e+18,0.008353677578270435,0.27821287512779236,-0.14706362783908844
1.7275268052570716e+18,0.008660990744829178,0.28817692399024963,-0.14518961310386658
1.7275268052600717e+18,0.006870325189083815,0.2915465533733368,-0.13814371824264526
1.7275268052660718e+18,0.0043207453563809395,0.30211523175239563,-0.13512474298477173
1.727526805272072e+18,0.004371053073555231,0.3142159581184387,-0.13161304593086243
1.727526805275072e+18,-0.003043706528842449,0.3220532536506653,-0.1282065361738205
1.727526805281072e+18,-0.0009462313028052449,0.34073367714881897,-0.12183129042387009
1.7275268052870723e+18,-0.006043050438165665,0.3522498607635498,-0.11739709973335266
1.7275268052900723e+18,-0.006871218327432871,0.36273837089538574,-0.11473255604505539
1.7275268052960724e+18,-0.00797576829791069,0.385564923286438,-0.1093098521232605
1.7275268053020726e+18,-0.009911713190376759,0.41839802265167236,-0.10198628902435303
1.7275268053050726e+18,-0.009046933613717556,0.43178248405456543,-0.10418514907360077
1.7275268053110728e+18,-0.01092650555074215,0.4544438123703003,-0.10173177719116211
1.727526805317073e+18,-0.0004803493502549827,0.47732582688331604,-0.09185375273227692
1.727526805323073e+18,0.02008001133799553,0.5023201704025269,-0.08639436960220337
1.7275268053290732e+18,0.037563953548669815,0.516534149646759,-0.08116210997104645
1.7275268053350733e+18,0.0603693351149559,0.5290442109107971,-0.0770387053489685
1.7275268053380733e+18,0.07250714302062988,0.5321614742279053,-0.07368100434541702
1.7275268053440735e+18,0.10916891694068909,0.5452573895454407,-0.07160630822181702
1.7275268053500736e+18,0.13016574084758759,0.5561167597770691,-0.06437820941209793
1.7275268053530737e+18,0.14471565186977386,0.5601577758789062,-0.06331589818000793
1.7275268053590738e+18,0.16537271440029144,0.5739690065383911,-0.06205888092517853
1.727526805365074e+18,0.19391129910945892,0.5879085659980774,-0.050383321940898895
1.727526805371074e+18,0.21326513588428497,0.6002905368804932,-0.05081930756568909
1.727526805374074e+18,0.2210741639137268,0.6036617755889893,-0.04740171879529953
1.7275268053800742e+18,0.23828832805156708,0.6123636364936829,-0.04431883245706558
1.7275268053860744e+18,0.2571520209312439,0.6243541836738586,-0.03719249740242958
1.7275268053890744e+18,0.26901188492774963,0.6268473863601685,-0.03314705565571785
1.7275268053950746e+18,0.28531938791275024,0.6294288635253906,-0.029440153390169144
1.7275268054010747e+18,0.3162209093570709,0.625582754611969,-0.029483841732144356
1.7275268054070748e+18,0.354277640581131,0.6227613687515259,-0.020053600892424583
1.727526805410075e+18,0.3713224530220032,0.6135789155960083,-0.024169497191905975
1.727526805416075e+18,0.4092578887939453,0.6045351624488831,-0.01587902568280697
1.7275268054220751e+18,0.4538958668708801,0.5993047952651978,-0.011526892893016338
1.7275268054280753e+18,0.4920943081378937,0.5967575907707214,-0.007191235199570656
1.7275268054340754e+18,0.5205698609352112,0.5925671458244324,-0.005693796556442976
1.7275268054400755e+18,0.5404539108276367,0.5891379117965698,0.0008379937498830259
1.7275268054430756e+18,0.554076075553894,0.5912516117095947,0.006420636549592018
1.7275268054490757e+18,0.5897420644760132,0.6013413071632385,0.006163665093481541
1.7275268054550758e+18,0.6137168407440186,0.6078356504440308,0.015053944662213326
1.727526805461076e+18,0.6388221383094788,0.6076146364212036,0.014936136081814766
1.727526805467076e+18,0.6635717749595642,0.6061946749687195,0.020903220400214195
1.7275268054700762e+18,0.6720045804977417,0.6020246148109436,0.021648265421390533
1.7275268054760763e+18,0.6865902543067932,0.5869796872138977,0.023610984906554222
1.7275268054820764e+18,0.6986834406852722,0.5779205560684204,0.02755110152065754
1.7275268054880765e+18,0.7066835761070251,0.5655620694160461,0.03473072871565819
1.7275268054910766e+18,0.7104763388633728,0.5590800046920776,0.034728799015283585
1.7275268054970767e+18,0.7091780304908752,0.5475040674209595,0.039662882685661316
1.7275268055030769e+18,0.7106700539588928,0.5405275821685791,0.040030255913734436
1.727526805509077e+18,0.7157871127128601,0.530407190322876,0.04811551794409752
1.727526805512077e+18,0.7241907119750977,0.5270513892173767,0.050228141248226166
1.7275268055180772e+18,0.733595073223114,0.5180531740188599,0.05330677330493927
1.7275268055240773e+18,0.7510978579521179,0.5063352584838867,0.05705650895833969
1.7275268055270774e+18,0.7542580962181091,0.4981386959552765,0.05797988548874855
1.7275268055330775e+18,0.7702555060386658,0.4844803512096405,0.06160367280244827
1.7275268055390776e+18,0.7743927836418152,0.46792590618133545,0.06819098442792892
1.7275268055420777e+18,0.7715154886245728,0.4573323726654053,0.06547456234693527
1.7275268055480778e+18,0.7635940909385681,0.4413219690322876,0.07259348034858704
1.727526805554078e+18,0.7574746608734131,0.4205264449119568,0.0732315182685852
1.727526805557078e+18,0.7469264268875122,0.4094497859477997,0.07477377355098724
1.7275268055630781e+18,0.7262915968894958,0.39436638355255127,0.0806349366903305
1.7275268055690783e+18,0.7076598405838013,0.3745081424713135,0.08143465220928192
1.7275268055750784e+18,0.694603681564331,0.3571602404117584,0.08954241871833801
1.7275268055780785e+18,0.684624433517456,0.3510279357433319,0.08885714411735535
1.7275268055840786e+18,0.6755750179290771,0.3371225595474243,0.09391206502914429
1.7275268055900787e+18,0.6666969060897827,0.3259386718273163,0.09584647417068481
1.7275268055960788e+18,0.6583889126777649,0.31178009510040283,0.09761184453964233
1.727526805599079e+18,0.6535601019859314,0.3031744062900543,0.10105203092098236
1.727526805605079e+18,0.6352350115776062,0.2879745364189148,0.1072489470243454
1.7275268056110792e+18,0.6184225082397461,0.2745111882686615,0.10729532688856125
1.7275268056140792e+18,0.6089168190956116,0.2653055787086487,0.10772530734539032
1.7275268056200794e+18,0.5786336064338684,0.24758900701999664,0.110030397772789
1.7275268056260795e+18,0.5541237592697144,0.2356456220149994,0.117695152759552
1.7275268056320796e+18,0.5311009287834167,0.2221459597349167,0.12244755029678345
1.7275268056380797e+18,0.5148550271987915,0.20956666767597198,0.12160305678844452
1.72752680564708e+18,0.4941455125808716,0.19136369228363037,0.12734200060367584
1.72752680565308e+18,0.4823963940143585,0.1823943704366684,0.1300540417432785
1.7275268056560801e+18,0.4802663326263428,0.17610254883766174,0.13146312534809113
1.7275268056620803e+18,0.46492767333984375,0.16648145020008087,0.13332709670066833
1.7275268056680804e+18,0.4530821144580841,0.15564852952957153,0.1377984583377838
1.7275268056740805e+18,0.43351247906684875,0.14638981223106384,0.1388283669948578
1.7275268056800806e+18,0.40960967540740967,0.13891610503196716,0.14144612848758698
1.7275268056830807e+18,0.39864876866340637,0.1314224898815155,0.140396386384964
1.7275268056890808e+18,0.3734314441680908,0.1260836124420166,0.14782443642616272
1.727526805695081e+18,0.34775829315185547,0.11374670267105103,0.15111887454986572
1.727526805701081e+18,0.3262481689453125,0.10372856259346008,0.1547800600528717
1.7275268057070812e+18,0.30536049604415894,0.09995493292808533,0.1564617156982422
1.7275268057130813e+18,0.288568377494812,0.09178584069013596,0.15831604599952698
1.7275268057190815e+18,0.278385728597641,0.08815961331129074,0.1601867526769638
1.7275268057220815e+18,0.2697940170764923,0.08301501721143723,0.16282647848129272
1.7275268057280817e+18,0.2614346146583557,0.07679223269224167,0.16542887687683105
1.7275268057340818e+18,0.25161391496658325,0.07079943269491196,0.16808032989501953
1.727526805740082e+18,0.2395094484090805,0.0670403465628624,0.17361348867416382
1.727526805743082e+18,0.2301947921514511,0.06720751523971558,0.17212507128715515
1.727526805749082e+18,0.21665430068969727,0.05884680151939392,0.17576785385608673
1.7275268057580823e+18,0.1910221427679062,0.05159537121653557,0.17807406187057495
1.7275268057640824e+18,0.1743718385696411,0.04896499961614609,0.17730805277824402
1.7275268057700826e+18,0.15850895643234253,0.043834276497364044,0.1780492216348648
1.7275268057760827e+18,0.14714889228343964,0.04202079772949219,0.17945082485675812
1.7275268057790828e+18,0.14205025136470795,0.03754914551973343,0.1899862289428711
1.727526805785083e+18,0.13579656183719635,0.036528002470731735,0.18685871362686157
1.727526805791083e+18,0.1276901513338089,0.035882532596588135,0.18892034888267517
1.7275268057970831e+18,0.1249643862247467,0.029290281236171722,0.190324604511261
1.7275268058000832e+18,0.120468370616436,0.029332933947443962,0.19204188883304596
1.7275268058060833e+18,0.11524183303117752,0.02733979932963848,0.19382698833942413
1.7275268058120835e+18,0.10715901106595993,0.027653776109218597,0.1963086575269699
1.7275268058180836e+18,0.10088228434324265,0.027094386518001556,0.19778677821159363
1.7275268058210836e+18,0.09898009896278381,0.024168778210878372,0.19951286911964417
1.7275268058270838e+18,0.08963717520236969,0.02101287618279457,0.19903048872947693
1.727526805833084e+18,0.08416808396577835,0.0209939144551754,0.20098263025283813
1.727526805839084e+18,0.07850737124681473,0.01697210781276226,0.2015123814344406
1.7275268058450842e+18,0.07372622191905975,0.01921476610004902,0.20680592954158783
1.7275268058480842e+18,0.0686388686299324,0.017245884984731674,0.20788836479187012
1.7275268058540844e+18,0.06284824013710022,0.016903003677725792,0.2073976844549179
1.7275268058600845e+18,0.061905719339847565,0.013786215335130692,0.2071438431739807
1.7275268058660846e+18,0.060469381511211395,0.013036893680691719,0.20969213545322418
1.7275268058690847e+18,0.05986979603767395,0.014634701423346996,0.21064484119415283
1.7275268058750848e+18,0.056566257029771805,0.017225490882992744,0.21217744052410126
1.727526805881085e+18,0.05237554386258125,0.015041252598166466,0.2135162055492401
1.727526805887085e+18,0.0481741800904274,0.011827063746750355,0.21142637729644775
1.727526805890085e+18,0.04850735515356064,0.015433578751981258,0.2147410809993744
1.7275268058960852e+18,0.04270613193511963,0.01355789601802826,0.21584583818912506
1.7275268059020854e+18,0.04128066450357437,0.013357279822230339,0.2165847271680832
1.7275268059080855e+18,0.038763269782066345,0.014177339151501656,0.21520254015922546
1.7275268059140856e+18,0.03733952343463898,0.013151577673852444,0.22072753310203552
1.7275268059200858e+18,0.035314902663230896,0.012672260403633118,0.22057032585144043
1.7275268059230858e+18,0.032789379358291626,0.010940870270133018,0.21806366741657257
1.727526805929086e+18,0.03358111158013344,0.012516168877482414,0.22276176512241364
1.727526805935086e+18,0.028406677767634392,0.010061666369438171,0.22212740778923035
1.7275268059410862e+18,0.029544241726398468,0.01255009789019823,0.22374114394187927
1.7275268059440863e+18,0.02902999520301819,0.013332037255167961,0.2218106985092163
