timestamp,gyro_x,gyro_y,gyro_z
1.7215719010135944e+18,0.0003970801772084087,-0.000257121428148821,-0.0015873677330091596
1.7215719010225946e+18,0.0010397374862805009,-0.002130798762664199,-0.0027964843902736902
1.7215719010285947e+18,-0.0023337542079389095,-0.0005220717866905034,-0.00014408175775315613
1.7215719010345948e+18,-0.0024498177226632833,-6.338994717225432e-05,0.0009906827472150326
1.721571901040595e+18,0.00026483775582164526,-0.0014354839222505689,0.0016517590265721083
1.721571901046595e+18,0.0006868722848594189,0.002080135978758335,-0.0005014065536670387
1.7215719010525952e+18,0.0007248749607242644,-0.0016728591872379184,0.0028115040622651577
1.7215719010615954e+18,0.00020751576812472194,0.0012214394519105554,-0.00123264966532588
1.7215719010675955e+18,-0.0017608191119506955,-0.0003501781611703336,-0.0004648757167160511
1.7215719010735956e+18,-0.00017934995412360877,0.002578670158982277,-0.0015863190637901425
1.7215719010795958e+18,-8.327632531290874e-05,0.0009297634824179113,-0.0004968608845956624
1.721571901085596e+18,-0.0004603280976880342,9.572807175572962e-05,0.0017027022549882531
1.721571901091596e+18,-0.00204704818315804,0.0019578831270337105,0.0005377150373533368
1.7215719010975962e+18,-0.004688621498644352,0.0022354323882609606,-0.000885347428265959
1.7215719011035963e+18,-0.0004920315113849938,0.0016225454164668918,0.0029150662012398243
1.7215719011095964e+18,-0.001320101204328239,-0.001270166365429759,-0.002104385755956173
1.7215719011155965e+18,0.0015950206434354186,0.0005599064752459526,0.003702647751197219
1.7215719011215967e+18,0.0008657067664898932,-0.0015845285961404443,0.0005868464941158891
1.7215719011275968e+18,0.003217055695131421,0.0018421009881421924,-0.0002393499162280932
1.721571901133597e+18,-0.0006515264976769686,0.00036763784009963274,-0.00033194158459082246
1.721571901139597e+18,-0.0008405245607718825,0.0004515614709816873,0.0027980790473520756
1.7215719011455972e+18,0.00015606152010150254,0.0007787467911839485,-0.0006136595038697124
1.7215719011515973e+18,-0.0022330977953970432,0.0023756353184580803,-0.0010238082613795996
1.7215719011575974e+18,-0.0018367073498666286,-0.0021302239038050175,-0.0005381842493079603
1.7215719011635976e+18,0.002175686415284872,-0.0005554615636356175,-0.001268321997486055
1.7215719011695977e+18,-0.0008252811967395246,-0.0019633483607321978,0.00016653227794449776
1.7215719011755978e+18,-0.00088988192146644,0.00018105226627085358,-0.001346610370092094
1.721571901181598e+18,0.0004632518975995481,-0.0006224373355507851,0.0002439447707729414
1.721571901187598e+18,4.5211978431325406e-05,0.00037565676029771566,-0.002440299140289426
1.7215719011935982e+18,0.001515180803835392,-0.000268135336227715,0.003381221555173397
1.7215719011995983e+18,0.0012350400211289525,-0.0003772827913053334,0.0001578912342665717
1.7215719012055985e+18,0.0014835675247013569,-0.00021401152480393648,-0.0005060917465016246
1.7215719012115986e+18,0.001315764500759542,0.0015034001553431153,0.0030564137268811464
1.7215719012175987e+18,-0.001681003370322287,0.0039003321435302496,-0.002340947277843952
1.7215719012235988e+18,-0.0023234370164573193,-0.003471754491329193,-0.0034735905937850475
1.721571901229599e+18,-0.00039832881884649396,-0.00038346819928847253,-0.0022372982930392027
1.721571901235599e+18,0.001156123005785048,-0.001848523155786097,-0.0016216263175010681
1.7215719012415992e+18,0.002808641642332077,-0.0011158837005496025,-0.0021364211570471525
1.7215719012505994e+18,-0.0001577950461069122,-0.0009757493971846998,-0.0008201086893677711
1.7215719012565996e+18,0.0019499643240123987,-0.0015244748210534453,0.002486579120159149
1.7215719012625997e+18,0.0016529125859960914,0.001278519630432129,-0.00055948446970433
1.7215719012685998e+18,0.0006887049530632794,-0.0007936766487546265,-0.001927044941112399
1.7215719012776e+18,-0.0003983564965892583,-0.0010856728767976165,0.0005089212208986282
1.7215719012836001e+18,-0.0014700288884341717,-0.0001820981124183163,-0.0016300835413858294
1.7215719012896003e+18,0.0018092273967340589,-0.0015981871401891112,0.001667379168793559
1.7215719012956004e+18,-0.001806370448321104,-0.0025103117804974318,0.001687512849457562
1.7215719013016005e+18,0.0005130427307449281,0.0016457759775221348,-1.6323851014021784e-05
1.7215719013076006e+18,0.0042687226086854935,0.00020005401165690273,0.004589456133544445
1.7215719013136008e+18,-0.0003870122309308499,0.001106077223084867,-0.0001214907388202846
1.721571901319601e+18,0.0017011413583531976,0.0016178535297513008,0.0024470991920679808
1.721571901325601e+18,-0.0006023881724104285,0.003393246792256832,0.0018108421936631203
1.7215719013316012e+18,-0.00011364018428139389,-0.0019487548852339387,-0.0009662262164056301
1.7215719013376013e+18,-0.0035375680308789015,-0.0029179013799875975,0.001255988609045744
1.7215719013436014e+18,0.002122080186381936,-0.0008218668517656624,-0.0010960985673591495
1.7215719013466015e+18,-0.00048151513328775764,-0.00033305046963505447,0.002784652868285775
1.7215719013556017e+18,0.0008417681092396379,-0.0014406399568542838,0.0017123653087764978
1.7215719013616018e+18,0.0018866276368498802,0.0014171093935146928,0.001158483442850411
1.721571901367602e+18,0.005320080555975437,-0.002513263840228319,-0.0009290638263337314
1.721571901373602e+18,0.0178699754178524,-0.003522658022120595,0.0021543526090681553
1.7215719013796022e+18,0.022081535309553146,-0.0023211617954075336,-0.0015949701191857457
1.7215719013856023e+18,0.03565648943185806,-0.0032171583734452724,0.0012631702702492476
1.7215719013916024e+18,0.042021408677101135,-0.0049988944083452225,0.0005616958951577544
1.7215719013976026e+18,0.04180039092898369,-0.004251046571880579,0.0012263818643987179
1.7215719014036027e+18,0.04610395058989525,-0.006099318619817495,-0.0017396194161847234
1.7215719014096028e+18,0.041053276509046555,-0.00592083390802145,-0.0025609356816858053
1.721571901415603e+18,0.03679727390408516,-0.008202366530895233,-0.001310180639848113
1.721571901421603e+18,0.03417103737592697,-0.005800030194222927,-0.001094890758395195
1.7215719014276032e+18,0.029758935794234276,-0.004298782907426357,-0.0003983216593042016
1.7215719014366034e+18,0.030356761068105698,-0.005887057166546583,0.0025977627374231815
1.7215719014426035e+18,0.03281207010149956,-0.004808650817722082,0.0022955879103392363
1.7215719014486036e+18,0.036467988044023514,-0.00839910376816988,6.595853483304381e-05
1.7215719014546038e+18,0.03546970337629318,-0.006867213174700737,0.0009293327457271516
1.721571901460604e+18,0.036737650632858276,-0.0071337539702653885,0.00029041426023468375
1.721571901466604e+18,0.03953557088971138,-0.006816753186285496,0.0003907030913978815
1.7215719014726042e+18,0.036053333431482315,-0.004790110047906637,-0.0020825390238314867
1.7215719014786043e+18,0.03260581195354462,-0.004328751005232334,-0.0012835919624194503
1.7215719014876045e+18,0.028128542006015778,7.205689325928688e-05,-0.0015399287221953273
1.7215719014936046e+18,0.022476036101579666,4.706531763076782e-05,-0.0025752466171979904
1.7215719014996047e+18,0.02301838994026184,-5.198945291340351e-05,-0.004093497525900602
1.7215719015056049e+18,0.022455131635069847,-0.003835056209936738,-0.0005340463831089437
1.721571901511605e+18,0.020616820082068443,-0.005626874975860119,0.0005475134821608663
1.721571901517605e+18,0.025811007246375084,-0.006434399634599686,-0.0009482506429776549
1.7215719015236052e+18,0.02586100436747074,-0.006558008026331663,-0.004157629795372486
1.7215719015296054e+18,0.02211357094347477,-0.008618561550974846,-0.002907703397795558
1.7215719015356055e+18,0.026092620566487312,-0.003103929106146097,-0.00021185091463848948
1.7215719015446057e+18,0.018674883991479874,-0.003579604672268033,0.001484518637880683
1.7215719015476058e+18,0.014657996594905853,-0.0037510553374886513,0.002152535133063793
1.721571901556606e+18,0.014951840043067932,0.0001266777398996055,0.0009266847046092153
1.721571901562606e+18,0.009825359098613262,-0.000956925970967859,-0.0012027791235595942
1.7215719015656061e+18,0.011113275773823261,-0.0013707478065043688,-0.0022652423940598965
1.7215719015746063e+18,0.01070234552025795,0.0012937064748257399,-0.0024410290643572807
1.7215719015776064e+18,0.010925848968327045,-0.0013350010849535465,-0.0026740580797195435
1.7215719015836065e+18,0.01143576204776764,-0.0026809885166585445,-0.0014648479409515858
1.7215719015896067e+18,0.012044837698340416,-0.003381221555173397,0.0013873287243768573
1.7215719015956068e+18,0.0071703288704156876,-0.006716543808579445,-0.0012217250186949968
1.721571901601607e+18,0.008574984036386013,-0.0020607267506420612,-0.0031065361108630896
1.721571901607607e+18,0.007977481000125408,-0.006700991652905941,0.0016171621391549706
1.7215719016136072e+18,0.006580681540071964,-0.0008607286144979298,-0.0008807925041764975
1.7215719016166072e+18,0.004715980030596256,-0.001444357680156827,0.00212933961302042
1.7215719016226074e+18,0.003163011511787772,0.00344224669970572,-0.0023339311592280865
1.7215719016286075e+18,0.0011174442479386926,0.0011094535002484918,-0.002979015465825796
1.7215719016316076e+18,0.00381970452144742,0.003312487155199051,0.0007968330755829811
1.7215719016376077e+18,0.0006568095996044576,-3.2235169783234596e-05,-0.0020973696373403072
1.7215719016436078e+18,0.0038087680004537106,0.00042176374699920416,-0.0016539351781830192
1.721571901649608e+18,0.0016027792589738965,5.951843922957778e-05,-0.001966155366972089
1.721571901655608e+18,0.0021937754936516285,-0.0018240271601825953,-0.0014704805798828602
1.7215719016616082e+18,-0.0001285797916352749,-0.0009968543890863657,-0.0009212744771502912
1.7215719016676083e+18,0.00018258928321301937,-0.001022398704662919,-0.0017489450983703136
1.7215719016736084e+18,0.0016660843975842,-0.0007165020797401667,-0.0004717690753750503
1.7215719016796086e+18,0.0031726451124995947,0.0007223523571155965,-0.0025765832979232073
1.7215719016826086e+18,-0.0017969608306884766,5.468144081532955e-05,0.0008010194869711995
1.7215719016886088e+18,-0.0007526354747824371,-0.0012855693930760026,-0.0016140512889251113
1.721571901694609e+18,0.0009904018370434642,-0.0013734801905229688,-0.003111262572929263
1.721571901700609e+18,-0.0006091443356126547,-0.003220009384676814,-0.0019837545696645975
1.7215719017066092e+18,-0.004164613783359528,0.0005749491974711418,0.000692079309374094
1.7215719017126093e+18,-0.0007279935525730252,-0.001034639892168343,-0.0021465462632477283
1.7215719017186094e+18,-0.0008065846050158143,0.0013619777746498585,-0.0032054316252470016
1.7215719017216095e+18,-0.0001620166003704071,0.0025105858221650124,-0.002669067122042179
1.7215719017276096e+18,-0.003120595123618841,0.0013029652182012796,0.00018536241259425879
1.7215719017336097e+18,-0.0014852487947791815,0.003193620592355728,-0.0030006321612745523
1.7215719017396099e+18,-0.004016580060124397,0.001808818313293159,-0.0023507606238126755
1.72157190174561e+18,-0.0024628611281514168,-0.0009473866084590554,-0.0002139018615707755
1.72157190175161e+18,-0.0038747494108974934,0.001010232837870717,-0.003285686019808054
1.7215719017576102e+18,-0.002520248992368579,0.003245612606406212,-0.003224849933758378
1.7215719017636104e+18,-0.008281195536255836,-0.0009117087465710938,-0.0013935718452557921
1.7215719017696105e+18,-0.0008749652188271284,-0.0005840840749442577,-0.002877394435927272
1.7215719017726106e+18,-0.008314289152622223,0.0005069079343229532,-0.0022083569783717394
1.7215719017786107e+18,-0.004696511197835207,-0.000501096248626709,-0.0034564780071377754
1.7215719017846108e+18,-0.003633223008364439,0.0007744514150545001,-0.0003668587887659669
1.721571901787611e+18,-0.0023849760182201862,0.0005408227443695068,0.0017474042251706123
1.721571901793611e+18,-0.004396145697683096,-0.00014535384252667427,7.822783663868904e-05
1.7215719017996111e+18,-0.0009434825042262673,-0.0024894201196730137,-0.0010842591291293502
1.7215719018056113e+18,-0.0027222735807299614,0.0012551965191960335,0.002589466981589794
1.7215719018086113e+18,-0.002242427319288254,0.0029615680687129498,0.00122213049326092
1.7215719018146115e+18,-0.003689184784889221,0.0025550811551511288,-0.003495246171951294
1.7215719018206116e+18,-0.0021821416448801756,0.0017694942653179169,0.0007325846236199141
1.7215719018266117e+18,-0.0035650059580802917,-0.0012772483751177788,-0.0025864564813673496
1.7215719018326118e+18,-0.0028439518064260483,0.0005235789576545358,0.00016109179705381393
1.721571901838612e+18,-0.002928759204223752,0.0009910083608701825,2.6775989681482315e-05
1.721571901844612e+18,-0.0011587223270907998,-0.0017847380368039012,-0.003535427153110504
1.7215719018476122e+18,-0.003866253886371851,0.0020900932140648365,-0.00010094151366502047
1.7215719018536123e+18,-0.00032997620292007923,0.0004226714663673192,-0.004083690233528614
1.7215719018596124e+18,-0.00013453036081045866,0.0005913430359214544,-0.00041464483365416527
1.7215719018656125e+18,0.000624476873781532,0.002814502688124776,-0.0014448887668550014
1.7215719018716127e+18,-0.0022037194576114416,0.0005871745524927974,-0.002547568641602993
1.7215719018776128e+18,-0.0032481402158737183,-0.000980454497039318,-0.0007071473519317806
1.721571901883613e+18,-0.0031117298640310764,-0.0024176312144845724,-0.0028389631770551205
1.721571901889613e+18,-0.0036202706396579742,4.8590824007987976e-05,-0.0033778497017920017
1.7215719018956132e+18,-0.0033692284487187862,0.0004895661259070039,-0.0026609916239976883
1.7215719019016133e+18,-0.0033870891202241182,-0.0011402001837268472,-0.0022281408309936523
1.7215719019076134e+18,-0.003082555253058672,0.0022332207299768925,0.0004822696791961789
1.7215719019106135e+18,-0.0024051330983638763,-0.0014545232988893986,0.0029190194327384233
1.7215719019166136e+18,-0.0034814912360161543,0.003019933123141527,-0.0020761245395988226
1.7215719019226138e+18,-0.0027657984755933285,0.00160740758292377,-0.0010599519591778517
1.721571901928614e+18,-0.0007744471076875925,0.0020016655325889587,-0.004014496225863695
1.721571901934614e+18,-0.001298605347983539,0.0006122075719758868,-0.002015621867030859
1.721571901937614e+18,-0.002088890178129077,-3.0612340196967125e-05,-0.006549406331032515
1.7215719019436142e+18,0.0004879519110545516,0.0009250533184967935,-0.0008667533984407783
1.7215719019496143e+18,-0.002427108120173216,0.0003328670281916857,-0.001311981352046132
1.7215719019556145e+18,0.00014116428792476654,-0.004846744704991579,-0.001541072386316955
1.7215719019586145e+18,-0.00011595338582992554,-0.0009397371904924512,-0.002625015564262867
1.7215719019646147e+18,-0.003983244299888611,-0.00047416152665391564,-0.005040188319981098
1.7215719019676147e+18,-0.005289431661367416,-0.0014142929576337337,-0.0014077487867325544
1.7215719019736148e+18,-0.004068686161190271,0.0003556175797712058,-0.0012127762893214822
1.721571901976615e+18,-0.004139589611440897,0.0026521733961999416,0.0004612425109371543
1.721571901982615e+18,-0.006861580535769463,0.002197838621214032,-0.002927463036030531
1.7215719019886152e+18,-0.00731225311756134,0.005746555980294943,-0.0015467812772840261
1.7215719019946153e+18,-0.002442901488393545,0.0025212981272488832,-0.006201913580298424
1.7215719020006154e+18,-0.002335925819352269,0.004656230099499226,0.0007001316407695413
1.7215719020066156e+18,-0.0009350808686576784,0.003083315910771489,-0.001016109250485897
1.7215719020126157e+18,-0.0012872954830527306,-0.0023173161316663027,-0.003078331472352147
1.7215719020186158e+18,0.0006418057018890977,-0.0017074643401429057,-0.001740793464705348
1.721571902024616e+18,-0.0019026286900043488,-0.002016544109210372,-0.00047026388347148895
1.721571902030616e+18,-0.0028099175542593002,-0.0016918823821470141,-0.0006897884304635227
1.7215719020366162e+18,-0.0019933993462473154,-0.001347860088571906,-0.003673771396279335
1.7215719020396163e+18,-0.005281167104840279,-0.002756071276962757,-0.0036736454349011183
1.7215719020456164e+18,-0.006998097058385611,-0.0004608199233189225,-0.00012898491695523262
1.7215719020516165e+18,-0.002788232173770666,0.002695998642593622,-0.0012262884993106127
1.7215719020576166e+18,-0.002925271401181817,-0.0008614449761807919,-0.002094879047945142
1.7215719020636168e+18,0.0011791205033659935,-0.0011650137603282928,0.00014693906996399164
1.721571902069617e+18,0.0022608486469835043,0.003852719673886895,-0.0012888411292806268
1.721571902075617e+18,0.0012111037503927946,0.0027390976902097464,0.00027640897314995527
1.721571902078617e+18,0.0017406881088390946,-0.0021999815944582224,0.0008719363249838352
1.7215719020846172e+18,0.002025981666520238,-0.0015128559898585081,-0.0007969484431669116
1.7215719020906173e+18,-0.0034741635899990797,-0.0006319700041785836,-0.0010916159953922033
1.7215719020966175e+18,-0.0036321203224360943,0.002095783594995737,0.00011007091961801052
1.7215719020996175e+18,-0.004558637738227844,-0.0002066354500129819,-0.000694417511112988
1.7215719021056177e+18,-0.00410489970818162,0.0004958970821462572,-0.0018430600175634027
1.7215719021116178e+18,-0.00614557508379221,-0.0011735293082892895,0.00019218039233237505
1.721571902117618e+18,-0.005224770866334438,0.0003464822075329721,-0.0023877923376858234
1.721571902123618e+18,-0.00036026909947395325,0.000631132919806987,-0.00350741483271122
1.7215719021296182e+18,-0.0006265129195526242,-0.0026776171289384365,-0.003656164277344942
1.7215719021356183e+18,-0.0012425454333424568,-0.0008878512308001518,-0.001367876073345542
1.7215719021416184e+18,0.0002608672366477549,0.0014540666015818715,0.002858084160834551
1.7215719021476186e+18,-0.00044993875781074166,-0.0022195742931216955,0.001946615637280047
1.7215719021536187e+18,-0.0014591895742341876,0.002673639450222254,-0.001461965381167829
1.7215719021566188e+18,-0.0032403101213276386,0.001235903357155621,-0.0006411473732441664
1.721571902162619e+18,-0.0022971935104578733,0.0005049628671258688,-0.003903538454324007
1.721571902168619e+18,-0.002520135371014476,-0.0023699565790593624,-0.0016102812951430678
1.7215719021746191e+18,-0.0010051665594801307,-0.0016607629368081689,-0.000897078774869442
1.7215719021776192e+18,-0.00407808180898428,-0.000682982848957181,-0.0007104522665031254
1.7215719021836193e+18,-0.0019842414185404778,-0.00036282354267314076,-0.0008602635934948921
1.7215719021896195e+18,-0.004780728369951248,-0.003198238555341959,0.0003391921054571867
1.7215719021956196e+18,-0.005038384348154068,0.0018319141818210483,0.0022574090398848057
1.7215719022016197e+18,0.00020230590598657727,0.0006768122548237443,-0.0018249070271849632
1.7215719022076198e+18,-0.0003073119733016938,0.0010393161792308092,-0.0014778662007302046
1.72157190221362e+18,-0.0021744100376963615,-2.9341463232412934e-05,-0.0017248394433408976
1.72157190221962e+18,0.001229549408890307,0.0008921589469537139,0.0013290421338751912
1.7215719022256202e+18,-0.0019433762645348907,0.0015795229701325297,-0.003991215024143457
1.7215719022286203e+18,-0.0016177258221432567,0.00416481401771307,-0.0017332551069557667
1.7215719022376205e+18,-0.001996748149394989,-0.0012386651942506433,-0.001290363259613514
1.7215719022436206e+18,-0.00045105034951120615,0.0008084580767899752,0.0005666338838636875
1.7215719022466207e+18,-0.0007899855263531208,-0.002067960798740387,-0.0013796299463137984
1.7215719022526208e+18,0.0021696952171623707,-0.001218260731548071,-0.0014440445229411125
1.721571902258621e+18,-0.0021390661131590605,-0.002242456190288067,-0.0009042773745022714
1.721571902264621e+18,-0.0009648359846323729,0.0014214393449947238,-0.0011997423134744167
1.721571902267621e+18,-0.0005972539074718952,0.0025075129233300686,-0.002975800074636936
1.7215719022736212e+18,0.00018253247253596783,-0.00047382304910570383,-0.0015956808347254992
1.7215719022796214e+18,-0.003067084588110447,0.0013324585743248463,-0.0015467731282114983
1.7215719022856215e+18,0.0007254782831296325,-0.0005472379853017628,-0.0012657396728172898
1.7215719022916216e+18,0.000952491769567132,0.002359845442697406,-0.005057991482317448
1.7215719022976218e+18,-0.002334148623049259,0.0015942424070090055,-0.003123774193227291
1.721571902303622e+18,0.00025702943094074726,0.00041180223342962563,0.0024331763852387667
1.721571902309622e+18,-0.0020581590943038464,0.00022662230185233057,-0.0009878319688141346
1.7215719023156221e+18,-0.002353701274842024,-0.0013013849966228008,-0.0008901376277208328
1.7215719023276224e+18,-0.0022775549441576004,-0.00028739069239236414,0.004605269990861416
1.7215719023336225e+18,-0.0017599351704120636,0.002543278504163027,-0.0001980409142561257
1.7215719023366226e+18,-0.001376516418531537,0.0007604905986227095,-0.0003605388628784567
1.7215719023426227e+18,0.0002011528704315424,-0.0010878778994083405,-0.0015000314451754093
1.7215719023486228e+18,-0.003142694942653179,0.0014789504930377007,-0.0015664338134229183
1.721571902354623e+18,-0.0013424970675259829,0.0008179571013897657,-0.00043367932084947824
1.7215719023666232e+18,-0.005221176892518997,0.0012890908401459455,5.1297538448125124e-05
1.7215719023726234e+18,-0.0029427402187138796,0.00040834752144291997,-0.0004704375169239938
1.7215719023786235e+18,-0.0028779504355043173,0.0024527418427169323,4.3648004066199064e-05
1.7215719023846236e+18,-0.003724685637280345,0.0029382752254605293,0.001283647958189249
1.7215719023906237e+18,-0.0029287973884493113,0.003602530574426055,0.0002524322480894625
1.721571902396624e+18,-0.004520181566476822,0.0003003355232067406,0.0012155412696301937
1.721571902402624e+18,-0.0009074225672520697,0.0005366007098928094,0.0009697614004835486
1.721571902408624e+18,-0.00046386505709961057,0.004193671513348818,0.0016163485124707222
1.7215719024116242e+18,-0.0007191285258159041,0.001105338567867875,-0.0018001007847487926
1.7215719024176243e+18,0.00032702877069823444,-0.002136888215318322,0.001285953214392066
1.7215719024236244e+18,-5.3292926168069243e-05,-0.0001689516066107899,-0.000512404483743012
1.7215719024266245e+18,0.0019348235800862312,-0.00079051882494241,-1.6508623957633972e-05
1.7215719024326246e+18,-0.002922257874161005,0.0013597706565633416,-0.0012115993304178119
1.7215719024386248e+18,-0.004332662560045719,0.0006882186862640083,-6.655527977272868e-05
1.721571902444625e+18,-0.0032872280571609735,0.0005686566582880914,-0.0018369128229096532
1.721571902450625e+18,5.312240682542324e-05,0.0036015640944242477,-0.002586596878245473
1.7215719024566252e+18,-0.0024589875247329473,0.0027802183758467436,0.0022661909461021423
1.7215719024626253e+18,0.0027072082739323378,-0.0030756150372326374,0.0029448182322084904
1.7215719024656253e+18,-0.0014955683145672083,0.0017784632509574294,0.002178068272769451
1.7215719024716255e+18,-0.002162864664569497,0.00016934858285821974,-0.0018615764565765858
1.7215719024836257e+18,0.001489479560405016,0.0002766434336081147,-0.0010975953191518784
1.7215719024896259e+18,0.0025502147618681192,-0.0007617799565196037,-0.0024039505515247583
1.721571902495626e+18,0.0005364238168112934,0.0005819536745548248,-0.0002357263583689928
1.721571902501626e+18,-0.001357151078991592,-0.0015183044597506523,-0.0008234284468926489
1.7215719025136264e+18,-0.0012439066777005792,0.000836634892039001,-0.0023577227257192135
1.7215719025196265e+18,-0.0035747275687754154,-0.0038321546744555235,-0.0015167638193815947
1.7215719025256266e+18,0.00031560694333165884,3.2032388844527304e-05,-0.0007079332717694342
1.7215719025316268e+18,-0.0022141719236969948,0.0016762481536716223,0.0006125537329353392
1.721571902537627e+18,-0.0009946454083546996,0.002851106459274888,0.0027266114484518766
1.721571902543627e+18,0.0009209258714690804,0.0006060266168788075,-0.0015145721845328808
1.721571902546627e+18,0.00042880282853730023,0.0024436749517917633,-0.00047203473513945937
1.7215719025526272e+18,-0.0020454833284020424,0.0028305582236498594,-0.0029735963325947523
1.7215719025586273e+18,0.0028894587885588408,0.0032104214187711477,-0.0019519038032740355
1.7215719025646275e+18,-0.0007949348073452711,-0.0019267135066911578,-9.679322829470038e-05
1.7215719025706276e+18,-0.0012904572067782283,0.0025984146632254124,0.0009559213649481535
1.7215719025736276e+18,-0.0003304964047856629,-0.0010472128633409739,-0.0011901548132300377
1.7215719025796278e+18,-0.001921109389513731,0.002489207312464714,-0.001532232272438705
1.721571902585628e+18,-0.0010689303744584322,0.0008251040708273649,-0.0007899011834524572
1.721571902588628e+18,-0.0043808878399431705,-0.000405628583393991,-0.0003410305071156472
1.721571902594628e+18,-0.002192683517932892,-0.002709147986024618,0.0031691507901996374
1.7215719026006282e+18,-0.0004184561548754573,0.0030761153902858496,0.0009051650995388627
1.7215719026066284e+18,-0.0012069693766534328,0.0006923966575413942,0.000619871832896024
1.7215719026126285e+18,-7.941736839711666e-05,-0.00041390585829503834,-0.0024820533581078053
1.7215719026186286e+18,-0.0007381672039628029,-0.0023642501328140497,0.0012686518020927906
1.7215719026246287e+18,-0.0034723556600511074,-0.0018433493096381426,0.0007476548198610544
1.7215719026306289e+18,-0.00208265520632267,-0.0004645774024538696,-0.0015277191996574402
1.721571902636629e+18,-0.001193416304886341,0.002408301690593362,0.0015525174094364047
1.721571902639629e+18,-0.0015994629357010126,-0.0009731219615787268,-0.002914946060627699
1.7215719026486292e+18,0.0006819737609475851,0.0004235405649524182,-0.0009690644801594317
1.7215719026546294e+18,0.0004524409305304289,-0.0029757521115243435,-0.0012850878993049264
1.7215719026606295e+18,0.0014338514301925898,0.0013168298173695803,0.0010812683030962944
1.7215719026666296e+18,0.0007242835708893836,0.0016276639653369784,-0.002314239041879773
1.7215719026696297e+18,0.0016767479246482253,0.0030313075985759497,-0.002887037582695484
1.72157190268163e+18,0.0007400827016681433,-0.0013970326399430633,-0.002024365123361349
1.72157190268763e+18,0.00018194675794802606,0.0014710834948346019,-0.000609778449870646
1.7215719026936302e+18,-0.0006922750035300851,0.002278812462463975,0.000287650094833225
1.7215719026996303e+18,-0.003611392807215452,-0.0011540497653186321,-0.0006291629979386926
1.7215719027056305e+18,0.0005311118438839912,-0.0014468072913587093,-0.0016830367967486382
1.7215719027116306e+18,0.0005666627548635006,0.0007983988616615534,0.001823642523959279
1.7215719027236308e+18,-0.0013020173646509647,0.00011578566045500338,-0.001176918507553637
1.721571902729631e+18,0.00022992321464698762,0.0022756599355489016,0.00023258378496393561
1.721571902735631e+18,0.0005093110376037657,0.004231590777635574,-0.0009292563190683722
1.7215719027416312e+18,-0.001467967638745904,0.0019877497106790543,-0.0035794549621641636
1.7215719027536315e+18,-0.0021863237489014864,-0.00048485869774594903,-0.0030394585337489843
1.7215719027596316e+18,-0.00432184711098671,-0.0027747806161642075,0.0008599792490713298
1.7215719027656317e+18,-0.0003282248508185148,0.00016805424820631742,0.0013977837515994906
1.7215719027716319e+18,-0.0012226852122694254,-0.0006021994631737471,-0.0011374856112524867
1.721571902777632e+18,-0.002669180277734995,-0.0006988905952312052,-0.0012880577705800533
1.7215719027836321e+18,-0.0015629713889211416,-0.004032704047858715,-2.298352774232626e-05
1.7215719027866322e+18,0.0023938571102917194,-0.0002856022329069674,0.002435988513752818
1.7215719027926323e+18,-0.0017183320596814156,-0.0034467680379748344,-0.0021618036553263664
1.7215719027986324e+18,0.0004442197969183326,-0.0011718572350218892,-4.0217331843450665e-05
1.7215719028046326e+18,0.0007972787716425955,0.005031760782003403,-0.0003731348551809788
1.721571902819633e+18,0.0003894041874445975,0.0003181607462465763,-0.0013634467031806707
1.721571902825633e+18,0.00024775927886366844,-0.0004991181194782257,-0.002351062372326851
1.7215719028316332e+18,-0.004002934787422419,-0.0011276626028120518,-0.0013996274210512638
1.7215719028376333e+18,-0.003033988643437624,-0.0011027650907635689,-0.002276477636769414
1.7215719028406333e+18,-0.0036000506952404976,0.0030483168084174395,0.0013711453648284078
1.7215719028496335e+18,-0.0010406678775325418,0.0027067484334111214,-0.0010930043645203114
1.7215719028526336e+18,0.0009456078987568617,-0.001956668682396412,0.00022220323444344103
1.7215719028586337e+18,-0.00021615481819026172,-0.00010621213004924357,-0.00030856128432787955
1.7215719028646339e+18,0.0006525227217935026,0.0017727783415466547,0.0008211993845179677
1.721571902867634e+18,-0.0007437014719471335,0.0019602766260504723,-0.0010255316738039255
1.721571902873634e+18,-0.0008793672313913703,-0.0022761584259569645,-0.001256277086213231
1.7215719028796342e+18,-0.0001798150478862226,0.0009072232060134411,-0.0019472850253805518
1.7215719028856343e+18,-0.005881790071725845,-0.00047831505071371794,-0.00023432513989973813
1.7215719028916344e+18,0.0007515597390010953,-0.0002096047392114997,0.0008035438368096948
1.7215719028976346e+18,-0.0033957944251596928,-0.00031702930573374033,0.000268473697360605
1.7215719029036347e+18,-0.003327619517222047,0.00028319121338427067,-0.001089049270376563
1.7215719029096348e+18,0.0001191188202938065,0.0013432216364890337,0.0016739293932914734
1.721571902915635e+18,-0.0003676734631881118,-0.0008412009919993579,0.0010145020205527544
1.721571902921635e+18,0.002013380639255047,-0.002982355421409011,-0.0011989091290161014
1.7215719029246351e+18,-0.00038314610719680786,-0.0015755343483760953,-0.0012214945163577795
1.7215719029306353e+18,0.0013671062188223004,-0.003896946320310235,0.002448758576065302
1.7215719029366354e+18,-0.00026074377819895744,-0.002999944146722555,-0.0005650067469105124
1.7215719029426355e+18,0.002352612093091011,-0.001372382277622819,0.0023775817826390266
1.7215719029486356e+18,-0.002243551891297102,-0.0026120799593627453,-5.4466494475491345e-05
1.7215719029546358e+18,0.0025825349148362875,0.000995447626337409,0.0027532540261745453
1.721571902966636e+18,0.0005599627620540559,0.00035579322138801217,-0.003479535458609462
1.7215719029726362e+18,-0.0005042796256020665,0.0015449699712917209,-0.0013710648054257035
1.7215719029786363e+18,-0.00034248066367581487,-0.0015131012769415975,-0.000633992487564683
1.7215719029846364e+18,-0.0006844726740382612,-3.70768248103559e-05,-0.002048654016107321
1.7215719029906365e+18,-0.00034483932540751994,0.0015391457127407193,-0.0009145882213488221
1.7215719029966367e+18,0.000334850512444973,0.001189881470054388,3.726781869772822e-05
1.7215719030026368e+18,0.0035397643223404884,-0.0006314833299256861,-0.0010275995591655374
1.721571903008637e+18,0.0012099544983357191,0.001233875984326005,-0.00025010108947753906
1.721571903014637e+18,0.00018299836665391922,0.0002046343870460987,-0.0010613366030156612
1.7215719030206372e+18,-0.0011720536276698112,-0.0022830802481621504,5.874799535376951e-05
1.7215719030266373e+18,-0.000672216818202287,0.0010771830566227436,0.0025411630049347878
1.7215719030326374e+18,0.00012811695341952145,-0.0001474787131883204,0.0006568148382939398
1.7215719030386376e+18,-0.0022909517865628004,0.00024350036983378232,0.0010160492965951562
1.7215719030446377e+18,-0.00046685501001775265,-0.0006296195788308978,-9.32681723497808e-06
1.7215719030506378e+18,0.001113413367420435,0.0006694965995848179,0.0008431440219283104
1.721571903056638e+18,-3.998693864559755e-05,0.0027021754067391157,4.2516214307397604e-05
1.721571903062638e+18,0.000753711152356118,-0.0016704831505194306,-0.00015957330469973385
1.7215719030656381e+18,0.0005940833943895996,-7.91638158261776e-05,0.002798718400299549
1.7215719030716383e+18,0.0023574153892695904,-0.0028358132112771273,-0.0022868551313877106
1.7215719030776384e+18,-0.0010723924497142434,-3.9570615626871586e-05,-0.0006073344848118722
1.7215719030836385e+18,-9.135575965046883e-06,-0.0006398820551112294,0.0012332899495959282
1.7215719030896387e+18,-0.0021144517231732607,-0.0020954273641109467,-0.00032736564753577113
1.7215719030926387e+18,-0.0013350958470255136,-0.0033006416633725166,-0.001344760530628264
1.7215719030986388e+18,-0.0023543057031929493,0.0017881733365356922,0.0020048648584634066
1.721571903101639e+18,-0.0013942369259893894,-0.0006094458512961864,0.000450767925940454
1.721571903107639e+18,-0.0011847447603940964,0.0010592025937512517,-0.002887532114982605
1.7215719031136392e+18,-0.0024057331029325724,3.3725518733263016e-06,-0.0019217586377635598
1.7215719031196393e+18,0.002566531766206026,0.0008351503638550639,-0.00025502193602733314
1.7215719031256394e+18,0.0010185353457927704,0.0015069495420902967,0.0017718770541250706
1.7215719031316396e+18,0.0010251047788187861,-0.00031610653968527913,-0.003298253985121846
1.7215719031376397e+18,0.0021584152709692717,0.0002510144258849323,0.002288099844008684
1.7215719031436398e+18,0.0006039212457835674,-0.0037220544181764126,-0.001188537455163896
1.72157190314964e+18,-0.0024089161306619644,0.00030117854475975037,0.001126644667237997
1.72157190315564e+18,0.002480203751474619,-0.0010856081498786807,-0.002697526942938566
1.7215719031616402e+18,-0.000756370835006237,0.00041813618736341596,-0.0009212078875862062
1.7215719031676403e+18,-0.000653860392048955,-0.0017743953503668308,-0.0006097415462136269
1.7215719031736404e+18,0.00024942378513514996,0.0016577625647187233,-0.00275423820130527
1.7215719031796406e+18,0.0002392488531768322,0.0022032198030501604,0.001799018937163055
1.7215719031856407e+18,-0.002947577740997076,-0.00025207962607964873,-0.0010581272654235363
1.7215719031886408e+18,-0.0004990551387891173,0.003557498101145029,0.001063370262272656
1.721571903194641e+18,-0.000597790174651891,0.0023713326081633568,0.002786588156595826
1.721571903200641e+18,-0.0013833906268700957,0.0005204516928642988,-0.0005664237542077899
1.7215719032066412e+18,-0.001428122166544199,-0.0024436251260340214,0.0014990281779319048
1.7215719032126413e+18,-0.0007227648748084903,-0.000753557775169611,-0.0002983372251037508
1.7215719032186414e+18,0.0007407593075186014,-0.0012162011116743088,0.001250224537216127
1.7215719032246415e+18,0.0009886784246191382,-0.0021550096571445465,0.0014758165925741196
1.7215719032306417e+18,0.003956311382353306,-0.0012545851059257984,0.0013931996654719114
1.7215719032366418e+18,0.002678561955690384,0.002225667703896761,0.0019517844775691628
1.721571903242642e+18,-0.00016726239118725061,-0.00013404898345470428,0.0013289406197145581
1.721571903248642e+18,0.0009007664630189538,-5.345745012164116e-05,-0.000144751655170694
1.721571903251642e+18,-0.002390452893450856,0.0034645111300051212,0.0003906440979335457
1.7215719032576422e+18,-0.0029552001506090164,0.00164117687381804,-0.0019166195997968316
1.7215719032636424e+18,-0.0020157520193606615,0.002009156160056591,0.00100352568551898
1.7215719032696425e+18,-0.002302989363670349,0.001932453946210444,0.001211885130032897
1.7215719032756426e+18,-0.003120340872555971,-0.0023395665921270847,0.0012564262142404914
1.7215719032786427e+18,-0.0009064530022442341,0.0006344635039567947,0.0017929683672264218
1.7215719032846428e+18,-0.0005483389832079411,0.0011359644122421741,-0.0008227144717238843
1.721571903287643e+18,-0.0018455167300999165,0.0008599942084401846,-0.0019127234118059278
1.721571903293643e+18,-0.00045646351645700634,1.1064345017075539e-05,0.0002654292620718479
1.7215719032996431e+18,-0.0006929546943865716,-0.002344301901757717,-0.00033183908089995384
1.7215719033056433e+18,-0.0001761256280587986,0.00045145521289668977,0.00112626189365983
1.7215719033116434e+18,0.0007059371564537287,0.002114976290613413,0.00020770658738911152
1.7215719033176435e+18,-0.0006673347088508308,-0.0003097573935519904,0.0021183269564062357
1.7215719033206436e+18,0.00011690222891047597,0.0025401790626347065,0.0008443894912488759
1.7215719033266437e+18,-0.0010027798125520349,0.0012460906291380525,0.0032084896229207516
1.7215719033326438e+18,-0.0017423874232918024,0.000439229654148221,0.00134377705398947
1.721571903338644e+18,-0.002408613683655858,0.0013457152526825666,-7.97346729086712e-05
1.721571903344644e+18,-0.00443412596359849,-0.002282192464917898,-0.0012539211893454194
1.7215719033506442e+18,-0.003272400936111808,0.0019848651718348265,-0.0024165608920156956
1.7215719033596444e+18,-0.0012345234863460064,-0.0002837991341948509,0.0021258885972201824
1.7215719033626445e+18,-0.0033374959602952003,0.00300020189024508,-0.0021347305737435818
1.7215719033686446e+18,-0.00019587762653827667,0.0015923508908599615,-0.0032190484926104546
1.7215719033746447e+18,0.003323853947222233,0.0015116831054911017,-0.0017637201817706227
1.7215719033806449e+18,0.0018823430873453617,0.0018055859254673123,0.0017435692716389894
1.721571903386645e+18,0.000918596691917628,-0.0020516852382570505,-8.998472185339779e-05
1.721571903392645e+18,-0.0010927515104413033,-0.0013328258646652102,6.257471977733076e-05
1.7215719034016453e+18,-0.0025193598121404648,-0.0025324758607894182,-0.0013314574025571346
1.7215719034076454e+18,-0.0011782011715695262,-0.003426105249673128,-0.0009328767191618681
1.7215719034136456e+18,-0.0031824528705328703,-0.00160428904928267,0.0014859454240649939
1.7215719034196457e+18,-0.000839506508782506,0.0003896086709573865,0.00016305374447256327
1.7215719034256458e+18,1.6729463823139668e-05,0.0003019723517354578,-0.0010344417532905936
1.721571903431646e+18,0.0012857590336352587,-0.0009730785386636853,-0.0012321292888373137
1.721571903437646e+18,0.00029131921473890543,0.00210981210693717,0.0009768572635948658
1.7215719034436462e+18,0.00033392966724932194,-0.00016944925300776958,-0.0005214046686887741
1.7215719034496463e+18,0.0035153019707649946,0.0007873818976804614,0.0007434070575982332
1.7215719034556465e+18,0.000451007392257452,0.0009852292714640498,0.0004782274190802127
1.7215719034616466e+18,-0.0002058673999272287,-0.0018692545127123594,-0.0008506948361173272
1.7215719034676467e+18,0.0009468540083616972,-0.003820650279521942,-0.0016103617381304502
1.7215719034736468e+18,-0.0014591282233595848,-0.00032158533576875925,-0.00232454645447433
1.721571903479647e+18,-0.001684857881627977,-0.0035688504576683044,-0.0034026538487523794
1.721571903485647e+18,-7.704674499109387e-05,0.0008727155509404838,-0.004437142517417669
1.7215719034916472e+18,0.00232815183699131,-0.001857695635408163,-0.0003379731788299978
1.7215719034976474e+18,-0.003963981289416552,-0.0029564059805125,-0.0004544156836345792
1.7215719035006474e+18,-0.00014578737318515778,2.5320914573967457e-05,-0.0035238531418144703
1.7215719035066476e+18,-0.0006459099240601063,0.0004576218780130148,0.0015016560209915042
1.7215719035096476e+18,0.000363459053914994,0.0038148772437125444,-0.003111225552856922
1.7215719035156477e+18,0.0013701177667826414,-0.002596192993223667,-0.001382922288030386
1.7215719035216479e+18,-0.0029641687870025635,0.0006448618369176984,-0.0023785890080034733
1.721571903530648e+18,-0.0012762491824105382,0.0004468982224352658,-0.0012518364237621427
1.7215719035336481e+18,0.0008515180088579655,-0.0004695504903793335,-3.21820261888206e-05
1.7215719035396483e+18,-0.0015691100852563977,-0.0018238488119095564,-0.0020575448870658875
1.7215719035456484e+18,-0.0006324193091131747,-0.00203141150996089,-0.0019509934354573488
1.7215719035516485e+18,0.0019269954646006227,-0.0009097701986320317,-0.0028279030229896307
1.7215719035576486e+18,-8.343788795173168e-05,0.0001313684624619782,-0.0006700954400002956
1.7215719035636488e+18,0.002454516012221575,0.00012093508848920465,-0.0013380579184740782
1.721571903569649e+18,0.003558406140655279,-0.001048620673827827,-0.0016328806523233652
1.721571903575649e+18,0.003062879666686058,0.0034685260616242886,-0.0006147231906652451
1.7215719035816492e+18,-0.0019449959509074688,0.003408299759030342,-0.0018377488013356924
1.7215719035876493e+18,0.0003816510725300759,0.005526958964765072,0.0015119485324248672
1.7215719035936494e+18,-0.0014728662790730596,-0.0016684388974681497,0.0018322714604437351
1.7215719035966495e+18,-0.0003029018407687545,0.0008335169404745102,-0.0016711857169866562
1.7215719036026496e+18,-0.0029081772081553936,-0.0010681136045604944,0.0008659912855364382
1.7215719036086497e+18,-0.0019557583145797253,-0.004713821224868298,-0.0018717062193900347
1.7215719036146499e+18,0.002886522561311722,-0.0015539646847173572,-0.0007405896321870387
1.72157190362065e+18,-0.0012627518735826015,-0.000287487986497581,0.0016195126809179783
1.72157190362665e+18,1.142974360845983e-05,-0.0008598248241469264,0.002717602299526334
1.7215719036326502e+18,-0.0014073888305574656,-0.0014341345522552729,-0.0024020536802709103
1.7215719036386504e+18,0.0008330383570864797,0.0006658248021267354,-0.0008647152571938932
1.7215719036446505e+18,-0.0006781523698009551,0.00469188904389739,-0.0017933780327439308
1.7215719036506506e+18,0.00015373312635347247,0.0028311789501458406,-0.00037663051625713706
1.7215719036566508e+18,0.001221559476107359,0.0012994024436920881,-0.0006191557040438056
1.721571903662651e+18,-0.0031109265983104706,0.001146157388575375,0.001225810032337904
1.721571903668651e+18,0.000732600805349648,-0.0023482542019337416,1.3311742804944515e-05
1.721571903671651e+18,-0.003696407889947295,-1.47293321788311e-05,-0.00010917485633399338
1.7215719036776512e+18,-0.0034985155798494816,-0.0026953676715493202,-0.000564723857678473
1.7215719036836513e+18,0.00015540863387286663,-0.0006345398724079132,-0.0023624817840754986
1.7215719036896515e+18,-0.002616244601085782,-0.0005547396140173078,0.0014557308750227094
1.7215719036926515e+18,-0.0033325101248919964,-0.00068809580989182,-0.0031579628121107817
1.7215719036986516e+18,-0.001734448946081102,0.0009961368050426245,0.0016881125047802925
1.7215719037046518e+18,-0.0002597252605482936,0.0010350387310609221,-0.0003468215581960976
1.721571903710652e+18,-0.0014873079489916563,0.0019663549028337,0.0001743795000948012
1.721571903716652e+18,0.0030329441651701927,0.0017840651562437415,0.0008258498273789883
1.7215719037226522e+18,0.0010902673238888383,0.0009447303600609303,0.0017406756523996592
1.7215719037286523e+18,0.0025037950836122036,0.0009363599820062518,-0.0028872902039438486
1.7215719037346524e+18,0.0020758574828505516,-8.737965254113078e-05,0.0014942687703296542
1.7215719037406525e+18,0.002867987612262368,-0.0015527346404269338,0.000845761620439589
1.7215719037466527e+18,-0.000712129520252347,-0.0017579770646989346,-0.0005645881174132228
1.7215719037526528e+18,-0.0010459559271112084,-0.001864334219135344,0.002848021686077118
1.721571903761653e+18,-0.0010552002349868417,0.0022144208196550608,-0.0006134851719252765
1.721571903767653e+18,0.0003907989012077451,-0.0007188343442976475,-0.0003112909325864166
1.7215719037706532e+18,-0.00039981832378543913,0.0032519549131393433,0.002821656409651041
1.7215719037766533e+18,0.0007144054397940636,0.0015274137258529663,-0.0004665560554713011
1.7215719037826534e+18,-0.0006105763604864478,0.0031673836056143045,-0.000913051946554333
1.7215719037886536e+18,0.0027068988420069218,0.0017349387053400278,-0.0009111958788707852
1.7215719037946537e+18,-0.003458138322457671,-0.002096422715112567,0.0031433426775038242
1.7215719037976538e+18,0.0019304768647998571,0.00035994488280266523,-0.0017931547481566668
1.721571903803654e+18,0.0017747653182595968,-0.002707576146349311,0.0006131092086434364
1.721571903809654e+18,0.003077999921515584,-0.0015356182120740414,-0.0017913877964019775
1.7215719038156541e+18,0.0013731435174122453,-0.0003649116260930896,0.0018984443740919232
1.7215719038216543e+18,-0.0002526517491787672,-0.0035355687141418457,-0.0021834596991539
1.7215719038276544e+18,0.0007264002342708409,0.0022662258706986904,-0.002903060521930456
1.7215719038336545e+18,-0.00012054963735863566,-0.0009324167622253299,0.000690113753080368
1.7215719038396547e+18,0.00023185089230537415,0.003240725491195917,-0.0020268778316676617
1.7215719038456548e+18,-0.00032849228591658175,0.00286455312743783,-0.0016996647464111447
1.721571903851655e+18,-3.918135917047039e-05,0.0017738949973136187,0.0020376776810735464
1.721571903854655e+18,0.0017489049350842834,0.001690067001618445,-0.0005204044282436371
1.7215719038636552e+18,0.0012415971141308546,-0.0004962343955412507,0.0008973752846941352
1.7215719038696553e+18,-0.0011704080970957875,-0.0028467527590692043,-0.0014773206785321236
1.7215719038756554e+18,-0.0014230571687221527,-0.0011367284459993243,0.0017033774638548493
1.7215719038816556e+18,0.000452196691185236,-0.0016354946419596672,-0.0008787574479356408
1.7215719038876557e+18,-0.002369358204305172,-0.00048373540630564094,0.0013297786936163902
1.7215719038936558e+18,0.002573894103989005,0.0011681002797558904,-5.043185956310481e-05
1.721571903899656e+18,-0.0004332837415859103,-0.0009608659893274307,0.001066950848326087
1.721571903905656e+18,-0.001012451946735382,0.0008304942748509347,0.0009596977033652365
1.7215719039116562e+18,0.0013231461634859443,0.0014271981781348586,-0.0013793765101581812
1.7215719039176563e+18,0.0018342450493946671,-0.0009649095009081066,0.0010364658664911985
1.7215719039236564e+18,6.984133506193757e-05,-0.003876995062455535,-0.0004060539067722857
1.7215719039296566e+18,0.0014304508222267032,-0.00047880891361273825,-0.0008392288582399487
1.7215719039356567e+18,0.0022608176805078983,-4.27288468927145e-05,-0.0004441395867615938
1.7215719039416568e+18,0.0009439600398764014,-0.0017494410276412964,-0.001782960956916213
1.721571903947657e+18,-0.002156880684196949,-0.0014528303872793913,0.0006247798446565866
1.721571903953657e+18,0.00047932108282111585,5.151820369064808e-05,0.0019134820904582739
1.7215719039596572e+18,-0.0011789947748184204,-0.0012133646523579955,0.002196147572249174
1.7215719039656573e+18,0.0009938275907188654,0.001379672554321587,-0.0014188658678904176
1.7215719039716575e+18,-0.0005873324116691947,-0.0017297088634222746,-0.0037208357825875282
1.7215719039776576e+18,-0.0006089310627430677,-0.000657954253256321,-0.0016954472521319985
1.7215719039836577e+18,-0.0002206282806582749,-0.0036101089790463448,-0.0017398196505382657
1.7215719039866578e+18,-0.0014783611986786127,-0.0016315802931785583,-0.0030010011978447437
1.721571903992658e+18,0.0021287088748067617,-0.0006530595128424466,0.002509528072550893
1.721571903998658e+18,0.0005131518701091409,-0.001036923611536622,-0.00033013746724464
1.7215719040046582e+18,0.0011918058153241873,0.00031427532667294145,-0.0022572632879018784
1.7215719040106583e+18,-0.0006285224808380008,-0.0028073065914213657,-0.0004247590550221503
1.7215719040166584e+18,0.0035886643454432487,7.477874169126153e-05,-0.0002473613421898335
1.7215719040256586e+18,-0.00017852557357400656,-0.002059180987998843,0.0013724140590056777
1.7215719040316588e+18,-0.0016162330284714699,0.003588760271668434,0.0008305596420541406
1.721571904037659e+18,0.002598384628072381,-0.0011866438435390592,-0.0001937244669534266
1.721571904043659e+18,0.0027596200816333294,-0.0007609381573274732,0.001689373399131
1.7215719040496591e+18,0.0020133669022470713,-0.001560399541631341,0.0026781465858221054
1.7215719040586593e+18,0.002002510242164135,-0.002560767810791731,0.0012549908133223653
1.7215719040646595e+18,-0.0001967902499018237,0.0008310184348374605,0.0012691577430814505
1.7215719040706596e+18,-0.0006374663789756596,0.0011678679147735238,-0.0007948896964080632
1.7215719040766597e+18,-0.0015718420036137104,0.0004396311705932021,-0.0004810448444914073
1.7215719040826598e+18,0.0007791169919073582,-0.0001316405541729182,8.436443749815226e-05
1.72157190408866e+18,-0.006840686779469252,0.0005496923113241792,-0.001855239155702293
1.72157190409466e+18,0.0025129076093435287,-0.0011363369412720203,-0.001238787779584527
1.7215719041006602e+18,-0.0025006139185279608,0.0008014192571863532,-0.000928194320295006
1.7215719041066604e+18,-0.0025335028767585754,-0.001948890509083867,0.0001494232565164566
1.7215719041126605e+18,-0.002318350598216057,0.0007767939823679626,0.0007847804808989167
1.7215719041186606e+18,0.000964633421972394,0.0009131890255957842,-0.0016485117375850677
1.7215719041246607e+18,-0.0003133822465315461,0.0013166741700842977,0.0004910705611109734
1.7215719041306609e+18,-0.001038912101648748,-4.104420077055693e-05,0.001144492533057928
1.721571904136661e+18,0.00340249203145504,-0.0008571926737204194,-0.0031240659300237894
1.721571904142661e+18,-0.0005355887115001678,0.004055597819387913,-0.003493362106382847
1.7215719041486612e+18,0.0019205831922590733,0.003827337408438325,-0.0029464804101735353
1.7215719041546614e+18,-0.0007448889082297683,0.0018458750564604998,-0.001095286337658763
1.7215719041576614e+18,-0.002304742345586419,0.001822014106437564,-0.0006480824085883796
1.7215719041636616e+18,-0.0010119680082425475,-0.0010815330315381289,0.0012451617512851954
1.7215719041696617e+18,-0.0009269145084545016,-0.0008159938151948154,-0.004727662540972233
1.7215719041756618e+18,-0.002214202657341957,0.0010088637936860323,-0.0024175611324608326
1.721571904181662e+18,-0.001624715980142355,3.850800567306578e-05,-0.0002774726308416575
1.721571904187662e+18,-0.0013260385021567345,0.00134474434889853,-0.0005520437844097614
1.7215719041936622e+18,-6.374617805704474e-05,-0.0008348562405444682,-0.0010914563899859786
1.7215719041996623e+18,-0.0013179286615923047,-0.0005917850066907704,-0.001291288761422038
1.7215719042056625e+18,-0.0020283572375774384,0.0011435397900640965,0.0016849649837240577
1.7215719042116626e+18,-0.0008556293905712664,0.0021023538429290056,0.0007436939631588757
1.7215719042176627e+18,0.0013634341303259134,-0.001416752114892006,0.0014044484123587608
1.7215719042206628e+18,0.001008766470476985,0.0006938282167539,-0.0017660579178482294
1.721571904226663e+18,-0.0008627658244222403,-2.6549416361376643e-05,-0.0026211808435618877
1.721571904229663e+18,-0.000948298373259604,-0.0020541339181363583,-0.0029456675983965397
1.721571904235663e+18,-0.0008509042672812939,-0.001697974861599505,-0.002803184324875474
1.7215719042416632e+18,0.0009713625768199563,0.0017231305828318,0.00021953292889520526
1.7215719042476634e+18,-0.00030759928631596267,-0.0005520819686353207,0.0005299494368955493
1.7215719042536635e+18,-0.0002415795170236379,0.0014149765484035015,0.0007092087180353701
1.7215719042566636e+18,-0.002115917159244418,0.0010937252081930637,-0.002751411171630025
1.7215719042626637e+18,0.002110067754983902,-0.00013319810386747122,-0.0006149241817183793
1.7215719042686638e+18,0.0010669790208339691,0.0018324764678254724,0.0004699623095802963
1.7215719042716639e+18,-0.0015219212509691715,-0.0011325314408168197,-0.0011733887949958444
1.721571904277664e+18,-8.304615039378405e-05,-0.0018486083718016744,0.0013985559344291687
1.7215719042836641e+18,-0.0021245223470032215,0.0028147597331553698,0.003188979346305132
1.7215719042896643e+18,0.000898233032785356,0.0002470528706908226,0.0023053097538650036
1.7215719042956644e+18,0.0010371158132329583,-0.0011734366416931152,-0.0004848050302825868
1.7215719043046646e+18,-0.00046461314195767045,-0.0008052423945628107,-0.0023231487721204758
1.7215719043076646e+18,0.0028977831825613976,-0.00037804170278832316,0.002198948059231043
1.7215719043136648e+18,-1.9035651348531246e-06,0.0027461927384138107,0.001949588768184185
1.721571904319665e+18,0.0006581934867426753,0.000163135991897434,-0.0033999779261648655
1.721571904325665e+18,0.0009870431385934353,0.0029228348284959793,0.000574531324673444
1.7215719043316652e+18,-0.0027609483804553747,0.002515083644539118,-0.0029628449119627476
1.7215719043376653e+18,6.817316170781851e-05,0.0025081573985517025,-0.004998385440558195
1.7215719043436654e+18,0.0008464745478704572,0.00031772349029779434,-0.0016651747282594442
1.7215719043496655e+18,-0.00567672960460186,-0.0023809378035366535,-0.0024259649217128754
1.7215719043556657e+18,-0.0013169246958568692,-0.0033484953455626965,-0.002749270061030984
1.7215719043586657e+18,-0.002750114072114229,0.0017357593169435859,0.00213001505471766
1.7215719043646659e+18,-0.00120115268509835,0.0003311046166345477,-0.000574225967284292
1.721571904370666e+18,0.0013872310519218445,0.0007893996080383658,-0.002988815773278475
1.721571904376666e+18,-0.0037587806582450867,0.0005625368794426322,-0.0013043032959103584
1.7215719043826662e+18,0.0006905662012286484,-0.0001573758781887591,0.0009468297357670963
1.7215719043856663e+18,0.0019351271912455559,0.0020285840146243572,0.0026901583187282085
1.7215719043916664e+18,0.0007123121758922935,0.002079694764688611,-0.0011898006778210402
1.7215719043976666e+18,0.00565791130065918,0.0012232554145157337,0.00023006106493994594
1.7215719044036667e+18,-0.00019798683933913708,-0.001251300098374486,-0.0003817099495790899
1.7215719044096668e+18,0.0005135282408446074,0.0009068323997780681,8.406370761804283e-05
1.721571904415667e+18,-0.0012661113869398832,0.0014140915591269732,-0.0003305257996544242
1.721571904421667e+18,0.0019269139738753438,-0.00014418724458664656,-0.0016194387571886182
1.7215719044276672e+18,-0.0012308538425713778,0.0003309309249743819,0.0011428669095039368
1.7215719044336673e+18,0.0014021078823134303,0.0012885802425444126,-0.004284419119358063
1.7215719044396675e+18,-0.00011290982365608215,0.0011177121195942163,-0.0018379741813987494
1.7215719044456676e+18,0.004112857393920422,-0.00016771949594840407,0.002388479420915246
1.7215719044516677e+18,0.001280891359783709,0.0002141117729479447,-3.6452256608754396e-05
1.7215719044576678e+18,0.002507466822862625,5.745183443650603e-05,-0.0033518217969685793
1.721571904463668e+18,0.0003547992091625929,-1.6941834473982453e-05,-0.0007793435943312943
1.721571904466668e+18,0.005487591493874788,-0.0012858841801062226,-0.000926454842556268
1.7215719044726682e+18,0.002103999722748995,0.0005710122641175985,0.0019024629145860672
1.7215719044786683e+18,-0.0019030752591788769,0.0029709988739341497,0.000662115984596312
1.7215719044846684e+18,0.0003250228182878345,0.00014566484605893493,-0.00010778036084957421
1.7215719044906685e+18,-0.0010027412790805101,0.0019197654910385609,0.00041685145697556436
1.7215719044966687e+18,-0.0003745484573300928,0.002141084987670183,-0.0002613945980556309
1.7215719045026688e+18,-0.00014974846271798015,0.0021677708718925714,0.0009182249195873737
1.721571904508669e+18,-8.779915515333414e-05,-0.001016129506751895,-0.0008145594038069248
1.721571904514669e+18,-0.00026047503342851996,-0.0004450411070138216,-0.0006665473920293152
1.7215719045206692e+18,0.0003313474007882178,-0.004355054348707199,-0.0005142086884006858
1.7215719045266693e+18,-0.0024629810359328985,-0.010910412296652794,0.0015755461063235998
1.7215719045326694e+18,-0.0014843509998172522,-0.016415337100625038,0.0004149090964347124
1.7215719045386696e+18,-0.0015016074758023024,-0.021614357829093933,0.0022162054665386677
1.7215719045446697e+18,-7.217250822577626e-05,-0.024527370929718018,-0.0007550834561698139
1.7215719045506698e+18,0.002132718451321125,-0.023765625432133675,-0.003426887560635805
1.72157190455667e+18,0.0007500658975914121,-0.02800690568983555,-0.0004166231374256313
1.72157190456267e+18,0.0011423524701967835,-0.025772882625460625,-0.0008253759006038308
1.7215719045686702e+18,0.000965716375503689,-0.02710653841495514,0.00040741023258306086
1.7215719045716703e+18,-7.82730057835579e-06,-0.02605190873146057,0.0013206098228693008
1.7215719045776704e+18,0.00027867514290846884,-0.025817260146141052,-0.0011590056819841266
1.7215719045836705e+18,-0.004143253434449434,-0.029311634600162506,-0.001355682616122067
1.7215719045896707e+18,-0.0003038833965547383,-0.036496564745903015,-0.0008615918923169374
1.7215719045956708e+18,0.002319985767826438,-0.04686569422483444,-0.0009328791638836265
1.7215719045986708e+18,4.965849075233564e-05,-0.054880011826753616,0.0007687743054702878
1.721571904604671e+18,0.001461466308683157,-0.06935203075408936,-0.0005104583688080311
1.721571904610671e+18,0.0013314555399119854,-0.07552117109298706,0.0014928739983588457
1.7215719046166712e+18,0.00010628858581185341,-0.0839458778500557,-3.474921686574817e-05
1.7215719046226714e+18,0.0015265438705682755,-0.08898648619651794,0.00038882470107637346
1.7215719046316716e+18,-0.0017365338280797005,-0.08431058377027512,-0.00036257144529372454
1.7215719046376717e+18,-0.002915354445576668,-0.0826825276017189,0.0023744951467961073
1.7215719046406717e+18,-0.003346608253195882,-0.0815817266702652,-0.001254035159945488
1.721571904646672e+18,-0.000919399899430573,-0.07429829984903336,0.0010601175017654896
1.721571904652672e+18,-0.0010356053244322538,-0.0775512233376503,-0.0006831858772784472
1.721571904658672e+18,0.0024921733420342207,-0.07555222511291504,-0.0010911630233749747
1.7215719046646723e+18,0.0011299983598291874,-0.07870107889175415,0.0028926986269652843
1.7215719046676723e+18,0.0015172646380960941,-0.08032982796430588,0.0002431759494356811
1.7215719046736724e+18,0.0037101227790117264,-0.08095104992389679,-0.0009206155082210898
1.7215719046796726e+18,0.003875303314998746,-0.08527917414903641,0.001105927862226963
1.7215719046886728e+18,-0.0005318864714354277,-0.0805443599820137,0.0015540880849584937
1.721571904694673e+18,-0.0007276312680914998,-0.0781165361404419,0.0037081295158714056
1.721571904700673e+18,-0.0046227904967963696,-0.07353584468364716,0.0015743507537990808
1.7215719047066732e+18,-0.0024052413646131754,-0.07603161036968231,-0.00025102688232436776
1.7215719047096732e+18,-0.0022540087811648846,-0.06851798295974731,0.00017509591998532414
1.7215719047156733e+18,0.0011384037788957357,-0.06431522965431213,0.0018516486743465066
1.7215719047216735e+18,0.002553316066041589,-0.06451886147260666,-0.0011436785571277142
1.7215719047276736e+18,0.00265576783567667,-0.06063005328178406,-0.00379321095533669
1.7215719047336737e+18,-0.0004987092688679695,-0.06205438822507858,0.0025861188769340515
1.7215719047366738e+18,0.00116964359767735,-0.05663493648171425,-0.002141244476661086
1.721571904742674e+18,0.0025270211044698954,-0.05657316744327545,-0.0013471348211169243
1.721571904748674e+18,0.0025155781768262386,-0.055560771375894547,0.0010422118939459324
1.7215719047546742e+18,4.173285196884535e-05,-0.054424796253442764,0.0012318426743149757
1.7215719047606743e+18,-0.0012530074454843998,-0.050031788647174835,-0.00031957277678884566
1.7215719047636744e+18,-0.004074865020811558,-0.047657791525125504,-0.0017720339819788933
1.7215719047696745e+18,-0.0014239493757486343,-0.048097457736730576,-0.0011579509591683745
1.7215719047756746e+18,-0.006013083271682262,-0.044662248343229294,0.0006841057911515236
1.7215719047816748e+18,-0.0017402996309101582,-0.04190526157617569,0.0016146472189575434
1.721571904787675e+18,0.004368143621832132,-0.03597487136721611,-0.0018829177133738995
1.721571904793675e+18,0.0011517726816236973,-0.035151995718479156,0.0007339970907196403
1.7215719047996751e+18,0.0021514371037483215,-0.033587098121643066,-0.00044396010343916714
1.7215719048056753e+18,0.0016885623335838318,-0.027649924159049988,0.00013232530909590423
1.7215719048116754e+18,-0.0007760464213788509,-0.028431307524442673,-6.46171101834625e-05
1.7215719048176755e+18,0.0017964777071028948,-0.02622011862695217,-0.0004936837940476835
1.7215719048236756e+18,-0.0006253165192902088,-0.025353921577334404,-0.0003729150921572
1.7215719048296758e+18,-0.0017803660593926907,-0.014666123315691948,0.0009596104500815272
1.721571904835676e+18,-0.001097845146432519,-0.0054406230337917805,0.0017367525724694133
1.721571904841676e+18,-0.0014281647745519876,0.0062748827040195465,-0.0010028061224147677
1.7215719048476762e+18,0.0007357223657891154,0.0213470458984375,-0.002750995336100459
1.7215719048536763e+18,0.0021695070900022984,0.03440093621611595,0.0013749859062954783
1.7215719048596764e+18,0.0003192006843164563,0.044768378138542175,0.0005537316901609302
1.7215719048656765e+18,2.4382490664720535e-05,0.05203794315457344,-0.00026469971635378897
1.7215719048716767e+18,0.004233235493302345,0.05645391717553139,-0.0018556078430265188
1.7215719048776768e+18,0.002797844586893916,0.05392511934041977,-3.973851562477648e-05
1.721571904883677e+18,-0.0013329070061445236,0.05467872694134712,0.0007769825169816613
1.721571904889677e+18,0.0005727849202230573,0.05309484153985977,-0.0007207124144770205
1.7215719048956772e+18,-0.0007483496447093785,0.05467293784022331,-0.003053790656849742
1.7215719049016773e+18,-0.000620709266513586,0.057126231491565704,-0.0018098531290888786
1.7215719049046774e+18,-0.0001894343877211213,0.05885539948940277,-0.0007717553526163101
1.7215719049106775e+18,-0.0005971902864985168,0.0558602474629879,-0.0002096453681588173
1.7215719049166776e+18,-0.0019080514321103692,0.0653010755777359,0.00018910333164967597
1.7215719049256778e+18,0.0023806756362318993,0.07580544799566269,-0.00013287315960042179
1.721571904931678e+18,0.0016676803352311254,0.07951389998197556,-0.0024634634610265493
1.721571904937678e+18,0.004551154561340809,0.08683283627033234,0.001373001141473651
1.7215719049436782e+18,0.000529045588336885,0.08924862742424011,-0.0012574908323585987
1.7215719049496783e+18,0.000894741911906749,0.08392751961946487,0.00018509011715650558
1.7215719049556785e+18,-0.0014701177133247256,0.08223672956228256,-0.0022161859087646008
1.7215719049616786e+18,-0.0017055983189493418,0.07856371998786926,-0.0006030095973983407
1.7215719049706788e+18,-0.0006598294130526483,0.07487516105175018,-0.0021044639870524406
1.721571904976679e+18,-0.00187340984120965,0.0726536214351654,0.002253719139844179
1.721571904982679e+18,-4.112365422770381e-05,0.07205645740032196,0.002139768097549677
1.7215719049886792e+18,0.002459149109199643,0.07040749490261078,0.0005213586846366525
1.7215719049946793e+18,0.0014179471181705594,0.06879336386919022,0.0009076038841158152
1.7215719049976794e+18,0.0007447919924743474,0.069509357213974,0.00092205690452829
1.7215719050036795e+18,0.0022850485984236,0.07178625464439392,-0.000291493721306324
1.7215719050096796e+18,0.0010240464471280575,0.06764249503612518,-0.0007301375735551119
1.7215719050156797e+18,0.0005738422041758895,0.06436426192522049,0.001068394398316741
1.7215719050216799e+18,0.0010880320332944393,0.06180235743522644,-0.00011296660522930324
1.72157190502768e+18,-0.0007168260053731501,0.05573969706892967,-0.0004859688051510602
1.7215719050336801e+18,-0.0023029563017189503,0.05155037343502045,-0.001922963885590434
1.7215719050396803e+18,0.001211404101923108,0.051246050745248795,0.0022787891793996096
1.7215719050456804e+18,0.0005831022863276303,0.04862132668495178,-0.0045886896550655365
1.7215719050516805e+18,-0.0007582884281873703,0.044450849294662476,-0.0002107194741256535
1.7215719050576806e+18,0.003470210824161768,0.043389104306697845,0.0006738785887137055
1.7215719050636808e+18,0.004057162441313267,0.04032287374138832,7.617720984853804e-05
1.721571905069681e+18,0.002119623124599457,0.03722792863845825,0.0004489704151637852
1.721571905075681e+18,-0.0010201775003224611,0.03854706138372421,-0.004395633470267057
1.7215719050816812e+18,0.0018904486205428839,0.03539483621716499,-0.0012767771258950233
1.7215719050846812e+18,0.0018577566370368004,0.034454964101314545,0.00118936353828758
1.7215719050906813e+18,0.0006931910174898803,0.031338490545749664,0.0005544809391722083
1.7215719050966815e+18,-0.00300328666344285,0.031278982758522034,0.001605633064173162
1.7215719051026816e+18,-2.0377978216856718e-05,0.02948303520679474,-0.0002792223822325468
1.7215719051056817e+18,-0.0009070998639799654,0.02932092919945717,0.0005479781539179385
1.7215719051116818e+18,0.0005094482330605388,0.023411676287651062,-0.0007035159505903721
1.721571905117682e+18,0.0007808572263456881,0.022348904982209206,0.0006548018427565694
1.721571905123682e+18,0.0016246956074610353,0.023398226127028465,-0.0003169121337123215
1.7215719051296822e+18,-0.00010774226393550634,0.020409515127539635,-0.0011808666167780757
1.7215719051356823e+18,-0.0020285523496568203,0.017686598002910614,-0.0018885426688939333
1.7215719051386824e+18,0.00047044266830198467,0.018457695841789246,-0.0004869675321970135
1.7215719051446825e+18,0.002256210194900632,0.013115634210407734,-1.6331032384186983e-05
1.7215719051506826e+18,-0.0004634009092114866,0.013357552699744701,-0.001231087022460997
1.7215719051566828e+18,-0.0011559061240404844,0.011088079772889614,-0.0022185940761119127
1.721571905162683e+18,-0.0031225252896547318,0.011476169340312481,0.001291049411520362
1.721571905168683e+18,-9.13513358682394e-05,0.013386615552008152,-0.0015591303817927837
1.7215719051746831e+18,-0.0022293669171631336,0.011965744197368622,-0.00012449402129277587
1.7215719051806833e+18,-0.001698327949270606,0.009175396524369717,-0.0008826232515275478
1.7215719051866834e+18,-0.0022950205020606518,0.010664010420441628,-0.0005959421978332102
1.7215719051926835e+18,0.0011523471912369132,0.00985150970518589,0.00023952845367603004
1.7215719051986836e+18,0.0003662233939394355,0.0054384078830480576,0.0002077289391309023
1.7215719052046838e+18,0.0007880431367084384,0.002559329615905881,-0.000906582223251462
1.721571905210684e+18,-0.002707146108150482,0.0032299167942255735,-0.00033057734253816307
1.721571905216684e+18,-0.002917506732046604,0.0020136735402047634,0.00044888892443850636
1.7215719052226842e+18,0.00022380496375262737,0.002618595026433468,-0.0018483013845980167
1.7215719052256842e+18,0.0007731817895546556,0.000859737629070878,-0.001660838257521391
1.7215719052316844e+18,-0.0031371479853987694,0.0016215037321671844,0.0009325226419605315
1.7215719052376845e+18,-0.0027978301513940096,0.0029898351058363914,-0.0008715892909094691
1.7215719052436846e+18,-0.0016648720484226942,0.003181951818987727,-0.0008432503091171384
1.7215719052466847e+18,-0.0024199839681386948,0.002505772514268756,-0.0010251069907099009
1.7215719052526848e+18,-0.0014587261248379946,0.001801241422072053,-0.0003394531668163836
1.7215719052556849e+18,-0.0030356356874108315,-0.0003530927933752537,-0.0009918294381350279
1.721571905261685e+18,-0.0008515507797710598,0.0002694540598895401,-1.8722668755799532e-05
1.721571905267685e+18,-0.0046736085787415504,-0.002122650621458888,-0.0016247055027633905
1.7215719052736852e+18,-0.0005437682848423719,-0.001909427810460329,0.0011099227704107761
1.7215719052796854e+18,-0.0002048072055913508,-0.005678355693817139,-0.0020716837607324123
1.7215719052826854e+18,0.002107767155393958,-0.003923145588487387,-0.0002210948441643268
1.7215719052886856e+18,0.0005270864348858595,-0.0021870331838726997,0.0019264877773821354
1.7215719052916856e+18,0.002120319055393338,-0.0012820570264011621,0.0005167507915757596
1.7215719052976858e+18,0.0025853505358099937,-0.00048423686530441046,-0.0005519199767149985
1.721571905303686e+18,0.0021798706147819757,-0.0009352546185255051,0.00010942539665848017
1.721571905309686e+18,0.00391229847446084,0.0025280360132455826,0.0016926947282627225
1.7215719053156861e+18,0.001742004882544279,-0.0008512154454365373,-0.0023612985387444496
1.7215719053216863e+18,0.0005281215417198837,0.0009650479769334197,-0.0020634732209146023
1.7215719053276864e+18,-0.0007991328602656722,0.0017561144195497036,-0.0021215842571109533
1.7215719053336865e+18,-0.0018423710716888309,-0.002018648199737072,-0.0010142398532480001
1.7215719053396867e+18,-0.003972988575696945,-0.0030792756006121635,0.000783307827077806
1.7215719053456868e+18,-0.0018262206576764584,-0.0023267692886292934,-0.0024416125379502773
1.721571905351687e+18,-0.002271078061312437,-0.003118733875453472,-0.0014659828739240766
1.721571905357687e+18,0.0010986804263666272,-0.0011666769860312343,-0.00011052441550418735
1.7215719053636872e+18,0.0033260041382163763,-0.0019696438685059547,-0.0016182170948013663
1.7215719053696873e+18,0.0024932436645030975,-0.004409491084516048,-0.00011497188825160265
1.7215719053756874e+18,0.0002783640520647168,-0.0011260214960202575,-0.0020465138368308544
1.7215719053816876e+18,0.004752123728394508,-0.0021996747236698866,-0.0003579690819606185
1.7215719053846876e+18,0.002239983296021819,0.0006199906347319484,-0.0023214060347527266
1.7215719053906877e+18,-0.0010907872347161174,-0.0004103569663129747,-0.0027911567594856024
1.721571905396688e+18,-0.0024827909655869007,-0.0006075894925743341,0.0012909483630210161
1.721571905402688e+18,-0.0037498013116419315,0.00035690280492417514,-0.0007410438265651464
1.721571905408688e+18,-0.0035617961548268795,-0.0003539989120326936,-0.0009645756799727678
1.7215719054146883e+18,-0.0031425044871866703,-0.0014861776726320386,0.0008348379051312804
1.7215719054206884e+18,-0.00340637331828475,-0.002125662751495838,-0.003463110886514187
1.7215719054266885e+18,0.0015576150035485625,-0.003735126229003072,-0.0008765619131736457
1.7215719054296886e+18,0.001569965505041182,-0.006328232120722532,0.001968705328181386
1.7215719054356887e+18,0.0022016316652297974,-0.0032992500346153975,-0.002000718843191862
1.7215719054416888e+18,0.0001880512572824955,-0.0035720989108085632,-0.00027383907581679523
1.721571905447689e+18,0.005211251322180033,-0.0038354587741196156,0.0011454189661890268
1.721571905453689e+18,0.002469123573973775,-0.0010688803158700466,-0.001980235567316413
1.7215719054566892e+18,0.0010817092843353748,-0.0007458720356225967,0.0010655627120286226
1.7215719054626893e+18,-0.0015892868395894766,-0.000356214412022382,-0.0019846733193844557
1.7215719054686894e+18,-0.003235229756683111,0.0026490259915590286,-0.002906650071963668
1.7215719054746895e+18,-0.00500247348099947,-0.0020080646499991417,-0.001271416200324893
1.7215719054776896e+18,-0.0022953571751713753,0.0010515705216675997,0.000684234022628516
1.7215719054836897e+18,-0.0016251633642241359,-0.0006390673806890845,0.0020953714847564697
1.7215719054896899e+18,-8.831790182739496e-05,-0.0016639642417430878,-0.0019758143462240696
1.72157190549269e+18,-0.002695361152291298,-0.0009603637154214084,-0.00018318189540877938
1.72157190549869e+18,0.0010328784119337797,-0.0023029702715575695,-0.001511902897618711
1.7215719055046902e+18,0.00429663946852088,-0.0007776770507916808,0.0013247261522337794
1.7215719055106903e+18,0.003113074926659465,-0.0034414068795740604,-0.002212749095633626
1.7215719055166904e+18,0.002236085943877697,-0.0006194188608787954,-0.0014662161702290177
1.7215719055226906e+18,0.00269734556786716,-0.0028600271325558424,-0.0012808031169697642
1.7215719055286907e+18,-0.0033805156126618385,-0.0003428011841606349,-0.0007113192696124315
1.7215719055346908e+18,-0.0019298061961308122,0.0023353949654847383,0.0016378742875531316
1.721571905540691e+18,-0.0039125047624111176,0.0011132456129416823,0.001276481430977583
1.721571905546691e+18,-0.006086571142077446,0.0019220622489228845,-0.0011897545773535967
1.7215719055526912e+18,-0.005623237229883671,0.0032505951821804047,0.0014503448037430644
1.7215719055586913e+18,-0.002285977825522423,0.000625544402282685,-0.001379586523398757
1.7215719055646915e+18,-0.0006936946883797646,0.000726236030459404,-0.0008535503875464201
1.7215719055736916e+18,0.0020786577370017767,-0.0009502171305939555,0.0010362125467509031
1.7215719055796918e+18,0.004756640177220106,-0.0010095174657180905,-0.003027900354936719
1.721571905585692e+18,0.0030994750559329987,-0.001103903166949749,-0.0016426118090748787
1.721571905588692e+18,0.004830725025385618,-0.0016346573829650879,-0.00016731428331695497
1.721571905594692e+18,0.0039032234344631433,-1.0465097147971392e-05,-0.0014512757770717144
1.7215719056006922e+18,0.0004934107419103384,0.000473668216727674,0.002422008663415909
1.7215719056066924e+18,-0.0010572763858363032,0.0009545499924570322,-0.0019540332723408937
1.7215719056126925e+18,-0.001988891512155533,0.0015401463024318218,-0.0007008375832810998
1.7215719056186926e+18,-0.0025986353866755962,-0.0009261971572414041,-0.0023435039911419153
1.7215719056246927e+18,-0.0042031495831906796,-0.0005511479685083032,-0.004558407701551914
1.7215719056306929e+18,-0.001037949463352561,-0.004521127790212631,0.0009487419156357646
1.721571905636693e+18,5.893688648939133e-05,0.00027204270008951426,-0.00031990010756999254
1.721571905642693e+18,0.004993676207959652,4.2465515434741974e-05,-0.000801342015620321
1.7215719056486932e+18,0.0019363844767212868,0.0001410219119861722,-0.0010895307641476393
1.7215719056546934e+18,0.005760551895946264,-0.0004466779064387083,0.0006652201409451663
1.7215719056606935e+18,0.00539842015132308,0.00013894750736653805,-0.003267792984843254
1.7215719056636936e+18,0.004764406941831112,0.0001657953835092485,-0.000272690987912938
1.7215719056696937e+18,0.00737729761749506,0.0006724265404045582,-0.0003696306957863271
1.7215719056756938e+18,0.0008750332053750753,0.0015375184593722224,-3.116400330327451e-05
1.721571905678694e+18,0.001146719790995121,-0.0008018537191674113,0.002082470105960965
1.721571905684694e+18,-0.0003190921852365136,0.0005302366334944963,-0.0013473938452079892
1.7215719056906941e+18,-0.0007142999093048275,-0.000993560068309307,0.0019022980704903603
1.7215719056936942e+18,-0.004597420338541269,-0.002323778811842203,-0.000535561062861234
1.7215719056996943e+18,-0.001258093398064375,0.0017001330852508545,-0.0006458373973146081
1.7215719057056945e+18,-0.0036577170249074697,-0.001043102703988552,-0.0009862325387075543
1.7215719057116946e+18,-0.0019924892112612724,-0.0006733169429935515,0.0020753536373376846
1.7215719057176947e+18,0.0010013252031058073,-0.0009977611480280757,0.0010382814798504114
1.7215719057236948e+18,0.0023170062340795994,-0.001440902124159038,0.0006310513708740473
1.721571905729695e+18,0.0043200720101594925,-0.00358777423389256,-0.0015697467606514692
1.721571905735695e+18,0.0065428726375103,0.002977795200422406,-0.0018577877199277282
1.7215719057416952e+18,0.005003782920539379,-0.002060940256342292,-0.0021302872337400913
1.7215719057476954e+18,0.00223134970292449,0.0008119819685816765,-0.0012555327266454697
1.7215719057536955e+18,-0.00035158212995156646,0.0008740617195144296,0.0019607222639024258
1.7215719057596956e+18,-0.0012208246625959873,0.002305750735104084,-0.002683863043785095
1.7215719057656957e+18,-0.003293378045782447,0.0018898402340710163,-0.0001005377562250942
1.7215719057716959e+18,-0.00035286927595734596,-0.0004162968834862113,-0.00022024710779078305
1.721571905777696e+18,-0.00044837850145995617,0.002387379528954625,-0.0031698024831712246
1.7215719057836961e+18,-0.0002640170860104263,-0.0015928088687360287,0.0011644717305898666
1.7215719057896963e+18,-0.0009575702133588493,-0.0006404041778296232,-0.0011868614237755537
1.7215719057956964e+18,-0.0009549187961965799,-0.0013492036378011107,0.0008826465345919132
1.7215719058016965e+18,0.005574597045779228,0.0008452557376585901,0.0024689631536602974
1.7215719058076966e+18,0.0008400403894484043,0.0017276308499276638,-0.0028949608094990253
1.7215719058136968e+18,0.0008692336268723011,0.0016330424696207047,-0.000531533791217953
1.721571905819697e+18,0.004997552372515202,0.0014110358897596598,-0.0006340349791571498
1.721571905825697e+18,0.0027835373766720295,-0.0007307728519663215,-0.0029165749438107014
1.7215719058316972e+18,0.0029140666592866182,0.00011178519343957305,-0.0031670392490923405
1.7215719058406973e+18,0.0010562423849478364,-0.002750108018517494,0.0015115730930119753
1.7215719058466975e+18,-0.00028485365328378975,-0.0007161133689805865,-0.0009158164029940963
1.7215719058526976e+18,-0.0017683138139545918,-0.0022131509613245726,0.002091263188049197
1.7215719058556977e+18,-0.0008723300416022539,-0.004940670449286699,-0.0008489085012115538
1.7215719058616978e+18,-0.002103179693222046,0.0016039267648011446,-0.00025772981462068856
1.721571905867698e+18,-0.0013010407565161586,-0.000245864997850731,-0.0028747599571943283
1.721571905873698e+18,-0.0009570566471666098,0.002541541587561369,0.0022454236168414354
1.721571905876698e+18,-0.0032415122259408236,0.0011814315803349018,0.0001733618846628815
1.7215719058826982e+18,-0.0024703957606106997,0.006525994278490543,0.0009344116551801562
1.7215719058886984e+18,0.001475116005167365,0.0034070550464093685,0.0007349626976065338
1.7215719058946985e+18,-0.0020419450011104345,-0.000957910786382854,-0.0010588990990072489
1.7215719059006986e+18,0.0004485545214265585,-0.0016714412486180663,0.00038243859307840466
1.7215719059036987e+18,-0.0007938638445921242,-0.001547167543321848,0.0006232265150174499
1.7215719059096988e+18,-0.001490672118961811,-0.0020117680542171,0.00038700399454683065
1.721571905915699e+18,-0.00018417256069369614,0.00020346714882180095,-0.0012767522130161524
1.721571905918699e+18,-0.0014270457904785872,-0.0019266377203166485,-0.0007324357866309583
1.7215719059246991e+18,-5.058581882622093e-05,-0.00028463732451200485,0.000969950167927891
1.7215719059306993e+18,0.0004642008279915899,0.0013163393596187234,-0.0021532229147851467
1.7215719059366994e+18,-0.0010085474932566285,0.0038244007155299187,0.0029305864591151476
1.7215719059426995e+18,0.0016654913779348135,0.0022803223691880703,-0.0011590684298425913
1.7215719059486996e+18,-0.0010832507396116853,0.0011463522678241134,-0.0004926961846649647
1.7215719059546998e+18,0.000321875762892887,0.004897361621260643,-0.00025164426187984645
1.7215719059607e+18,-3.114604623988271e-05,0.0007197620579972863,-0.0029883296228945255
1.7215719059697e+18,0.001582033815793693,6.618021870963275e-05,0.0002559382119216025
1.7215719059757002e+18,0.0011777569307014346,-0.001209985581226647,-0.003914955072104931
1.7215719059817004e+18,-0.00011225495836697519,-0.0024161324836313725,-0.00016997306374832988
1.7215719059877005e+18,0.0006747736479155719,-0.0012373703066259623,-0.002551910001784563
1.7215719059937006e+18,-0.0015012077055871487,-0.0018487450433894992,0.0012975662248209119
1.7215719059997007e+18,-0.0014041609829291701,-0.0006664187530986965,-0.0034218209329992533
1.7215719060057009e+18,0.00016652792692184448,2.1301122615113854e-05,-0.0006106583750806749
1.721571906011701e+18,-0.0008395604672841728,-0.0024079992435872555,-0.00019738689297810197
1.721571906017701e+18,-0.0010616069193929434,0.0014549772022292018,-0.0006967298686504364
1.7215719060237012e+18,-0.0024419294204562902,-0.0005531328497454524,-0.0012198574841022491
1.7215719060267013e+18,0.0021838636603206396,0.0028057347517460585,-0.00019421259639784694
1.7215719060357015e+18,0.0026394049637019634,0.002859680447727442,-0.0004770588129758835
1.7215719060387016e+18,0.00029831158462911844,-0.00013846962247043848,-0.0007172325858846307
1.7215719060447017e+18,-1.5134806744754314e-05,0.003381160320714116,0.0008322917856276035
1.721571906053702e+18,0.00200014840811491,0.0022934600710868835,-0.0012883919989690185
1.721571906059702e+18,-0.00034506735391914845,-0.0018670683493837714,-0.0011595706455409527
1.7215719060657021e+18,0.004419402219355106,-0.0010155679192394018,-0.0003624982200562954
1.7215719060717023e+18,0.00013176468200981617,0.00039136424311436713,-0.0004205180739518255
1.7215719060747023e+18,0.0014042514376342297,0.0005897351657040417,-1.4820427168160677e-05
1.7215719060807025e+18,0.0014104364672675729,0.0032875300385057926,-0.00061325280694291
1.7215719060867026e+18,-0.000698751478921622,0.0017766144592314959,0.0017494161147624254
1.7215719060927027e+18,0.0031278044916689396,0.003973512910306454,-0.000183688331162557
1.7215719060987028e+18,-0.0013915244489908218,0.001570334774442017,-0.0003561122575774789
1.721571906104703e+18,-0.0001422092318534851,-0.00043106754310429096,0.0012995197903364897
1.721571906110703e+18,0.0020598096307367086,0.0012184936786070466,-0.0028508398681879044
1.7215719061167032e+18,-0.0018770110327750444,-0.0011926295701414347,-0.0011111322091892362
1.7215719061227034e+18,0.0012542803306132555,-0.0008135417010635138,0.00026820413768291473
1.7215719061257034e+18,0.00018233606533613056,-0.0020155049860477448,0.0013527341652661562
1.7215719061317036e+18,-0.0023883874528110027,0.0003679610090330243,0.0007783994078636169
1.7215719061407037e+18,0.003806747030466795,-0.0006263424875214696,-0.0009352676570415497
1.7215719061437038e+18,0.0013539815554395318,0.000158758950419724,-0.0025353541132062674
1.721571906149704e+18,0.002229441422969103,-0.0025478380266577005,0.0008431058959104121
1.721571906155704e+18,0.003131429199129343,0.00028297939570620656,-0.00012310358579270542
1.7215719061617042e+18,0.0013256380334496498,0.00026553700445219874,-0.002744000870734453
1.7215719061677043e+18,0.0025848811492323875,-0.0013159773079678416,-0.0006040072184987366
1.7215719061737044e+18,0.004327092319726944,0.002729491563513875,-0.001063284813426435
1.7215719061797046e+18,-0.0008290684781968594,0.00269801402464509,-0.0017924848943948746
1.7215719061857047e+18,-0.0017293283017352223,-0.00046700460370630026,-0.0019285852322354913
1.7215719061917048e+18,-0.0012663372326642275,0.001972343772649765,-0.0020182153675705194
1.721571906197705e+18,-0.0026485337875783443,0.0005544991581700742,-0.002820525784045458
1.721571906203705e+18,-0.000901330669876188,7.347372593358159e-05,-0.003112486796453595
1.7215719062097052e+18,0.0006770540494471788,-0.0010420172475278378,0.00020783540094271302
1.7215719062157053e+18,-0.0005911242915317416,0.00016279486590065062,0.002484278753399849
1.7215719062217055e+18,0.0016671600751578808,0.00010695011587813497,-0.0017397502670064569
1.7215719062277056e+18,0.0008227574289776385,0.00015688745770603418,6.291520548984408e-06
1.7215719062337057e+18,-0.0008289067773148417,0.0031829916406422853,0.003835095092654228
1.7215719062397059e+18,-0.0003037581918761134,0.0003537634329404682,0.0007483764202333987
1.721571906245706e+18,-0.0012826320016756654,0.004124999977648258,-0.0008107424946501851
1.7215719062547062e+18,-0.004454580135643482,0.0003984146751463413,0.0009820752311497927
1.7215719062607063e+18,-0.004646087531000376,0.00010508086415939033,-0.0003626387915574014
1.7215719062637064e+18,-0.0032828436233103275,0.0003490344970487058,-0.002777261193841696
1.7215719062697065e+18,-0.0031199362128973007,-0.0008707401575520635,-0.0003671265149023384
1.7215719062757066e+18,-0.00020290887914597988,0.0013687163591384888,0.0016900389455258846
1.7215719062817068e+18,0.0014757197350263596,-0.001875334419310093,-0.0032692388631403446
1.721571906287707e+18,0.0020886624697595835,-0.0004054288729093969,-0.0028947945684194565
1.721571906293707e+18,0.004121777601540089,0.0028315866366028786,0.00013510877033695579
1.7215719062997071e+18,0.003855884075164795,-0.0007061384967528284,0.0015043620951473713
1.7215719063057073e+18,0.0005961760762147605,0.0002289311814820394,-0.0023414241150021553
1.7215719063087073e+18,0.0010735352989286184,-0.0013615033822134137,-0.0008237736765295267
1.7215719063147075e+18,-0.0003476825659163296,0.0013665491715073586,0.0019407564541324973
1.7215719063207076e+18,-0.003350431565195322,0.0003555926086846739,-0.00028156768530607224
1.7215719063267077e+18,-0.0034064166247844696,0.0011468760203570127,-0.0008820896036922932
1.7215719063327078e+18,-0.0005285800434648991,-0.00038303161272779107,1.1170224752277136e-05
1.721571906338708e+18,-0.003353619948029518,-0.0009268009453080595,0.0008262087940238416
1.721571906344708e+18,-0.001050052815116942,0.002953651361167431,-0.002389420522376895
1.7215719063507082e+18,-0.003553092945367098,0.001767411595210433,-0.003367132041603327
1.7215719063567084e+18,0.0018584621138870716,-0.0012065775226801634,-7.543168612755835e-05
1.7215719063627085e+18,0.00033197226002812386,-0.0011640784796327353,0.0010665785521268845
1.7215719063687086e+18,0.00454725231975317,0.0034954380244016647,-0.0003094121639151126
1.7215719063747087e+18,0.0037222516257315874,-0.0012527646031230688,-0.003290335414931178
1.7215719063807089e+18,0.003922510892152786,-0.00048604715266264975,0.0010690041817724705
1.721571906386709e+18,-0.0013266836758702993,0.000691775290761143,0.00035727492650039494
1.721571906392709e+18,-0.0006233981112018228,-0.0020656674169003963,-0.0006323984125629067
1.7215719063987092e+18,-0.0021257782354950905,0.0007754448452033103,0.003051459789276123
1.7215719064017093e+18,0.0004889869596809149,0.0022736680693924427,0.0001539720979053527
1.7215719064077094e+18,-0.00346756842918694,0.00186041253618896,-0.0020749487448483706
1.7215719064137096e+18,-0.002867775969207287,0.002804327290505171,-0.001178846461698413
1.7215719064197097e+18,0.0015246369875967503,-0.003011200577020645,-0.0018449651543051004
1.7215719064257098e+18,0.0022194497287273407,0.002330589108169079,-0.002557250903919339
1.72157190642871e+18,0.0022580143995583057,0.004397881682962179,0.0020985195878893137
1.72157190643471e+18,0.005585269071161747,0.003127594478428364,0.0006367646856233478
1.7215719064407101e+18,0.0039020779076963663,-0.0015643525402992964,8.234864799305797e-05
1.7215719064467103e+18,0.004335740581154823,0.001486847992055118,-0.0014453496551141143
1.7215719064527104e+18,6.76233321428299e-05,0.0016959616914391518,-0.0002143193851225078
1.7215719064557105e+18,-0.00013980106450617313,0.0019041032064706087,-0.0005844623665325344
1.7215719064617106e+18,0.0019267878960818052,0.004325123503804207,-0.0009584680665284395
1.7215719064647107e+18,-0.0010643383720889688,-0.0017772630089893937,0.00046641085646115243
1.7215719064707108e+18,-0.0006920215673744678,-7.539533544331789e-05,-0.00179821508936584
1.721571906476711e+18,-0.0008495168294757605,0.002448699902743101,0.0026927858125418425
1.721571906482711e+18,-0.0003771255724132061,0.00022341019939631224,0.0018103404436260462
1.7215719064917112e+18,-0.0023930876050144434,0.0027774018235504627,-0.00241663446649909
1.7215719064947113e+18,0.00046405423199757934,0.002276125131174922,0.0037690766621381044
1.7215719065007114e+18,0.001618164242245257,-2.166791819036007e-05,0.0012988271191716194
1.7215719065067116e+18,0.0007216703961603343,-0.0014117774553596973,0.0006498120492324233
1.7215719065127117e+18,0.0010828503873199224,-0.0004612909979186952,0.00013918502372689545
1.7215719065187118e+18,0.00041633518412709236,0.0008179551805369556,0.001435982994735241
1.721571906524712e+18,-6.639747880399227e-05,-0.0006122477352619171,-0.0013281874125823379
1.721571906530712e+18,2.142030280083418e-05,0.0022195603232830763,0.0018275106558576226
1.7215719065367122e+18,-0.0012390916235744953,-0.0017408926505595446,-0.0008966522291302681
1.7215719065397123e+18,0.0015678363852202892,0.003035212168470025,-0.002104608342051506
1.7215719065457124e+18,0.0006871197838336229,5.660089664161205e-05,0.0003455297264736146
1.7215719065517125e+18,-0.0005875356728211045,0.0017280165338888764,-0.00363388704136014
1.7215719065577126e+18,0.004419614095240831,-7.12772598490119e-05,-0.0013932258589193225
1.7215719065637128e+18,0.002698410302400589,-0.0002290284028276801,-0.0011854228796437383
1.7215719065667128e+18,0.0028872694820165634,0.0020060697570443153,0.0006535220891237259
1.721571906572713e+18,0.0017326704692095518,0.00026724033523350954,-0.0011781452922150493
1.721571906578713e+18,0.0018949939403682947,0.0012821696000173688,0.0001447246177121997
1.7215719065847132e+18,0.000310032453853637,0.00017613482486922294,-0.0013367350911721587
1.7215719065907133e+18,0.001110452227294445,0.000847296672873199,0.00037957174936309457
1.7215719065967135e+18,0.0015046827029436827,0.0002566580078564584,0.00019069292466156185
1.7215719066027136e+18,-0.0020268126390874386,-0.0004926765686832368,0.000741457799449563
1.7215719066087137e+18,-0.0033147598151117563,0.000945377629250288,-0.0017049196176230907
1.7215719066147139e+18,0.0002731982967816293,-0.001114326762035489,-0.0013103302335366607
1.721571906620714e+18,0.000842181034386158,0.003326189937070012,-0.0025566741824150085
1.721571906623714e+18,-0.0005554098170250654,0.0045884824357926846,0.0005868278676643968
1.7215719066297142e+18,0.00012194504961371422,0.0018380200490355492,-0.0007873012218624353
1.7215719066357143e+18,0.0006176554597914219,-0.000475939130410552,0.0005932983476668596
1.7215719066417144e+18,0.0029679860454052687,0.001466014189645648,9.379209950566292e-05
1.7215719066477146e+18,-0.0005226510111242533,-0.008605971932411194,3.881572047248483e-05
1.7215719066507146e+18,0.002972431480884552,-0.010535839945077896,-0.0008283441420644522
1.7215719066567148e+18,0.0014610008802264929,-0.01547228079289198,-0.0009275057818740606
1.7215719066597148e+18,0.00422831904143095,-0.01802259497344494,-0.0028587989509105682
1.721571906665715e+18,0.0006536515429615974,-0.022174499928951263,0.0029127574525773525
1.721571906668715e+18,0.001865432714112103,-0.02435811050236225,-0.0003650868311524391
1.7215719066747151e+18,0.0037010270170867443,-0.0271673034876585,-0.0019112053560093045
1.7215719066807153e+18,-0.0005466592265293002,-0.026192912831902504,-0.00098755385261029
1.7215719066867154e+18,-0.0016338118584826589,-0.03118048422038555,-0.0003028379287570715
1.7215719066927155e+18,-0.0021683131344616413,-0.027691219002008438,-0.00027990801027044654
1.7215719066987156e+18,-0.0010700053535401821,-0.03225306048989296,0.00013252260396257043
1.7215719067047158e+18,-0.0008213183027692139,-0.02978816255927086,0.0024871542118489742
1.721571906710716e+18,0.0009496943093836308,-0.03283580765128136,-0.002392637310549617
1.721571906716716e+18,0.0005383894313126802,-0.0322088748216629,0.001718454877845943
1.7215719067227162e+18,0.0021126673091202974,-0.03518621250987053,-0.0014595414977520704
1.7215719067287163e+18,0.004792014602571726,-0.0379006527364254,-0.00017663408652879298
1.7215719067347164e+18,0.003482600674033165,-0.0400698222219944,-0.002107290318235755
1.7215719067407165e+18,0.0009909514337778091,-0.038768619298934937,0.0014563186559826136
1.7215719067467167e+18,0.005357909481972456,-0.038262706249952316,-0.0012661224463954568
1.7215719067527168e+18,-0.004181517753750086,-0.0386277474462986,0.0011885808780789375
1.721571906758717e+18,-0.0016812103567644954,-0.03949077054858208,-0.003655587323009968
1.721571906761717e+18,-0.006771482061594725,-0.03530745580792427,-0.003597342874854803
1.721571906767717e+18,-0.003568272339180112,-0.03481478616595268,0.0033938544802367687
1.7215719067737172e+18,-0.003049327991902828,-0.03407754376530647,-0.0017019504448398948
1.7215719067797174e+18,9.459094144403934e-05,-0.03578854724764824,-0.001488146954216063
1.7215719067857175e+18,0.001349055441096425,-0.03542766720056534,-0.0003406079486012459
1.7215719067887176e+18,0.0001624306896701455,-0.03577033057808876,0.0003989776596426964
1.7215719067947177e+18,0.001041604089550674,-0.03639606386423111,-0.0005228669033385813
1.7215719068007178e+18,0.0036482405848801136,-0.03756662458181381,-0.0007360400632023811
1.721571906806718e+18,0.0021339082159101963,-0.043628886342048645,-0.0014712164411321282
1.721571906812718e+18,0.0012472947128117085,-0.057265348732471466,-0.004525030963122845
1.7215719068157181e+18,-0.0011068116873502731,-0.05933111906051636,0.0011798841878771782
1.7215719068217183e+18,-0.0010440306505188346,-0.07148933410644531,-0.000309691415168345
1.7215719068277184e+18,-0.002857559360563755,-0.08415521681308746,-0.0016108279814943671
1.7215719068337185e+18,-0.0018804857973009348,-0.09167271107435226,-0.001240442623384297
1.7215719068457188e+18,-0.0031358988489955664,-0.09858930855989456,0.002489997074007988
1.721571906851719e+18,0.0008835457265377045,-0.09349727630615234,-0.0019038303289562464
1.721571906857719e+18,-0.0026386724784970284,-0.08894454687833786,0.0028989107813686132
1.7215719068637192e+18,-0.00015859334962442517,-0.0863739624619484,-0.001260105986148119
1.7215719068697193e+18,0.0018107432406395674,-0.0807025134563446,0.0007027387036941946
1.7215719068757194e+18,-0.00039519317215308547,-0.08018407225608826,-0.0007862517959438264
1.7215719068817196e+18,0.002350329654291272,-0.08019173890352249,-0.00047351335524581373
1.7215719068847196e+18,-0.001204390893690288,-0.08130467683076859,-0.0025651243049651384
1.7215719068907197e+18,-0.002160071860998869,-0.08505351841449738,0.0007106904522515833
1.72157190689672e+18,0.0004896915052086115,-0.08697409927845001,0.0017358824843540788
1.72157190690272e+18,-0.00032621767604723573,-0.09015025198459625,0.0007593962945975363
1.72157190690872e+18,0.0005930457846261561,-0.0890510156750679,0.0014628610806539655
1.7215719069147203e+18,0.0015272864839062095,-0.08684662729501724,0.0008384218672290444
1.7215719069207204e+18,-3.9486505556851625e-05,-0.08363036811351776,0.00015999679453670979
1.7215719069267205e+18,0.003411803627386689,-0.08049541711807251,0.00018677313346415758
1.7215719069327206e+18,-0.001544514438137412,-0.0777110680937767,0.0007184084388427436
1.7215719069387208e+18,0.0010530904401093721,-0.07437167316675186,-0.00037056917790323496
1.7215719069417208e+18,0.00018768501468002796,-0.07222513854503632,0.002131570130586624
1.721571906947721e+18,-0.0009303475962951779,-0.06750001013278961,-0.0017281095497310162
1.721571906953721e+18,-0.0003965706564486027,-0.06579313427209854,2.2360356524586678e-05
1.7215719069597212e+18,0.0005472138291224837,-0.06773537397384644,-0.00208263355307281
1.7215719069657213e+18,0.0005293411668390036,-0.062901072204113,0.00022086611716076732
1.7215719069717215e+18,0.0004591895267367363,-0.06414850801229477,-0.002521269954741001
1.7215719069777216e+18,0.001263358979485929,-0.06401355564594269,0.0020611868239939213
1.7215719069837217e+18,-0.0007751185912638903,-0.058716703206300735,0.000335102085955441
1.7215719069897219e+18,-0.0009110395330935717,-0.05942363291978836,0.0004595853388309479
1.721571906995722e+18,-0.0004404220380820334,-0.05757031589746475,0.001208719564601779
1.721571907001722e+18,0.0015342339174821973,-0.058167919516563416,-0.0002284457441419363
1.7215719070047222e+18,-0.0008340222411789,-0.057824090123176575,0.0005193513934500515
1.7215719070107223e+18,-0.0022984251845628023,-0.05892746150493622,0.001521622878499329
1.7215719070167224e+18,0.0020547194872051477,-0.05953991785645485,-0.001964265713468194
1.7215719070227226e+18,-0.002239471534267068,-0.060956116765737534,-0.0029785074293613434
1.7215719070287227e+18,0.0013408686500042677,-0.05621669068932533,0.0014141376595944166
1.7215719070347228e+18,7.424171781167388e-05,-0.053767893463373184,0.0029171351343393326
1.721571907040723e+18,0.001479029655456543,-0.05103304982185364,-0.001135359751060605
1.721571907046723e+18,0.0020625959150493145,-0.0464397557079792,-0.0021506641060113907
1.7215719070527232e+18,-0.0008616019622422755,-0.04391956329345703,-0.0012412661453709006
1.7215719070587233e+18,0.0033157875295728445,-0.0446186326444149,-0.0006823543226346374
1.7215719070647235e+18,4.1549530578777194e-05,-0.04285295307636261,-0.0018662346992641687
1.7215719070677235e+18,-0.0003632679581642151,-0.03943319246172905,-0.00021733116591349244
1.7215719070737236e+18,0.0024305314291268587,-0.04051235318183899,0.00023111567134037614
1.7215719070767237e+18,0.0005518031539395452,-0.04020560532808304,-0.0023319446481764317
1.7215719070827238e+18,-0.0019017112208530307,-0.0363599956035614,-0.002577731851488352
1.721571907088724e+18,-0.0016230969922617078,-0.03797221556305885,0.0016422198386862874
1.721571907094724e+18,-0.002946628723293543,-0.03582339733839035,0.0014446681598201394
1.7215719071007242e+18,-0.002694917842745781,-0.03349482640624046,8.825806435197592e-05
1.7215719071067244e+18,0.001915582688525319,-0.02976309321820736,-0.0017549379263073206
1.7215719071127245e+18,-0.00202871672809124,-0.02752752974629402,-0.0011696277651935816
1.7215719071187246e+18,0.0001040103379637003,-0.0266707893460989,-0.002247037598863244
1.7215719071247247e+18,0.0002425012644380331,-0.02416820079088211,-6.318243686109781e-05
1.7215719071307249e+18,0.002595264930278063,-0.023134533315896988,2.7226516976952553e-05
1.721571907136725e+18,0.0033291648142039776,-0.022486582398414612,0.0002176478155888617
1.721571907142725e+18,0.002741270000115037,-0.020185211673378944,0.003325204597786069
1.7215719071457252e+18,-0.0002110401401296258,-0.01707644760608673,0.0006331823533400893
1.7215719071517253e+18,0.0003262395621277392,-0.019712192937731743,0.0019012470729649067
1.7215719071577254e+18,-0.004363452084362507,-0.014460839331150055,-0.0010181744582951069
1.7215719071637256e+18,-0.0010084284003823996,-0.018445484340190887,-0.001654559513553977
1.7215719071697257e+18,-0.003093926003202796,-0.013140209950506687,-0.0004906330141238868
1.7215719071727258e+18,-0.003691914491355419,-0.015117732807993889,-0.0037828143686056137
1.721571907178726e+18,-0.0018447034526616335,-0.011903376318514347,-0.004549218807369471
1.721571907184726e+18,0.0017918781377375126,-0.008824175223708153,-0.0012428185436874628
1.7215719071907261e+18,0.0017983228899538517,-0.008953233249485493,-0.0026436939369887114
1.7215719071967263e+18,0.00258949538692832,-0.010146409273147583,-0.0026320593897253275
1.7215719071997263e+18,0.0060193887911736965,-0.010133124887943268,-0.0009384221048094332
1.7215719072057265e+18,0.002170771127566695,-0.004964662250131369,0.002496617380529642
1.7215719072117266e+18,0.0036066542379558086,-0.005432666279375553,-0.003913271706551313
1.7215719072177267e+18,0.0005819454090669751,-0.007786256726831198,-0.0008191009401343763
1.7215719072207268e+18,0.0003420936409384012,-0.0037132324650883675,-0.00014340935740619898
1.721571907226727e+18,-0.0041624391451478004,-0.006257675122469664,-0.0022748904302716255
1.721571907232727e+18,0.0013145094271749258,-0.0033726885449141264,-0.0024635321460664272
1.7215719072387272e+18,0.0023952347692102194,-0.006439859978854656,-0.0011673960834741592
1.7215719072447273e+18,-0.0008114938391372561,-0.004055486060678959,-0.001941293478012085
1.7215719072507274e+18,0.0002984879829455167,-0.004923240281641483,0.0018362330738455057
1.7215719072597276e+18,0.0039959317073225975,-0.0046474989503622055,-0.0007086024852469563
1.7215719072657277e+18,0.000927843211684376,-0.0007183222332969308,0.0015145104844123125
1.7215719072687278e+18,0.00045467200106941164,-0.00459525641053915,-0.0006151571869850159
1.721571907274728e+18,0.002074255608022213,-0.005148257128894329,0.0002512043574824929
1.721571907280728e+18,-0.0029009361751377583,0.0004059926432091743,-0.0024335968773812056
1.7215719072867282e+18,-0.003682886017486453,0.001874373177997768,0.001972680678591132
1.7215719072897283e+18,-0.0024970408994704485,-0.0013036259915679693,-0.0032313985284417868
1.7215719072957284e+18,-6.889182259328663e-05,0.0021014928352087736,-0.0031370758078992367
1.7215719073017285e+18,-0.003162381472066045,0.0026526888832449913,-0.0005113516235724092
1.7215719073047286e+18,0.0007494816672988236,0.0018232136499136686,-0.0007598125957883894
1.7215719073107287e+18,0.002321250969544053,0.0038499620277434587,-0.0031274547800421715
1.7215719073167288e+18,0.0038360673934221268,0.005208715796470642,0.0014427790883928537
1.721571907319729e+18,0.0022845028433948755,0.005307504907250404,-0.0016711069038137794
1.721571907325729e+18,0.002205910859629512,0.00684117479249835,-0.0025620751548558474
1.721571907328729e+18,0.0008396992925554514,0.010613476857542992,-0.0028619454242289066
1.7215719073347292e+18,0.002634208183735609,0.011819751001894474,-0.0016989309806376696
1.7215719073407293e+18,-0.0023293730337172747,0.014250029809772968,0.0017546501476317644
1.7215719073467295e+18,0.0007232306525111198,0.015646133571863174,-0.001511339214630425
1.7215719073527296e+18,-0.0005562365986406803,0.01673862524330616,-0.0009019125136546791
1.7215719073587297e+18,-0.001609771978110075,0.01697898656129837,-0.0011022971011698246
1.7215719073647299e+18,-0.0013120699441060424,0.01667564921081066,0.0013710509520024061
1.72157190737073e+18,0.001338541624136269,0.018327394500374794,-0.0014042200054973364
1.72157190737373e+18,0.0011077004019171,0.018955757841467857,-0.00038662817678414285
1.7215719073827302e+18,0.0003933179541490972,0.018828894942998886,-0.0033171435352414846
1.7215719073857303e+18,0.002157623413950205,0.019809840247035027,-0.0011566956527531147
1.7215719073947305e+18,-0.001365265459753573,0.0301956944167614,2.181832678616047e-05
1.7215719073977306e+18,-0.0008334685117006302,0.035232819616794586,0.0003663506358861923
1.7215719074037307e+18,0.00191904092207551,0.04765274375677109,0.0008853290928527713
1.7215719074097308e+18,0.0016359996516257524,0.06058453023433685,-0.0023767617531120777
1.721571907415731e+18,-0.00019011716358363628,0.07388272136449814,-0.000851514283567667
1.721571907421731e+18,0.0016713065560907125,0.0817577913403511,-0.0022426198702305555
1.7215719074247311e+18,0.0011220559244975448,0.08641946315765381,-0.0006875523831695318
1.7215719074307313e+18,0.002264911774545908,0.08807730674743652,-0.000469916092697531
1.7215719074367314e+18,0.0007304790779016912,0.09532780200242996,-0.0005982441361993551
1.7215719074427315e+18,-0.0012000781716778874,0.10360154509544373,-0.0015327271539717913
1.7215719074487316e+18,-0.0037274856586009264,0.10865470767021179,0.0016100665088742971
1.7215719074517317e+18,-0.0019570968579500914,0.11267153173685074,-0.0018853608053177595
1.7215719074577318e+18,-0.00013440754264593124,0.11916720122098923,-0.0009020063444040716
1.721571907463732e+18,-0.0025984477251768112,0.12843641638755798,-0.001920052571222186
1.721571907469732e+18,-0.000912427727598697,0.13337954878807068,0.0011771770659834146
1.7215719074757322e+18,0.0029227768536657095,0.1373281329870224,-0.003727370174601674
1.7215719074817324e+18,0.003632652573287487,0.14036163687705994,-0.002553017344325781
1.7215719074877325e+18,0.0011468890588730574,0.1366063505411148,0.0008128694025799632
1.7215719074907325e+18,0.0021587524097412825,0.13636480271816254,-0.0019143321551382542
1.7215719074967327e+18,0.001378493383526802,0.13288679718971252,2.5391753297299147e-05
1.7215719075027328e+18,-0.0015421434072777629,0.13093522191047668,-0.0022553307935595512
1.721571907508733e+18,-0.0029213689267635345,0.12720255553722382,-0.0014145509339869022
1.721571907514733e+18,-0.00514740776270628,0.12191291898488998,-0.0005553989904001355
1.7215719075207332e+18,-0.003143310546875,0.11987961828708649,-0.0003802217252086848
1.7215719075267333e+18,-0.00013321498408913612,0.11628654599189758,-9.360723197460175e-06
1.7215719075327334e+18,0.0005917477537877858,0.11581956595182419,-0.0016635935753583908
1.7215719075357335e+18,0.0015752906911075115,0.11288678646087646,-0.0006345686269924045
1.7215719075417336e+18,0.002308361232280731,0.1141137108206749,-0.000872161122970283
1.7215719075477338e+18,0.0018107465002685785,0.10865820944309235,0.001979045569896698
1.721571907553734e+18,0.007659556809812784,0.10450438410043716,-0.002620550338178873
1.7215719075687342e+18,-0.0028526196256279945,0.09457768499851227,-0.0008538315887562931
1.7215719075747343e+18,-0.00214106822386384,0.08881644159555435,-0.0007619918324053288
1.7215719075807345e+18,-0.0016454100841656327,0.0848107859492302,-0.003302360186353326
1.7215719075927347e+18,-0.0020338324829936028,0.07345297187566757,-0.0020840121433138847
1.7215719075987348e+18,-0.0010892478749155998,0.07298807054758072,-0.00016648665769025683
1.721571907604735e+18,-0.0011069392785429955,0.06665341556072235,0.00038869166746735573
1.721571907607735e+18,0.0013162752147763968,0.06698202341794968,0.0017897785874083638
1.7215719076137352e+18,0.001744820736348629,0.06346515566110611,0.0001478204212617129
1.7215719076197353e+18,0.004618274979293346,0.05723397806286812,-1.6816629795357585e-05
1.7215719076257354e+18,0.0038444348610937595,0.05773196369409561,-0.0012096608988940716
1.7215719076317356e+18,0.00030335423070937395,0.059339217841625214,0.0012372038327157497
1.7215719076377357e+18,0.0031695105135440826,0.05869832634925842,0.0013676846865564585
1.7215719076437358e+18,-0.001403955277055502,0.05932362377643585,0.001836623763665557
1.721571907646736e+18,0.0016644290881231427,0.05867108330130577,-0.0015974030829966068
1.721571907652736e+18,0.00018527082283981144,0.05569770187139511,0.0011151813669130206
1.721571907658736e+18,0.0013421836774796247,0.05881741642951965,-0.003473475109785795
1.7215719076617362e+18,0.0005760234780609608,0.06101345270872116,-0.0021999748423695564
1.7215719076677363e+18,0.0008484992431476712,0.06957228481769562,0.001292332774028182
1.7215719076707364e+18,0.0011641883756965399,0.07321695238351822,-0.00026916194474324584
1.7215719076767365e+18,0.0027857422828674316,0.08360771834850311,0.00022142077796161175
1.7215719076827366e+18,0.0021756894420832396,0.0936034545302391,-0.0015759146772325039
1.7215719076887368e+18,0.0008040517568588257,0.11186251789331436,-0.0005909557803533971
1.721571907694737e+18,-0.0006397312390618026,0.1255640685558319,-1.8722668755799532e-05
1.721571907700737e+18,0.0005608581705018878,0.14372192323207855,-0.001221047481521964
1.7215719077067372e+18,-0.0005594654940068722,0.15374374389648438,-0.0007867779349908233
1.7215719077127373e+18,0.0006065146299079061,0.1634904444217682,-0.0006864896276965737
1.7215719077187374e+18,0.0006778643000870943,0.1627829521894455,-0.0007079843198880553
1.7215719077217375e+18,-0.0005678394809365273,0.16448453068733215,0.0023925569839775562
1.7215719077277376e+18,0.0026860088109970093,0.16115640103816986,0.0002005034766625613
1.7215719077337377e+18,7.545598782598972e-05,0.1678079515695572,0.0014714092249050736
1.721571907742738e+18,0.0028102167416363955,0.17608512938022614,0.001107997028157115
1.721571907745738e+18,0.00430994713678956,0.18265753984451294,-0.0008385052788071334
1.721571907751738e+18,0.001102004898712039,0.19514696300029755,0.0013336181873455644
1.7215719077577382e+18,0.0020067645236849785,0.20021279156208038,-0.0030322198290377855
1.7215719077637384e+18,0.001705253147520125,0.21214401721954346,-5.97905891481787e-05
1.7215719077697385e+18,0.0013458972098305821,0.21305522322654724,-0.001274530659429729
1.7215719077727386e+18,0.0038393386639654636,0.21279661357402802,-0.0005437220097519457
1.7215719077787387e+18,-0.0001849004765972495,0.2064466029405594,0.0005177363054826856
1.7215719077847388e+18,0.0035359931644052267,0.20582258701324463,-0.0005851982277818024
1.721571907790739e+18,-0.0013058248441666365,0.20018631219863892,-0.0032888564746826887
1.721571907796739e+18,-0.0015762356342747808,0.19437380135059357,-0.00023759587202221155
1.7215719077997391e+18,0.0014076627558097243,0.1904417872428894,0.00035908148856833577
1.7215719078057393e+18,0.00242803618311882,0.18794231116771698,0.000926188426092267
1.7215719078117394e+18,-0.0008844672702252865,0.1876140981912613,-0.00038516958011314273
1.7215719078177395e+18,0.0029167348984628916,0.18348582088947296,0.000363015424227342
1.7215719078297398e+18,0.0014392869779840112,0.17291171848773956,0.0017564625013619661
1.72157190783574e+18,0.0038692227099090815,0.1526211053133011,0.0004645607841666788
1.72157190784174e+18,0.0012550536775961518,0.13375556468963623,0.0002259680477436632
1.7215719078477402e+18,0.00025316886603832245,0.11045254021883011,-0.0010310641955584288
1.7215719078597404e+18,0.0032797562889754772,0.06342927366495132,0.00027392254560254514
1.7215719078657405e+18,0.0031163948588073254,0.034685470163822174,-0.00023678458819631487
1.7215719078717407e+18,0.0033946940675377846,0.016381604596972466,-0.00027198559837415814
1.7215719078777408e+18,-0.0009590508416295052,-0.0005725435330532491,-0.0013413866981863976
1.721571907883741e+18,0.002199762500822544,-0.02477153204381466,0.00023269170196726918
1.721571907889741e+18,0.0004184020508546382,-0.04389672726392746,-0.001259685610421002
1.721571907892741e+18,-0.0006849597557447851,-0.052730441093444824,-0.0018093028338626027
1.7215719078987412e+18,0.0018382848938927054,-0.07043136656284332,0.000520170433446765
1.7215719079047414e+18,0.0006988243549130857,-0.08820776641368866,-0.0008840035879984498
1.7215719079107415e+18,0.0016748495399951935,-0.10877296328544617,-0.00040977378375828266
1.7215719079137416e+18,-0.0015172944404184818,-0.11639128625392914,-0.0012084798654541373
1.7215719079197417e+18,0.0011725395452231169,-0.13107901811599731,-0.00010313183884136379
1.7215719079257418e+18,0.00046561870840378106,-0.14336958527565002,-0.002318723825737834
1.721571907928742e+18,0.00046514536370523274,-0.1469295620918274,-0.0003349945181980729
1.721571907934742e+18,-0.00030564007465727627,-0.15448610484600067,-6.542516348417848e-05
1.7215719079407421e+18,0.0009104188648052514,-0.15645334124565125,-0.0006687782588414848
1.7215719079467423e+18,0.0007898515905253589,-0.156280979514122,0.0017178189009428024
1.7215719079527424e+18,0.00011885197454830632,-0.15832427144050598,-0.000785766402259469
1.7215719079677427e+18,0.00218233116902411,-0.16304880380630493,-0.0009017972042784095
1.7215719079677427e+18,0.00218233116902411,-0.16304880380630493,-0.0009017972042784095
1.7215719079737428e+18,0.0008447456057183444,-0.16059567034244537,-0.0005204782355576754
1.721571907982743e+18,0.0009748629527166486,-0.16122327744960785,-0.001968676457181573
1.7215719079887432e+18,0.000244215945713222,-0.16059328615665436,-0.0020757056772708893
1.7215719079947433e+18,0.0005486860754899681,-0.15988297760486603,-0.0004688226035796106
1.7215719080007434e+18,-0.0006227115518413484,-0.1526414006948471,-0.002806129166856408
1.7215719080067436e+18,0.0012593907304108143,-0.14567017555236816,-0.0018369777826592326
1.7215719080127437e+18,0.0014679202577099204,-0.14324931800365448,0.00016849534586071968
1.7215719080187438e+18,0.0021922981832176447,-0.13636280596256256,0.0021381559781730175
1.7215719080217439e+18,-0.0010156696662306786,-0.1300371289253235,-0.0012035780819132924
1.721571908027744e+18,-0.0011669850209727883,-0.12566392123699188,0.0001417440507793799
1.7215719080337441e+18,-0.0011365239042788744,-0.12451067566871643,0.00023237455752678216
1.7215719080397443e+18,-0.0009125226642936468,-0.11872847378253937,-0.0012482533929869533
1.7215719080487444e+18,-0.04149634763598442,-0.1107405498623848,0.000243725924519822
1.7215719080547446e+18,-0.07604750990867615,-0.10890905559062958,-7.690468919463456e-05
1.7215719080607447e+18,-0.13934063911437988,-0.10017599165439606,0.00020659828442148864
1.7215719080667448e+18,-0.20664073526859283,-0.09625059366226196,-3.463495522737503e-05
1.721571908072745e+18,-0.26390981674194336,-0.09317860007286072,0.0025841218885034323
1.721571908078745e+18,-0.31344401836395264,-0.08431390672922134,0.0003053836990147829
1.7215719080847452e+18,-0.35602325201034546,-0.08167378604412079,-0.0003491173847578466
1.7215719080907453e+18,-0.3928854167461395,-0.07640741765499115,-0.001037654816173017
1.7215719080997455e+18,-0.419742226600647,-0.0672534853219986,5.1899871323257685e-05
1.7215719081057457e+18,-0.43908175826072693,-0.06374046206474304,0.001300850068219006
1.7215719081117458e+18,-0.47436749935150146,-0.05898269638419151,-0.0006412187358364463
1.7215719081147459e+18,-0.5034299492835999,-0.05502082407474518,-0.0009466845076531172
1.721571908120746e+18,-0.5571224093437195,-0.054913293570280075,-4.87171346321702e-05
1.721571908126746e+18,-0.6158493757247925,-0.05404849722981453,-0.0015425614546984434
1.7215719081357463e+18,-0.7153017520904541,-0.04299655184149742,0.0018735360354185104
1.7215719081387464e+18,-0.740622878074646,-0.043757788836956024,-0.0014813164016231894
1.7215719081477466e+18,-0.795617938041687,-0.03681420534849167,-0.0004353156255092472
1.7215719081537467e+18,-0.8131898045539856,-0.03316936269402504,-0.0009258295758627355
1.7215719081597468e+18,-0.808188796043396,-0.027845371514558792,-0.001842784695327282
1.721571908165747e+18,-0.7897748947143555,-0.025964371860027313,-0.0011698767775669694
1.721571908171747e+18,-0.7782163023948669,-0.026328645646572113,0.0025192988105118275
1.7215719081777472e+18,-0.7693824172019958,-0.020292188972234726,-0.002017262624576688
1.7215719081837473e+18,-0.7650066018104553,-0.021153248846530914,0.0017293449491262436
1.7215719081927475e+18,-0.7745930552482605,-0.01976894401013851,-0.0005369608988985419
1.7215719081987476e+18,-0.7802822589874268,-0.013203676789999008,-0.0005513947107829154
1.721571908210748e+18,-0.784637451171875,-0.011126401834189892,-0.001376249478198588
1.721571908216748e+18,-0.7686300277709961,-0.010722965002059937,0.0018648477271199226
1.7215719082227482e+18,-0.7389709949493408,-0.006407243199646473,-0.0014005601406097412
1.7215719082287483e+18,-0.7061439752578735,-0.006239234935492277,-0.0018030168721452355
1.7215719082317484e+18,-0.6865110397338867,-0.006838585250079632,-0.004401227459311485
1.7215719082377485e+18,-0.6449823379516602,-0.007756408303976059,-0.0017096755327656865
1.7215719082437486e+18,-0.6058109998703003,-0.002243208931759,-0.0018235085299238563
1.7215719082497487e+18,-0.5773173570632935,-0.0026222674641758204,-0.0012817690148949623
1.7215719082557489e+18,-0.553011417388916,-0.0019080436322838068,-0.001986483344808221
1.721571908261749e+18,-0.5364748239517212,-0.0002695974544622004,-0.0032310420647263527
1.721571908267749e+18,-0.5233775973320007,7.710582576692104e-05,0.00045678426977247
1.7215719082737492e+18,-0.5140248537063599,0.0028607994318008423,0.00047416373854503036
1.7215719082767493e+18,-0.5079004764556885,0.0027004671283066273,-0.0006303131813183427
1.7215719082827494e+18,-0.48930034041404724,7.977429777383804e-05,-0.0006013959646224976
1.7215719082887496e+18,-0.46655550599098206,0.0033001964911818504,-0.0023406336549669504
1.72157190830375e+18,-0.38249701261520386,0.005440061911940575,-0.0029794287402182817
1.72157190830975e+18,-0.34346964955329895,0.002307848772034049,0.002515707165002823
1.7215719083157501e+18,-0.3091549575328827,0.003165573813021183,0.0007414168212562799
1.7215719083217503e+18,-0.27662190794944763,0.006412926595658064,0.00016527512343600392
1.7215719083277504e+18,-0.2520272433757782,0.004548834171146154,-0.002929908689111471
1.7215719083307505e+18,-0.2406887710094452,0.007729913108050823,0.0015137800946831703
1.7215719083397507e+18,-0.20200632512569427,0.005735472775995731,-0.0006546299555338919
1.7215719083427507e+18,-0.19025194644927979,0.004026542417705059,-0.00017449643928557634
1.7215719083487508e+18,-0.16975729167461395,0.005835701245814562,-0.0030920368153601885
1.721571908354751e+18,-0.1434515416622162,0.005462471395730972,0.0010537924244999886
1.721571908360751e+18,-0.11313565075397491,0.004059717990458012,-0.0024866750463843346
1.7215719083667512e+18,-0.08530043810606003,0.004494906403124332,-8.705578511580825e-05
1.7215719083727514e+18,-0.05471803992986679,0.002104806248098612,-0.0018236108589917421
1.7215719083787515e+18,-0.02574937604367733,0.003833355847746134,-0.0007584013510495424
1.7215719083847516e+18,-0.010232416912913322,0.004365564789623022,-0.0020272640977054834
1.7215719083907517e+18,0.011355534195899963,0.003527933731675148,-0.002497306326404214
1.721571908396752e+18,0.023105081170797348,0.003385603427886963,-0.004228659439831972
1.721571908402752e+18,0.03814030811190605,0.003913056571036577,-0.0014148678164929152
1.721571908408752e+18,0.04998914524912834,0.007355791982263327,-0.0020640313159674406
1.7215719084147523e+18,0.060006413608789444,0.0027580582536756992,0.0024777231737971306
1.7215719084177523e+18,0.06705822050571442,0.005830144044011831,-0.0003829157503787428
1.7215719084237524e+18,0.08563679456710815,0.0025392104871571064,-0.0015037166886031628
1.7215719084297526e+18,0.10736379772424698,0.006116933189332485,-0.0018449638737365603
1.7215719084357527e+18,0.12353158742189407,0.00509688863530755,0.001210006419569254
1.721571908450753e+18,0.1928747147321701,0.002704588696360588,-0.003240798832848668
1.7215719084567532e+18,0.22323021292686462,0.0027385714929550886,-0.000648072047624737
1.7215719084627533e+18,0.2657906413078308,0.0007470077835023403,-0.0014928984455764294
1.7215719084687534e+18,0.31599628925323486,0.005401195026934147,-0.0032345708459615707
1.7215719084747535e+18,0.3695147931575775,0.0025624982081353664,0.00037034950219094753
1.7215719084807537e+18,0.43034884333610535,0.00320650776848197,0.0023829464334994555
1.7215719084867538e+18,0.4937361776828766,0.0029622893780469894,0.00014470925088971853
1.721571908492754e+18,0.5383633375167847,0.002854070393368602,0.0002708288957364857
1.721571908498754e+18,0.5699886679649353,-0.002573427278548479,-0.0021056572441011667
1.7215719085047542e+18,0.5897855162620544,0.0033307685516774654,-0.00249230838380754
1.7215719085107543e+18,0.6071740984916687,0.0025231423787772655,-0.0006849024211987853
1.7215719085167544e+18,0.6173161864280701,0.0027605309151113033,-0.0007656970992684364
1.7215719085227546e+18,0.6177777647972107,0.005161406937986612,-0.0010607815347611904
1.7215719085287547e+18,0.6275766491889954,0.003014151006937027,-0.0033969939686357975
1.7215719085347548e+18,0.6348562240600586,0.0013313208473846316,-0.0014095555525273085
1.721571908537755e+18,0.6396352052688599,0.0011305767111480236,-0.0004745933983940631
1.721571908543755e+18,0.6484245657920837,0.003932533785700798,-0.0004986046114936471
1.7215719085497551e+18,0.656011700630188,0.0022353159729391336,-0.0013470491394400597
1.7215719085557553e+18,0.6544962525367737,0.0009203590452671051,-0.0009612527210265398
1.7215719085617554e+18,0.652280330657959,0.0012519456213340163,0.002213281812146306
1.7215719085677555e+18,0.6460051536560059,-0.0003762906417250633,-0.00568063510581851
1.7215719085737556e+18,0.6355354189872742,0.002671224996447563,-0.00230315700173378
1.7215719085797558e+18,0.623535692691803,0.0035418702755123377,-0.0002848186413757503
1.721571908585756e+18,0.6072412133216858,0.003589973784983158,9.538556332699955e-05
1.721571908591756e+18,0.5975169539451599,0.002085626358166337,-0.002224863274022937
1.7215719085977562e+18,0.5823577046394348,0.0010946341790258884,-9.369687177240849e-06
1.7215719086037563e+18,0.5748236179351807,-4.3879030272364616e-05,0.00020759535254910588
1.7215719086097564e+18,0.5705050826072693,-0.00039735203608870506,0.0004930756404064596
1.7215719086157565e+18,0.5684984922409058,-0.0011278956662863493,0.0006993245333433151
1.7215719086217567e+18,0.5685804486274719,0.004095139913260937,0.0004984320257790387
1.7215719086247567e+18,0.5706203579902649,-4.5223976485431194e-05,0.0005939964903518558
1.7215719086307569e+18,0.5614838004112244,0.004796002991497517,-0.0008460304234176874
1.721571908636757e+18,0.5496101379394531,0.0032281673047691584,-0.002462839474901557
1.721571908639757e+18,0.5426880717277527,-0.0001068292185664177,-0.0005339183262549341
1.7215719086457572e+18,0.5170336365699768,0.0027300259098410606,0.002834942890331149
1.7215719086517573e+18,0.4904622435569763,-0.0020569160114973783,0.0020238151773810387
1.7215719086577574e+18,0.45907461643218994,0.0003777693782467395,-0.0005184803740121424
1.7215719086637576e+18,0.43268346786499023,-0.002203642390668392,-0.0007875050650909543
1.7215719086697577e+18,0.4108799397945404,-0.004642969463020563,-0.0022352789528667927
1.7215719086757578e+18,0.3920970857143402,0.0011171938385814428,0.0026586337480694056
1.721571908681758e+18,0.3787067234516144,0.00022786244517192245,-0.0010207894956693053
1.721571908687758e+18,0.36833906173706055,-0.00038764066994190216,-0.0026535792276263237
1.7215719086937582e+18,0.35722842812538147,0.002781521761789918,0.003826749976724386
1.7215719086997583e+18,0.34437692165374756,0.002737323520705104,0.00046966876834630966
1.7215719087057585e+18,0.32625412940979004,-0.0016915877349674702,-0.001310916617512703
1.7215719087117586e+18,0.30778637528419495,0.0002279465552419424,-0.00017779585323296487
1.7215719087147587e+18,0.297301709651947,-0.001774746342562139,-0.002230910351499915
1.7215719087207588e+18,0.27186188101768494,-0.0014093767385929823,-0.00085801025852561
1.721571908726759e+18,0.24982452392578125,-0.0009481159504503012,-0.0019296230748295784
1.721571908732759e+18,0.22772227227687836,-0.0017470258753746748,-0.0012561779003590345
1.7215719087387592e+18,0.21277783811092377,-0.00023498060181736946,0.0008103968575596809
1.7215719087447593e+18,0.19682075083255768,0.0019666687585413456,-0.0004938882775604725
1.7215719087507594e+18,0.18402032554149628,0.0001430948032066226,0.000523887574672699
1.7215719087567596e+18,0.18009281158447266,-0.0018832710338756442,0.00015983966295607388
1.7215719087627597e+18,0.16930937767028809,3.95866809412837e-05,0.0006090819370001554
1.7215719087687598e+18,0.16222040355205536,0.00025867007207125425,0.001961388625204563
1.72157190877476e+18,0.15066486597061157,-0.00022523500956594944,0.000413425121223554
1.72157190878076e+18,0.1325332075357437,-0.003590481821447611,-0.0034833266399800777
1.7215719087867602e+18,0.12400036305189133,-0.0023107845336198807,-0.0009359528194181621
1.7215719087927603e+18,0.10907375812530518,-0.0010953964665532112,-0.002278248779475689
1.7215719087987604e+18,0.097777359187603,-0.0009352518245577812,-0.00048250079271383584
1.7215719088047606e+18,0.08697568625211716,-0.001431898446753621,-0.0009834901429712772
1.7215719088077606e+18,0.08151522278785706,-0.0031751799397170544,-0.001184948836453259
1.7215719088137608e+18,0.07452836632728577,-0.002720799297094345,-0.0005735906888730824
1.721571908819761e+18,0.06711152195930481,-0.003755635814741254,0.00021606599329970777
1.721571908825761e+18,0.062116049230098724,-0.004572767298668623,0.000563201610930264
1.7215719088317612e+18,0.057742852717638016,-0.004457754082977772,-0.00014391732111107558
1.7215719088347612e+18,0.05689067393541336,-0.004493946209549904,-0.00011058498057536781
1.7215719088407613e+18,0.05181373655796051,-0.0018105603521689773,0.00015551010437775403
1.7215719088467615e+18,0.04564031958580017,-0.0025430272798985243,-0.00029954101773910224
