timestamp,gyro_x,gyro_y,gyro_z
1.7275286306701898e+18,0.0028926748782396317,0.0005994417006149888,-0.001028716447763145
1.72752863067919e+18,-0.0030063344165682793,0.0008246630895882845,0.000387982145184651
1.72752863068219e+18,-0.0003872340312227607,0.0009842227445915341,0.001964288530871272
1.7275286306881902e+18,0.004498545546084642,0.0021843973081558943,-0.002120051998645067
1.7275286306941903e+18,0.00010115539043908939,7.832878327462822e-05,-0.0031083908397704363
1.7275286307001905e+18,0.0020617691334336996,-0.0026461302768439054,-0.002283752430230379
1.7275286307061906e+18,0.0007764152251183987,0.00206195586360991,-0.003393992083147168
1.7275286307091907e+18,-0.0018688931595534086,-0.000117596733616665,-0.0026318151503801346
1.7275286307151908e+18,-0.0003934068663511425,-0.0008874785271473229,0.0013266602763906121
1.727528630721191e+18,-0.0009991471888497472,0.0026767351664602757,-0.0012180069461464882
1.727528630727191e+18,-0.0003467844508122653,-0.00025655439822003245,1.3479157132678665e-05
1.727528630730191e+18,0.0008725776569917798,0.00032511839526705444,0.0009324410930275917
1.7275286307361912e+18,-0.0010172739857807755,-0.0022053816355764866,-0.0015865376917645335
1.7275286307421914e+18,-0.0007475330494344234,0.0008572700899094343,-0.002802847186103463
1.7275286307481915e+18,-0.003972031641751528,-0.0016205282881855965,0.000575629819650203
1.7275286307541916e+18,0.001580726122483611,0.0008909153984859586,-0.0022440149914473295
1.7275286307571917e+18,0.001727515016682446,-0.0010353450197726488,-0.0004705302999354899
1.7275286307631918e+18,0.0006580234621651471,-0.000952828791923821,0.0019014979479834437
1.727528630769192e+18,-0.00026972731575369835,0.0001323703909292817,0.0022186555434018373
1.727528630775192e+18,0.0037282551638782024,-0.00017227622447535396,-3.130565528408624e-05
1.7275286307811922e+18,7.335992449952755e-06,-0.002835536375641823,-0.0024038413539528847
1.7275286307871923e+18,0.00018627734971232712,-0.0004579659434966743,-0.0004153208574280143
1.7275286307901924e+18,0.0001736615813570097,0.0047095469199121,0.0004955334588885307
1.7275286307961925e+18,-0.0021510482765734196,0.001116077066399157,-0.0030777431093156338
1.7275286308021926e+18,-0.0003214041353203356,-0.002020180458202958,-0.0008360543288290501
1.7275286308081928e+18,0.0023566291201859713,-0.000936225347686559,0.0012008686317130923
1.727528630814193e+18,0.0009652572916820645,0.0007385472417809069,-0.0007682977593503892
1.727528630820193e+18,-0.0012189865810796618,-0.0032881596125662327,0.0009381960844621062
1.727528630823193e+18,0.0010715475073084235,0.0016010281397029757,0.000180422532139346
1.7275286308291932e+18,-0.0002683896163944155,-0.0004111066518817097,0.0007226213929243386
1.7275286308351933e+18,0.0002367515116930008,0.00035806838423013687,-0.003923842217773199
1.7275286308381934e+18,0.0025397115387022495,-0.002337280660867691,-0.001854121801443398
1.7275286308441935e+18,-0.00031144864624366164,0.0021555658895522356,0.0003010428627021611
1.7275286308501937e+18,0.0016011331463232636,-0.0008231022511608899,-0.001540483790449798
1.7275286308531937e+18,-0.0004303770256228745,-0.0006654406897723675,0.0008129271445795894
1.7275286308591939e+18,0.0018443360459059477,-0.0011231128592044115,0.00016428728122264147
1.727528630865194e+18,0.0017717282753437757,0.0010805426863953471,-0.002373676747083664
1.727528630871194e+18,0.0028213064651936293,-0.0006346256122924387,-0.0007857289165258408
1.7275286308771942e+18,-0.0033162101171910763,0.0007057758630253375,0.0007414764259010553
1.7275286308801943e+18,0.001200907165184617,0.0006646210676990449,0.0011162590235471725
1.7275286308861944e+18,0.0021872702054679394,0.000418920477386564,-0.0022003117483109236
1.7275286308921946e+18,0.0006191716529428959,-0.0031003698240965605,-0.0027305190451443195
1.7275286308981947e+18,0.00025760079734027386,0.000502352137118578,0.0019331042421981692
1.7275286309011948e+18,0.0034047875087708235,0.0012671969598159194,-0.0020333610009402037
1.727528630907195e+18,-0.000706686289049685,0.00021884978923480958,-0.0015049692010506988
1.727528630916195e+18,8.92009338713251e-05,0.00032039821962825954,-0.0016829405212774873
1.7275286309221952e+18,-0.0015741112874820828,0.00016140051593538374,-0.0009404800366610289
1.7275286309311954e+18,-0.001405370538122952,-0.0011408976279199123,-0.0009817288955673575
1.7275286309371955e+18,-0.00045171365491114557,0.0024904583115130663,-0.0016732335789129138
1.7275286309461957e+18,0.0023661511950194836,-0.0014040919486433268,-0.000316190387820825
1.7275286309521958e+18,-0.0004720374126918614,-0.00044740299927070737,0.0007789229857735336
1.727528630958196e+18,3.0556861020158976e-05,0.0030726261902600527,0.0019557506311684847
1.727528630964196e+18,0.002003883011639118,-0.0017675097333267331,-0.0006224880926311016
1.7275286309731963e+18,0.0009392889332957566,0.001709928852505982,0.00180395832285285
1.7275286309791964e+18,-0.0033440671395510435,-0.000373993709217757,0.00011525028821779415
1.7275286309851965e+18,0.0017696369905024767,0.0006511376122944057,-0.0022487062960863113
1.7275286309911967e+18,-9.619203046895564e-05,0.0015989835374057293,-0.0009324050042778254
1.7275286309971968e+18,0.0019315191311761737,0.00025018793530762196,-0.001053810236044228
1.727528631003197e+18,-0.0007919325144030154,0.0014194948598742485,0.002647050889208913
1.727528631006197e+18,-0.001191897550597787,0.00043163978261873126,-0.0027184842620044947
1.727528631012197e+18,-0.0008045734721235931,0.0031559693161398172,0.0009567312663421035
1.7275286310181972e+18,0.001244251849129796,0.0019262166460976005,0.00043977683526463807
1.7275286310241974e+18,0.0022610395681113005,0.0009085363708436489,0.0011177553096786141
1.7275286310301975e+18,-0.0012246979167684913,-0.0017482632538303733,0.001269277068786323
1.7275286310361976e+18,-0.0001408980751875788,0.0008261212497018278,-0.00287647545337677
1.7275286310391977e+18,0.001916579669341445,0.001559108728542924,-0.0023601832799613476
1.7275286310451978e+18,7.946446567075327e-05,-0.001218189368955791,0.0008502189302816987
1.727528631051198e+18,-0.0011351688299328089,-0.0007020551711320877,0.0007077393238432705
1.727528631057198e+18,0.002064548199996352,-0.003142542438581586,-0.00194472074508667
1.7275286310631982e+18,-0.0004434396105352789,0.0021081625018268824,-0.000585809291806072
1.7275286310691983e+18,0.0024873281363397837,0.002094997325912118,0.00403933972120285
1.7275286310721984e+18,-0.0014627842465415597,0.002101258607581258,-0.0004684711748268455
1.7275286310781985e+18,-0.0005130114732310176,-0.0007804926135577261,0.002411571331322193
1.7275286310841987e+18,-0.00017679583106655627,-0.00014266325160861015,-0.0024381044786423445
1.7275286310901988e+18,0.0012590191327035427,-0.002588449977338314,-0.0031130099669098854
1.727528631096199e+18,0.00013030484842602164,-0.0003776420489884913,0.0009342366829514503
1.727528631102199e+18,-0.0002029953320743516,0.002502907533198595,-9.436798427486792e-05
1.7275286311081992e+18,0.001028914237394929,8.385028195334598e-05,-8.151390647981316e-05
1.7275286311111992e+18,-0.0007610872853547335,0.0008211068343371153,-0.0008886103169061244
1.7275286311171994e+18,0.003958708140999079,-0.0007474588928744197,0.0007353532710112631
1.7275286311231995e+18,0.0017377848271280527,0.002091023838147521,0.0009221486398018897
1.7275286311291996e+18,-0.0025928299874067307,0.0008387278649024665,0.00048159377183765173
1.7275286311351997e+18,0.0003440646978560835,0.0003080245805904269,-0.000336568831698969
1.7275286311412e+18,-0.0010226703016087413,0.001415148377418518,0.0019320163410156965
1.7275286311442e+18,-0.0012110534589737654,-0.00046024422044865787,-0.0019501392962411046
1.7275286311502e+18,0.00295489770360291,-0.0020587630569934845,-0.0005937059759162366
1.7275286311562002e+18,7.261943392222747e-05,0.000956496805883944,0.001187843387015164
1.7275286311622003e+18,-0.00044986733701080084,-0.0001443973887944594,3.3903961593750864e-05
1.7275286311682004e+18,0.0003884890757035464,-0.0033744818065315485,0.0015603842912241817
1.7275286311742006e+18,0.0036153653636574745,-0.0006376366363838315,0.0020984183065593243
1.7275286311772006e+18,-0.0007731795776635408,-0.0010717347031459212,-1.1004390216839965e-06
1.7275286311832008e+18,-0.0005014620837755501,0.002680479548871517,-0.0011463870760053396
1.727528631189201e+18,-0.0004339537408668548,0.0021995571441948414,0.001288523431867361
1.727528631195201e+18,-0.0012898498680442572,-0.001494360389187932,-0.0003824473242275417
1.7275286312012012e+18,-0.0024855334777384996,0.0003552836715243757,0.0005657704314216971
1.7275286312072013e+18,-0.00042859173845499754,-0.00022527303372044116,-0.00013355699775274843
1.7275286312102013e+18,0.0007797020953148603,-0.0006131154950708151,0.0012901476584374905
1.7275286312162015e+18,0.0005997694097459316,-5.38185122422874e-05,-0.0013121183728799224
1.7275286312222016e+18,0.0032812515273690224,0.0004574412596412003,0.0011990672210231423
1.7275286312282017e+18,-0.0008645568159408867,0.001866742386482656,0.00017845923139248043
1.7275286312342019e+18,0.0027480272110551596,0.00031935592414811254,-0.001012926222756505
1.727528631240202e+18,0.0004658748221118003,0.0004524186661001295,-0.0008627130882814527
1.727528631246202e+18,-0.00019295545644126832,-0.0007345572812482715,0.00040139988414011896
1.7275286312522022e+18,-0.00033399712992832065,0.000589008501265198,0.0007506735273636878
1.7275286312582024e+18,0.0005187010974623263,-0.0006435059476643801,-0.0030824842397123575
1.7275286312642025e+18,-0.0013876729644834995,-0.0006119314930401742,-0.0019514579325914383
1.7275286312702026e+18,-0.0010795429116114974,-0.0015506676863878965,0.0011608621571213007
1.7275286312762028e+18,0.0003811816277448088,0.0032451713923364878,-0.0010135810589417815
1.7275286312792028e+18,0.0021715506445616484,0.0003533267299644649,-0.002095005940645933
1.727528631285203e+18,0.0014927420997992158,0.0008319182088598609,0.0004593170015141368
1.727528631291203e+18,-0.00026868301210924983,-0.0005343658267520368,-0.00016060596681199968
1.7275286312942031e+18,-0.0014836463378742337,-0.0002950115886051208,-0.003288041101768613
1.7275286313002033e+18,-0.0004780137387569994,8.739857730688527e-05,0.002503091935068369
1.7275286313062034e+18,-0.00044995296048000455,0.000979787902906537,-0.0017114965012297034
1.7275286313092035e+18,-0.0014691536780446768,0.0022018486633896828,0.0012454804964363575
1.7275286313152036e+18,7.627043669344857e-05,0.0017766283126547933,-0.0031512556597590446
1.7275286313212037e+18,-0.0011163061717525125,-0.0007829149253666401,-0.0016127197304740548
1.7275286313272038e+18,0.0018608522368595004,-0.0012541281757876277,0.0002937090757768601
1.727528631330204e+18,0.000871360651217401,0.00030805982532911,-0.0015611359849572182
1.727528631336204e+18,0.000778423564042896,4.680529855249915e-06,0.0007522244704887271
1.7275286313422042e+18,-0.0015397698152810335,-0.002546632429584861,0.006089319009333849
1.7275286313452042e+18,-0.00025782949524000287,-3.1470208341488615e-05,0.000642266299109906
1.7275286313512044e+18,-0.0011510701151564717,0.000618369725998491,0.0006413630326278508
1.7275286313572045e+18,0.0007158771622925997,-0.0010786289349198341,-0.0013137866044417024
1.7275286313602045e+18,0.003150738077238202,-0.0015418893890455365,0.0008819630020298064
1.7275286313662047e+18,0.00015697012713644654,0.000273938465397805,0.0009618139592930675
1.7275286313722048e+18,6.692259921692312e-05,-0.0015369493048638105,0.00019983753736596555
1.727528631378205e+18,-0.0018053788226097822,0.00020345396478660405,0.0004985166597180068
1.727528631381205e+18,0.0031905281357467175,-0.0007261090795509517,-0.0009337853989563882
1.727528631387205e+18,0.0018683403031900525,0.0012661662185564637,-0.003403901355341077
1.7275286313932052e+18,-3.762492269743234e-05,-5.524516018340364e-05,0.0011337295873090625
1.7275286313992054e+18,-0.0005993489176034927,0.002601092215627432,-0.003793073119595647
1.7275286314022054e+18,0.0003115927684120834,0.0001436207676306367,-0.0008530632476322353
1.7275286314082056e+18,-0.0001598069502506405,-0.0018762442050501704,-0.002449712483212352
1.7275286314142057e+18,-9.588537068339065e-05,-0.0007071570144034922,0.0007390499813482165
1.7275286314202058e+18,0.0007333553512580693,-0.0025517705362290144,0.001738629536703229
1.727528631423206e+18,9.455850522499532e-05,0.0012548994272947311,-0.0003345852892380208
1.727528631429206e+18,-0.00126757996622473,2.7917823899770156e-05,0.0011364829260855913
1.7275286314352061e+18,-8.919607353163883e-05,-0.001774124219082296,0.00022654191707260907
1.7275286314412063e+18,0.00028926937375217676,0.00012154829892097041,-0.0008703787461854517
1.7275286314442063e+18,-8.012068428797647e-05,-0.0007355171255767345,0.00032661634031683207
1.7275286314502065e+18,-0.0016371275996789336,0.0020465627312660217,0.0002781611692626029
1.7275286314562066e+18,0.0017925266874954104,0.000647561508230865,-0.0020928592421114445
1.7275286314622067e+18,0.0012750861933454871,-4.137741416343488e-05,0.00046782169374637306
1.7275286314652068e+18,0.00024698159541003406,-0.0018249738495796919,0.0028204272966831923
1.727528631471207e+18,0.00045025721192359924,0.002823438262566924,-0.00027512729866430163
1.727528631477207e+18,-0.0009464064496569335,0.000987476552836597,0.0003454121178947389
1.727528631480207e+18,-0.000711291388142854,-0.00034539506305009127,-0.0012123520718887448
1.7275286314862072e+18,-0.0009680490475147963,0.0007489314884878695,-0.00046095100697129965
1.7275286314922074e+18,0.004641476087272167,-0.0006050579831935465,0.0005169226787984371
1.7275286314982075e+18,-0.0004168161249253899,-0.0012586533557623625,0.0009629357955418527
1.7275286315012076e+18,0.0011961815180256963,-0.002219698391854763,-0.0015398904215544462
1.7275286315072077e+18,-0.0018459015991538763,0.0011505921138450503,-0.004058139864355326
1.7275286315132078e+18,-0.001711820368655026,-0.00122760736849159,0.0008703304920345545
1.727528631519208e+18,0.0018401452107354999,0.00018490850925445557,-0.00041798868915066123
1.727528631522208e+18,-0.0004802920448128134,0.0006721885874867439,0.0006179427728056908
1.7275286315282081e+18,-0.0021197444293648005,-0.0001830126129789278,0.0004610251635313034
1.7275286315342083e+18,-0.0005342545337043703,0.0017283057095482945,-0.0005520229460671544
1.7275286315372083e+18,0.002265613991767168,-0.00024611715343780816,0.003095094347372651
1.7275286315432084e+18,-0.0004385329666547477,0.0007640886469744146,0.00015593162970617414
1.7275286315492086e+18,-0.001151503762230277,0.0016745858592912555,0.00035746089997701347
1.7275286315552087e+18,0.0010711500653997064,0.001222400926053524,-0.0004230793274473399
1.7275286315612088e+18,0.00018951388483401388,0.002695022150874138,0.0018541059689596295
1.727528631567209e+18,0.0025958926416933537,0.0023001553490757942,0.002302151406183839
1.727528631573209e+18,0.003575893584638834,-0.00048093931400217116,-6.728458538418636e-05
1.7275286315762092e+18,-0.000562717323191464,-0.0018349728779867291,-0.001102628419175744
1.7275286315822093e+18,0.002057041972875595,0.0010654660873115063,-0.00032193405786529183
1.7275286315882094e+18,-0.0013168484438210726,0.0019122828962281346,0.0006137670134194195
1.7275286315942095e+18,0.0033699795603752136,0.0002630499948281795,0.0011064844438806176
1.7275286315972096e+18,0.0032780549954622984,-0.0013344846665859222,-0.0008883943082764745
1.7275286316032097e+18,0.0027495429385453463,0.0007343522738665342,0.0012164379004389048
1.7275286316092099e+18,-0.0024719657376408577,0.0015247686533257365,-0.0005529498448595405
1.72752863161221e+18,-0.001128830830566585,-0.001866342150606215,0.002046806737780571
1.72752863161821e+18,0.0016021952033042908,0.002008928218856454,-0.001131158322095871
1.7275286316242102e+18,0.0006899764412082732,-0.0010758269345387816,-0.0030055963434278965
1.7275286316302103e+18,0.0013349836226552725,-0.002065632725134492,0.0011246242793276906
1.7275286316332104e+18,-0.002412259578704834,-0.0003978157474193722,-0.0008661848260089755
1.7275286316392105e+18,-0.0014680413296446204,0.0006371046183630824,-0.002172759734094143
1.7275286316452106e+18,-0.0009980404283851385,0.001214026939123869,0.0012312033213675022
1.7275286316482107e+18,0.0015053395181894302,-0.002515952568501234,0.0013053321745246649
1.7275286316542108e+18,0.0014034208143129945,0.0004814482817891985,-0.00047230388736352324
1.727528631660211e+18,-0.0010415477445349097,-0.0002418059593765065,0.0008157141855917871
1.727528631666211e+18,0.00105479103513062,-0.00022793190146330744,-0.0009566620574332774
1.7275286316722112e+18,-0.0010755426483228803,-0.0011024435516446829,-0.0006030076183378696
1.7275286316752113e+18,-0.00026031272136606276,0.003273661946877837,-0.0008097128011286259
1.7275286316812114e+18,0.0013809881638735533,0.0012825214071199298,0.001305769314058125
1.7275286316872115e+18,-0.002995222806930542,0.0011142631992697716,0.0010348326759412885
1.7275286316932116e+18,0.0010832282714545727,0.0018635124433785677,0.003941946662962437
1.7275286316962117e+18,-0.0028924853540956974,-0.00022254890063777566,0.0002707516250666231
1.7275286317022118e+18,-0.00047311894013546407,-0.0005558155826292932,-0.0014751452254131436
1.727528631708212e+18,-0.00032531717442907393,-0.0010794895933941007,-0.001396648702211678
1.727528631714212e+18,-0.00018562657351139933,-0.00027600902831181884,-0.00023920999956317246
1.7275286317172122e+18,0.002447053324431181,-0.0013262572465464473,0.0022080184426158667
1.7275286317232123e+18,-0.0007452857680618763,0.0006465051556006074,0.00014302578347269446
1.7275286317292124e+18,0.0011966245947405696,0.0016897334717214108,-0.0019295389065518975
1.7275286317352125e+18,0.0016232505440711975,6.342084816424176e-05,-0.0012022284790873528
1.7275286317382126e+18,-0.001893985434435308,0.00017761409981176257,-0.0038906517438590527
1.7275286317442127e+18,0.0016785364132374525,-2.3705308194621466e-05,-0.0013368468498811126
1.7275286317502129e+18,-0.002571882214397192,0.001271849381737411,-0.001339791459031403
1.727528631756213e+18,0.0005473467754200101,-5.5703661928419024e-05,0.0023578491527587175
1.727528631759213e+18,-0.0009644284727983177,0.0005796069744974375,-0.002101640682667494
1.7275286317652132e+18,-0.000916995748411864,-0.0038817687891423702,0.000976384908426553
1.7275286317712133e+18,0.0014866000274196267,-0.0006578329484909773,-0.000743953394703567
1.7275286317772134e+18,-0.00036435466608963907,0.0017983877332881093,-0.0006825117743574083
1.7275286317802135e+18,0.0032474808394908905,0.0004895519814454019,0.0021440251730382442
1.7275286317862136e+18,-0.0019994445610791445,-0.0009837615070864558,0.00013756212138105184
1.7275286317922138e+18,0.0014856691705062985,0.0005691202823072672,0.0011376217007637024
1.727528631798214e+18,-0.0005934223299846053,-0.0012920877197757363,0.0006569424876943231
1.727528631804214e+18,-0.0015381380217149854,1.8279262803844176e-05,0.0027328249998390675
1.727528631807214e+18,0.0007497284095734358,0.0013901839265599847,0.0007746821502223611
1.7275286318132142e+18,0.0019048608373850584,0.001778159523382783,0.0004316599515732378
1.7275286318192143e+18,-0.00377170043066144,-0.00029954969068057835,0.0019085053354501724
1.7275286318222144e+18,-0.001047749537974596,0.0004933462478220463,0.0019468840910121799
1.7275286318282145e+18,0.0010259036207571626,-0.0014567652251571417,0.0014106451999396086
1.7275286318342147e+18,-0.0005985164898447692,0.0022697034291923046,-0.0002359450882067904
1.7275286318372147e+18,0.004264770075678825,-0.0010017233435064554,0.001555891358293593
1.7275286318432148e+18,-0.0015166091034188867,0.003766506677493453,0.001692352001555264
1.727528631849215e+18,0.0007057493203319609,-0.002409812994301319,-0.0003792208735831082
1.727528631852215e+18,-0.0018494641408324242,-0.0033739323262125254,-0.00016485208470840007
1.7275286318582152e+18,0.0004069666611030698,-0.0013691423228010535,0.0002842137182597071
1.7275286318642153e+18,0.0010957359336316586,-0.0008173746755346656,-0.0011072299676015973
1.7275286318702154e+18,-0.002308998955413699,-0.00019035041623283178,-0.0015030961949378252
1.7275286318732155e+18,0.0025312427897006273,0.00417386693879962,-0.00042085134191438556
1.7275286318792156e+18,0.002074210671707988,-0.0005926868179813027,-0.0014652581885457039
1.7275286318852157e+18,-0.0028322271537035704,0.00010111024312209338,0.001253965892829001
1.7275286318882158e+18,-0.0003141838824376464,-0.00018067234486807138,-0.00015787998563610017
1.727528631894216e+18,0.0012543952325358987,0.0014790708664804697,-0.00037682612310163677
1.727528631900216e+18,-0.001124058268032968,-0.0012169157853350043,0.00022137936321087182
1.727528631903216e+18,-0.0024646371603012085,0.0003817658289335668,0.0017428885912522674
1.7275286319092163e+18,0.002185090910643339,-0.0005900397663936019,0.0013506519608199596
1.7275286319152164e+18,0.0016034875297918916,0.00036467629252001643,0.0044782767072319984
1.7275286319212165e+18,0.002293247962370515,-0.0005903883720748127,0.003213119925931096
1.7275286319242166e+18,0.003205325221642852,-0.0013985101832076907,-0.002019871724769473
1.7275286319302167e+18,0.0001207129389513284,0.00035720705636776984,-0.00034443658660165966
1.7275286319362168e+18,0.0006228883285075426,0.0005527153261937201,0.000999600626528263
1.727528631942217e+18,-0.0020295691210776567,-0.0013435404980555177,0.0006298653315752745
1.727528631945217e+18,0.002205495722591877,0.0016436062287539244,-0.0014985338784754276
1.7275286319512172e+18,-0.002087957691401243,-0.0031719226390123367,-0.0005941304843872786
1.7275286319572173e+18,-0.0005094147636555135,-0.0007334349793381989,-0.0022194727789610624
1.7275286319632174e+18,-0.001233622431755066,0.001456991652958095,-0.00033161300234496593
1.7275286319662175e+18,-0.002577555598691106,0.001897886861115694,-0.0001657721004448831
1.7275286319722176e+18,-0.0006601139903068542,-0.0010809728410094976,-0.0006774759967811406
1.7275286319782177e+18,-0.002061974722892046,0.0002945971500594169,-0.002132151974365115
1.7275286319812178e+18,-0.0005059732357040048,-0.0012968642404302955,0.0016451198607683182
1.727528631987218e+18,-0.0009149088873527944,0.00023302760382648557,-0.0032385587692260742
1.727528631993218e+18,-0.0005021268734708428,-0.0012491848319768906,0.0025135334581136703
1.7275286319992182e+18,-5.6055701861623675e-05,0.002952628768980503,0.0014896598877385259
1.7275286320022182e+18,0.0006894578691571951,0.00021842338901478797,-0.0012257033959031105
1.7275286320082184e+18,0.0013442464405670762,0.00020745047368109226,-0.00040911149699240923
1.7275286320142185e+18,-0.0009899060241878033,-0.001176045392639935,0.002403315855190158
1.7275286320172186e+18,-0.00018017031834460795,9.420205606147647e-05,0.000670251261908561
1.7275286320232187e+18,0.0003931691753678024,0.0013686990132555366,-0.000630851136520505
1.7275286320292188e+18,0.0013547521084547043,-0.0028780887369066477,0.00021136048599146307
1.727528632032219e+18,0.001890022773295641,0.001573509769514203,-0.000637503108009696
1.727528632038219e+18,-0.00010228944302070886,-0.00016250669432338327,-0.0005605843034572899
1.7275286320442191e+18,0.0014724027132615447,-0.00039306122926063836,-0.00040842615999281406
1.7275286320502193e+18,0.001487868488766253,-0.0007189317839220166,-0.0013732262887060642
1.7275286320532193e+18,-0.0008146933396346867,0.001951670041307807,-0.00044210042688064277
1.7275286320592195e+18,-0.0019070282578468323,0.0005075001390650868,7.805028144503012e-05
1.7275286320652196e+18,-0.0026803493965417147,-7.508533599320799e-05,0.0012411843053996563
1.7275286320712197e+18,-0.0006473831599578261,-0.0022674803622066975,0.001308045582845807
1.7275286320742198e+18,-0.002212635474279523,-0.001775061129592359,-0.0020898724906146526
1.72752863208022e+18,-0.0010065434034913778,0.0004659939731936902,0.0019535194151103497
1.72752863208622e+18,-0.0003853667585644871,0.0008951702038757503,0.0005374560714699328
1.7275286320922202e+18,-0.0012134375283494592,-0.000765296455938369,0.0010324856266379356
1.7275286320952202e+18,-0.0006959356251172721,0.0035875490866601467,0.0024031067732721567
1.7275286321012204e+18,-0.0013421305920928717,-0.0010464855004101992,-0.0011775944149121642
1.7275286321072205e+18,0.0014925830764696002,-0.0009857947006821632,0.0010301762958988547
1.7275286321132206e+18,0.0004992088070139289,0.0003031107480637729,-0.0008134234230965376
1.7275286321192207e+18,-0.0006276702624745667,0.0017434816109016538,0.0010709621710702777
1.7275286321222208e+18,-0.0015809230972081423,-0.0012180405901744962,-0.000905962660908699
1.727528632128221e+18,-0.0030505654867738485,0.00013990490697324276,0.0028046811930835247
1.727528632134221e+18,-0.00046138704055920243,0.0017050891183316708,0.0003910392115358263
1.7275286321402212e+18,0.002543312730267644,0.001967944670468569,-0.00022506152163259685
1.7275286321462213e+18,-0.00014950257900636643,-0.0019401928875595331,0.00030310795409604907
1.7275286321522214e+18,-0.0004388811066746712,-0.0021472384687513113,-0.0003104205534327775
1.7275286321552215e+18,-0.0001611503103049472,0.00045168260112404823,-0.0015241894870996475
1.7275286321612216e+18,-0.003149406984448433,0.0007602881523780525,0.0001921219954965636
1.7275286321672218e+18,0.002311182441189885,-0.0008468337473459542,-0.00146764749661088
1.727528632173222e+18,-0.000737575173843652,-0.0005368220154196024,0.0008052066550590098
1.727528632179222e+18,-0.0014386160764843225,-0.0002107580512529239,0.0014011380262672901
1.727528632182222e+18,-0.003008974716067314,-0.0004297361010685563,0.000659255194477737
1.7275286321882222e+18,-0.0003014815738424659,0.000900515413377434,0.003170859767124057
1.7275286321942223e+18,-0.0005810832954011858,0.00034992751898244023,0.0007593664340674877
1.7275286321972224e+18,-0.0007339033181779087,-0.0009203542722389102,-0.001330906292423606
1.7275286322032225e+18,0.0017628540517762303,-0.0011077572125941515,0.0005180822336114943
1.7275286322092227e+18,-0.00031734362710267305,0.0008244771743193269,0.001092278165742755
1.7275286322152228e+18,-0.0028659000527113676,0.00015041972801554948,0.003910205326974392
1.7275286322182228e+18,-0.0022921680938452482,0.0010698902187868953,-0.0009561730548739433
1.727528632224223e+18,-0.00037316305679269135,0.0002675577998161316,-0.0008101110579445958
1.727528632230223e+18,-0.00048390330630354583,0.0003412179939914495,8.33113954286091e-05
1.7275286322362232e+18,0.0018236044561490417,-0.0014171531656756997,-0.000741943484172225
1.7275286322422234e+18,-0.0015344391576945782,0.0018147005466744304,0.0007463162182830274
1.7275286322452234e+18,0.0023919856175780296,-0.0024228591937571764,0.00045408858568407595
1.7275286322512236e+18,-0.0025794922839850187,0.0034399013966321945,-0.003615493420511484
1.7275286322572237e+18,0.001016271417029202,0.0016426490619778633,-0.0010623411508277059
1.7275286322632238e+18,0.0011024940758943558,-0.0003475509292911738,-0.0015434578526765108
1.727528632269224e+18,0.0005504651926457882,-0.0007049308624118567,0.0014961424749344587
1.727528632272224e+18,0.00031637278152629733,0.0010450552217662334,0.00044981928658671677
1.7275286322782241e+18,-0.0003705459530465305,0.0013778776628896594,0.0007101144292391837
1.7275286322842243e+18,0.0011374206515029073,0.00010226274753222242,0.0015672174049541354
1.7275286322872243e+18,-0.0009320950484834611,0.00031734988442622125,-0.0005623613251373172
1.7275286322932244e+18,-0.0012198803015053272,-0.003140013199299574,0.0016444658394902945
1.7275286322992246e+18,0.001838381984271109,-0.0019450910622254014,0.0011342758079990745
1.7275286323022246e+18,0.00014532177010551095,-0.0021392793860286474,0.000420129275880754
1.7275286323082248e+18,-0.0005229923990555108,-0.0016406616196036339,-0.0003780330589506775
1.727528632314225e+18,0.0009821432176977396,0.00012029796198476106,0.0016315673710778356
1.727528632320225e+18,-0.0027568861842155457,0.0005277654272504151,-0.0017106594750657678
1.7275286323262252e+18,-0.004624057095497847,-0.0019651770126074553,0.0003425122704356909
1.7275286323322253e+18,-0.0010298839770257473,-0.001349304337054491,0.0016604089178144932
1.7275286323352253e+18,0.0011003118706867099,-3.575594018911943e-05,0.0012887738412246108
1.7275286323412255e+18,0.0008163850870914757,0.0008314493461512029,0.000945193984080106
1.7275286323472256e+18,0.002366757718846202,0.0026701295282691717,-0.001467978348955512
1.7275286323532257e+18,-0.0007896195165812969,-0.001343469601124525,0.0017462357645854354
1.7275286323562258e+18,0.00099990947637707,-0.001877338974736631,-0.0009263089741580188
1.727528632362226e+18,0.00041069183498620987,-9.806739399209619e-05,0.000922864768654108
1.727528632368226e+18,-0.0004805753706023097,0.00024946764460764825,0.00042970519280061126
1.727528632371226e+18,0.0013055072631686926,0.0005744057125411928,-0.0011383239179849625
1.7275286323772262e+18,0.002153267152607441,0.0004027874965686351,-4.2005394789157435e-05
1.7275286323832264e+18,-0.000982270808890462,-0.0003699258668348193,-0.001849962631240487
1.7275286323892265e+18,0.0003507479268591851,-0.0025099124759435654,-0.0006977055454626679
1.7275286323952266e+18,0.0015248223207890987,0.0018379517132416368,0.0027771785389631987
1.7275286324012268e+18,-0.00028496337472461164,1.6330803191522136e-05,0.0005865460261702538
1.7275286324042268e+18,-0.001803050166927278,0.002066410146653652,0.0016965807881206274
1.727528632410227e+18,-0.0017344244988635182,0.0007255970849655569,0.003593022469431162
1.727528632416227e+18,0.0007810097886249423,-0.000411936198361218,-0.001408749376423657
1.7275286324192271e+18,0.0038691360969096422,0.00016627419972792268,0.0014562917640432715
1.7275286324252273e+18,-0.0007831024704501033,0.00010350215598009527,-0.0023167866747826338
1.7275286324312274e+18,-0.001212912262417376,-0.001615425106137991,0.0006842560251243412
1.7275286324342275e+18,0.001938303466886282,0.0025358402635902166,0.00019073733710683882
1.7275286324402276e+18,-0.001292046275921166,0.0008739702752791345,-0.000838512263726443
1.7275286324462277e+18,8.54046011227183e-05,-0.002089699497446418,-9.200862223224249e-06
1.7275286324522278e+18,7.770665251882747e-05,0.0020522784907370806,0.0019673698116093874
1.727528632455228e+18,-0.001233213464729488,0.0010405473876744509,0.0012503784382715821
1.727528632461228e+18,0.002426654100418091,0.002777748741209507,-0.0019373988034203649
1.7275286324672282e+18,-0.0014689686940982938,-0.004651795607060194,0.0018764060223475099
1.7275286324732283e+18,0.001024747733026743,9.104485070565715e-05,-0.00121869589202106
1.7275286324762284e+18,-0.0009512368123978376,-0.0029487870633602142,-0.000855600053910166
1.7275286324822285e+18,0.0010834649438038468,0.0016778435092419386,4.6698311052750796e-05
1.7275286324882286e+18,0.0033888237085193396,-0.0002455121139064431,0.0007687730831094086
1.7275286324912287e+18,-0.0023075335193425417,0.004934218712151051,-0.0010123036336153746
1.7275286324972288e+18,-0.00227086478844285,-0.0016870454419404268,0.0008570027421228588
1.727528632503229e+18,-0.00020284176571294665,0.0022975821048021317,0.0003764046705327928
1.727528632509229e+18,-3.3719839848345146e-05,0.0007524645770899951,-0.0012066350318491459
1.727528632512229e+18,0.002981793601065874,-0.0037933429703116417,-0.0011120660929009318
1.7275286325182292e+18,0.0003596965398173779,-0.001149559742771089,0.00011869726586155593
1.7275286325242294e+18,-0.0014326124219223857,0.0021831172052770853,0.0017247310606762767
1.7275286325272294e+18,-0.002875166479498148,-0.0016707014292478561,0.0010072860168293118
1.7275286325332296e+18,0.001465971115976572,-5.631230305880308e-05,-2.8115011446061544e-05
1.7275286325392297e+18,0.0037454620469361544,0.0005828460562042892,0.0009763139532878995
1.7275286325422298e+18,0.0005324754165485501,0.0038510418962687254,0.002533259801566601
1.72752863254823e+18,-0.0002665366919245571,-0.001892982516437769,-0.0005206019268371165
1.72752863255423e+18,0.0011635103728622198,-0.00422805966809392,0.0003289074811618775
1.7275286325602301e+18,-0.0012574326246976852,-9.544926433591172e-05,0.00036210965481586754
1.7275286325662303e+18,-0.0017351930728182197,0.0015434393426403403,-0.0012347687734290957
1.7275286325692303e+18,-0.0010584614938125014,0.0020011269953101873,-0.002658048179000616
1.7275286325752305e+18,0.00043423823080956936,0.0008894840138964355,-0.0015711390879005194
1.7275286325812306e+18,-0.00015915920084808022,0.00027756646159105003,0.0023065293207764626
1.7275286325842307e+18,0.002853758865967393,0.0017938417149707675,-0.001825708313845098
1.7275286325902308e+18,0.0013987874845042825,0.001815070048905909,-0.0005009101005271077
1.727528632596231e+18,-0.0031710946932435036,-0.0010645295260474086,0.00020605591998901218
1.727528632602231e+18,-0.0016960640205070376,-0.00047465917305089533,0.0013484167866408825
1.7275286326082312e+18,-0.0013275712262839079,-0.0017559300176799297,0.0014546136371791363
1.7275286326112312e+18,0.0014859639341011643,-0.0002513207437004894,0.0014073047786951065
1.7275286326172314e+18,0.0029816527385264635,-0.0006905908812768757,-0.0006851904327049851
1.7275286326232315e+18,0.0016734356759116054,0.0005242587067186832,-0.002378280507400632
1.7275286326292316e+18,0.0011530658230185509,0.0011214833939448,0.0018624915974214673
1.7275286326352317e+18,-0.0009579957113601267,5.190458978177048e-05,-0.00016048132965806872
1.727528632641232e+18,-0.0011582496808841825,3.724497582879849e-05,0.00020952413615304977
1.727528632644232e+18,0.0021823502611368895,0.0004751609230879694,0.0008046090370044112
1.727528632650232e+18,0.001824934035539627,0.0005297985044308007,0.0009065319900400937
1.7275286326562322e+18,-0.0016696739476174116,0.0013124628458172083,-4.959939906257205e-05
1.7275286326592323e+18,0.0016918577020987868,-0.0033779472578316927,0.0027157296426594257
1.7275286326652324e+18,-0.00013574761396739632,0.002647187327966094,-0.0011360148200765252
1.7275286326712325e+18,-0.0013774572871625423,-0.002693452639505267,-0.0034453412517905235
1.7275286326772326e+18,-5.1122347940690815e-05,-0.000181421113666147,0.00038679895806126297
1.7275286326802327e+18,-0.00027614657301455736,0.00333894370123744,0.0029402279760688543
1.7275286326862328e+18,0.0017447920981794596,0.001211971859447658,-0.0012522322358563542
1.727528632692233e+18,0.0012741980608552694,0.0008642474422231317,-0.0002783185336738825
1.727528632698233e+18,-0.001414343947544694,0.002573477802798152,0.0007289555505849421
1.7275286327012332e+18,4.2867526644840837e-05,0.0015532998368144035,0.0015283889370039105
1.7275286327072333e+18,0.0006786306039430201,0.00038349570240825415,-0.00012222850637044758
1.7275286327132334e+18,-0.00030828494345769286,2.8223072149557993e-05,-1.2992197298444808e-05
1.7275286327192335e+18,-0.00029882052331231534,0.0017409184947609901,0.0007232233765535057
1.7275286327222336e+18,-0.001431922079063952,-0.00035666540497913957,-0.0004947687848471105
1.7275286327282337e+18,-0.00021946178458165377,0.001497581833973527,0.001468908623792231
1.7275286327342339e+18,-0.001423872890882194,-0.0022260199766606092,-0.0004041895444970578
1.727528632740234e+18,0.0006118230521678925,0.0002014039782807231,-0.0021061403676867485
1.727528632743234e+18,-0.000468860671389848,0.0005524906446225941,-0.0011181427398696542
1.7275286327492342e+18,0.0004879625339526683,0.0006937137222848833,-0.0010327837662771344
1.7275286327552343e+18,-0.002963182982057333,0.00031982696964405477,-0.000648869143333286
1.7275286327612344e+18,-0.0006053093238733709,-0.0011499086394906044,0.0010572508908808231
1.7275286327642345e+18,1.4587352779926732e-05,0.0008460117969661951,-0.00033937301486730576
1.7275286327702346e+18,0.0017138674156740308,0.001602583797648549,0.000723361037671566
1.7275286327792348e+18,-0.0017410048749297857,0.00015023846935946494,-0.002557836938649416
1.727528632782235e+18,-0.0014801203506067395,0.00134078913833946,-0.0016425532521679997
1.727528632788235e+18,2.2889205865794793e-05,-0.0008317987667396665,-0.002873511053621769
1.7275286327942351e+18,-0.0028793367091566324,0.001111664343625307,-0.0023332249838858843
1.7275286327972352e+18,0.003398703411221504,0.0007652440690435469,-0.0007010407862253487
1.7275286328032353e+18,0.0018372187623754144,0.0007855990552343428,6.298185326159e-05
1.7275286328092355e+18,-0.000369659363059327,-0.0011193215614184737,0.0018648231634870172
1.7275286328152356e+18,-0.0019914836157113314,-0.0008336824830621481,-0.00021325080888345838
1.7275286328212357e+18,-0.0010790356900542974,-0.002137992065399885,-0.00033865385921671987
1.7275286328242358e+18,-6.391855276888236e-05,0.0006982295890338719,-0.002919221529737115
1.727528632830236e+18,-0.00016760810103733093,-0.002009626943618059,-0.0008044526912271976
1.727528632836236e+18,0.000574573699850589,0.0008237611036747694,0.0016457262681797147
1.727528632839236e+18,0.0005159061402082443,0.00038367602974176407,0.001375097082927823
1.7275286328452362e+18,-0.004127247724682093,0.000769286707509309,-0.0008770183776505291
1.7275286328512364e+18,0.0002712025016080588,0.0015837126411497593,0.001318708062171936
1.7275286328572365e+18,0.0008803644450381398,-0.0020928592421114445,-0.0006707494612783194
1.7275286328602365e+18,0.0045824856497347355,2.4495409434166504e-06,0.0010184000711888075
1.7275286328662367e+18,-0.0014661247842013836,-0.000306504633044824,0.0007665927987545729
1.7275286328722368e+18,-0.0010760133154690266,-0.002932942006736994,-0.0017253287369385362
1.727528632878237e+18,0.00108465610537678,-0.0017284289933741093,0.0010908980621024966
1.727528632884237e+18,-0.00039823673432692885,0.0007765198242850602,-0.0011981152929365635
1.727528632887237e+18,0.0017274705460295081,-0.0007847755332477391,0.0017797057516872883
1.7275286328932372e+18,-0.0010902482317760587,0.0020855898037552834,0.0012071210658177733
1.7275286328992374e+18,0.0025475514121353626,-0.0008745559607632458,-0.0012311695609241724
1.7275286329022374e+18,-0.0008478270028717816,0.0005436561768874526,-0.001763082342222333
1.7275286329082376e+18,-0.00026198881096206605,0.0006207606056705117,0.0004142369143664837
1.7275286329142377e+18,-0.003166613169014454,-0.003172271652147174,0.0012861985014751554
1.7275286329202378e+18,-0.0027803764678537846,-0.0002510719350539148,0.0015859364066272974
1.727528632923238e+18,-0.0003298866213299334,0.0015262120869010687,0.0008732217829674482
1.727528632929238e+18,-0.0012152866693213582,0.000505689880810678,-0.0009318398078903556
1.7275286329352381e+18,-0.0007585944258607924,0.0004935647593811154,-0.0003679549554362893
1.7275286329412383e+18,0.0023953737691044807,0.0014091510092839599,-0.001417872728779912
1.7275286329472384e+18,-0.002077080775052309,-0.00020517586381174624,-0.0008413839968852699
1.7275286329502385e+18,0.0010542188538238406,0.000654420000500977,-0.0030557590071111917
1.7275286329562386e+18,0.0030314770992845297,-8.187824278138578e-05,-0.0006472389795817435
1.7275286329592387e+18,-0.0004294975660741329,-0.0008744325605221093,0.004008746240288019
1.7275286329652388e+18,0.0003045288030989468,0.00021335638302844018,0.0006961064646020532
1.727528632971239e+18,-0.0014409559080377221,0.0006759895477443933,0.0008104591397568583
1.727528632977239e+18,0.0014692562399432063,0.00047280313447117805,-0.00016539133503101766
1.727528632980239e+18,-0.003099883673712611,-0.0006611515418626368,-0.0005288330721668899
1.7275286329862392e+18,-0.0012352748308330774,0.0026766788214445114,-0.000778394634835422
1.7275286329922394e+18,-0.00415495689958334,-0.009051051922142506,-0.0004392692935653031
1.7275286329982395e+18,-0.013768253847956657,-0.03201867267489433,0.001483275438658893
1.7275286330042396e+18,-0.02861737832427025,-0.0566730834543705,-0.0003984970098827034
1.7275286330072397e+18,-0.034511636942625046,-0.0718410387635231,0.0003540608158800751
1.7275286330132398e+18,-0.04459214210510254,-0.09326346218585968,-0.004099874757230282
1.72752863301924e+18,-0.054768335074186325,-0.1079721450805664,0.0003077454457525164
1.72752863302524e+18,-0.05338789522647858,-0.12095364928245544,0.003721794579178095
1.7275286330282401e+18,-0.057697195559740067,-0.1205623522400856,0.0007741943118162453
1.7275286330342403e+18,-0.05733795091509819,-0.1248365268111229,0.0005706881638616323
1.7275286330402404e+18,-0.046011943370103836,-0.11584246158599854,-0.002210332080721855
1.7275286330462405e+18,-0.04530072212219238,-0.11072021722793579,0.0016406012000516057
1.7275286330492406e+18,-0.03906765952706337,-0.1074303612112999,0.004666440188884735
1.7275286330552407e+18,-0.03754369169473648,-0.10372696071863174,0.001719996682368219
1.7275286330612408e+18,-0.035743437707424164,-0.09960179030895233,0.0011126219760626554
1.727528633067241e+18,-0.036840323358774185,-0.1004234179854393,0.0014712343690916896
1.727528633073241e+18,-0.04063272476196289,-0.1029871329665184,-0.00018511514645069838
1.7275286330792412e+18,-0.049051638692617416,-0.10719849169254303,-0.0003660530492197722
1.7275286330852413e+18,-0.04906347393989563,-0.10825635492801666,-0.0007828535744920373
1.7275286330882414e+18,-0.04800131916999817,-0.10913247615098953,0.0006944907363504171
1.7275286330942415e+18,-0.04822913557291031,-0.10846076905727386,0.004702657926827669
1.7275286331002417e+18,-0.04706330969929695,-0.10843726992607117,0.003240480786189437
1.7275286331062418e+18,-0.040808696299791336,-0.10074391216039658,0.00200973660685122
1.727528633112242e+18,-0.03433341532945633,-0.09451805800199509,0.0017140485579147935
1.727528633118242e+18,-0.028303958475589752,-0.08463986217975616,0.0024239574559032917
1.7275286331242422e+18,-0.025147275999188423,-0.07596198469400406,-0.0007875344017520547
1.7275286331272422e+18,-0.023620247840881348,-0.0723227933049202,0.00017193530220538378
1.7275286331362424e+18,-0.02022876776754856,-0.06314700096845627,-0.000641833059489727
1.7275286331392425e+18,-0.022987887263298035,-0.06095803529024124,-0.0034090771805495024
1.7275286331452426e+18,-0.021225620061159134,-0.058553069829940796,0.002203636569902301
1.7275286331512428e+18,-0.024433482438325882,-0.054402906447649,0.002180369570851326
1.727528633157243e+18,-0.02538980543613434,-0.0530395433306694,-0.002079876372590661
1.727528633163243e+18,-0.022835388779640198,-0.04896857962012291,0.00041165435686707497
1.727528633166243e+18,-0.018027249723672867,-0.048493143171072006,0.0018865709425881505
1.7275286331722432e+18,-0.016934644430875778,-0.04006627947092056,0.003057303838431835
1.7275286331782433e+18,-0.010178500786423683,-0.035823363810777664,-0.0005138234701007605
1.7275286331842435e+18,-0.002190059283748269,-0.026211902499198914,0.0006380067788995802
1.7275286331902436e+18,-0.0005396418273448944,-0.021608108654618263,0.0019493864383548498
1.7275286331932436e+18,0.000384243146982044,-0.020125754177570343,-0.0019635348580777645
1.7275286331992438e+18,0.0035367365926504135,-0.014413108117878437,-0.0001379905443172902
1.727528633205244e+18,0.004285766277462244,-0.011885978281497955,-0.0009433580562472343
1.727528633211244e+18,0.0031040466856211424,-0.0060052648186683655,0.0005760350613854825
1.7275286332172442e+18,0.003938860725611448,-0.004572947043925524,0.0007200532127171755
1.7275286332232443e+18,0.0008347342372871935,0.001262602978385985,-0.0011256420984864235
1.7275286332292444e+18,-0.00019334879470989108,0.0024815078359097242,0.0002535905805416405
1.7275286332322445e+18,-0.0018658213084563613,0.004685876425355673,-0.0005267361993901432
1.7275286332382446e+18,0.005241024307906628,0.007489121984690428,0.0012020529247820377
1.7275286332442447e+18,0.005870184861123562,0.015588422305881977,0.000396345101762563
1.7275286332502449e+18,0.007714143022894859,0.01977718435227871,0.0008799382485449314
1.727528633256245e+18,0.01241480465978384,0.024407070130109787,0.00023623753804713488
1.727528633262245e+18,0.015105800703167915,0.02447974495589733,0.0026884889230132103
1.7275286332652452e+18,0.01580255851149559,0.027780845761299133,-0.0021646597888320684
1.7275286332712453e+18,0.013660803437232971,0.029622994363307953,0.0003066626959480345
1.7275286332772454e+18,0.015077117830514908,0.032792478799819946,0.000563166628126055
1.7275286332832456e+18,0.0139198899269104,0.03462327644228935,0.001344580203294754
1.7275286332892457e+18,0.012089264579117298,0.03769642114639282,0.0014597082044929266
1.7275286332952458e+18,0.009654744528234005,0.039004627615213394,0.0011900406097993255
1.727528633301246e+18,0.011617964133620262,0.042618993669748306,0.000713244779035449
1.727528633307246e+18,0.0134958541020751,0.046609047800302505,0.002963302657008171
1.7275286333102461e+18,0.012416871264576912,0.04660655930638313,0.0009154847357422113
1.7275286333162463e+18,0.01144434418529272,0.04731020703911781,0.001173081691376865
1.7275286333222464e+18,0.01790779083967209,0.045462965965270996,0.0013252564240247011
1.7275286333282465e+18,0.01659163273870945,0.051673952490091324,0.00019878899911418557
1.7275286333312466e+18,0.019851963967084885,0.04934398829936981,0.0010664744768291712
1.7275286333372467e+18,0.017476268112659454,0.05088729038834572,0.0017906196881085634
1.7275286333432468e+18,0.019895393401384354,0.05267278105020523,-0.0003973015118390322
1.727528633349247e+18,0.018275996670126915,0.05107250064611435,0.0015872630756348372
1.727528633355247e+18,0.01836378127336502,0.05539238452911377,0.0022174990735948086
1.7275286333612472e+18,0.013759543187916279,0.054524727165699005,0.0012965570203959942
1.7275286333642473e+18,0.015372132882475853,0.051995523273944855,0.0010719465790316463
1.7275286333702474e+18,0.015279032289981842,0.05514923483133316,0.0037518683820962906
1.7275286333762476e+18,0.016284124925732613,0.05231260880827904,0.0002920032129622996
1.7275286333822477e+18,0.017090806737542152,0.05389649420976639,-0.0009094923734664917
1.7275286333882478e+18,0.01856715977191925,0.05065803602337837,0.0004994222545064986
1.727528633391248e+18,0.019753798842430115,0.05136734992265701,0.0016430309042334557
1.727528633397248e+18,0.015878424048423767,0.05488608032464981,0.0023038340732455254
1.727528633403248e+18,0.015558529645204544,0.05179774388670921,0.0008932737400755286
1.7275286334092483e+18,0.019214032217860222,0.04934476688504219,0.0008997053373605013
1.7275286334152484e+18,0.022369910031557083,0.05354434996843338,0.0027227310929447412
1.7275286334212485e+18,0.018092667683959007,0.04745665192604065,0.0008049447787925601
1.7275286334272486e+18,0.01995948888361454,0.05112231522798538,0.0034902594052255154
1.7275286334302487e+18,0.017847364768385887,0.0484556183218956,0.0025026872754096985
1.7275286334362488e+18,0.01900431700050831,0.05112769082188606,0.000731232576072216
1.727528633442249e+18,0.018099021166563034,0.04910828545689583,0.004122227430343628
1.727528633448249e+18,0.016069795936346054,0.04915136471390724,0.0022254958748817444
1.7275286334512492e+18,0.019540859386324883,0.04904666170477867,0.0015715169720351696
1.7275286334572493e+18,0.016508476808667183,0.04717446491122246,0.0015284547116607428
1.7275286334632494e+18,0.016202252358198166,0.0477522537112236,0.0010686959140002728
1.7275286334692495e+18,0.018395844846963882,0.04673297703266144,-0.0008323761867359281
1.7275286334722496e+18,0.018289737403392792,0.044667910784482956,0.004308261442929506
1.7275286334782497e+18,0.018607059493660927,0.044482871890068054,0.0005141102010384202
1.7275286334842499e+18,0.018084242939949036,0.04582329839468002,0.0026903327088803053
1.72752863349025e+18,0.021244123578071594,0.044169872999191284,0.001362497336231172
1.72752863349325e+18,0.017304131761193275,0.04238766431808472,0.0038558808155357838
1.7275286334992502e+18,0.018472226336598396,0.04083370789885521,-0.00028549402486532927
1.7275286335052503e+18,0.018391499295830727,0.03998188674449921,7.299846038222313e-05
1.7275286335112504e+18,0.014952643774449825,0.03928746283054352,0.0030568325892090797
1.7275286335142505e+18,0.01603323221206665,0.040389154106378555,0.00048438215162605047
1.7275286335202506e+18,0.01342883612960577,0.03729995712637901,0.0013624588027596474
1.7275286335262508e+18,0.011830939911305904,0.036075156182050705,0.000993334106169641
1.7275286335292508e+18,0.014685007743537426,0.03182286024093628,0.003625251352787018
1.727528633535251e+18,0.015590734779834747,0.03170502930879593,0.0017630120273679495
1.727528633541251e+18,0.012135162018239498,0.03417321667075157,0.0019948435947299004
1.7275286335472512e+18,0.013411103747785091,0.03381502628326416,0.003161781467497349
1.7275286335532513e+18,0.016229914501309395,0.029589686542749405,0.002973443130031228
1.7275286335562514e+18,0.014348645694553852,0.03105129860341549,0.0017664403421804309
1.7275286335622515e+18,0.011563420295715332,0.028592921793460846,0.0015592511044815183
1.7275286335682516e+18,0.013449919410049915,0.028006363660097122,0.0016623236006125808
1.7275286335742518e+18,0.012924166396260262,0.024065297096967697,0.0011377623304724693
1.7275286335772518e+18,0.012240568175911903,0.031064458191394806,0.002479087095707655
1.727528633583252e+18,0.010478958487510681,0.027063550427556038,0.0019663511775434017
1.727528633589252e+18,0.013904212974011898,0.027433142066001892,-0.00020206416957080364
1.7275286335922522e+18,0.011420059949159622,0.025630520656704903,-0.0011565147433429956
1.7275286335982523e+18,0.011930711567401886,0.02779882401227951,0.003095588181167841
1.7275286336042524e+18,0.005713521968573332,0.02566792629659176,-0.00029749481473118067
1.7275286336102525e+18,0.012307635508477688,0.024755991995334625,0.001948587829247117
1.7275286336162527e+18,0.0088252704590559,0.02423148788511753,-0.000372324138879776
1.7275286336192527e+18,0.010174077935516834,0.0239504836499691,-9.154295548796654e-05
1.7275286336252529e+18,0.007937123998999596,0.02377765253186226,-0.0012198780896142125
1.727528633631253e+18,0.007422731723636389,0.023782799020409584,0.0032757166773080826
1.727528633637253e+18,0.010574784129858017,0.022403782233595848,0.0005275561707094312
1.7275286336432532e+18,0.009214465506374836,0.026009012013673782,0.00242846948094666
1.7275286336462533e+18,0.007065119221806526,0.021032515913248062,-0.0009563090279698372
1.7275286336522534e+18,0.011269718408584595,0.021738044917583466,0.0035714206751435995
1.7275286336582536e+18,0.0059728799387812614,0.01785586029291153,0.002230860525742173
1.7275286336642537e+18,0.003844688879325986,0.018497630953788757,0.0007863169303163886
1.7275286336672538e+18,0.008680261671543121,0.019255539402365685,-0.0006669284775853157
1.727528633673254e+18,0.006732001900672913,0.01735202595591545,0.002313819248229265
1.727528633679254e+18,0.0048142168670892715,0.018606070429086685,0.0026402827352285385
1.7275286336852541e+18,0.005862449295818806,0.01552493590861559,0.000999992247670889
1.7275286336882542e+18,0.004783863201737404,0.018048111349344254,-0.0010175768984481692
1.7275286336942543e+18,0.00987088494002819,0.02022777497768402,0.0038136704824864864
1.7275286337002545e+18,0.00739780068397522,0.01982841081917286,0.001805621781386435
1.7275286337062546e+18,0.007496672682464123,0.018002882599830627,0.0007478897459805012
1.7275286337092547e+18,0.004570877179503441,0.016996651887893677,0.0029747579246759415
1.7275286337152548e+18,0.007381013594567776,0.01594371907413006,0.0017409936990588903
1.727528633721255e+18,0.0077715846709907055,0.015953171998262405,-0.00119996746070683
1.727528633724255e+18,0.0034667253494262695,0.01593169756233692,0.0007981859380379319
1.727528633730255e+18,0.005796148907393217,0.014111160300672054,-0.0007590267341583967
1.7275286337362552e+18,0.004444039426743984,0.011515231803059578,0.0035099931992590427
1.7275286337392553e+18,0.008106549270451069,0.008551518432796001,0.0016844917554408312
1.7275286337452554e+18,0.004214792046695948,0.012384441681206226,0.0033750291913747787
1.7275286337512556e+18,0.008083762601017952,0.010488885454833508,0.0019487610552459955
1.7275286337572557e+18,0.007441994734108448,0.011848890222609043,0.002002980560064316
1.7275286337602557e+18,0.007632480934262276,0.010711230337619781,0.003675839863717556
1.7275286337662559e+18,0.00911413412541151,0.012726157903671265,0.004016323946416378
1.727528633772256e+18,0.007574884686619043,0.01207869965583086,0.0016353114042431116
1.7275286337782561e+18,0.0050082397647202015,0.013474027626216412,0.004510997328907251
1.7275286337842563e+18,0.00807819701731205,0.010231304913759232,0.0009367548627778888
1.7275286337902564e+18,0.0072595844976603985,0.010423709638416767,-8.845352567732334e-05
1.7275286337932564e+18,0.006731115747243166,0.011698638089001179,0.0026186981704086065
1.7275286337992566e+18,0.004663091618567705,0.010160746984183788,0.0076127974316477776
1.7275286338052567e+18,0.003560054348781705,0.008804946206510067,0.0017217404674738646
1.7275286338112568e+18,0.006833926774561405,0.008484827354550362,0.0006388064939528704
1.727528633817257e+18,0.0010735741816461086,0.006832272280007601,0.004607898183166981
1.727528633820257e+18,0.003773342352360487,0.008929498493671417,0.0034554782323539257
1.7275286338262572e+18,0.003622580785304308,0.005293072201311588,0.006641923915594816
1.7275286338322573e+18,0.004756757989525795,0.007377948611974716,0.002793656662106514
1.7275286338382574e+18,0.004789732396602631,0.004041460808366537,0.0005329123232513666
1.7275286338412575e+18,0.005871910136193037,0.008944935165345669,0.0016198268858715892
1.7275286338472576e+18,0.007965398952364922,0.00851539894938469,0.002783058676868677
1.7275286338532577e+18,0.005414366722106934,0.010306289419531822,0.00590513227507472
1.7275286338592579e+18,0.0050811138935387135,0.011214736849069595,0.0031250473111867905
1.727528633865258e+18,0.0038052303716540337,0.011599487625062466,0.0035094975028187037
1.727528633868258e+18,0.006037944927811623,0.01203696709126234,0.0008724310901015997
1.7275286338742582e+18,0.006159084849059582,0.00878681056201458,0.0013870892580598593
1.7275286338802583e+18,0.0037195656914263964,0.008335468359291553,0.0026482907123863697
1.7275286338862584e+18,0.008399598300457,0.008944173343479633,0.005273093469440937
1.7275286338892585e+18,0.005055091343820095,0.008022183552384377,0.004512702114880085
1.7275286338952586e+18,0.00479004206135869,0.00466545857489109,0.003951792139559984
1.7275286339012588e+18,0.0063447775319218636,0.007546016480773687,0.004147825296968222
1.727528633907259e+18,0.0068637533113360405,0.005693876650184393,0.0037664659321308136
1.727528633910259e+18,0.004986512009054422,0.005190500523895025,0.0036199886817485094
1.727528633916259e+18,0.005146227311342955,0.00882392842322588,0.002402713755145669
1.7275286339222592e+18,0.006326292175799608,0.00850902870297432,0.004698408767580986
1.7275286339282593e+18,0.004502485506236553,0.01064061839133501,0.004146719817072153
1.7275286339312594e+18,0.006713599432259798,0.011659711599349976,0.0038471142761409283
1.7275286339372595e+18,0.003693693084642291,0.011927653104066849,0.003938810434192419
1.7275286339432596e+18,0.004123692866414785,0.013847870752215385,0.0029575196094810963
1.7275286339492598e+18,0.0021104421466588974,0.012446961365640163,0.005435611587017775
1.7275286339522598e+18,0.0031214889604598284,0.009205115959048271,0.004794672131538391
1.72752863395826e+18,0.001845794846303761,0.009284929372370243,0.002287855837494135
1.72752863396426e+18,0.004336008336395025,0.007960814982652664,0.0027997158467769623
1.7275286339702602e+18,0.002920001745223999,0.007611131761223078,0.004035660531371832
1.7275286339762604e+18,0.007815795950591564,0.006709869485348463,0.003683215705677867
1.7275286339792604e+18,0.0075361402705311775,0.008680157363414764,0.003932526335120201
1.7275286339852605e+18,0.0032753166742622852,0.009480774402618408,0.0050979722291231155
1.7275286339912607e+18,0.006809081416577101,0.008960604667663574,0.0026705977506935596
1.7275286339942607e+18,0.005281898193061352,0.006766719743609428,0.0033802867401391268
1.7275286340002609e+18,0.006488041486591101,0.008620492182672024,0.0019790304359048605
1.727528634006261e+18,0.006980291102081537,0.011821954511106014,0.00711868517100811
1.727528634012261e+18,0.003372411709278822,0.00934916827827692,0.003082582028582692
1.7275286340182612e+18,0.003505227155983448,0.011084231548011303,0.006240964401513338
1.7275286340212613e+18,0.006256874185055494,0.010413468815386295,0.005079057067632675
1.7275286340272614e+18,0.004255759995430708,0.012503014877438545,0.007536226883530617
1.7275286340332616e+18,0.004249558784067631,0.012107957154512405,0.0052489908412098885
1.7275286340362616e+18,0.00826885737478733,0.010468625463545322,0.00567767396569252
1.7275286340422618e+18,0.007554173935204744,0.011613705195486546,0.004500288981944323
1.727528634048262e+18,0.007648954167962074,0.009963742457330227,0.005115503445267677
1.727528634054262e+18,0.010604324750602245,0.008994081988930702,0.008647017180919647
1.727528634057262e+18,0.009305894374847412,0.00808756984770298,0.008549968712031841
1.7275286340632622e+18,0.010441352613270283,0.00787736289203167,0.007317723706364632
1.7275286340692623e+18,0.008700015023350716,0.004445485770702362,0.006785954348742962
1.7275286340752625e+18,0.00672068540006876,0.0069725289940834045,0.003231828333809972
1.7275286340782625e+18,0.005506865214556456,0.00757609261199832,0.005332577973604202
1.7275286340842627e+18,0.006493152119219303,0.003442838555201888,0.005566092673689127
1.7275286340902628e+18,0.007460246793925762,0.005143750458955765,0.005111597012728453
1.727528634096263e+18,0.005609533283859491,0.005025817081332207,0.006911071017384529
1.727528634099263e+18,0.0043732039630413055,0.005658759735524654,0.006902621127665043
1.727528634105263e+18,0.009960129857063293,0.006707000080496073,0.008452480658888817
1.7275286341112632e+18,0.007441192865371704,0.008451445028185844,0.004023420624434948
1.7275286341172634e+18,0.010291129350662231,0.007999023422598839,0.00487843994051218
1.7275286341232635e+18,0.011974740773439407,0.007767759263515472,0.005445475690066814
1.7275286341292636e+18,0.008024370297789574,0.007939662784337997,0.005949999205768108
1.7275286341322637e+18,0.007860434241592884,0.004787530284374952,0.00771376071497798
1.7275286341382638e+18,0.00950515829026699,0.00455092778429389,0.004279779270291328
1.727528634144264e+18,0.0046637337654829025,0.006415293086320162,0.005773190408945084
1.727528634150264e+18,0.002140481024980545,0.006406971253454685,0.005404144059866667
1.7275286341562642e+18,0.003750343807041645,0.004348774440586567,0.007666862569749355
1.7275286341592643e+18,0.0018145598005503416,0.004042965359985828,0.01014837995171547
1.7275286341652644e+18,-0.0017356162425130606,0.0038833608850836754,0.007909247651696205
1.7275286341712645e+18,0.0010925462702289224,0.004276785533875227,0.006854817271232605
1.7275286341772646e+18,0.00032626488246023655,0.0039032537024468184,0.005597529001533985
1.7275286341802647e+18,0.0033086598850786686,0.0020424495451152325,0.007996528409421444
1.7275286341862648e+18,0.00429594237357378,0.0028839041478931904,0.005025103222578764
1.727528634192265e+18,0.0032918499782681465,0.004480058327317238,0.00814409926533699
1.727528634198265e+18,0.006715142168104649,0.0030729863792657852,0.010038639418780804
1.7275286342012652e+18,0.005120005924254656,0.004429102875292301,0.008700994774699211
1.7275286342072653e+18,0.00742738600820303,0.005037542898207903,0.005230734124779701
1.7275286342132654e+18,0.0023587020114064217,0.00860485341399908,0.005843250080943108
1.7275286342192655e+18,0.004515867214649916,0.0034556027967482805,0.006449843291193247
1.7275286342252657e+18,0.00013234838843345642,0.006863996386528015,0.004848591983318329
1.7275286342282657e+18,0.00030589988455176353,0.008404530584812164,0.00652659498155117
1.7275286342342659e+18,-0.001771061448380351,0.006963263265788555,0.006468662526458502
1.727528634240266e+18,0.0005673441337421536,0.007848680950701237,0.007653089240193367
1.727528634246266e+18,0.000378242606529966,0.0071306731551885605,0.008471015840768814
1.7275286342522662e+18,0.000365293089998886,0.006615647114813328,0.0074488758109509945
1.7275286342552663e+18,0.0016879481263458729,0.006742415484040976,0.009254848584532738
1.7275286342612664e+18,0.002758957911282778,0.004965147003531456,0.006673639640212059
1.7275286342672666e+18,0.002830615034326911,0.006900775246322155,0.006153613328933716
1.7275286342732667e+18,0.002599067986011505,0.0037594689056277275,0.009032114408910275
1.7275286342762668e+18,0.0008957000682130456,0.0052467952482402325,0.00724564166739583
1.727528634282267e+18,-0.0019676717929542065,0.004766134545207024,0.0064947656355798244
1.727528634288267e+18,-0.0034367931075394154,0.009431840851902962,0.006680338177829981
1.727528634291267e+18,-0.004804609343409538,0.005065251141786575,0.006489468738436699
1.7275286342972672e+18,-0.0031550875864923,0.00781902577728033,0.00941348634660244
1.7275286343032673e+18,-0.00243756384588778,0.005795449949800968,0.0020898827351629734
1.7275286343092675e+18,-0.0005749400006607175,0.010828975588083267,0.005121209658682346
1.7275286343122675e+18,0.0009083678596653044,0.005744029302150011,0.006191978231072426
1.7275286343182676e+18,4.119981895200908e-05,0.00656104227527976,0.008483845740556717
1.7275286343242678e+18,0.0007387823425233364,0.0059503731317818165,0.009035094641149044
1.727528634330268e+18,0.002938145538792014,0.005211994983255863,0.007657473906874657
1.727528634336268e+18,0.0017886002315208316,0.004186609294265509,0.00660543842241168
1.727528634339268e+18,0.0006229768041521311,0.006889001000672579,0.0060313185676932335
1.7275286343452682e+18,-0.0026244367472827435,0.006945374421775341,0.006440295837819576
1.7275286343512684e+18,-0.0056909965351223946,0.007649974897503853,0.0062394458800554276
1.7275286343572685e+18,-0.007110763341188431,0.00847670715302229,0.007129599805921316
1.7275286343602685e+18,-0.006464677397161722,0.00825322326272726,0.005171054042875767
1.7275286343662687e+18,-0.005297743249684572,0.008034015074372292,0.004037761129438877
1.7275286343722688e+18,-0.00469906534999609,0.006229778286069632,0.008923761546611786
1.727528634378269e+18,-0.004031685180962086,0.0029447185806930065,0.007556327618658543
1.727528634384269e+18,0.0014897704822942615,0.004130745306611061,0.005356804467737675
1.7275286343902692e+18,-0.0011932733468711376,0.0069152796640992165,0.01213492639362812
1.7275286343932692e+18,-0.000349293346516788,0.0017543951980769634,0.005410714074969292
1.7275286343992694e+18,0.0045127784833312035,0.00505808787420392,0.007238166872411966
1.7275286344052695e+18,-0.00044675497338175774,0.006225035525858402,0.007505455054342747
1.7275286344112696e+18,0.000981503864750266,0.004410470835864544,0.0056871287524700165
1.7275286344142697e+18,0.001608974183909595,0.005478099919855595,0.006648903712630272
1.7275286344202698e+18,0.0005287424428388476,0.0009991235565394163,0.002664369996637106
1.72752863442627e+18,-0.0038476157933473587,0.007499457336962223,0.008844591677188873
1.72752863443227e+18,-0.0017714797286316752,0.0037888591177761555,0.00588466739282012
1.7275286344352701e+18,-0.001186223467811942,0.0015494364779442549,0.005897933151572943
1.7275286344412703e+18,-0.0013956701150164008,0.0023060732055455446,0.0022732303477823734
1.7275286344472704e+18,0.0007744297035969794,0.0017176162218675017,0.005495542660355568
1.7275286344532705e+18,0.00047914357855916023,-2.5094253942370415e-05,0.006644652225077152
1.7275286344562706e+18,0.004112279042601585,0.0028896492440253496,0.005070574581623077
1.7275286344622707e+18,0.006128453649580479,0.0021072763483971357,0.00567234493792057
1.7275286344682708e+18,0.0065633333288133144,0.0050954874604940414,0.006144563667476177
1.727528634471271e+18,0.005767962895333767,0.004077310673892498,0.005478706210851669
1.727528634477271e+18,0.004347245208919048,0.0035108334850519896,0.005288922227919102
1.7275286344832712e+18,0.007027358748018742,0.0055068000219762325,0.005643878597766161
1.7275286344862712e+18,0.0017769804690033197,0.004685394931584597,0.0027993819676339626
1.7275286344922714e+18,0.0019199844682589173,0.00171562354080379,0.006052549462765455
1.7275286344982715e+18,0.0028588497079908848,-0.0015783959534019232,0.006932753603905439
1.7275286345042716e+18,-0.0006752361077815294,0.0002873833291232586,0.0074338787235319614
1.7275286345102717e+18,0.00021378230303525925,-0.0004062359221279621,0.00663946196436882
1.7275286345162719e+18,0.0018861365970224142,-0.0005163564346730709,0.0075894310139119625
1.727528634519272e+18,-0.0009677943307906389,0.0033657040912657976,0.004743802826851606
1.727528634525272e+18,-0.00010329089127480984,0.002278254833072424,0.0072775594890117645
1.7275286345312722e+18,0.005739905405789614,0.0007241209968924522,0.004801922477781773
1.7275286345372723e+18,0.004531053360551596,0.0013285484164953232,0.005810026545077562
1.7275286345402724e+18,0.007119803689420223,-0.0005214897100813687,0.007031580898910761
1.7275286345462725e+18,0.005138210020959377,0.003496976802125573,0.007245963905006647
1.7275286345522726e+18,0.003950693644583225,-0.0002863210393115878,0.009329213760793209
1.7275286345582728e+18,0.005495482590049505,0.0043155234307050705,0.006687041372060776
1.727528634564273e+18,0.0030429696198552847,0.0010895745363086462,0.00421083252876997
1.727528634567273e+18,0.002462769625708461,0.0021529742516577244,0.006291617639362812
1.727528634573273e+18,-0.0002137441188097,0.0029589757323265076,0.004178063943982124
1.7275286345792732e+18,0.0021159362513571978,0.0007561921374872327,0.005592268891632557
1.7275286345852733e+18,0.0009156633168458939,0.0014704092172905803,0.004735056776553392
1.7275286345912735e+18,0.004541413858532906,-0.0013337566051632166,0.008609808050096035
1.7275286345942735e+18,0.0035128816962242126,-0.002173453802242875,0.006339263636618853
1.7275286346002737e+18,0.0050664604641497135,0.00014359259512275457,0.005453740246593952
1.7275286346062738e+18,0.0067612174898386,-0.0037612824235111475,0.004936997313052416
1.727528634612274e+18,0.004066868219524622,-0.0009783535497263074,0.004512004554271698
1.727528634618274e+18,0.003237418830394745,-0.0016238578828051686,0.0040656644850969315
1.7275286346242742e+18,0.003711852477863431,-0.001686009461991489,0.006795171648263931
1.7275286346302743e+18,0.004663682077080011,0.003208291018381715,0.0049128541722893715
1.7275286346362744e+18,0.0034651297610253096,0.002536215353757143,0.005222782026976347
1.7275286346392745e+18,0.0028369338251650333,0.002265093382447958,0.004596658982336521
1.7275286346452746e+18,0.0029977732338011265,0.0006272728787735105,0.0053833965212106705
1.7275286346512748e+18,0.002145045902580023,-0.0010442944476380944,0.004226721357554197
1.727528634657275e+18,0.004250281490385532,-0.00230787368491292,0.006375307682901621
1.727528634660275e+18,0.0010493998415768147,-0.002693402348086238,0.004018558654934168
1.727528634666275e+18,0.006690051406621933,-0.0006596394814550877,0.002246104646474123
1.7275286346722752e+18,0.003951289225369692,-0.006438740529119968,0.0023291471879929304
1.7275286346782753e+18,0.003347116755321622,-0.002890331204980612,0.005888171028345823
1.7275286346842755e+18,0.002280706539750099,-0.005369361490011215,0.007199338637292385
1.7275286346872755e+18,0.001506430795416236,-0.0029789262916892767,0.006337638944387436
1.7275286346932756e+18,0.0013585892738774419,-0.00298917549662292,0.004906415939331055
1.7275286346992758e+18,-0.0013995763147249818,-0.0011836623307317495,0.003977637272328138
1.727528634705276e+18,0.0003253787290304899,-0.0015876221004873514,0.005861351266503334
1.727528634708276e+18,-0.0008759727934375405,-0.001972740516066551,0.002161990851163864
1.727528634714276e+18,-0.00397749338299036,-0.001037053414620459,0.003945900127291679
1.7275286347202762e+18,-0.0038366473745554686,0.0003509274101816118,0.00379399536177516
1.7275286347232763e+18,-0.002202942967414856,-0.0008225901983678341,0.005668614059686661
1.7275286347292764e+18,-0.001392859616316855,-0.0027094008401036263,0.006456377450376749
1.7275286347352765e+18,-0.005314799956977367,-0.0003304933197796345,0.005844220519065857
1.7275286347412767e+18,0.000518120126798749,-0.00280917901545763,0.0031608270946890116
1.7275286347472768e+18,-0.002392384223639965,0.0002485858858563006,0.004656551871448755
1.7275286347502769e+18,-0.0007742040324956179,2.5193090550601482e-05,0.0006548555102199316
1.727528634756277e+18,-0.0026755938306450844,0.0022574642207473516,0.003748625749722123
1.727528634762277e+18,-0.001841086195781827,0.0028803457971662283,0.007886521518230438
1.7275286347682772e+18,-0.002935206750407815,0.003387190867215395,0.0026782099157571793
1.7275286347742774e+18,-0.003008971456438303,-0.0008317899191752076,0.003833835944533348
1.7275286347802775e+18,-0.0001777188153937459,0.002322438172996044,0.0045232283882796764
1.7275286347862776e+18,-0.001778877223841846,0.00047832418931648135,0.002244057599455118
1.7275286347922778e+18,-0.00012050125224050134,-9.951775427907705e-05,0.0005534898955374956
1.7275286347952778e+18,0.002613097196444869,0.002482434269040823,0.003669596975669265
1.727528634801278e+18,0.00030863654683344066,-0.0002534912491682917,0.005480721592903137
1.727528634807278e+18,0.0013519101776182652,-0.0018216446042060852,0.001946074073202908
1.7275286348132782e+18,-0.0015060706064105034,-0.00036843057023361325,0.0021744926925748587
1.7275286348162783e+18,-0.002108823973685503,-0.00012699133367277682,0.0037091136910021305
1.7275286348222784e+18,-0.0029261421877890825,0.001839920412749052,0.002927210181951523
1.7275286348282785e+18,-0.002005714923143387,-0.002193247899413109,0.00316063454374671
1.7275286348342787e+18,-0.005589593201875687,-0.0013434842694550753,0.00383372837677598
1.7275286348372787e+18,-0.004477173555642366,-0.001661510905250907,0.0018979632295668125
1.7275286348432788e+18,-0.002619983861222863,0.0022241943515837193,0.0003492026589810848
1.727528634849279e+18,-0.00018669548444449902,0.0004376040888018906,-0.0015744410920888186
1.727528634852279e+18,-0.0019314471865072846,-0.0037718028761446476,-0.0009599113836884499
1.7275286348582792e+18,-0.0023327190428972244,-0.0007456770981661975,0.0011102473363280296
1.7275286348642793e+18,-0.0010928432457149029,-0.000845856498926878,0.004394770134240389
1.7275286348672794e+18,-0.0013397341826930642,-0.0023395197931677103,0.0010851210681721568
1.7275286348732795e+18,-0.00038546413998119533,-0.004105487838387489,0.0016846933867782354
1.7275286348792796e+18,-0.0012320163659751415,-0.006991986185312271,-0.0010151290334761143
1.7275286348852797e+18,-0.0013979468494653702,-0.007400196976959705,0.0015743447002023458
1.72752863489128e+18,-0.000552614510525018,-0.002221430651843548,0.0007711839862167835
1.72752863489428e+18,0.0005952923092991114,-0.0022479677572846413,0.002404801081866026
1.72752863490028e+18,-0.00014910026220604777,-0.0021470189094543457,0.0013686118181794882
1.7275286349062802e+18,0.0009003891609609127,0.00019931606948375702,0.00041304691694676876
1.7275286349092803e+18,0.003384907729923725,-0.0010735534597188234,0.001590545056387782
1.7275286349152804e+18,0.0024180221371352673,-0.00015056564006954432,0.00019587320275604725
1.7275286349212805e+18,0.0033975986298173666,-0.0005468404851853848,0.0014167780755087733
1.7275286349272806e+18,0.00024184456560760736,-0.0039963447488844395,0.0020725494250655174
1.7275286349302807e+18,0.0011310223489999771,-0.006831230595707893,-0.0021645580418407917
1.7275286349362808e+18,0.0013739964924752712,-0.004595350474119186,9.001023136079311e-05
1.727528634942281e+18,0.00022529950365424156,-0.006098347716033459,-0.0009297325741499662
1.727528634948281e+18,0.0003820613492280245,-0.004397173412144184,0.0005460446700453758
1.7275286349512812e+18,-0.0009068166255019605,-0.0048925671726465225,0.002211227547377348
1.7275286349572813e+18,0.0009713608887977898,-0.00369897554628551,0.002806947100907564
1.7275286349632814e+18,-0.0002533234655857086,0.0015548171941190958,0.002349897287786007
1.7275286349692815e+18,0.0014970345655456185,-0.001078953966498375,-0.0009590486297383904
1.7275286349722816e+18,0.0013737997505813837,-0.0009889662032946944,-0.00012974964920431376
1.7275286349782817e+18,0.004412829875946045,-0.00044173799687996507,-0.0006586110102944076
1.7275286349842819e+18,0.0029347531963139772,-0.0010146964341402054,0.0008194513502530754
1.727528634990282e+18,0.00307657802477479,-0.00417377520352602,0.0015115158166736364
1.727528634996282e+18,0.0006804989534430206,-0.0015268528368324041,0.002468311693519354
1.7275286349992822e+18,0.0008105018641799688,-0.0033966945484280586,0.0009274290641769767
1.7275286350052823e+18,0.0020094432402402163,0.0010343750473111868,-0.0002401763922534883
1.7275286350112824e+18,-0.0006555886939167976,-0.0015347241424024105,-0.0004098344943486154
1.7275286350172826e+18,-0.0020294561982154846,-0.0036585694178938866,0.003154030069708824
1.7275286350232827e+18,-0.003817676566541195,-0.0019973318558186293,0.0023203531745821238
1.7275286350262828e+18,0.0018980544991791248,-0.0013373719993978739,-0.0013707255711778998
1.727528635032283e+18,0.001173734781332314,-0.0008263955824077129,-0.00011202818132005632
1.727528635038283e+18,0.002621898427605629,-0.003214511089026928,-0.0006134272553026676
1.7275286350442831e+18,0.0022767100017517805,-0.0032148330938071012,0.00021173573622945696
1.7275286350472832e+18,0.0030079211574047804,-0.004258469212800264,-0.00040029099909588695
1.7275286350532833e+18,0.007214023265987635,-0.00476668868213892,0.0015901732258498669
1.7275286350592835e+18,-0.0014453553594648838,-0.002589650684967637,0.0005891429027542472
1.7275286350652836e+18,0.0015789959579706192,-0.005738147534430027,-0.002216795226559043
1.7275286350712837e+18,0.0021736477501690388,-0.007051835302263498,-0.00027687440160661936
1.7275286350742838e+18,-0.001687015756033361,-0.0025896779261529446,-0.0003165618400089443
1.727528635080284e+18,-0.00115762441419065,-0.0035402802750468254,0.0014638584107160568
1.727528635086284e+18,0.00025018438464030623,-0.005033123306930065,-0.0040291668847203255
1.7275286350922842e+18,0.004017936997115612,-0.00791181717067957,0.0011610770598053932
1.7275286350982843e+18,-0.0019564800895750523,-0.005083884112536907,-0.0010205786675214767
1.7275286351012844e+18,-0.0017664693295955658,-0.0059996661730110645,0.0003352001658640802
1.7275286351072845e+18,0.000749900471419096,-0.005177618935704231,0.002381764119490981
1.7275286351132846e+18,-0.00041447917465120554,-0.0016414625570178032,0.0029632598161697388
1.7275286351192847e+18,0.00018588954117149115,-0.0015767381992191076,0.0010796156711876392
1.7275286351222848e+18,0.003425702452659607,-0.004805993288755417,0.0006745845312252641
1.727528635128285e+18,0.003764980472624302,-0.00043598387856036425,-0.002250622259452939
1.727528635134285e+18,0.0022220811806619167,-0.0005199608858674765,-0.0014379866188392043
1.727528635137285e+18,0.0027927584014832973,0.00011058826930820942,-6.068153015803546e-05
1.7275286351432852e+18,0.001742267981171608,-0.0032340362668037415,-0.0004268947523087263
1.7275286351492854e+18,-0.0015272519085556269,-0.0018756177742034197,-0.00011822256783489138
1.7275286351552855e+18,-0.0025690076872706413,-0.002346470020711422,-0.002180709270760417
1.7275286351582856e+18,-0.001591172069311142,-0.003479583887383342,-0.002256205305457115
1.7275286351642857e+18,-0.004782849457114935,-0.005371641833335161,-0.0011086442973464727
1.7275286351702858e+18,-0.0033074524253606796,-0.005064072087407112,-0.0013714114902541041
1.727528635176286e+18,0.0015406443271785975,-0.0020194724202156067,0.00020086596487089992
1.727528635182286e+18,-0.0008445099811069667,-0.003067046869546175,0.003001472679898143
1.7275286351852861e+18,-0.00021042744629085064,-0.0023178744595497847,-9.10875533008948e-05
1.7275286351912863e+18,0.00018730672309175134,-0.0036348016001284122,0.00017290274263359606
1.7275286351972864e+18,0.00029780081240460277,-0.003256593830883503,-0.0008200579322874546
1.7275286352032865e+18,-0.002131851390004158,-0.003373274113982916,-0.00017919881793204695
1.7275286352092867e+18,-0.001348013523966074,-0.0064278277568519115,9.215669706463814e-06
1.7275286352152868e+18,-0.0005575392860919237,-0.005320567172020674,-0.0007267816690728068
1.7275286352182868e+18,-0.0034987209364771843,-0.004084785468876362,0.0015945774503052235
1.727528635224287e+18,-0.002202024217694998,-0.0036602045875042677,0.0001354195410385728
1.727528635230287e+18,-0.009817955084145069,-0.007027909159660339,-0.0006692845490761101
1.7275286352362872e+18,-0.010263321921229362,-0.0021439685951918364,-0.004117661155760288
1.7275286352392873e+18,-0.007734030019491911,-0.00533966813236475,-0.0021824021823704243
1.7275286352452874e+18,-0.007642089389264584,-0.002322491956874728,-0.00025896489387378097
1.7275286352512876e+18,-0.007838056422770023,-0.0023164870217442513,0.0002264381037093699
1.7275286352542876e+18,-0.007193850819021463,-0.00420829001814127,0.0011087284656241536
1.7275286352602877e+18,-0.004080749116837978,-0.004339752718806267,-0.0010800173040479422
1.7275286352662879e+18,-0.0017601930303499103,-0.004363171756267548,0.0004279072745703161
1.727528635272288e+18,-0.0002474267967045307,-0.006813641171902418,-0.003168746130540967
1.7275286352782881e+18,0.0002648581867106259,-0.007910514250397682,-0.0016791927628219128
1.7275286352812882e+18,0.0006057365098968148,-0.006717700511217117,0.0029149744659662247
1.7275286352872883e+18,0.0007472160505130887,-0.006178031209856272,-0.0013140959199517965
1.7275286352932884e+18,-0.0023806120734661818,-0.00436824094504118,0.0005257072043605149
1.7275286352992886e+18,-0.0027672715950757265,-0.002547391690313816,-0.0026707197539508343
1.7275286353022886e+18,-0.002875363687053323,-0.004261649213731289,0.00164901465177536
1.7275286353082888e+18,-0.0069293854758143425,-0.0036543558817356825,-0.0007605603314004838
1.727528635314289e+18,-0.008373429998755455,-0.0014758025063201785,-0.0001999411324504763
1.727528635320289e+18,-0.012298746034502983,-0.0029413816519081593,-0.00107351946644485
1.727528635323289e+18,-0.00840397272258997,-0.0016134320758283138,-0.0016297708498314023
1.7275286353292892e+18,-0.007200862281024456,-0.004650793969631195,-0.003063732758164406
1.7275286353352893e+18,-0.008034411817789078,-0.005044811870902777,-0.0010976766934618354
1.7275286353412895e+18,-0.006913862656801939,-0.003971786703914404,-0.00022251094924286008
1.7275286353472896e+18,-0.003525878069922328,-0.004582177847623825,-0.001125607523135841
1.7275286353502897e+18,-0.002013691933825612,-0.004918303340673447,-0.0026841280050575733
1.7275286353562898e+18,-0.0019260072149336338,-0.0079644825309515,0.00142424157820642
1.72752863536229e+18,-0.0020441405940800905,-0.009154781699180603,4.64865006506443e-05
1.72752863536829e+18,-0.003146396018564701,-0.006847366690635681,-0.001108197495341301
1.7275286353742902e+18,-0.000634392723441124,-0.006856719497591257,-0.0011340142227709293
1.7275286353772902e+18,-0.0063005005940794945,-0.005882138852030039,0.00015646108658984303
1.7275286353832904e+18,-0.005234602373093367,0.0008044231217354536,-0.002577921375632286
1.7275286353892905e+18,-0.0038427941035479307,-0.0005883902776986361,-0.0018007825128734112
1.7275286353952906e+18,-0.005188819952309132,0.0011778231710195541,0.001146686845459044
1.7275286353982907e+18,-0.007004083134233952,0.0016069588018581271,-0.002598011400550604
1.7275286354042908e+18,-0.009140275418758392,-0.00030425499426200986,-0.001745541812852025
1.727528635410291e+18,-0.004896721336990595,-0.0005609758663922548,-0.002957790857180953
1.727528635416291e+18,-0.004938817583024502,-0.0062923068180680275,-0.004261425696313381
1.7275286354192911e+18,-0.002393805654719472,-0.004921841435134411,-0.00018705701222643256
1.7275286354252913e+18,-9.446198237128556e-05,-0.008017059415578842,-0.003654054831713438
1.7275286354312914e+18,0.0008791209547780454,-0.005702066235244274,-0.0015600081533193588
1.7275286354372915e+18,0.004442378878593445,-0.002313928445801139,-0.0032787611708045006
1.7275286354402916e+18,0.0013419546885415912,-0.0030154928099364042,0.00023771694395691156
1.7275286354462917e+18,-0.0010623912094160914,-0.002548452466726303,-0.0005189218791201711
1.7275286354522918e+18,0.0022947979159653187,0.001957083120942116,0.0010758214630186558
1.727528635455292e+18,-0.0032238923013210297,-0.0003895070985890925,0.001023744698613882
1.727528635461292e+18,-0.003534851362928748,0.003928464371711016,0.0007754962425678968
1.7275286354672922e+18,-0.005782616790384054,-0.00017349165864288807,0.0036324074026197195
1.7275286354732923e+18,-0.00416960846632719,-0.00213909475132823,0.004467525519430637
1.7275286354792924e+18,-0.005634019151329994,-0.005537357646971941,0.005026667844504118
1.7275286354822925e+18,-0.003555923467501998,-0.006264871917665005,0.005544894374907017
1.7275286354882926e+18,4.64683398604393e-05,-0.010520627722144127,0.004112603142857552
1.7275286354942927e+18,0.003056738991290331,-0.009794559329748154,0.004418319556862116
1.7275286355002929e+18,0.0012913790997117758,-0.006831279024481773,0.0070755258202552795
1.727528635506293e+18,0.0004826388321816921,-0.005378799978643656,0.005476571619510651
1.727528635509293e+18,0.002360727172344923,-0.009122629649937153,0.008121496997773647
1.7275286355152932e+18,-0.0031533678993582726,-0.005927280522882938,0.005122303497046232
1.7275286355212933e+18,-0.0006247175624594092,-0.004025599919259548,0.00784524530172348
1.7275286355242934e+18,-0.0010728101478889585,-0.0034908954985439777,0.008826466277241707
1.7275286355302935e+18,-0.005794745869934559,-0.0037260486278682947,0.006426147650927305
1.7275286355362936e+18,-0.0046730320900678635,-0.006775298621505499,0.00658110436052084
1.7275286355422938e+18,-0.005951722618192434,-0.006334447767585516,0.007902318611741066
1.727528635548294e+18,-0.0029323792550712824,-0.007475073914974928,0.010617670603096485
1.727528635551294e+18,-0.008641809225082397,-0.008127124980092049,0.012399101629853249
1.727528635557294e+18,-0.004926030989736319,-0.007647670339792967,0.0071218060329556465
1.7275286355632942e+18,-0.0013857868034392595,-0.008613260462880135,0.008277478627860546
1.7275286355692943e+18,-0.0011694193817675114,-0.00725588109344244,0.010621163062751293
1.7275286355722944e+18,-0.001367407152429223,-0.0009592345450073481,0.014390112832188606
1.7275286355782945e+18,-0.0017164377495646477,-0.004208526108413935,0.012143957428634167
1.7275286355842947e+18,-0.0015664971433579922,-0.0018995582358911633,0.009088302031159401
1.7275286355902948e+18,-0.0037280588876456022,-0.0009223812958225608,0.011965833604335785
1.727528635596295e+18,-0.0044651878997683525,-0.0023817974142730236,0.01281216274946928
1.727528635599295e+18,-0.006227447185665369,-0.0008070522453635931,0.014196492731571198
1.727528635605295e+18,-0.0065645636059343815,-2.849323209375143e-05,0.01436453778296709
1.7275286356112952e+18,-0.00836571678519249,-0.0018341845134273171,0.014463608153164387
1.7275286356172954e+18,-0.004504061304032803,-0.0002960250712931156,0.012394635006785393
1.7275286356202954e+18,-0.004883117508143187,-0.0014365448150783777,0.014435192570090294
1.7275286356262956e+18,-0.003602558048442006,-0.004465978592634201,0.015134825371205807
1.7275286356322957e+18,-0.0010133765172213316,0.0010217824019491673,0.018267659470438957
1.7275286356382958e+18,-0.0019570866134017706,0.0005845263367518783,0.017166968435049057
1.727528635644296e+18,-0.0037242909893393517,-0.0005984706222079694,0.021309690549969673
1.727528635650296e+18,-0.0007689089979976416,-0.0005119401612319052,0.021969618275761604
1.727528635653296e+18,-0.005633602850139141,-0.0008859863155521452,0.019701680168509483
1.7275286356592963e+18,-0.005069304257631302,-0.002345150336623192,0.025608837604522705
1.7275286356652964e+18,-0.009242086671292782,-0.0019421274773776531,0.020838886499404907
1.7275286356712965e+18,-0.007405219133943319,-0.005467386916279793,0.025829056277871132
1.7275286356772966e+18,-0.0097857266664505,-0.0025530802085995674,0.024653390049934387
1.7275286356802967e+18,-0.006080968305468559,-0.0015407458413392305,0.021747656166553497
1.7275286356862968e+18,-0.004709378816187382,-0.0016280417330563068,0.027433544397354126
1.727528635692297e+18,-0.005260426085442305,-0.003489844733849168,0.02348162792623043
1.727528635698297e+18,-0.0022560199722647667,-0.002929333131760359,0.027157288044691086
1.7275286357042972e+18,-0.004177272319793701,-0.004201166331768036,0.024856504052877426
1.7275286357072973e+18,-0.005391853861510754,-0.005211851093918085,0.029293108731508255
1.7275286357132974e+18,-0.007932400330901146,-0.005191580392420292,0.028655393049120903
1.7275286357192975e+18,-0.008195123635232449,-0.004075879696756601,0.031897660344839096
1.7275286357252977e+18,-0.008071077056229115,-0.00558322761207819,0.029137512668967247
1.7275286357312978e+18,-0.007760644890367985,-0.004489937797188759,0.02852984517812729
1.7275286357342979e+18,-0.006449466105550528,-0.008209088817238808,0.03398137167096138
1.727528635740298e+18,-0.006143792532384396,-0.007841973565518856,0.03259076923131943
1.727528635746298e+18,-0.002064637839794159,-0.007674913853406906,0.03230120614171028
1.7275286357522982e+18,-0.001939040026627481,-0.010470881126821041,0.034820105880498886
1.7275286357552983e+18,-0.0017588045448064804,-0.002322574146091938,0.03359421342611313
1.7275286357612984e+18,-0.003628383157774806,-0.010544918477535248,0.034630656242370605
1.7275286357672986e+18,-0.00230777682736516,-0.005630850791931152,0.03631885349750519
1.7275286357732987e+18,-0.0011229588417336345,-0.008412349969148636,0.03591690957546234
1.7275286357762988e+18,-0.0022245189175009727,-0.005078330636024475,0.03688075765967369
1.727528635782299e+18,-0.0055578905157744884,-0.006261185277253389,0.036572687327861786
1.727528635788299e+18,-0.002274598926305771,-0.005597595125436783,0.03622068837285042
1.7275286357942991e+18,-0.0018486195476725698,-0.007865136489272118,0.04037834703922272
1.7275286358002993e+18,-0.002895534969866276,-0.007868275046348572,0.040979526937007904
1.7275286358032993e+18,4.010251723229885e-05,-0.009396074339747429,0.03899838775396347
1.7275286358092995e+18,-0.0016215782379731536,-0.008122102357447147,0.03901754319667816
1.7275286358152996e+18,-0.0058736419305205345,-0.006881013512611389,0.04010186716914177
1.7275286358212997e+18,-0.00430484302341938,-0.010674523189663887,0.039926160126924515
1.7275286358242998e+18,-0.002857745625078678,-0.010278980247676373,0.040063850581645966
1.7275286358303e+18,-0.005986037664115429,-0.009915909729897976,0.04038241505622864
1.7275286358363e+18,-0.0022055148147046566,-0.010445977561175823,0.041171345859766006
1.7275286358423002e+18,-0.007918067276477814,-0.010827290825545788,0.044253770262002945
1.7275286358453002e+18,-0.0031895407009869814,-0.010196971707046032,0.037703126668930054
1.7275286358513004e+18,-0.007591734640300274,-0.00899316556751728,0.038250528275966644
1.7275286358573005e+18,-0.007296787574887276,-0.011058413423597813,0.03818649798631668
1.7275286358633006e+18,-0.006830594502389431,-0.006779313087463379,0.04151064530014992
1.7275286358693007e+18,-0.0037437761202454567,-0.0034132557921111584,0.039657481014728546
1.7275286358723008e+18,-0.005334250628948212,-0.008187342435121536,0.04094483330845833
1.727528635878301e+18,-0.0023301723413169384,-0.0035330052487552166,0.0381910540163517
1.727528635884301e+18,-0.0011825866531580687,-0.006593064405024052,0.0382198840379715
1.7275286358903012e+18,0.0017764566000550985,-0.0072651635855436325,0.041320234537124634
1.7275286358933012e+18,-0.0004275559913367033,-0.005421610549092293,0.0390985906124115
1.7275286358993014e+18,-0.005970437079668045,-0.006350757088512182,0.036142125725746155
1.7275286359053015e+18,-0.001535516930744052,-0.008914158679544926,0.03779877722263336
1.7275286359083016e+18,-0.00456908717751503,-0.006598832085728645,0.040022749453783035
1.7275286359143017e+18,-0.006731156259775162,-0.006144475657492876,0.03778262436389923
1.7275286359203018e+18,-0.001835134346038103,-0.004223337862640619,0.039962287992239
1.727528635926302e+18,-0.004212047439068556,-0.006280768662691116,0.034903764724731445
1.727528635932302e+18,-0.00333502353169024,-0.007393664214760065,0.03405885770916939
1.7275286359353021e+18,-0.004541302565485239,-0.005056038033217192,0.03409697487950325
1.7275286359413023e+18,0.0011285790242254734,-0.004956858232617378,0.034892644733190536
1.7275286359473024e+18,-0.0003755584475584328,-0.0043433429673314095,0.034289032220840454
1.7275286359533025e+18,-8.362438529729843e-05,-0.006677112076431513,0.033109284937381744
1.7275286359593027e+18,-0.00039082858711481094,-0.005475888028740883,0.03515614569187164
1.7275286359623027e+18,-0.0028759518172591925,-0.0057752965949475765,0.033048633486032486
1.7275286359683028e+18,-0.0029504781123250723,-0.006088005378842354,0.03222707659006119
1.727528635974303e+18,-0.0046507068909704685,-0.006578831002116203,0.03386908397078514
1.727528635980303e+18,-0.004824730567634106,-0.007729595527052879,0.027272561565041542
1.7275286359863032e+18,-0.006593730766326189,-0.006802964955568314,0.027077365666627884
1.7275286359893033e+18,-0.006760779302567244,-0.006374972406774759,0.026396118104457855
1.7275286359953034e+18,-0.006658660247921944,-0.004715551156550646,0.026054654270410538
1.7275286360013036e+18,-0.0027193177957087755,-0.007853996008634567,0.024770304560661316
1.7275286360073037e+18,-0.0024266033433377743,-0.007521037012338638,0.02657354064285755
1.7275286360133038e+18,0.0016711630159989,-0.004249374847859144,0.02505660429596901
1.7275286360163039e+18,0.0012366995215415955,-0.005352905951440334,0.025965293869376183
1.727528636022304e+18,0.0012559364549815655,-0.004046247806400061,0.023910600692033768
1.7275286360283041e+18,0.0016660746186971664,-0.003296476323157549,0.02294934168457985
1.7275286360343043e+18,-0.00020495359785854816,-0.0020309127867221832,0.02174491435289383
1.7275286360403044e+18,-0.0007358663133345544,-0.0047198813408613205,0.022321496158838272
1.7275286360463045e+18,-0.003550246125087142,-0.0013847928494215012,0.018063262104988098
1.7275286360523046e+18,-0.006471231579780579,-0.005379386246204376,0.018718654289841652
1.7275286360553047e+18,-0.0032881295774132013,-0.007058598566800356,0.019214818254113197
1.7275286360613048e+18,-0.005196491722017527,-0.0032545907888561487,0.014796747826039791
1.727528636067305e+18,-0.004538924433290958,-0.005564697086811066,0.014781847596168518
1.727528636070305e+18,-0.0011012897593900561,-0.0053356122225522995,0.013889940455555916
1.7275286360763052e+18,-0.0007784628542140126,-0.006095553282648325,0.014712139964103699
1.7275286360823053e+18,0.0013772061793133616,-0.004629019647836685,0.015242462046444416
1.7275286360883054e+18,0.0006972865667194128,-0.0034601534716784954,0.011635687202215195
1.7275286360913055e+18,-0.001833037706092,-0.00231187604367733,0.01064357440918684
1.7275286360973056e+18,0.0004806455399375409,-0.002938606543466449,0.011127658188343048
1.7275286361033057e+18,-0.00269304565154016,-0.0052268607541918755,0.005617196671664715
1.7275286361093059e+18,-0.0009629534324631095,0.0012277893256396055,0.009981406852602959
1.727528636115306e+18,-0.0026180408895015717,0.0006982311606407166,0.0069211916998028755
1.727528636121306e+18,-0.0026057593058794737,-0.004080682527273893,0.006833828054368496
1.7275286361243062e+18,-0.004972216207534075,-0.005025304388254881,0.003256386611610651
1.7275286361303063e+18,-0.0031796908006072044,-0.00652013486251235,0.005733801517635584
1.7275286361363064e+18,-0.003955767024308443,-0.0034960939083248377,0.005557946860790253
1.7275286361423066e+18,-0.005785341374576092,-0.00891042035073042,0.0022294693626463413
1.7275286361453066e+18,-0.0035798887256532907,-0.009314702823758125,0.0006791102350689471
1.7275286361513068e+18,-0.0003016688860952854,-0.00933894980698824,0.00022325210738927126
1.727528636157307e+18,-0.003590945852920413,-0.008763444609940052,0.0005232216790318489
1.727528636163307e+18,-0.0005549145862460136,-0.004891505464911461,-0.0027353796176612377
1.727528636166307e+18,0.0013290132628753781,-0.008277727290987968,-0.0018056132830679417
1.7275286361723072e+18,0.0028192216996103525,-0.005650572944432497,-0.00461644446477294
1.7275286361813074e+18,-0.001504429616034031,-0.0074531747959554195,-0.003920111805200577
1.7275286361843075e+18,-0.0009721276583150029,-0.0025888795498758554,-0.008440179750323296
1.7275286361903076e+18,-0.0009637868497520685,-0.0005809115245938301,-0.007237097714096308
1.7275286361963077e+18,-0.003312899963930249,-0.005466809496283531,-0.00756914634257555
1.7275286362023078e+18,-0.006370395887643099,-0.005736493971198797,-0.00770441722124815
1.727528636208308e+18,-0.0022696792148053646,-0.007245825603604317,-0.010501736775040627
1.727528636211308e+18,-0.0051862518303096294,-0.0083358408883214,-0.011053396388888359
1.7275286362173082e+18,-0.00320628983899951,-0.008718702010810375,-0.01462576910853386
1.7275286362233083e+18,-0.004201673902571201,-0.006162436679005623,-0.015766510739922523
1.7275286362293084e+18,-0.0024261283688247204,-0.008062371052801609,-0.016852863132953644
1.7275286362323085e+18,-0.002701138611882925,-0.008723262697458267,-0.015099169686436653
1.7275286362383086e+18,-0.0018677045591175556,-0.0055259582586586475,-0.017472218722105026
1.7275286362443087e+18,-0.004560604691505432,-0.006335744634270668,-0.01730029471218586
1.7275286362503089e+18,-0.004237569868564606,-0.00384570867754519,-0.017037825658917427
1.727528636256309e+18,-0.007018932141363621,-0.00598932383581996,-0.020547641441226006
1.727528636259309e+18,-0.0050242142751812935,-0.0049771880730986595,-0.02075699158012867
1.7275286362653092e+18,-0.008491521701216698,-0.006461371202021837,-0.023481912910938263
1.7275286362713093e+18,-0.008070996962487698,-0.006456438452005386,-0.025697119534015656
1.7275286362773094e+18,-0.004499818664044142,-0.00843384675681591,-0.024503573775291443
1.7275286362803095e+18,-0.007154176011681557,-0.005075260065495968,-0.022499345242977142
1.7275286362863096e+18,-0.005176587030291557,-0.006257990375161171,-0.02326183393597603
1.7275286362923098e+18,-0.005503024440258741,-0.007524465676397085,-0.023654747754335403
1.72752863629831e+18,-0.005993762984871864,-0.005684165749698877,-0.026618022471666336
1.72752863630431e+18,-0.0030955378897488117,-0.006645714398473501,-0.026623321697115898
1.72752863630731e+18,-0.003883293131366372,-0.001919010654091835,-0.02842138335108757
1.7275286363133102e+18,-0.005598502233624458,-0.004681107122451067,-0.029690563678741455
1.7275286363193103e+18,-0.005579307675361633,-0.004965364001691341,-0.030172748491168022
1.7275286363253105e+18,-0.007466897368431091,-0.004805475473403931,-0.029975177720189095
1.7275286363283105e+18,-0.005019718781113625,-0.00621811905875802,-0.029020478948950768
1.7275286363343107e+18,-0.009848508983850479,-0.005308637861162424,-0.031352583318948746
1.7275286363403108e+18,-0.006655653938651085,-0.00394982285797596,-0.03216853365302086
1.727528636346311e+18,-0.007277749478816986,-0.004448458552360535,-0.031597040593624115
1.727528636352311e+18,-0.007646573707461357,-0.0028393773827701807,-0.02796742133796215
1.7275286363583112e+18,-0.006278274580836296,-0.005802030675113201,-0.03434573486447334
1.7275286363613112e+18,-0.005554101429879665,-0.0062331547960639,-0.036899980157613754
1.7275286363673114e+18,-0.008054636418819427,-0.002632267540320754,-0.03511470928788185
1.7275286363733115e+18,-0.0031235157512128353,-0.004350103437900543,-0.037046030163764954
1.7275286363763116e+18,-0.002760633360594511,-0.0037841801531612873,-0.035584207624197006
1.7275286363823117e+18,-0.0022270414046943188,-0.002781578106805682,-0.034250762313604355
1.7275286363883118e+18,-0.0025667420122772455,-0.004434655886143446,-0.03646530583500862
1.727528636394312e+18,-0.004631488583981991,-0.0035281050950288773,-0.0355006642639637
1.727528636400312e+18,-0.005021123681217432,-0.004018360748887062,-0.0347614549100399
1.727528636403312e+18,-0.003695750841870904,-0.0012707927962765098,-0.034520070999860764
1.7275286364093123e+18,-0.007797759026288986,-0.003785517066717148,-0.03842462971806526
1.7275286364153124e+18,-0.0068202996626496315,-0.0031184919644147158,-0.038749899715185165
1.7275286364213125e+18,-0.005080912262201309,-0.0029368591494858265,-0.033643689006567
1.7275286364273126e+18,-0.005535012111067772,-0.002340011764317751,-0.03774260729551315
1.7275286364333128e+18,-0.005265701562166214,0.00048688205424696207,-0.03748206049203873
1.7275286364363128e+18,-0.0061728497967123985,-0.0007998066721484065,-0.04105796292424202
1.727528636442313e+18,-0.003496777266263962,0.0018206762615591288,-0.038680464029312134
1.727528636448313e+18,-0.002491304185241461,0.0031445559579879045,-0.04065899923443794
1.7275286364543132e+18,-0.006108444184064865,0.0005237558507360518,-0.04072193428874016
1.7275286364573133e+18,-0.004576544277369976,-0.0017094167415052652,-0.036279261112213135
1.7275286364633134e+18,-0.007268956396728754,-0.0009951654355973005,-0.03898461535573006
1.7275286364693135e+18,-0.004592432640492916,-0.003237141063436866,-0.03819483891129494
1.7275286364753137e+18,-0.010381982661783695,-0.0050290352664887905,-0.03724207356572151
1.7275286364813138e+18,-0.0071545615792274475,-0.006116559263318777,-0.037916067987680435
1.7275286364843139e+18,-0.0091459471732378,-0.0052801682613790035,-0.03804745152592659
1.727528636490314e+18,-0.005249532870948315,-0.004756510257720947,-0.03981880098581314
1.727528636496314e+18,-0.004105403088033199,-0.0032302297186106443,-0.04028453677892685
1.7275286365023142e+18,-0.010377690196037292,-0.0016982263186946511,-0.038918714970350266
1.7275286365053143e+18,-0.009214290417730808,-0.002677098847925663,-0.04181647673249245
1.7275286365113144e+18,-0.006027573253959417,0.0002820227527990937,-0.03721848502755165
1.7275286365173146e+18,-0.0057725682854652405,-0.00014158841804601252,-0.0367995947599411
1.7275286365203146e+18,-0.005899146664887667,-0.0011121515417471528,-0.037675969302654266
1.7275286365263148e+18,-0.0033055348321795464,0.0012051148805767298,-0.04080338031053543
1.727528636532315e+18,-0.0041892374865710735,-0.0037502821069210768,-0.04037515074014664
1.727528636538315e+18,-0.0050177201628685,-0.0073657105676829815,-0.038604624569416046
1.727528636541315e+18,-0.003519094083458185,-0.011096828617155552,-0.0354955792427063
1.7275286365473152e+18,-0.004986043553799391,-0.012655028142035007,-0.03768365830183029
1.7275286365533153e+18,-0.006616419646888971,-0.02098362147808075,-0.03838092088699341
1.7275286365593155e+18,-0.006585521623492241,-0.025042204186320305,-0.03622899949550629
1.7275286365623155e+18,-0.0052843415178358555,-0.023030592128634453,-0.03319394960999489
1.7275286365683156e+18,-0.009905904531478882,-0.022605307400226593,-0.03375181928277016
1.7275286365743158e+18,-0.006183831952512264,-0.026330754160881042,-0.03578986972570419
1.727528636580316e+18,-0.009183134883642197,-0.023452868685126305,-0.03365820273756981
1.727528636583316e+18,-0.008058775216341019,-0.021999353542923927,-0.03367933630943298
1.727528636589316e+18,-0.008189301937818527,-0.022823216393589973,-0.035800885409116745
1.7275286365953162e+18,-0.00853151734918356,-0.02118375152349472,-0.032870762050151825
1.7275286366013164e+18,-0.007815632969141006,-0.0221684742718935,-0.033739231526851654
1.7275286366073165e+18,-0.009950506500899792,-0.027310023084282875,-0.03332750126719475
1.7275286366103165e+18,-0.008920099586248398,-0.023917384445667267,-0.03206846863031387
1.7275286366163167e+18,-0.007451333571225405,-0.028884556144475937,-0.032145287841558456
1.7275286366223168e+18,-0.0058145672082901,-0.02953524887561798,-0.031816400587558746
1.727528636628317e+18,-0.0072041344828903675,-0.031084714457392693,-0.030896011739969254
1.727528636631317e+18,-0.004925834946334362,-0.02883049100637436,-0.02814910188317299
1.727528636637317e+18,-0.008016813546419144,-0.029700040817260742,-0.02999408356845379
1.7275286366433172e+18,-0.007820463739335537,-0.030488677322864532,-0.027816910296678543
1.7275286366493174e+18,-0.0071320245042443275,-0.025447282940149307,-0.0292946957051754
1.7275286366553175e+18,-0.00934141781181097,-0.027815697714686394,-0.027059856802225113
1.7275286366613176e+18,-0.007837205193936825,-0.02858761139214039,-0.02697872370481491
1.7275286366643177e+18,-0.007227879483252764,-0.023069895803928375,-0.03026656247675419
1.7275286366703178e+18,-0.00915608461946249,-0.023451417684555054,-0.02583683282136917
1.727528636676318e+18,-0.004192829132080078,-0.022842150181531906,-0.02869906648993492
1.727528636682318e+18,-0.006464485544711351,-0.023117130622267723,-0.02764306776225567
1.7275286366853181e+18,-0.006471047177910805,-0.023447301238775253,-0.028048168867826462
1.7275286366913183e+18,-0.005910916719585657,-0.02350698783993721,-0.02510269358754158
1.7275286366973184e+18,-0.0041131810285151005,-0.023191817104816437,-0.02697303332388401
1.7275286367033185e+18,-0.005230080336332321,-0.020351072773337364,-0.025552770122885704
1.7275286367093187e+18,-0.002652935218065977,-0.02276209369301796,-0.02568698488175869
1.7275286367123187e+18,-0.0027574514970183372,-0.02204858884215355,-0.025663752108812332
1.7275286367183188e+18,-0.005437075160443783,-0.019156264141201973,-0.027392137795686722
1.727528636724319e+18,-0.00613873777911067,-0.014176727272570133,-0.02604685351252556
1.727528636730319e+18,-0.006446646060794592,-0.016530944034457207,-0.029608849436044693
1.7275286367333192e+18,-0.008541012182831764,-0.013318400830030441,-0.024689413607120514
1.7275286367393193e+18,-0.0074198320508003235,-0.011799680069088936,-0.026296069845557213
1.7275286367453194e+18,-0.008883983828127384,-0.009391815401613712,-0.02536599524319172
1.7275286367513196e+18,-0.006259245797991753,-0.008285348303616047,-0.024689611047506332
1.7275286367573197e+18,-0.008209793828427792,-0.01097989734262228,-0.025431791320443153
1.7275286367603197e+18,-0.0070676724426448345,-0.011409055441617966,-0.024593079462647438
1.7275286367663199e+18,-0.007333660032600164,-0.011875616386532784,-0.025426791980862617
1.72752863677232e+18,-0.008108749985694885,-0.009117769077420235,-0.023232990875840187
1.7275286367783201e+18,-0.007822769694030285,-0.008584383875131607,-0.023771794512867928
1.7275286367843203e+18,-0.008064731024205685,-0.0070272511802613735,-0.023959128186106682
1.7275286367873203e+18,-0.008713162504136562,-0.006449669599533081,-0.024678325280547142
1.7275286367933204e+18,-0.01163358986377716,-0.007028216030448675,-0.024662265554070473
1.7275286367993206e+18,-0.010933466255664825,-0.00828561931848526,-0.024996861815452576
1.7275286368023206e+18,-0.009731307625770569,-0.00326882628723979,-0.024673011153936386
1.7275286368083208e+18,-0.00771267618983984,-0.008250758983194828,-0.020749114453792572
1.727528636814321e+18,-0.009994357824325562,-0.0037424112670123577,-0.021246248856186867
1.727528636820321e+18,-0.004925442859530449,0.0004651639610528946,-0.022575845941901207
1.727528636823321e+18,-0.005507518071681261,-0.002509881742298603,-0.02430514432489872
1.7275286368293212e+18,-0.0028660371899604797,0.002093586605042219,-0.018756402656435966
1.7275286368353213e+18,-0.004845304414629936,0.0022813519462943077,-0.017987679690122604
1.7275286368413215e+18,-0.004158414900302887,-0.0020444407127797604,-0.02001309208571911
1.7275286368473216e+18,-0.005354645196348429,-0.0023592286743223667,-0.019541941583156586
1.7275286368503217e+18,-0.00412472989410162,-0.0029968013986945152,-0.01887661963701248
1.7275286368563218e+18,-0.008334454149007797,-0.001356357941403985,-0.01997974142432213
1.727528636862322e+18,-0.0037328926846385,0.0014106505550444126,-0.01929260417819023
1.727528636868322e+18,-0.005974179599434137,-0.00029993552016094327,-0.019741689786314964
1.727528636871322e+18,-0.00412975437939167,0.0008857459761202335,-0.018030419945716858
1.7275286368773222e+18,-0.005383869633078575,0.0017887308495119214,-0.018947942182421684
1.7275286368833224e+18,-0.008715895935893059,-8.168956264853477e-05,-0.01994176395237446
1.7275286368893225e+18,-0.008414817973971367,0.003511349903419614,-0.01520019955933094
1.7275286368953226e+18,-0.005315195769071579,0.007005849853157997,-0.019715432077646255
1.7275286368983227e+18,-0.005583691876381636,0.0032139490358531475,-0.018009018152952194
1.7275286369043228e+18,-0.003984028473496437,0.0028209779411554337,-0.019421899691224098
1.727528636910323e+18,-0.0014404605608433485,0.002379737328737974,-0.0130226481705904
1.727528636913323e+18,-0.0008493944769725204,0.0027700515929609537,-0.018718287348747253
1.7275286369193231e+18,0.000571059004869312,0.003800170961767435,-0.0163948442786932
1.7275286369253233e+18,-0.0014632765669375658,0.0013161383103579283,-0.01685149036347866
1.7275286369313234e+18,-0.0005680835456587374,0.0016008054371923208,-0.016759591177105904
1.7275286369343235e+18,0.0010466639650985599,0.0038278519641608,-0.018033230677247047
1.7275286369403236e+18,-0.0017791446298360825,0.0015433917287737131,-0.016758739948272705
1.7275286369463237e+18,-0.0038969891611486673,0.0031829997897148132,-0.017650997266173363
1.7275286369523238e+18,-0.0002314201556146145,0.002770421328023076,-0.01676497608423233
1.727528636958324e+18,-0.0032051107846200466,0.003418362233787775,-0.01788153126835823
1.727528636961324e+18,-0.00104329246096313,0.00597022520378232,-0.01683579571545124
1.7275286369673242e+18,-0.0018212896538898349,0.00680919224396348,-0.015486842021346092
1.7275286369733243e+18,-0.003350489307194948,0.005995374638587236,-0.014192802831530571
1.7275286369793244e+18,-0.0009352404158562422,0.008324278518557549,-0.013021283783018589
1.7275286369823245e+18,-0.0011114071821793914,0.006945270579308271,-0.012425635941326618
1.7275286369883246e+18,0.001046714256517589,0.0029330651741474867,-0.017297878861427307
1.7275286369943247e+18,0.0005113593069836497,0.0027833941858261824,-0.01679558865725994
1.7275286370003249e+18,0.0008080455008894205,0.0018310599261894822,-0.013621320016682148
1.727528637006325e+18,-0.0006196321337483823,0.0018724240362644196,-0.012585635297000408
1.727528637009325e+18,-0.0012762666447088122,0.0002675565192475915,-0.012878148816525936
1.7275286370153252e+18,-0.0031739119440317154,2.1440209820866585e-05,-0.012650872580707073
1.7275286370213253e+18,-0.001517423545010388,0.0054780710488557816,-0.01371236052364111
1.7275286370273254e+18,-0.0011354009620845318,0.0016900524497032166,-0.013575311750173569
1.7275286370303255e+18,-0.003993847407400608,0.00477224588394165,-0.013637763448059559
1.7275286370363256e+18,-0.004141762852668762,0.0006100279279053211,-0.011394605040550232
1.7275286370423258e+18,-0.005518793128430843,0.005456454120576382,-0.015440559014678001
1.727528637048326e+18,-0.0019005051581189036,0.00902782753109932,-0.013863084837794304
1.727528637051326e+18,-0.002694113412871957,0.00628276914358139,-0.013716145418584347
1.727528637057326e+18,-0.001752351876348257,0.004509982652962208,-0.01224062591791153
1.7275286370633262e+18,-0.0032322979532182217,0.001513633644208312,-0.012590737082064152
1.7275286370693263e+18,-0.0009238076163455844,0.0026015988551080227,-0.013096421957015991
1.7275286370723264e+18,-0.001928368816152215,-6.393087096512318e-05,-0.01184449065476656
1.7275286370783265e+18,-0.0021913344971835613,-0.001099477056413889,-0.013803773559629917
1.7275286370843267e+18,-0.0024171308614313602,-0.0005520018748939037,-0.01126593817025423
1.7275286370903268e+18,-0.0024490738287568092,-0.0005128685152158141,-0.011624996550381184
1.727528637096327e+18,-0.0030834891367703676,0.0018220567144453526,-0.012524029240012169
1.727528637099327e+18,-0.00394824193790555,0.0031847902573645115,-0.009209416806697845
1.727528637105327e+18,-0.00229361979290843,0.0005117465043440461,-0.011726289987564087
1.7275286371113272e+18,0.000163834891282022,-0.00018144329078495502,-0.012768476270139217
1.7275286371173274e+18,-0.0007143131224438548,0.002577821724116802,-0.0077726636081933975
1.7275286371233275e+18,0.0020069326274096966,0.0029913708567619324,-0.009906195104122162
1.7275286371263276e+18,0.0009852981893345714,-1.740519655868411e-05,-0.0115518094971776
1.7275286371323277e+18,0.0023584114387631416,-0.0005542527651414275,-0.009968334808945656
1.7275286371383278e+18,0.0009756318759173155,-0.00018467960762791336,-0.011599298566579819
1.727528637144328e+18,0.0012399848783388734,-0.004390663001686335,-0.007826472632586956
1.727528637150328e+18,-0.00043206452392041683,-0.0037105551455169916,-0.010971128940582275
1.727528637153328e+18,0.003896009176969528,0.001949929166585207,-0.011425269767642021
1.7275286371593283e+18,0.0010128964204341173,0.0025599198415875435,-0.008615669794380665
1.7275286371653284e+18,0.0004643764114007354,0.00242065847851336,-0.010778448544442654
1.7275286371713285e+18,0.0024175529833883047,0.004055700730532408,-0.00842268206179142
1.7275286371773286e+18,0.004282073583453894,0.0017666269559413195,-0.009358536452054977
1.7275286371803287e+18,0.005461999215185642,0.0035960087552666664,-0.01013957615941763
1.7275286371863288e+18,0.0039042457938194275,0.00303148222155869,-0.012704012915492058
1.727528637192329e+18,0.005571054760366678,0.003550030756741762,-0.011323624290525913
1.727528637195329e+18,0.00032603624276816845,0.0032392798457294703,-0.01059902273118496
1.7275286372013292e+18,0.005053001455962658,6.464624311774969e-05,-0.007108218967914581
1.7275286372073293e+18,0.002582029439508915,0.0008418374345637858,-0.00848967581987381
1.7275286372133294e+18,0.0066212937235832214,-0.0007131157326512039,-0.009394915774464607
1.7275286372193295e+18,0.0037985199596732855,0.0032503597903996706,-0.004358495585620403
1.7275286372253297e+18,0.005290874745696783,0.002062029205262661,-0.00997841078788042
1.7275286372283297e+18,0.004528686869889498,0.002091706031933427,-0.009781057015061378
1.7275286372343299e+18,0.002263228641822934,-0.00034355116076767445,-0.0074216765351593494
1.72752863724033e+18,0.0034266547299921513,0.0027600140310823917,-0.010034430772066116
1.72752863724333e+18,0.0006946640787646174,0.0058998828753829,-0.007032770197838545
1.7275286372493302e+18,0.00022081437055021524,0.005963166709989309,-0.00677082734182477
1.7275286372553303e+18,-1.0139308869838715e-05,0.0018154126591980457,-0.007124432362616062
1.7275286372613304e+18,0.0015132909175008535,0.004867201671004295,-0.0051950919441878796
1.7275286372673306e+18,0.003379477420821786,0.0015005567111074924,-0.009865567088127136
1.7275286372733307e+18,0.0022970479913055897,-0.0014118145918473601,-0.004941471852362156
1.7275286372793308e+18,0.008750705048441887,-0.0029392156284302473,-0.006972770672291517
1.727528637282331e+18,0.0033828404266387224,0.0024907058104872704,-0.006863537710160017
1.727528637288331e+18,0.0069976747035980225,-0.0004283066082280129,-0.00609020609408617
1.7275286372943311e+18,0.005898632574826479,0.0037902791518718004,-0.010232541710138321
1.7275286373003313e+18,0.003291710512712598,0.0010507828556001186,-0.006240705493837595
1.7275286373063314e+18,0.005468182265758514,0.004294286016374826,-0.007596069946885109
1.7275286373123315e+18,0.0017716523725539446,0.003934062551707029,-0.004828969016671181
1.7275286373183316e+18,0.0007269412744790316,0.00681377574801445,-0.005070158280432224
1.7275286373213317e+18,0.0022103427909314632,0.003166869515553117,-0.007760752458125353
1.7275286373273318e+18,0.0045258887112140656,-0.0006095590069890022,-0.007075691595673561
1.727528637333332e+18,0.002154746325686574,0.004556016996502876,-0.004293023608624935
1.727528637339332e+18,0.0006798810791224241,0.0007837363518774509,-0.00344836269505322
1.7275286373453322e+18,0.004581816494464874,0.0007863965583965182,-0.006990342400968075
1.7275286373513324e+18,0.0044306982308626175,0.004637076519429684,-0.00786957610398531
1.7275286373573325e+18,0.005630414932966232,0.0035361582413315773,-0.004854138009250164
1.7275286373603325e+18,0.004730021581053734,0.0056598251685500145,-0.005236100871115923
1.7275286373663327e+18,0.0041977884247899055,0.0040350789204239845,-0.0069385068491101265
1.7275286373723328e+18,0.0035090125165879726,0.006163041573017836,-0.003857908770442009
1.727528637378333e+18,0.002740821335464716,0.0060093216598033905,-0.00352943385951221
1.727528637381333e+18,0.0012026538606733084,0.0030871310736984015,-0.007784789893776178
1.727528637387333e+18,0.0022272320929914713,0.0024212913122028112,-0.004589065909385681
1.7275286373933332e+18,0.002779429778456688,0.0038315667770802975,-0.0038618824910372496
1.7275286373993334e+18,0.0029383886139839888,0.004639171529561281,-0.006968102417886257
1.7275286374053335e+18,0.0008209996158257127,0.004879283253103495,-0.002784210257232189
1.7275286374113336e+18,0.0030184953939169645,0.001079484587535262,-0.006175323389470577
1.7275286374173338e+18,0.0006963005289435387,0.0028511029668152332,-0.006867705844342709
1.7275286374203338e+18,0.0008963164873421192,0.00466474425047636,-0.0050011323764920235
1.727528637426334e+18,0.001423626788891852,-6.154412403702736e-05,-0.005181184038519859
1.727528637432334e+18,0.0042272345162928104,0.00117809372022748,-0.005683794151991606
1.7275286374383342e+18,0.0014634050894528627,0.002767381723970175,-0.004041637759655714
1.7275286374443343e+18,0.003551110625267029,0.0014432752504944801,-0.002767394995316863
1.7275286374503345e+18,-0.000917018624022603,0.0041849082335829735,-0.0033743493258953094
1.7275286374533345e+18,0.0006107013905420899,0.005642922595143318,-0.004130731802433729
1.7275286374593347e+18,0.002289028372615576,0.005875493865460157,-0.004224410746246576
1.7275286374653348e+18,0.001997914630919695,0.00419717188924551,-0.0036305137909948826
1.727528637471335e+18,3.2813812140375376e-05,0.007313487585633993,-0.003841774072498083
1.727528637477335e+18,0.0032656255643814802,0.007788014132529497,-0.0045646619983017445
1.7275286374833352e+18,0.003445410169661045,0.0068953512236475945,-0.0028319600969552994
1.7275286374893353e+18,0.002717729890719056,0.008089064620435238,-0.004283559508621693
1.7275286374953354e+18,0.0032533425837755203,0.006364149507135153,-0.001243997598066926
1.7275286374983355e+18,0.004235026426613331,0.006272494792938232,-0.004680539947003126
1.7275286375043356e+18,0.0055352165363729,0.0061915782280266285,-0.007781696505844593
1.7275286375103357e+18,0.005694353953003883,0.005003775469958782,-0.004052729811519384
1.7275286375163359e+18,0.005106044001877308,0.007014872506260872,-0.005469581112265587
1.727528637522336e+18,0.003921290393918753,0.006033854093402624,-0.0031073903664946556
1.7275286375283361e+18,0.003155347891151905,0.010189272463321686,-0.002898280043154955
1.7275286375313362e+18,0.0038165710866451263,0.009708387777209282,-0.004575597587972879
1.7275286375373363e+18,0.0024062448646873236,0.012541570700705051,-0.00491204671561718
1.7275286375433364e+18,0.0022410047240555286,0.010602524504065514,-0.006795732770115137
1.7275286375493366e+18,0.00018907536286860704,0.00988041888922453,-0.006780748255550861
1.7275286375553367e+18,0.0021566248033195734,0.00857398472726345,-0.004065908025950193
1.7275286375613368e+18,0.0013093036832287908,0.0060121165588498116,-0.004355546087026596
1.727528637567337e+18,0.0047153751365840435,0.003828693414106965,-0.004928491078317165
1.727528637570337e+18,0.0027727114502340555,0.0040701692923903465,-0.005770237185060978
1.7275286375763372e+18,0.004279075190424919,0.005397689528763294,-0.003333528758957982
1.7275286375823373e+18,0.0032007142435759306,0.0036476915702223778,-0.0048568351194262505
1.7275286375883374e+18,0.0027675838209688663,0.006533927749842405,-0.004789245780557394
1.7275286375943375e+18,0.005244584754109383,0.004833543673157692,-0.0007298223208636045
1.7275286376003377e+18,0.0009601963683962822,0.009726719930768013,-0.003520045429468155
1.7275286376063378e+18,0.004853345453739166,0.009642775170505047,-0.0046913581900298595
1.727528637612338e+18,0.00404705386608839,0.007901198230683804,-0.0035046827979385853
1.727528637615338e+18,0.004148347303271294,0.006867699790745974,-0.0022381655871868134
1.727528637621338e+18,0.00572557095438242,0.009562504477798939,-0.0011116096284240484
1.7275286376273382e+18,0.0024426227901130915,0.0033259408082813025,-0.0039215958677232265
1.7275286376333384e+18,0.005235573742538691,0.004394927993416786,-0.0020291563123464584
1.7275286376393385e+18,0.003941450733691454,0.0022981937509030104,-0.0015970354434102774
1.7275286376453386e+18,0.007116096094250679,0.0017288262024521828,-0.0018185358494520187
1.7275286376513388e+18,0.002427841769531369,0.005872103851288557,-0.0013664830476045609
1.727528637657339e+18,0.005194704979658127,0.0062395548447966576,-0.003234074916690588
1.727528637663339e+18,0.005256651900708675,0.0035784689243882895,-0.0018490029033273458
1.727528637666339e+18,0.000925480155274272,0.00553914625197649,-0.005407487042248249
1.7275286376723392e+18,0.0025152480229735374,0.00790824368596077,-0.0026366659440100193
1.7275286376783393e+18,-0.0003925932105630636,0.008653705939650536,-0.003746588248759508
1.7275286376843395e+18,0.004044095519930124,0.006236039102077484,-0.002223552903160453
1.7275286376903396e+18,0.005022550001740456,0.005213502328842878,-0.004462235141545534
1.7275286376963397e+18,0.0018582597840577364,0.006440246012061834,-0.005457893013954163
1.7275286376993398e+18,0.005361662246286869,0.006368530914187431,0.0016837490256875753
1.72752863770534e+18,0.00685462262481451,0.003522939281538129,-0.0025566311087459326
1.72752863771134e+18,0.006877651438117027,0.006242859177291393,-0.0012859185226261616
1.72752863771434e+18,0.007913441397249699,0.003803031984716654,-0.0014491924084722996
1.7275286377203402e+18,0.008080334402620792,0.002411799505352974,-0.004341203719377518
1.7275286377263404e+18,0.006646044086664915,0.005332530941814184,-0.0015695791225880384
1.7275286377323405e+18,0.005861523561179638,0.005032360553741455,-0.006272796541452408
1.7275286377353405e+18,0.004002740141004324,0.004646093584597111,-0.002507805125787854
1.7275286377413407e+18,0.0036833358462899923,0.00547343585640192,-0.005228119902312756
1.7275286377473408e+18,0.0034474055282771587,0.0021918360143899918,0.0003413246013224125
1.727528637753341e+18,0.001862787175923586,0.006935588549822569,-0.0036782315000891685
1.727528637756341e+18,0.0056330678053200245,0.0039963386952877045,-0.0026722592301666737
1.727528637762341e+18,0.0029915086925029755,0.005667431280016899,-0.002249867422506213
1.7275286377683412e+18,0.006648794282227755,0.005689490586519241,-0.002797188935801387
1.7275286377743414e+18,0.00842167716473341,0.00893325638025999,-0.0009509957162663341
1.7275286377803415e+18,0.010925817303359509,0.005888784769922495,-0.0006526459474116564
1.7275286377833416e+18,0.012744815088808537,0.007048411760479212,0.0014472203329205513
1.7275286377893417e+18,0.008734194561839104,0.0044869314879179,-0.005235610995441675
1.7275286377953418e+18,0.011545811779797077,0.007489464711397886,-0.0034837904386222363
1.727528637801342e+18,0.009221320040524006,0.00622266810387373,-0.00423048809170723
1.727528637807342e+18,0.0058325366117060184,0.009219850413501263,-0.002765029203146696
1.7275286378133422e+18,0.004703448619693518,0.009103776887059212,-0.004497641697525978
1.7275286378163423e+18,0.004696327727288008,0.002649016212671995,-0.0017443241085857153
1.7275286378223424e+18,0.003651081584393978,0.006378932856023312,-0.0020269767846912146
1.7275286378283425e+18,0.007435915060341358,0.00669853063300252,-0.004916509613394737
1.7275286378313426e+18,0.0052983579225838184,0.00873371958732605,-0.00373212737031281
1.7275286378373427e+18,0.006373557262122631,0.006041909102350473,-0.0006367439636960626
1.7275286378433428e+18,0.008185381069779396,0.008210735395550728,0.0003878730349242687
1.727528637849343e+18,0.010592992417514324,0.006060343701392412,-0.0014340889174491167
1.727528637855343e+18,0.008757470175623894,0.004922694060951471,-0.004906882531940937
1.7275286378583432e+18,0.01038956455886364,0.0028113769367337227,-0.0016294914530590177
1.7275286378643433e+18,0.009746781550347805,0.006205376703292131,-0.0032569938339293003
1.7275286378703434e+18,0.007058837451040745,0.003990313038229942,-0.002374360105022788
1.7275286378763436e+18,0.00269495346583426,0.005118966568261385,9.226659312844276e-05
1.7275286378823437e+18,0.003603176912292838,0.0016844284255057573,-0.0019263484282419086
1.7275286378853437e+18,0.001908578211441636,0.005087724421173334,0.0007520022336393595
1.727528637891344e+18,0.0024660530034452677,0.00228104111738503,6.614031735807657e-05
1.727528637897344e+18,0.0025376081466674805,0.0014571005012840033,-0.0024015987291932106
1.727528637903344e+18,0.0019339200807735324,0.0003710880409926176,-0.0005991313373669982
1.7275286379063442e+18,0.0027515157125890255,0.004441322758793831,0.0010086423717439175
1.7275286379123443e+18,0.005084080621600151,8.632603567093611e-05,-0.0006062398897483945
1.7275286379183444e+18,0.006476192735135555,0.00044276315020397305,-0.0002937749959528446
