timestamp,accel_x,accel_y,accel_z
1.727528818465196e+18,-0.04679657891392708,0.018965326249599457,-9.727781295776367
1.7275288184741962e+18,0.08880385756492615,0.07960334420204163,-9.835930824279785
1.7275288184771963e+18,-0.005125285591930151,-0.0035029123537242413,-9.816883087158203
1.7275288184831964e+18,-0.08004460483789444,0.019751006737351418,-9.808733940124512
1.7275288184891965e+18,0.06527115404605865,-0.04020237177610397,-9.746683120727539
1.7275288184921966e+18,-0.01443571038544178,0.05307197943329811,-9.815946578979492
1.7275288184981967e+18,-0.06784497946500778,0.009697181172668934,-9.857722282409668
1.7275288185041969e+18,-0.018711918964982033,0.005994715262204409,-9.911187171936035
1.727528818510197e+18,-0.0287154708057642,0.01630299724638462,-9.798637390136719
1.727528818513197e+18,-0.005686710588634014,-0.06874243170022964,-9.796537399291992
1.7275288185191972e+18,-0.014673619531095028,0.0037869277875870466,-9.777576446533203
1.7275288185251973e+18,-0.01173726748675108,-0.004853783641010523,-9.794598579406738
1.7275288185311974e+18,0.045485202223062515,0.029098885133862495,-9.720596313476562
1.7275288185341975e+18,0.052985262125730515,-0.06247134879231453,-9.78695297241211
1.7275288185401976e+18,0.05007302388548851,-0.027827059850096703,-9.873380661010742
1.7275288185461978e+18,-0.0025261505506932735,0.02764686569571495,-9.804215431213379
1.7275288185491978e+18,0.020482240244746208,-0.05665627866983414,-9.770787239074707
1.727528818555198e+18,0.049548014998435974,-0.04267818480730057,-9.815649032592773
1.727528818561198e+18,0.09198695421218872,0.007964324206113815,-9.73189640045166
1.7275288185671982e+18,-0.05074508115649223,-0.0050359731540083885,-9.829957008361816
1.7275288185701983e+18,-0.07944918423891068,-0.046920295804739,-9.700252532958984
1.7275288185791985e+18,0.019828055053949356,0.06811005622148514,-9.81547737121582
1.7275288185821985e+18,-0.006843248847872019,0.0575692281126976,-9.829352378845215
1.7275288185881987e+18,-0.023873712867498398,0.052328288555145264,-9.805173873901367
1.7275288185941988e+18,-0.07971372455358505,-0.016941584646701813,-9.87862491607666
1.727528818600199e+18,-0.01951942779123783,-0.09379997849464417,-9.816488265991211
1.727528818603199e+18,0.012124844826757908,0.014572110958397388,-9.774177551269531
1.727528818609199e+18,0.03286247327923775,-0.0028262771666049957,-9.88860034942627
1.7275288186151992e+18,0.003535327035933733,-0.07757987082004547,-9.84981918334961
1.7275288186211994e+18,0.027111127972602844,0.02785676345229149,-9.852538108825684
1.7275288186241994e+18,-0.03360528498888016,0.048607196658849716,-9.756256103515625
1.7275288186301996e+18,0.02579192817211151,-0.06684516370296478,-9.79440975189209
1.7275288186361997e+18,-0.038341179490089417,-0.0076892077922821045,-9.83685302734375
1.7275288186421998e+18,-0.0010174197377637029,-0.05816188082098961,-9.825057983398438
1.7275288186482e+18,-0.0314960815012455,-0.038570061326026917,-9.874802589416504
1.7275288186512e+18,-0.03848307207226753,0.01958373747766018,-9.845298767089844
1.7275288186572e+18,0.04306207597255707,-0.007322574965655804,-9.797152519226074
1.7275288186632003e+18,0.02728588692843914,-0.02931353636085987,-9.779956817626953
1.7275288186662003e+18,0.07262570410966873,-0.054342009127140045,-9.803401947021484
1.7275288186722004e+18,0.002468794584274292,0.0005689366953447461,-9.739188194274902
1.7275288186782006e+18,-0.08025211840867996,0.03492056950926781,-9.799517631530762
1.7275288186842007e+18,0.0834750309586525,0.0531744658946991,-9.783963203430176
1.7275288186872008e+18,0.0769793912768364,-0.00012026459444314241,-9.757617950439453
1.727528818693201e+18,0.02704400010406971,0.02752157300710678,-9.80685806274414
1.727528818699201e+18,0.007444383576512337,-0.15952716767787933,-9.898195266723633
1.7275288187052012e+18,-0.038145408034324646,0.0174131840467453,-9.848847389221191
1.7275288187082012e+18,0.008712999522686005,-0.05218131095170975,-9.830602645874023
1.7275288187142013e+18,0.0011103665456175804,-0.03161183372139931,-9.76134967803955
1.7275288187202015e+18,-0.06345247477293015,0.060944996774196625,-9.781959533691406
1.7275288187262016e+18,0.03627515211701393,0.02651440165936947,-9.758515357971191
1.7275288187292017e+18,0.013678929768502712,-0.029673472046852112,-9.807117462158203
1.7275288187352018e+18,-0.08303850144147873,-0.026989489793777466,-9.861680030822754
1.727528818741202e+18,-0.0674603059887886,-0.019282924011349678,-9.763111114501953
1.727528818747202e+18,-0.015585852786898613,-0.026599641889333725,-9.7963228225708
1.7275288187532022e+18,-0.011307491920888424,-0.03855583816766739,-9.795218467712402
1.7275288187562022e+18,-0.00035074460902251303,0.041335850954055786,-9.809057235717773
1.7275288187622024e+18,0.022327886894345284,-0.012282038107514381,-9.844908714294434
1.7275288187682025e+18,-0.02591237798333168,-0.07041846215724945,-9.879594802856445
1.7275288187742026e+18,-0.06996554881334305,-0.029229141771793365,-9.778504371643066
1.7275288187772027e+18,-0.06222829595208168,0.034875042736530304,-9.804885864257812
1.7275288187832028e+18,-0.003518685232847929,0.048495590686798096,-9.86962604522705
1.727528818789203e+18,-0.0428023636341095,-0.006145795341581106,-9.806851387023926
1.727528818792203e+18,0.0010358885629102588,-0.06656719744205475,-9.79956340789795
1.7275288187982031e+18,0.05825783684849739,-0.013745556585490704,-9.796833038330078
1.7275288188042033e+18,-0.009262880310416222,-0.01686994358897209,-9.812249183654785
1.7275288188072033e+18,-0.016272347420454025,-0.03944675624370575,-9.780324935913086
1.7275288188132035e+18,0.016651008278131485,-0.04558321461081505,-9.839922904968262
1.7275288188192036e+18,0.03788352012634277,0.0159057155251503,-9.833351135253906
1.7275288188252037e+18,0.010678021237254143,0.04568425565958023,-9.820552825927734
1.7275288188282038e+18,-0.006481635384261608,-0.07940376549959183,-9.82623291015625
1.727528818834204e+18,-0.008597114123404026,-0.0394936241209507,-9.887285232543945
1.727528818840204e+18,0.0028374940156936646,0.04392702504992485,-9.913272857666016
1.7275288188462042e+18,0.04737091064453125,0.0659990906715393,-9.809460639953613
1.7275288188522043e+18,-0.0438167080283165,0.055888574570417404,-9.835965156555176
1.7275288188552044e+18,0.06388559192419052,0.006550916004925966,-9.880975723266602
1.7275288188612045e+18,0.008487292565405369,-0.008304541930556297,-9.804914474487305
1.7275288188672046e+18,-0.01769634708762169,0.04619976505637169,-9.873932838439941
1.7275288188732047e+18,0.05986674129962921,0.07048828899860382,-9.848332405090332
1.7275288188792049e+18,0.047885604202747345,-0.06944211572408676,-9.67039966583252
1.727528818882205e+18,-0.010352231562137604,-0.00793779268860817,-9.767892837524414
1.727528818888205e+18,-0.01415528729557991,0.0027246950194239616,-9.81462574005127
1.7275288188942052e+18,0.0030613597482442856,-0.00916280597448349,-9.850540161132812
1.7275288189002053e+18,-0.05891375243663788,0.01264950167387724,-9.85071086883545
1.7275288189032054e+18,-0.10342293232679367,0.04155193269252777,-9.84165096282959
1.7275288189092055e+18,0.06095427647233009,-0.014286940917372704,-9.77487850189209
1.7275288189152056e+18,-0.04987270012497902,-0.03315044566988945,-9.754754066467285
1.7275288189182057e+18,0.0018687723204493523,0.029864352196455002,-9.79063892364502
1.7275288189242058e+18,0.008435970172286034,-0.01015753298997879,-9.771463394165039
1.727528818930206e+18,0.03422166779637337,-0.016481846570968628,-9.859827995300293
1.727528818933206e+18,0.0033110312651842833,-0.0033158876467496157,-9.843076705932617
1.7275288189392061e+18,0.07557907700538635,-0.04136737063527107,-9.800775527954102
1.7275288189452063e+18,-0.04034552350640297,0.015673968940973282,-9.794916152954102
1.7275288189512064e+18,0.04054507240653038,-0.05275318771600723,-9.772078514099121
1.7275288189542065e+18,0.02870490774512291,0.005338884424418211,-9.815520286560059
1.7275288189602066e+18,-0.011025716550648212,-0.008642354980111122,-9.811322212219238
1.7275288189662067e+18,-0.018807830289006233,-0.02915719337761402,-9.767334938049316
1.7275288189722068e+18,-0.033604126423597336,-0.07932322472333908,-9.848580360412598
1.727528818978207e+18,-0.05090387910604477,0.009515974670648575,-9.837035179138184
1.727528818981207e+18,-0.014575515873730183,0.031234517693519592,-9.770269393920898
1.7275288189872072e+18,0.040065400302410126,0.04547233507037163,-9.806842803955078
1.7275288189932073e+18,-0.035506606101989746,-0.008655029349029064,-9.760108947753906
1.7275288189992074e+18,0.038538798689842224,-0.03553326055407524,-9.802163124084473
1.7275288190022075e+18,-0.10602342337369919,-0.03350936993956566,-9.850227355957031
1.7275288190082076e+18,-0.08004118502140045,0.010317300446331501,-9.878798484802246
1.7275288190142077e+18,0.010869147256016731,-0.031295228749513626,-9.738149642944336
1.7275288190202079e+18,0.04940052330493927,-0.06698228418827057,-9.746050834655762
1.727528819023208e+18,-0.006607966031879187,-0.0083863390609622,-9.775273323059082
1.727528819029208e+18,-0.045436616986989975,0.05436180531978607,-9.8257474899292
1.7275288190352082e+18,-0.06764906644821167,0.08002804964780807,-9.76949405670166
1.7275288190412083e+18,-0.039158664643764496,0.018054870888590813,-9.777966499328613
1.7275288190472084e+18,-0.05948732793331146,0.013314974494278431,-9.839780807495117
1.7275288190502085e+18,-0.0033604574855417013,0.09612192958593369,-9.865307807922363
1.7275288190562086e+18,0.037580572068691254,-0.0270383283495903,-9.771463394165039
1.7275288190622088e+18,0.021556172519922256,-0.011584077961742878,-9.838557243347168
1.727528819068209e+18,0.03792032226920128,-0.035282548516988754,-9.859513282775879
1.727528819074209e+18,-0.033215902745723724,0.006069092079997063,-9.827937126159668
1.727528819077209e+18,-0.04298550635576248,-0.040613412857055664,-9.846150398254395
1.7275288190832092e+18,-0.008132061921060085,0.08511505275964737,-9.817341804504395
1.7275288190892093e+18,0.016537494957447052,-0.0015728402649983764,-9.769449234008789
1.7275288190952095e+18,0.008145095780491829,0.03822396323084831,-9.815561294555664
1.7275288190982095e+18,0.05414212867617607,0.03175307810306549,-9.81757640838623
1.7275288191042097e+18,0.00894937478005886,-0.06757649779319763,-9.728415489196777
1.7275288191102098e+18,-0.007057082839310169,0.005781466141343117,-9.835733413696289
1.72752881911621e+18,-0.06580747663974762,0.06265870481729507,-9.778532028198242
1.72752881911921e+18,-0.014657171443104744,-0.0169326514005661,-9.831893920898438
1.72752881912521e+18,0.06328145414590836,-0.011615518480539322,-9.76169204711914
1.7275288191312102e+18,-0.021927690133452415,-0.012500572018325329,-9.815680503845215
1.7275288191372104e+18,0.036755189299583435,0.029986219480633736,-9.799872398376465
1.7275288191432105e+18,0.021881822496652603,-0.0863797590136528,-9.722262382507324
1.7275288191462106e+18,-0.05317632108926773,0.00535577954724431,-9.836833953857422
1.7275288191522107e+18,0.005002970807254314,0.005432494450360537,-9.836494445800781
1.7275288191582108e+18,0.02626095712184906,0.010069407522678375,-9.801228523254395
1.727528819164211e+18,0.02072504721581936,-0.006645691115409136,-9.864283561706543
1.727528819170211e+18,-0.03957498446106911,-0.012722555547952652,-9.8296537399292
1.7275288191762112e+18,0.01362910307943821,-0.00934840738773346,-9.825874328613281
1.7275288191792113e+18,-0.036687687039375305,-0.011556294746696949,-9.724518775939941
1.7275288191852114e+18,0.02533680386841297,0.027001013979315758,-9.741909980773926
1.7275288191912115e+18,-0.01194711122661829,-0.020227700471878052,-9.83877944946289
1.7275288191972116e+18,0.033672381192445755,0.05105070769786835,-9.848796844482422
1.7275288192032118e+18,-0.012662633322179317,0.02978063002228737,-9.867341041564941
1.727528819209212e+18,0.0065611847676336765,-0.003548400942236185,-9.813770294189453
1.727528819215212e+18,0.06310408562421799,0.023350590839982033,-9.744871139526367
1.727528819218212e+18,0.00011344905942678452,0.013574737124145031,-9.847493171691895
1.7275288192242122e+18,-0.012002568691968918,0.020757576450705528,-9.801013946533203
1.7275288192302124e+18,0.05621550977230072,-0.09347377717494965,-9.871477127075195
1.7275288192362125e+18,-0.047377221286296844,0.04910141974687576,-9.776914596557617
1.7275288192422126e+18,-0.02205316722393036,0.030072657391428947,-9.78525161743164
1.7275288192452127e+18,-0.035534705966711044,-0.0806301161646843,-9.838507652282715
1.7275288192512128e+18,0.042363908141851425,-0.04369800537824631,-9.717665672302246
1.727528819257213e+18,-0.05239076912403107,0.07443714886903763,-9.77384090423584
1.727528819263213e+18,0.005415951367467642,-0.04520730674266815,-9.884882926940918
1.7275288192692132e+18,0.01601862907409668,-0.07944999635219574,-9.83960247039795
1.7275288192752133e+18,-0.004403941333293915,0.007555253338068724,-9.755298614501953
1.7275288192782134e+18,-0.003821212099865079,-0.09302498400211334,-9.844512939453125
1.7275288192842135e+18,0.05251267924904823,0.007890279404819012,-9.820120811462402
1.7275288192902136e+18,0.0025882418267428875,-0.008325828239321709,-9.766949653625488
1.7275288192962138e+18,0.004892801400274038,0.05766812711954117,-9.766095161437988
1.727528819302214e+18,0.08166108280420303,-0.07347100973129272,-9.830513954162598
1.727528819305214e+18,-0.040923845022916794,0.10270684957504272,-9.836400985717773
1.727528819311214e+18,-0.06890498101711273,-0.03803882375359535,-9.84229564666748
1.7275288193172142e+18,-0.005499821621924639,0.007659463677555323,-9.761899948120117
1.7275288193232143e+18,-0.09446659684181213,0.04284540191292763,-9.787191390991211
1.7275288193292145e+18,-0.09446083009243011,-0.03543584793806076,-9.87267780303955
1.7275288193352146e+18,-0.057173293083906174,-0.11864832043647766,-9.729873657226562
1.7275288193382147e+18,-0.0185724925249815,-0.06473470479249954,-9.780098915100098
1.7275288193442148e+18,0.006069543305784464,-0.028202366083860397,-9.811110496520996
1.727528819350215e+18,0.011095445603132248,-0.006067292764782906,-9.808798789978027
1.727528819356215e+18,-0.05587441474199295,0.024159949272871017,-9.769121170043945
1.7275288193622152e+18,0.03795211762189865,-0.008279726840555668,-9.782488822937012
1.7275288193652152e+18,-0.039331864565610886,-0.042380236089229584,-9.863625526428223
1.7275288193712154e+18,0.035302288830280304,-0.0203243400901556,-9.772602081298828
1.7275288193772155e+18,-0.008254563435912132,-0.019314851611852646,-9.90417194366455
1.7275288193832156e+18,-0.13180163502693176,0.06088827922940254,-9.820677757263184
1.7275288193892157e+18,0.05403343588113785,0.09533920884132385,-9.84076976776123
1.727528819395216e+18,-0.03631699085235596,0.03821471333503723,-9.805476188659668
1.727528819401216e+18,0.02515355683863163,0.026586059480905533,-9.797186851501465
1.727528819407216e+18,0.012188607826828957,0.0295347198843956,-9.861984252929688
1.7275288194102162e+18,-0.014961875975131989,-0.04541369900107384,-9.817307472229004
1.7275288194162163e+18,0.029898449778556824,-0.0038653910160064697,-9.882735252380371
1.7275288194222164e+18,0.012705270200967789,0.04053178057074547,-9.89070987701416
1.7275288194282166e+18,-0.04075324162840843,0.01500101387500763,-9.812638282775879
1.7275288194312166e+18,0.011489763855934143,0.022277209907770157,-9.89657974243164
1.7275288194372168e+18,-0.074583999812603,-0.0278947614133358,-9.8589506149292
1.727528819443217e+18,-0.010945084504783154,0.01478480827063322,-9.751391410827637
1.727528819449217e+18,0.06548202037811279,-0.013270792551338673,-9.811870574951172
1.7275288194552172e+18,0.014033040963113308,-0.028088727965950966,-9.817339897155762
1.7275288194582172e+18,-0.018590863794088364,-0.07391326129436493,-9.799448013305664
1.7275288194642173e+18,0.037198904901742935,0.10098925977945328,-9.799681663513184
1.7275288194702175e+18,0.09040065109729767,0.00827378872781992,-9.885444641113281
1.7275288194762176e+18,0.05328431725502014,-0.0047743008472025394,-9.850122451782227
1.7275288194822177e+18,0.00774780660867691,-0.0584329254925251,-9.763931274414062
1.7275288194882179e+18,0.05605084449052811,0.035240814089775085,-9.695210456848145
1.727528819491218e+18,0.0469653382897377,0.009092659689486027,-9.814703941345215
1.727528819497218e+18,-0.004315010271966457,-0.018054217100143433,-9.823304176330566
1.7275288195032182e+18,-0.03915343061089516,0.09402703493833542,-9.909421920776367
1.7275288195092183e+18,0.0011402731761336327,0.006847293581813574,-9.737911224365234
1.7275288195122184e+18,-0.11655216664075851,-0.02122417464852333,-9.781595230102539
1.7275288195212186e+18,-0.04104961082339287,-0.002030155621469021,-9.908671379089355
1.7275288195272187e+18,0.020170126110315323,0.03620715066790581,-9.75788688659668
1.7275288195332188e+18,0.05783966928720474,0.024338550865650177,-9.801629066467285
1.727528819539219e+18,-0.009712759405374527,0.031655170023441315,-9.782228469848633
1.727528819542219e+18,-0.038336385041475296,0.0389598049223423,-9.834287643432617
1.7275288195482191e+18,-0.002282742876559496,0.012236197479069233,-9.776633262634277
1.7275288195542193e+18,-0.01168446522206068,-0.022521555423736572,-9.775761604309082
1.7275288195602194e+18,-0.040504518896341324,-0.01985672302544117,-9.836386680603027
1.7275288195632195e+18,-0.05031257122755051,-0.026899011805653572,-9.763665199279785
1.7275288195692196e+18,0.029864368960261345,0.029194308444857597,-9.85465145111084
1.7275288195752197e+18,0.037496548146009445,-0.020318834111094475,-9.818708419799805
1.7275288195812198e+18,0.03489072620868683,0.0027109659276902676,-9.799705505371094
1.72752881958722e+18,0.042947378009557724,0.07847370952367783,-9.786113739013672
1.72752881959022e+18,0.05340952426195145,0.025277327746152878,-9.843960762023926
1.7275288195962202e+18,0.009575816802680492,-0.09493555128574371,-9.789238929748535
1.7275288196022203e+18,-0.007109020836651325,0.09699996560811996,-9.829626083374023
1.7275288196082204e+18,-0.036123134195804596,0.003981785848736763,-9.763778686523438
1.7275288196112205e+18,0.008676194585859776,0.01253514178097248,-9.80918025970459
1.7275288196172206e+18,-0.05246903374791145,0.046068720519542694,-9.790960311889648
1.7275288196232207e+18,-0.008627306669950485,0.026488328352570534,-9.83033561706543
1.7275288196292209e+18,-0.041625406593084335,0.00740994093939662,-9.803962707519531
1.727528819632221e+18,-0.006712137255817652,-0.005641651339828968,-9.826467514038086
1.727528819638221e+18,-0.043402958661317825,-0.02509857341647148,-9.753935813903809
1.7275288196442212e+18,-0.021057337522506714,-0.024295000359416008,-9.748976707458496
1.7275288196502213e+18,-0.07039755582809448,0.016529355198144913,-9.834179878234863
1.7275288196562214e+18,-0.038628917187452316,0.06267388164997101,-9.816666603088379
1.7275288196592215e+18,-0.07926082611083984,-0.1308208554983139,-9.830336570739746
1.7275288196652216e+18,0.022993069142103195,-0.012604370713233948,-9.778191566467285
1.7275288196712218e+18,-0.06522687524557114,-0.0343889519572258,-9.756998062133789
1.727528819677222e+18,-0.020276838913559914,0.047092631459236145,-9.817111015319824
1.727528819680222e+18,-0.010615850798785686,-0.0015830971533432603,-9.845964431762695
1.727528819686222e+18,-0.010494311340153217,0.0213941540569067,-9.811561584472656
1.7275288196922222e+18,-0.004101345781236887,-0.04886278510093689,-9.775065422058105
1.7275288196982223e+18,0.026850324124097824,-0.12268254160881042,-9.787506103515625
1.7275288197012224e+18,0.09240485727787018,0.026313360780477524,-9.82893180847168
1.7275288197072225e+18,-0.029581032693386078,-0.0521995835006237,-9.750332832336426
1.7275288197132227e+18,-0.024695200845599174,0.023745406419038773,-9.813544273376465
1.7275288197162227e+18,-0.008602416142821312,0.06842177361249924,-9.822943687438965
1.7275288197222228e+18,-0.04614795371890068,-0.03522973507642746,-9.844131469726562
1.727528819728223e+18,-0.05615853890776634,0.061256732791662216,-9.766725540161133
1.727528819734223e+18,-0.04396292567253113,0.044012583792209625,-9.798897743225098
1.7275288197372232e+18,0.06790142506361008,-0.011199915781617165,-9.773699760437012
1.7275288197432233e+18,-0.01768944039940834,-0.019682394340634346,-9.79645824432373
1.7275288197492234e+18,-0.026102803647518158,0.010320128872990608,-9.846014022827148
1.7275288197522235e+18,0.03472393378615379,-0.03439386188983917,-9.803629875183105
1.7275288197582236e+18,0.051661621779203415,-0.04930231347680092,-9.766977310180664
1.7275288197642237e+18,-0.0035416362807154655,-0.042131293565034866,-9.800649642944336
1.7275288197702239e+18,-0.036717407405376434,-0.016663938760757446,-9.787728309631348
1.727528819773224e+18,0.08506713062524796,0.005019349046051502,-9.814474105834961
1.727528819779224e+18,0.06302469223737717,-0.0009508657967671752,-9.737544059753418
1.7275288197852242e+18,0.026975952088832855,-0.016749456524848938,-9.752359390258789
1.7275288197912243e+18,-0.013975994661450386,0.012025888077914715,-9.857932090759277
1.7275288197972244e+18,-0.030913658440113068,-0.0171046182513237,-9.712573051452637
1.7275288198032246e+18,-0.08846133202314377,0.08904780447483063,-9.828655242919922
1.7275288198062246e+18,0.02800682745873928,0.023003535345196724,-9.814827919006348
1.7275288198122248e+18,-0.04827788099646568,0.021007364615797997,-9.704806327819824
1.727528819818225e+18,0.07213474065065384,0.03539469465613365,-9.83460807800293
1.727528819824225e+18,-0.061955925077199936,-0.026820864528417587,-9.736912727355957
1.7275288198302252e+18,-0.011680860072374344,-0.03177669271826744,-9.824503898620605
1.7275288198362253e+18,-0.0789659321308136,0.011381109245121479,-9.750182151794434
1.7275288198422254e+18,0.004686384461820126,0.049956124275922775,-9.818971633911133
1.7275288198452255e+18,-0.01924879662692547,0.025925425812602043,-9.748591423034668
1.7275288198512256e+18,0.05974102392792702,0.038269415497779846,-9.767327308654785
1.7275288198572257e+18,0.0653378888964653,-0.030500594526529312,-9.72341537475586
1.7275288198632259e+18,-0.07834753394126892,0.027009034529328346,-9.749643325805664
1.727528819866226e+18,-0.03997272625565529,0.04718805477023125,-9.860658645629883
1.727528819872226e+18,0.04043872654438019,-0.0273871012032032,-9.878130912780762
1.7275288198782262e+18,-0.024205394089221954,-0.046398699283599854,-9.73159408569336
1.7275288198842263e+18,-0.009371655993163586,-0.04743199050426483,-9.759523391723633
1.7275288198902264e+18,0.0008189646760001779,0.00013042405771557242,-9.814926147460938
1.7275288198932265e+18,-0.009369779378175735,-0.00043098104652017355,-9.838236808776855
1.7275288198992266e+18,0.016888678073883057,0.045228272676467896,-9.801265716552734
1.7275288199052268e+18,0.017115628346800804,0.019686542451381683,-9.808431625366211
1.727528819911227e+18,0.028205962851643562,-0.024222126230597496,-9.80252456665039
1.727528819917227e+18,0.0634240135550499,0.028322894126176834,-9.742511749267578
1.727528819920227e+18,-0.02882544696331024,0.06879942864179611,-9.803022384643555
1.7275288199262272e+18,-0.053061146289110184,0.008221833035349846,-9.780842781066895
1.7275288199322273e+18,0.06739503890275955,0.04206523671746254,-9.859000205993652
1.7275288199382275e+18,0.02595815621316433,-0.03273199871182442,-9.805055618286133
1.7275288199412275e+18,-0.03754464536905289,0.013423909433186054,-9.840289115905762
1.7275288199472276e+18,0.04690586030483246,0.022960830479860306,-9.800365447998047
1.7275288199532278e+18,0.013101923279464245,0.006683958228677511,-9.744292259216309
1.727528819959228e+18,0.04465444013476372,-0.009818156249821186,-9.837425231933594
1.727528819962228e+18,0.01359558291733265,0.03253551945090294,-9.803749084472656
1.727528819968228e+18,0.10148859769105911,0.03654322028160095,-9.772063255310059
1.7275288199742282e+18,0.005240007769316435,0.02117825858294964,-9.781384468078613
1.7275288199802284e+18,0.00398741802200675,-0.0568198636174202,-9.852428436279297
1.7275288199832284e+18,0.0055600302293896675,0.026575691998004913,-9.829435348510742
1.7275288199892285e+18,-0.041138939559459686,0.06522530317306519,-9.821184158325195
1.7275288199922286e+18,-0.004445869009941816,-0.0362587571144104,-9.808882713317871
1.7275288199982287e+18,0.06872465461492538,0.009064964950084686,-9.744930267333984
1.7275288200042289e+18,0.025973910465836525,-0.02018583193421364,-9.79450511932373
1.727528820007229e+18,0.015644878149032593,-0.07982323318719864,-9.839847564697266
1.727528820013229e+18,-0.05419192090630531,0.003874029265716672,-9.826751708984375
1.7275288200192292e+18,-0.06928374618291855,-0.039733272045850754,-9.864402770996094
1.7275288200252293e+18,0.0018868324114009738,-0.04913178086280823,-9.848721504211426
1.7275288200312294e+18,0.008688882924616337,0.0581226646900177,-9.864458084106445
1.7275288200342295e+18,-0.018668482080101967,-0.03346463292837143,-9.753475189208984
1.7275288200402296e+18,-0.056220997124910355,-0.03734278306365013,-9.825782775878906
1.7275288200462298e+18,-0.06305088102817535,-0.03251618891954422,-9.711509704589844
1.72752882005223e+18,-0.024754853919148445,0.10291461646556854,-9.75446891784668
1.72752882005523e+18,-0.03735627606511116,-0.02057107351720333,-9.837613105773926
1.72752882006123e+18,0.01240778248757124,0.0684901550412178,-9.74229907989502
1.7275288200672302e+18,-0.03480354696512222,-0.0322403684258461,-9.750019073486328
1.7275288200732303e+18,-0.020909778773784637,-0.014001707546412945,-9.730783462524414
1.7275288200792305e+18,-0.010505395010113716,-0.020773079246282578,-9.735965728759766
1.7275288200822305e+18,0.0678098201751709,0.07665693014860153,-9.843806266784668
1.7275288200882307e+18,-0.03743227198719978,0.000709379673935473,-9.810562133789062
1.7275288200942308e+18,-0.09087444096803665,0.009274819865822792,-9.829971313476562
1.727528820100231e+18,0.015032345429062843,0.005649831611663103,-9.771735191345215
1.727528820103231e+18,0.004902491346001625,-0.01490227784961462,-9.832035064697266
1.727528820109231e+18,-0.04601539671421051,-0.03610475733876228,-9.762641906738281
1.7275288201152312e+18,0.01979944109916687,0.07784665375947952,-9.75474739074707
1.7275288201182313e+18,-0.021815376356244087,-0.08867299556732178,-9.798781394958496
1.7275288201242314e+18,-0.04617858678102493,-0.05765366926789284,-9.840456008911133
1.7275288201302316e+18,0.037197090685367584,0.03390637785196304,-9.7839937210083
1.7275288201332316e+18,-0.04059348627924919,-0.02044040337204933,-9.792177200317383
1.7275288201392317e+18,0.040366727858781815,-0.04177837446331978,-9.831393241882324
1.727528820145232e+18,0.06326846778392792,-0.04370182007551193,-9.829343795776367
1.727528820151232e+18,0.04980478063225746,0.05333646759390831,-9.800863265991211
1.727528820154232e+18,-0.029130902141332626,-0.04055729880928993,-9.82349967956543
1.7275288201602322e+18,0.003649591002613306,-0.020839741453528404,-9.86797046661377
1.7275288201662323e+18,-0.01975042186677456,-0.056532684713602066,-9.795676231384277
1.7275288201722324e+18,-0.0731792002916336,0.003835724201053381,-9.774645805358887
1.7275288201782326e+18,-0.0919545367360115,0.02515087090432644,-9.788820266723633
1.7275288201812326e+18,0.05426459386944771,-0.03295551985502243,-9.81966495513916
1.7275288201872328e+18,0.019636869430541992,0.08416815102100372,-9.77614688873291
1.727528820193233e+18,0.06318245828151703,-0.010740670375525951,-9.76203727722168
1.727528820196233e+18,0.03096294403076172,-0.09831104427576065,-9.878118515014648
1.727528820202233e+18,0.039191197603940964,0.05754266306757927,-9.801420211791992
1.7275288202082332e+18,0.03869928792119026,-0.0747823491692543,-9.795166969299316
1.7275288202142333e+18,0.053370505571365356,-0.01980467140674591,-9.7401762008667
1.7275288202172334e+18,-0.009660759009420872,-0.0070349122397601604,-9.803515434265137
1.7275288202232335e+18,0.004891752265393734,-0.040865976363420486,-9.856017112731934
1.7275288202292337e+18,-0.05368431657552719,0.0053896671161055565,-9.837071418762207
1.7275288202352338e+18,0.03536418452858925,0.032460156828165054,-9.79715347290039
1.7275288202382339e+18,0.03747612237930298,0.04095448926091194,-9.802638053894043
1.727528820244234e+18,-0.012842310592532158,-0.0016891543054953218,-9.832717895507812
1.727528820250234e+18,0.015796320512890816,-0.06368657946586609,-9.81312084197998
1.7275288202562342e+18,0.032358329743146896,0.053695619106292725,-9.799249649047852
1.7275288202592343e+18,-0.0839981809258461,0.019763872027397156,-9.794486045837402
1.7275288202652344e+18,0.009222142398357391,-0.011098808608949184,-9.807815551757812
1.7275288202712346e+18,-0.014362495392560959,-0.004524975083768368,-9.812828063964844
1.7275288202742346e+18,0.056281767785549164,-0.03490564227104187,-9.786375045776367
1.7275288202802348e+18,0.008573888801038265,0.031199747696518898,-9.822539329528809
1.727528820286235e+18,0.015661127865314484,0.03613840416073799,-9.774689674377441
1.727528820292235e+18,0.02046142891049385,-0.0032972281333059072,-9.792941093444824
1.727528820295235e+18,0.03839899227023125,0.032342832535505295,-9.77441692352295
1.7275288203012352e+18,0.020055608823895454,-0.007146491203457117,-9.923404693603516
1.7275288203072353e+18,0.010296789929270744,-0.03407556936144829,-9.892834663391113
1.7275288203132355e+18,0.010287541896104813,-0.027915379032492638,-9.903218269348145
1.7275288203162355e+18,-0.024489182978868484,-0.1280415803194046,-9.840761184692383
1.7275288203222356e+18,-0.04384687542915344,-0.07089046388864517,-9.814531326293945
1.7275288203282358e+18,0.0049613965675234795,-0.016421005129814148,-9.975736618041992
1.727528820334236e+18,0.04575138911604881,-0.07831498980522156,-9.908862113952637
1.727528820337236e+18,-0.06916090101003647,0.02098529413342476,-9.917807579040527
1.727528820343236e+18,-0.0018575398717075586,-0.08440753817558289,-9.881584167480469
1.7275288203492362e+18,0.003664118004962802,-0.0731680691242218,-9.975969314575195
1.7275288203522363e+18,-0.01036496926099062,0.005658093374222517,-9.981324195861816
1.7275288203582364e+18,0.017970019951462746,-0.01038566417992115,-9.948491096496582
1.7275288203642365e+18,-0.015728475525975227,0.005954298190772533,-10.007022857666016
1.7275288203702367e+18,0.030092794448137283,0.05564003437757492,-9.975030899047852
1.7275288203762368e+18,0.03646202012896538,-0.10587438941001892,-9.913537979125977
1.7275288203792369e+18,0.07111792266368866,-0.016395123675465584,-9.999724388122559
1.727528820385237e+18,0.005792949348688126,-0.0025785849429666996,-9.988443374633789
1.727528820391237e+18,0.015619507059454918,0.011182760819792747,-10.030699729919434
1.7275288203942372e+18,-0.003113918472081423,-0.03200653940439224,-10.082979202270508
1.7275288204002373e+18,0.040562063455581665,0.05033969134092331,-10.037248611450195
1.7275288204062374e+18,0.015022499486804008,0.016551632434129715,-10.033306121826172
1.7275288204092375e+18,0.03254784271121025,-0.00035356811713427305,-10.023262977600098
1.7275288204152376e+18,-0.00033871212508529425,-0.007145439274609089,-10.160707473754883
1.7275288204212378e+18,0.09148751199245453,-0.031030558049678802,-10.022844314575195
1.727528820427238e+18,-0.08221626281738281,0.03176230564713478,-10.044999122619629
1.727528820430238e+18,-0.041721560060977936,0.0678928941488266,-10.063616752624512
1.727528820436238e+18,-0.046089909970760345,-0.03853769227862358,-10.200499534606934
1.7275288204422382e+18,-0.03690158948302269,0.029143204912543297,-10.209458351135254
1.7275288204482383e+18,-0.02135743387043476,-0.07601837813854218,-10.17186164855957
1.7275288204542385e+18,-0.010092483833432198,-0.02205049805343151,-10.103906631469727
1.7275288204572385e+18,-0.040187545120716095,-0.0605492889881134,-10.116425514221191
1.7275288204632387e+18,0.03762321546673775,-0.005501102656126022,-10.096744537353516
1.7275288204692388e+18,-0.014849058352410793,0.026418913155794144,-10.085664749145508
1.727528820475239e+18,0.019096197560429573,0.009396955370903015,-10.148905754089355
1.727528820478239e+18,0.03143484890460968,-0.013598150573670864,-10.219969749450684
1.727528820484239e+18,0.021939696744084358,-0.01685609668493271,-10.150835037231445
1.7275288204902392e+18,-0.06581330299377441,-0.006090343464165926,-10.13747501373291
1.7275288204962394e+18,-0.017634568735957146,-0.028741784393787384,-10.153746604919434
1.7275288204992394e+18,-0.0765896737575531,-0.043911904096603394,-10.179946899414062
1.7275288205052396e+18,-0.03656039386987686,-0.03045673668384552,-10.22176456451416
1.7275288205112397e+18,-0.049322694540023804,0.0057755387388169765,-10.21213436126709
1.7275288205172398e+18,0.01329898089170456,0.011803545989096165,-10.221918106079102
1.72752882052324e+18,-0.071809321641922,0.01216132938861847,-10.243708610534668
1.72752882052624e+18,-0.007892939262092113,-0.05597350746393204,-10.21976375579834
1.7275288205322401e+18,-0.00797293707728386,0.033829495310783386,-10.478697776794434
1.7275288205382403e+18,-0.013990608975291252,0.02771773189306259,-10.566970825195312
1.7275288205442404e+18,0.016421064734458923,0.07141947746276855,-10.511045455932617
1.7275288205472404e+18,-0.07377153635025024,-0.03342977166175842,-10.59995174407959
1.7275288205532406e+18,-0.03942014276981354,0.10297287255525589,-10.589938163757324
1.7275288205592407e+18,0.01926511339843273,-0.11112610250711441,-10.581147193908691
1.7275288205652408e+18,0.025015724822878838,0.015982022508978844,-10.538849830627441
1.727528820571241e+18,-0.003851092653349042,-0.01773718185722828,-10.582179069519043
1.727528820577241e+18,-0.061492130160331726,-0.007900413125753403,-10.55844783782959
1.7275288205832412e+18,0.018080050125718117,6.577043677680194e-05,-10.626189231872559
1.7275288205862413e+18,0.010118030942976475,0.008810387924313545,-10.620022773742676
1.7275288205922414e+18,-0.09897089004516602,0.008777512237429619,-10.693514823913574
1.7275288205982415e+18,-0.028730962425470352,0.10899814963340759,-10.577205657958984
1.7275288206042417e+18,0.008898146450519562,-0.0289284847676754,-10.65018081665039
1.7275288206072417e+18,-0.00416218675673008,-0.04541885480284691,-10.557770729064941
1.7275288206132419e+18,0.01942589320242405,-0.0964125245809555,-10.602380752563477
1.727528820619242e+18,-0.024227971211075783,-0.008014418184757233,-10.615762710571289
1.727528820625242e+18,0.027320945635437965,-0.056413307785987854,-10.679953575134277
1.7275288206312422e+18,0.03495894372463226,0.013064553961157799,-10.566219329833984
1.7275288206342423e+18,-0.004667752888053656,-0.03798564150929451,-10.571125984191895
1.7275288206402424e+18,0.027084318920969963,0.011239923536777496,-10.616214752197266
1.7275288206462426e+18,0.006437322590500116,-0.06765139102935791,-10.635988235473633
1.7275288206492426e+18,-0.03020351566374302,-0.01736437901854515,-10.668975830078125
1.7275288206552428e+18,0.036789655685424805,-0.10209573805332184,-10.601890563964844
1.727528820661243e+18,-0.08128808438777924,0.09750045090913773,-10.666252136230469
1.727528820667243e+18,0.06033378094434738,-0.006830634083598852,-10.584724426269531
1.7275288206732431e+18,-0.01790705882012844,-0.05219169706106186,-10.718594551086426
1.7275288206762432e+18,-0.06719651818275452,0.04889681562781334,-10.606185913085938
1.7275288206822433e+18,-0.0038439584895968437,-0.10262476652860641,-10.665987968444824
1.7275288206882435e+18,-0.05146462470293045,0.030845332890748978,-10.657388687133789
1.7275288206942436e+18,-0.056743405759334564,-0.0945310890674591,-10.626580238342285
1.7275288206972436e+18,0.010771035216748714,0.012234622612595558,-10.56264591217041
1.7275288207032438e+18,-0.037787631154060364,-0.053416840732097626,-10.607605934143066
1.727528820709244e+18,0.011896182782948017,0.0049875834956765175,-10.640946388244629
1.727528820715244e+18,0.018289290368556976,-0.037305694073438644,-10.652731895446777
1.727528820718244e+18,-0.03562534227967262,0.01907993294298649,-10.584038734436035
1.7275288207242442e+18,0.029054060578346252,-0.02254125103354454,-10.73892879486084
1.7275288207302444e+18,-0.06737394630908966,-0.036498378962278366,-10.592711448669434
1.7275288207362445e+18,-0.040284913033246994,0.024528956040740013,-10.619590759277344
1.7275288207392445e+18,-0.020502157509326935,-0.017219332978129387,-10.586174964904785
1.7275288207452447e+18,0.04956834018230438,-0.011806224472820759,-10.627250671386719
1.7275288207512448e+18,0.011328116990625858,0.00032106891740113497,-10.586517333984375
1.727528820757245e+18,-0.0358290933072567,0.024960588663816452,-10.606758117675781
1.727528820760245e+18,0.0727648064494133,-0.030346743762493134,-10.552887916564941
1.727528820766245e+18,0.0008111613569781184,0.03322110325098038,-10.667071342468262
1.7275288207722452e+18,-0.04434583708643913,0.04084629938006401,-10.634262084960938
1.7275288207752453e+18,0.022418495267629623,0.017406485974788666,-10.661503791809082
1.7275288207812454e+18,0.017629971727728844,-0.05090847983956337,-10.644184112548828
1.7275288207872456e+18,0.019730104133486748,0.013063503429293633,-10.61515998840332
1.7275288207932457e+18,-0.04132837802171707,0.014404087327420712,-10.641987800598145
1.7275288207992458e+18,0.0025236965157091618,-0.007906222715973854,-10.678634643554688
1.727528820802246e+18,0.07249913364648819,0.0010687292087823153,-10.733978271484375
1.727528820808246e+18,-0.027646977454423904,0.024548329412937164,-10.56458568572998
1.7275288208142461e+18,-0.1466721147298813,0.015078103169798851,-10.531357765197754
1.7275288208202463e+18,-0.051085785031318665,-0.08177711814641953,-10.580094337463379
1.7275288208262464e+18,0.020588841289281845,0.02338734269142151,-10.668587684631348
1.7275288208292465e+18,-0.0443226583302021,-0.10487999022006989,-10.521631240844727
1.7275288208352466e+18,-0.005183455068618059,0.020474687218666077,-10.628114700317383
1.7275288208412467e+18,-0.03148268163204193,-0.03757697716355324,-10.598160743713379
1.7275288208472468e+18,0.04307558014988899,0.08416442573070526,-10.611664772033691
1.727528820850247e+18,0.023554278537631035,-0.021454328671097755,-10.537141799926758
1.727528820856247e+18,-0.01684458553791046,0.007818348705768585,-10.635231971740723
1.7275288208622472e+18,-0.045885611325502396,-0.10352452844381332,-10.626402854919434
1.7275288208682473e+18,0.0022002540063112974,-0.02300172485411167,-10.662919044494629
1.7275288208712474e+18,-0.012627635151147842,-0.02162574604153633,-10.646841049194336
1.7275288208772475e+18,-0.017618626356124878,-0.023441992700099945,-10.659634590148926
1.7275288208832476e+18,0.037697598338127136,0.03555942326784134,-10.576424598693848
1.7275288208892477e+18,-0.054728467017412186,-0.0038064331747591496,-10.58108901977539
1.727528820895248e+18,0.05397813022136688,-0.008552812971174717,-10.658689498901367
1.727528820898248e+18,0.013714578934013844,0.02373221516609192,-10.537193298339844
1.727528820904248e+18,-0.07209841161966324,0.0075282263569533825,-10.608941078186035
1.7275288209102482e+18,0.028982745483517647,0.01649775542318821,-10.65465259552002
1.7275288209132483e+18,-0.030504249036312103,0.01802980527281761,-10.60280990600586
1.7275288209192484e+18,-0.00033384826383553445,-0.06888128072023392,-10.653800964355469
1.7275288209252485e+18,-0.058736659586429596,-0.031914401799440384,-10.582982063293457
1.7275288209312486e+18,-0.05394139885902405,-0.04827040433883667,-10.557952880859375
1.7275288209372488e+18,0.08037987351417542,0.06439787894487381,-10.658724784851074
1.7275288209402488e+18,-0.03180519863963127,3.2903801184147596e-05,-10.577960014343262
1.727528820946249e+18,0.015950895845890045,0.006276467349380255,-10.664243698120117
1.727528820952249e+18,0.07041004300117493,-0.03452236205339432,-10.613758087158203
1.7275288209552492e+18,0.0054620071314275265,-0.05020236223936081,-10.580399513244629
1.7275288209612493e+18,0.020740611478686333,-0.014837855473160744,-10.566497802734375
1.7275288209672494e+18,-0.09063134342432022,0.027652865275740623,-10.640501976013184
1.7275288209702495e+18,-0.018992245197296143,0.051638126373291016,-10.630297660827637
1.7275288209762496e+18,0.1154933050274849,0.035870786756277084,-10.636332511901855
1.7275288209822497e+18,-0.08338681608438492,0.05910487473011017,-10.682035446166992
1.7275288209882499e+18,0.01951017789542675,0.07886265218257904,-10.600934028625488
1.72752882099125e+18,-0.023176303133368492,-0.0071937753818929195,-10.609963417053223
1.72752882099725e+18,-0.01860409788787365,0.008672273717820644,-10.541391372680664
1.7275288210032502e+18,-0.06390202790498734,0.027204638347029686,-10.637577056884766
1.7275288210092503e+18,0.001822697464376688,-0.05550727620720863,-10.553683280944824
1.7275288210122504e+18,-0.03985685855150223,-0.011998833157122135,-10.631208419799805
1.7275288210182505e+18,0.05628213658928871,-0.019457045942544937,-10.645828247070312
1.7275288210242506e+18,0.03175151348114014,0.015050005167722702,-10.594697952270508
1.7275288210302508e+18,0.026637796312570572,0.004244825337082148,-10.623756408691406
1.727528821036251e+18,0.018144965171813965,-0.030016453936696053,-10.598761558532715
1.727528821039251e+18,0.04370643198490143,-0.08122195303440094,-10.574602127075195
1.727528821045251e+18,-0.02618418261408806,-0.021520201116800308,-10.682814598083496
1.7275288210512512e+18,-0.02435886673629284,0.04872048646211624,-10.559020042419434
1.7275288210542513e+18,-0.018794819712638855,-0.016560841351747513,-10.657443046569824
1.7275288210602514e+18,0.03329150378704071,0.06387928873300552,-10.552786827087402
1.7275288210662515e+18,-0.003504895605146885,0.014925726689398289,-10.641278266906738
1.7275288210722516e+18,0.09167328476905823,-0.005827826447784901,-10.640047073364258
1.7275288210752517e+18,0.06079031899571419,0.008972609415650368,-10.581682205200195
1.7275288210812518e+18,-0.029116064310073853,0.0688234493136406,-10.69510269165039
1.727528821087252e+18,0.002735138637945056,-0.04049691930413246,-10.577065467834473
1.727528821093252e+18,-0.05856461450457573,-0.03601910173892975,-10.634882926940918
1.7275288210992522e+18,-0.025057325139641762,0.030010314658284187,-10.704536437988281
1.7275288211022523e+18,0.0074167679995298386,0.025947632268071175,-10.590164184570312
1.7275288211082524e+18,0.023978328332304955,0.052010051906108856,-10.585779190063477
1.7275288211142525e+18,0.07546527683734894,0.016721175983548164,-10.629734992980957
1.7275288211172526e+18,0.07110677659511566,0.05358382314443588,-10.5819730758667
1.7275288211232527e+18,0.003763976041227579,-0.031540647149086,-10.635931015014648
1.7275288211292529e+18,0.02619684301316738,0.02539639361202717,-10.574234008789062
1.727528821135253e+18,-0.09805502742528915,-0.0026657292619347572,-10.597427368164062
1.727528821138253e+18,0.039601102471351624,0.03748401626944542,-10.648213386535645
1.7275288211442532e+18,-0.03938443586230278,-0.05516722798347473,-10.598658561706543
1.7275288211502533e+18,-0.03273880481719971,-0.03748362138867378,-10.706789016723633
1.7275288211562534e+18,-0.029933001846075058,-0.027124887332320213,-10.627010345458984
1.7275288211622536e+18,-0.008720850571990013,0.03598378598690033,-10.657451629638672
1.7275288211652536e+18,-0.005802445579320192,0.016893941909074783,-10.588739395141602
1.7275288211712538e+18,-0.002392458263784647,0.06757097691297531,-10.677249908447266
1.727528821177254e+18,-0.01266231294721365,-0.020495546981692314,-10.593462944030762
1.727528821183254e+18,0.030370566993951797,-0.026930538937449455,-10.632637977600098
1.7275288211892541e+18,-0.007904671132564545,-0.06875433027744293,-10.505117416381836
1.7275288211922542e+18,0.04969705641269684,0.012873157858848572,-10.628602981567383
1.7275288211982543e+18,-0.05040948837995529,0.08973164111375809,-10.62523078918457
1.7275288212042545e+18,-0.0459003709256649,-0.10982021689414978,-10.63932991027832
1.7275288212072545e+18,0.015804920345544815,-0.07467953860759735,-10.555495262145996
1.7275288212132547e+18,-0.009303202852606773,0.03955191746354103,-10.617386817932129
1.7275288212192548e+18,0.08588438481092453,-0.05869738385081291,-10.582841873168945
1.727528821225255e+18,-0.020606277510523796,-0.058971259742975235,-10.631900787353516
1.727528821231255e+18,-0.0635952427983284,-0.018230067566037178,-10.575573921203613
1.727528821234255e+18,0.014422807842493057,0.03936149924993515,-10.550590515136719
1.7275288212402552e+18,-0.05430031567811966,0.012970940209925175,-10.549110412597656
1.7275288212462554e+18,-0.11344769597053528,-0.019452769309282303,-10.62956714630127
1.7275288212522555e+18,-0.08182329684495926,-0.04790801182389259,-10.59130573272705
1.7275288212552556e+18,-0.026914481073617935,-0.08121848106384277,-10.623512268066406
1.7275288212612557e+18,0.029064536094665527,-0.03494478017091751,-10.536162376403809
1.7275288212672558e+18,0.05347106605768204,0.06580353528261185,-10.722103118896484
1.7275288212702559e+18,-0.006756987422704697,-0.057174570858478546,-10.56727123260498
1.727528821276256e+18,0.0005785947432741523,0.0073473164811730385,-10.605545043945312
1.7275288212822561e+18,0.025793131440877914,-0.04739878326654434,-10.55179500579834
1.7275288212882563e+18,-0.03656237944960594,-0.013722244650125504,-10.581586837768555
1.7275288212942564e+18,0.05243317037820816,0.02480723336338997,-10.526836395263672
1.7275288212972564e+18,-0.007500119507312775,-0.022982865571975708,-10.635981559753418
1.7275288213032566e+18,-0.024117030203342438,-0.022836675867438316,-10.644088745117188
1.7275288213092567e+18,-0.02347181737422943,0.06544268876314163,-10.678096771240234
1.7275288213152568e+18,0.024430884048342705,-0.055902495980262756,-10.498807907104492
1.727528821321257e+18,0.04128062725067139,-0.018764043226838112,-10.529457092285156
1.727528821327257e+18,0.04038667678833008,0.016482623293995857,-10.572112083435059
1.7275288213302572e+18,0.021570030599832535,0.06065485253930092,-10.56794548034668
1.7275288213362573e+18,0.010784313082695007,0.023651545867323875,-10.604662895202637
1.7275288213422574e+18,-0.04444427415728569,0.06442485749721527,-10.592280387878418
1.7275288213452575e+18,-0.09436865150928497,0.08707073330879211,-10.597326278686523
1.7275288213512576e+18,0.07126139104366302,-0.0579381063580513,-10.57534408569336
1.7275288213572577e+18,-0.03875076770782471,0.05663489177823067,-10.584476470947266
1.7275288213632579e+18,-0.0038568624295294285,-0.024737484753131866,-10.613689422607422
1.727528821366258e+18,0.010399279184639454,0.0538422130048275,-10.549459457397461
1.727528821372258e+18,-0.018603002652525902,0.04557722061872482,-10.502320289611816
1.7275288213782582e+18,0.04289945960044861,0.04833724722266197,-10.579694747924805
1.7275288213842583e+18,-0.031004879623651505,0.038888636976480484,-10.526227951049805
1.7275288213902584e+18,-0.023613831028342247,-0.010718039236962795,-10.505204200744629
1.7275288213932585e+18,-0.06196092814207077,0.03896261006593704,-10.594287872314453
1.7275288213992586e+18,-0.0021183378994464874,-0.029036274179816246,-10.577019691467285
1.7275288214052588e+18,-0.06027290225028992,-0.07418595999479294,-10.568638801574707
1.727528821411259e+18,-0.018073268234729767,0.07396931946277618,-10.636893272399902
1.727528821414259e+18,0.036240849643945694,-0.03654254972934723,-10.608965873718262
1.727528821420259e+18,0.05497531220316887,-0.029971996322274208,-10.546886444091797
1.7275288214262592e+18,-0.020983077585697174,-0.03844016417860985,-10.57142448425293
1.7275288214322593e+18,-0.07049359381198883,0.1251906007528305,-10.561498641967773
1.7275288214352594e+18,0.010099219158291817,0.013814438134431839,-10.541473388671875
1.7275288214412595e+18,-0.03294779360294342,0.01555416826158762,-10.520670890808105
1.7275288214472596e+18,0.012066563591361046,-0.01833401247859001,-10.549497604370117
1.7275288214532598e+18,-0.01225077174603939,-0.015066979452967644,-10.618557929992676
1.7275288214562598e+18,0.03691023960709572,0.09885232895612717,-10.49038028717041
1.72752882146226e+18,-0.01872028410434723,0.07052196562290192,-10.602625846862793
1.72752882146826e+18,0.04135577380657196,-0.01831660233438015,-10.579289436340332
1.7275288214742602e+18,-0.07466507703065872,0.012562169693410397,-10.530501365661621
1.7275288214802604e+18,-0.002840521978214383,0.007302198093384504,-10.552848815917969
1.7275288214832604e+18,-0.03219259902834892,0.05553199350833893,-10.549649238586426
1.7275288214892605e+18,0.02637658827006817,-0.06358147412538528,-10.541665077209473
1.7275288214952607e+18,0.025800054892897606,-0.08038753271102905,-10.492660522460938
1.7275288215012608e+18,0.04934908077120781,-0.03631125018000603,-10.596680641174316
1.7275288215042609e+18,0.04445097967982292,-0.038962267339229584,-10.458975791931152
1.727528821510261e+18,0.03801904246211052,0.03352006897330284,-10.531558990478516
1.727528821516261e+18,-0.005323654506355524,-0.01384408213198185,-10.64805793762207
1.7275288215222612e+18,0.011569710448384285,0.01895022951066494,-10.583946228027344
1.7275288215252613e+18,0.028500715270638466,-0.035567592829465866,-10.594830513000488
1.7275288215312614e+18,0.011703325435519218,-0.013228745199739933,-10.553627967834473
1.7275288215372616e+18,-0.0031491369009017944,-0.0377936065196991,-10.528564453125
1.7275288215432617e+18,-0.05705760046839714,0.05597325786948204,-10.542027473449707
1.7275288215462618e+18,-0.04267067089676857,-0.014043769799172878,-10.51035213470459
1.727528821552262e+18,0.03454145789146423,-0.046389006078243256,-10.607965469360352
1.727528821558262e+18,-0.012931902892887592,0.01086029689759016,-10.52916431427002
1.727528821561262e+18,-0.024235732853412628,-0.07743754982948303,-10.592448234558105
1.7275288215672622e+18,0.07222988456487656,-0.009219059720635414,-10.576702117919922
1.7275288215732623e+18,0.06459973007440567,-0.024805841967463493,-10.60379409790039
1.7275288215792625e+18,0.025169391185045242,-0.018498403951525688,-10.570778846740723
1.7275288215852626e+18,-0.045811645686626434,-0.0016878892201930285,-10.637471199035645
1.7275288215882627e+18,-0.034435808658599854,0.026729539036750793,-10.591696739196777
1.7275288215942628e+18,0.009800784289836884,0.06260455399751663,-10.52112865447998
1.727528821600263e+18,-0.05848470330238342,0.019820436835289,-10.55256462097168
1.727528821606263e+18,0.04224490001797676,0.021629732102155685,-10.570585250854492
1.7275288216122632e+18,-0.0068461657501757145,0.029340028762817383,-10.545551300048828
1.7275288216152632e+18,0.044963885098695755,0.004239392001181841,-10.583597183227539
1.7275288216212634e+18,0.05128708481788635,0.01135854423046112,-10.475708961486816
1.7275288216272635e+18,-0.06125706806778908,0.0135938236489892,-10.520776748657227
1.7275288216332636e+18,-0.017981482669711113,0.0005480283871293068,-10.578804016113281
1.7275288216392637e+18,0.03745602071285248,-0.04252120107412338,-10.450949668884277
1.727528821645264e+18,-0.03792978450655937,0.09933329373598099,-10.564640045166016
1.727528821651264e+18,0.003880588337779045,0.017749261111021042,-10.457064628601074
1.727528821654264e+18,0.01363723911345005,-0.03898158296942711,-10.570996284484863
1.7275288216602642e+18,-0.027975086122751236,0.02477864921092987,-10.494842529296875
1.7275288216662643e+18,-0.004300971981137991,0.017516667023301125,-10.463723182678223
1.7275288216722644e+18,0.09467751532793045,-0.0521601177752018,-10.468793869018555
1.7275288216782646e+18,-0.0015871897339820862,-0.058913398534059525,-10.640176773071289
1.7275288216812646e+18,0.11610579490661621,-0.01895894668996334,-10.586760520935059
1.7275288216872648e+18,-0.02507133036851883,0.030947059392929077,-10.487683296203613
1.727528821693265e+18,0.06054253503680229,0.0265389122068882,-10.599420547485352
1.727528821699265e+18,0.05553369224071503,-0.011034965515136719,-10.60696792602539
1.7275288217052652e+18,0.008942699991166592,-0.023178741335868835,-10.598767280578613
1.7275288217082652e+18,0.044803932309150696,0.01860448718070984,-10.528725624084473
1.7275288217142653e+18,0.04494398832321167,0.028442347422242165,-10.5342435836792
1.7275288217202655e+18,0.01649506762623787,0.00024223401851486415,-10.517193794250488
1.7275288217262656e+18,-0.023313919082283974,-0.029323572292923927,-10.476285934448242
1.7275288217322657e+18,-0.021305717527866364,-0.026851525530219078,-10.652975082397461
1.7275288217382659e+18,-0.052406467497348785,0.08416885882616043,-10.542682647705078
1.727528821744266e+18,0.005924147553741932,0.06359556317329407,-10.515501976013184
1.727528821750266e+18,0.022393561899662018,-0.009429501369595528,-10.468351364135742
1.7275288217562662e+18,0.009357067756354809,0.0063251713290810585,-10.50644302368164
1.7275288217622664e+18,-0.034336574375629425,0.010700343176722527,-10.58144760131836
1.7275288217682665e+18,-0.01840469241142273,-0.05875582993030548,-10.449048042297363
1.7275288217742666e+18,-0.01849297061562538,-0.017643362283706665,-10.45656681060791
1.7275288217772667e+18,0.07963258028030396,0.06239570304751396,-10.534820556640625
1.7275288217832668e+18,-0.031997065991163254,0.02047104202210903,-10.517753601074219
1.727528821789267e+18,-0.02528950944542885,-0.025159014388918877,-10.521259307861328
1.727528821795267e+18,0.001213751034811139,-0.034433312714099884,-10.516307830810547
1.7275288218012672e+18,0.047671929001808167,0.008944761008024216,-10.476887702941895
1.7275288218072673e+18,-0.03435134515166283,-0.0432705320417881,-10.418490409851074
1.7275288218132675e+18,0.020725900307297707,0.026138368993997574,-10.506421089172363
1.7275288218162675e+18,0.0410006158053875,0.01843121647834778,-10.381795883178711
1.7275288218222676e+18,0.05815843865275383,-0.043064504861831665,-10.445469856262207
1.7275288218282678e+18,-0.05421094596385956,-0.06967176496982574,-10.424153327941895
1.727528821834268e+18,0.02181197889149189,-0.030255883932113647,-10.494296073913574
1.727528821840268e+18,0.04964814707636833,0.040846459567546844,-10.375208854675293
1.727528821843268e+18,-0.04189880192279816,0.008126338943839073,-10.304460525512695
1.7275288218492682e+18,0.023411497473716736,-0.01632673293352127,-10.386139869689941
1.7275288218552684e+18,-0.03493102267384529,0.017961839213967323,-10.408273696899414
1.7275288218612685e+18,0.049283187836408615,0.04187596216797829,-10.345645904541016
1.7275288218672686e+18,0.005074974149465561,0.03198758512735367,-10.35108757019043
1.7275288218732687e+18,0.03623480349779129,-0.051885299384593964,-10.274070739746094
1.7275288218762688e+18,-0.06321600079536438,0.04994521662592888,-10.23196029663086
1.727528821882269e+18,0.016553515568375587,0.028390606865286827,-10.227375030517578
1.727528821888269e+18,0.04530004411935806,0.03264881297945976,-10.228063583374023
1.7275288218942692e+18,-0.058183133602142334,-0.06778909265995026,-10.104293823242188
1.7275288218972692e+18,-0.028959333896636963,-0.022823628038167953,-10.172355651855469
1.7275288219032694e+18,-0.05665326118469238,-0.025290023535490036,-10.19212532043457
1.7275288219092695e+18,-0.028599563986063004,0.011622895486652851,-10.178376197814941
1.7275288219152696e+18,-0.026300430297851562,-0.044972896575927734,-10.191300392150879
1.7275288219212698e+18,0.02255486510694027,0.03654066100716591,-10.053746223449707
1.7275288219242698e+18,0.0026842362713068724,-0.09102031588554382,-10.170623779296875
1.72752882193027e+18,-0.041038937866687775,-0.0073379529640078545,-10.031436920166016
1.72752882193627e+18,-0.017643772065639496,-0.03763340041041374,-10.014074325561523
1.7275288219422702e+18,0.01913142390549183,-0.0071812584064900875,-10.069310188293457
1.7275288219482703e+18,-0.036466892808675766,0.08449781686067581,-10.03940486907959
1.7275288219512704e+18,0.0031407284550368786,0.04006064683198929,-9.983144760131836
1.7275288219602706e+18,0.031619083136320114,0.025925835594534874,-10.068692207336426
1.7275288219632707e+18,0.033807896077632904,-0.03887692093849182,-9.997688293457031
1.7275288219692708e+18,-0.028655890375375748,-0.03878343477845192,-9.891310691833496
1.727528821975271e+18,0.008021584711968899,0.04008142277598381,-9.883672714233398
1.727528821981271e+18,-0.0005393849569372833,0.005613578483462334,-9.954883575439453
1.7275288219872712e+18,-0.029253263026475906,0.0015736070927232504,-9.865167617797852
1.7275288219932713e+18,-0.03825439140200615,0.06667961925268173,-9.865336418151855
1.7275288219962714e+18,0.03206269443035126,0.047618359327316284,-9.878754615783691
1.7275288220022715e+18,0.04454297572374344,0.051522888243198395,-9.860422134399414
1.7275288220082716e+18,0.012443460524082184,-0.02761002816259861,-9.750019073486328
1.7275288220142717e+18,0.03890242055058479,-0.05025118216872215,-9.888354301452637
1.7275288220172718e+18,-0.02205004170536995,0.018336011096835136,-9.822670936584473
1.727528822023272e+18,0.06097011640667915,-0.04241186007857323,-9.755995750427246
1.727528822029272e+18,-0.04039773717522621,-0.027719849720597267,-9.814452171325684
1.7275288220352722e+18,0.05169980227947235,0.039176858961582184,-9.724486351013184
1.7275288220412723e+18,0.016244180500507355,0.10359776765108109,-9.738289833068848
1.7275288220442724e+18,-0.009584354236721992,-0.026356173679232597,-9.637518882751465
1.7275288220502725e+18,0.03225778043270111,-0.043724071234464645,-9.738757133483887
1.7275288220562726e+18,-0.009154070168733597,-0.016152210533618927,-9.655025482177734
1.7275288220622728e+18,0.030683796852827072,0.06424404680728912,-9.649081230163574
1.727528822068273e+18,0.008736295625567436,-0.04436671361327171,-9.67064094543457
1.727528822071273e+18,0.06393316388130188,0.04880770668387413,-9.619688034057617
1.727528822077273e+18,0.0558769628405571,-0.008864771574735641,-9.67362117767334
1.7275288220832732e+18,0.03929268941283226,0.023705288767814636,-9.714743614196777
1.7275288220892733e+18,-0.011273602023720741,0.029930448159575462,-9.694463729858398
1.7275288220952735e+18,-0.03631071373820305,0.011888808570802212,-9.7158842086792
1.7275288220982735e+18,-0.0002306735113961622,0.062432680279016495,-9.743963241577148
1.7275288221042737e+18,-0.04075295478105545,-0.028984619304537773,-9.637382507324219
1.7275288221102738e+18,-0.03241943567991257,-0.08610507100820541,-9.658583641052246
1.727528822116274e+18,-0.058751992881298065,0.10450039803981781,-9.768115997314453
1.727528822122274e+18,-0.0020923600532114506,0.002556673949584365,-9.669857025146484
1.727528822125274e+18,-0.022310491651296616,-0.003092234255746007,-9.669526100158691
1.7275288221312742e+18,0.005637999624013901,-0.05707415193319321,-9.639199256896973
1.7275288221372744e+18,-0.020353060215711594,0.01980985514819622,-9.640471458435059
1.7275288221402744e+18,0.02540760114789009,0.011648368090391159,-9.601336479187012
1.7275288221462746e+18,0.04988488927483559,0.022039152681827545,-9.741058349609375
1.7275288221522747e+18,0.06996123492717743,0.031731653958559036,-9.760808944702148
1.7275288221582748e+18,-0.013479456305503845,0.03957565128803253,-9.590442657470703
1.727528822161275e+18,0.039548635482788086,0.02426929958164692,-9.665492057800293
1.727528822167275e+18,-0.01430545188486576,0.08882425725460052,-9.670316696166992
1.7275288221732751e+18,0.0055818334221839905,-0.013177058659493923,-9.62546157836914
1.7275288221792753e+18,0.017425740137696266,0.026626834645867348,-9.621702194213867
1.7275288221822753e+18,0.0393783338367939,-0.1181757003068924,-9.69281005859375
1.7275288221882755e+18,-0.07873239368200302,-0.1000649631023407,-9.64599895477295
1.7275288221942756e+18,0.014053480699658394,0.04004960507154465,-9.611422538757324
1.7275288222002757e+18,-0.022310245782136917,0.0003200029314029962,-9.588568687438965
1.7275288222062758e+18,0.03092581033706665,-0.022852204740047455,-9.65991497039795
1.727528822212276e+18,0.014068784192204475,0.007645806763321161,-9.603352546691895
1.727528822215276e+18,-0.025117460638284683,0.033334411680698395,-9.627766609191895
1.7275288222212762e+18,-0.03526637330651283,-0.02009793557226658,-9.617109298706055
1.7275288222272763e+18,-0.030150631442666054,-0.0060041374526917934,-9.613090515136719
1.7275288222332764e+18,0.040127478539943695,-0.026717673987150192,-9.621068000793457
1.7275288222362765e+18,0.04015980660915375,-0.029565230011940002,-9.630922317504883
1.7275288222422766e+18,0.0413881316781044,0.06562524288892746,-9.657707214355469
1.7275288222482767e+18,0.07132810354232788,0.02200620248913765,-9.683122634887695
1.7275288222542769e+18,-0.055682361125946045,0.024854160845279694,-9.642966270446777
1.727528822260277e+18,0.019621647894382477,-0.043460384011268616,-9.67238712310791
1.727528822263277e+18,0.0321134477853775,-0.004627951420843601,-9.604778289794922
1.7275288222692772e+18,-0.029558397829532623,-0.0278971865773201,-9.633707046508789
1.7275288222752773e+18,0.030174612998962402,0.039545588195323944,-9.635468482971191
1.7275288222812774e+18,0.0507965013384819,-0.01543043926358223,-9.520002365112305
1.7275288222872776e+18,-0.03819701075553894,0.06685662269592285,-9.655765533447266
1.7275288222902776e+18,-0.027332615107297897,0.04056771844625473,-9.621349334716797
1.7275288222962778e+18,0.035511232912540436,-0.008713262155652046,-9.6331205368042
1.727528822302278e+18,0.006856010295450687,-0.04113702476024628,-9.667961120605469
1.727528822308278e+18,-0.0028609628789126873,0.0035507914144545794,-9.63701057434082
1.727528822311278e+18,-0.03713637590408325,-0.053655799478292465,-9.713334083557129
1.7275288223172782e+18,-0.09363831579685211,0.046791136264801025,-9.52598762512207
1.7275288223232783e+18,0.017367297783493996,-0.026864277198910713,-9.58647632598877
1.7275288223292785e+18,-0.016869010403752327,0.03182132914662361,-9.718729019165039
1.7275288223352786e+18,-0.052147276699543,-0.02402525767683983,-9.671928405761719
1.7275288223382787e+18,-0.07074976712465286,-0.05442448705434799,-9.602363586425781
1.7275288223442788e+18,-0.020602615550160408,-0.008765250444412231,-9.603299140930176
1.727528822350279e+18,-0.032873865216970444,0.08525828272104263,-9.66788387298584
1.727528822356279e+18,-0.039636433124542236,0.04520200192928314,-9.63257884979248
1.7275288223622792e+18,0.04168073087930679,0.06887426227331161,-9.561904907226562
1.7275288223682793e+18,-0.02689882554113865,-0.06044672429561615,-9.66512393951416
1.7275288223712794e+18,0.023339303210377693,0.04784204810857773,-9.640728950500488
1.7275288223772795e+18,0.007630698382854462,0.019463300704956055,-9.567769050598145
1.7275288223832796e+18,0.03287224471569061,0.0212502833455801,-9.599754333496094
1.7275288223892797e+18,-0.09331965446472168,0.07089875638484955,-9.597049713134766
1.7275288223922798e+18,-0.01651359722018242,-0.012609139084815979,-9.666570663452148
1.72752882239828e+18,-0.01599785126745701,-0.04909466952085495,-9.597332954406738
1.72752882240428e+18,0.01993715763092041,0.016925372183322906,-9.582572937011719
1.7275288224102802e+18,0.013461854308843613,0.010427725501358509,-9.604362487792969
1.7275288224132803e+18,0.056750450283288956,0.002358776517212391,-9.630406379699707
1.7275288224192804e+18,-0.04446979984641075,-0.005949151702225208,-9.686360359191895
1.7275288224252805e+18,0.05488365888595581,-0.011053647845983505,-9.693456649780273
1.7275288224312806e+18,0.042223699390888214,0.05715895816683769,-9.621268272399902
1.7275288224342807e+18,-0.023434210568666458,-0.0020222505554556847,-9.660563468933105
1.7275288224402808e+18,0.0912313163280487,-0.11503282934427261,-9.56458568572998
1.727528822446281e+18,-0.0007239708793349564,0.014761463738977909,-9.591513633728027
1.727528822452281e+18,-0.033732011914253235,-0.0214670542627573,-9.5814790725708
1.7275288224582812e+18,-0.0313224159181118,0.019167916849255562,-9.63420581817627
1.7275288224612813e+18,0.05278823524713516,0.11015862226486206,-9.61812973022461
1.7275288224672814e+18,-0.013403805904090405,0.005358237307518721,-9.58823013305664
1.7275288224732815e+18,-0.026085183024406433,-0.005664027761667967,-9.57910442352295
1.7275288224792817e+18,-0.06466297805309296,0.06095683574676514,-9.597049713134766
1.7275288224852818e+18,0.051426757127046585,0.03307380899786949,-9.616277694702148
1.7275288224882819e+18,-0.02300027757883072,0.040397223085165024,-9.664572715759277
1.727528822494282e+18,-0.10308358818292618,0.004015961661934853,-9.582382202148438
1.727528822500282e+18,0.0333372987806797,0.026520419865846634,-9.587275505065918
1.7275288225062822e+18,-0.025941554456949234,0.03159095346927643,-9.615049362182617
1.7275288225092823e+18,0.04424681141972542,-0.0744829848408699,-9.584054946899414
1.7275288225152824e+18,-0.019383717328310013,0.06996800750494003,-9.550646781921387
1.7275288225212826e+18,0.018031595274806023,-0.030834920704364777,-9.52881908416748
1.7275288225272827e+18,0.00885416753590107,-0.01337157841771841,-9.567556381225586
1.7275288225302828e+18,-0.014376696199178696,-0.06211620569229126,-9.636612892150879
1.727528822536283e+18,-0.01680930331349373,-0.059197425842285156,-9.529123306274414
1.727528822542283e+18,-0.007834595628082752,-0.04547714814543724,-9.586277961730957
1.7275288225482831e+18,-0.047059133648872375,-0.029434435069561005,-9.566849708557129
1.7275288225542833e+18,-0.09941039234399796,0.0050228554755449295,-9.497383117675781
1.7275288225572833e+18,0.028418809175491333,-0.03613468259572983,-9.559138298034668
1.7275288225632835e+18,0.07574183493852615,0.0037919601891189814,-9.659296035766602
1.7275288225692836e+18,-0.06582525372505188,0.021333424374461174,-9.60384750366211
1.7275288225752837e+18,0.027986112982034683,0.0013118190690875053,-9.57356071472168
1.7275288225812838e+18,-0.03792623057961464,-0.017139241099357605,-9.729199409484863
1.727528822587284e+18,0.004247994162142277,0.050692368298769,-9.57996940612793
1.727528822593284e+18,0.009228227660059929,-0.012599014677107334,-9.561481475830078
1.7275288225992842e+18,-0.027954455465078354,-0.03424863889813423,-9.584455490112305
1.7275288226022843e+18,0.0661950632929802,-0.028375761583447456,-9.574210166931152
1.7275288226082844e+18,-0.01063254289329052,-0.031582627445459366,-9.54272174835205
1.7275288226142845e+18,0.017340054735541344,0.012427709065377712,-9.545806884765625
1.7275288226202847e+18,-0.008108992129564285,-0.008144296705722809,-9.510839462280273
1.7275288226262848e+18,0.010053383186459541,0.06213398650288582,-9.550097465515137
1.7275288226292849e+18,0.05623208358883858,0.031952641904354095,-9.618374824523926
1.727528822635285e+18,0.06061308830976486,-0.0035007051192224026,-9.47336196899414
1.727528822641285e+18,-0.09520795941352844,-0.05307095870375633,-9.55485725402832
1.7275288226472852e+18,0.02380239963531494,-0.03636825829744339,-9.416479110717773
1.7275288226502853e+18,-0.07397181540727615,-0.03602540120482445,-9.493989944458008
1.7275288226562854e+18,0.08293198049068451,-0.01033314224332571,-9.56717300415039
1.7275288226622856e+18,-0.013243839144706726,-0.027977053076028824,-9.550142288208008
1.7275288226682857e+18,0.012520345859229565,-0.04847845435142517,-9.526313781738281
1.7275288226742858e+18,-0.014942564070224762,0.03638092428445816,-9.566672325134277
1.727528822680286e+18,0.013563932850956917,-0.0084468899294734,-9.526257514953613
1.727528822683286e+18,-0.007120363414287567,-0.028331361711025238,-9.658039093017578
1.7275288226892861e+18,-0.028962433338165283,0.0598873645067215,-9.596549034118652
1.7275288226952863e+18,0.03504054620862007,-0.005298637319356203,-9.585021018981934
1.7275288227012864e+18,0.06404899805784225,0.03247477114200592,-9.53019905090332
1.7275288227072865e+18,0.02403196319937706,-0.07226819545030594,-9.53695011138916
1.7275288227132867e+18,0.07390633225440979,-0.008005548268556595,-9.498584747314453
1.7275288227162867e+18,-0.005658343899995089,0.030986370518803596,-9.556610107421875
1.7275288227222868e+18,0.04348986968398094,0.01545003429055214,-9.517852783203125
1.727528822728287e+18,0.04234614595770836,0.027553897351026535,-9.54669189453125
1.727528822734287e+18,-0.026813413947820663,0.028723374009132385,-9.542840957641602
1.7275288227402872e+18,-0.002411122899502516,-0.031282808631658554,-9.503018379211426
1.7275288227432873e+18,0.02525019459426403,0.014981793239712715,-9.52132797241211
1.7275288227492874e+18,-0.006622158922255039,-0.06200080364942551,-9.533490180969238
1.7275288227552876e+18,0.033598415553569794,-0.060619600117206573,-9.493779182434082
1.7275288227612877e+18,0.01671752706170082,-0.03461109474301338,-9.479011535644531
1.7275288227672878e+18,-0.0648677870631218,0.014871057122945786,-9.540046691894531
1.7275288227702879e+18,-0.033775608986616135,-0.06389006227254868,-9.479677200317383
1.727528822776288e+18,-0.003407255746424198,0.011529004201292992,-9.500731468200684
1.7275288227822881e+18,-0.06712285429239273,-0.057407502084970474,-9.584959030151367
1.7275288227882883e+18,0.0035354378633201122,-0.036174144595861435,-9.510420799255371
1.7275288227942884e+18,-0.03230662643909454,0.0395314022898674,-9.428032875061035
1.7275288227972884e+18,-0.06235850602388382,0.09879890084266663,-9.535811424255371
1.7275288228032886e+18,0.01149650476872921,-0.051068928092718124,-9.525115013122559
1.7275288228092887e+18,-0.03914429992437363,0.027618691325187683,-9.496580123901367
1.7275288228152888e+18,0.03324390575289726,0.013975528068840504,-9.533954620361328
1.727528822821289e+18,0.08028174191713333,-0.013263178989291191,-9.508865356445312
1.727528822824289e+18,0.07417541742324829,0.045357778668403625,-9.624076843261719
1.7275288228302892e+18,0.0008576325490139425,0.07799253612756729,-9.478964805603027
1.7275288228362893e+18,0.018898488953709602,-0.0023754455614835024,-9.45595932006836
1.7275288228422894e+18,0.09171731770038605,0.05215246602892876,-9.48198413848877
1.7275288228482895e+18,-0.02715669572353363,0.017884910106658936,-9.52583122253418
1.7275288228542897e+18,0.016111299395561218,0.021830672398209572,-9.489063262939453
1.7275288228602898e+18,-0.03267122805118561,-0.022925980389118195,-9.51324462890625
1.7275288228632899e+18,0.026927629485726357,0.023479793220758438,-9.49287223815918
1.72752882286929e+18,-0.04705340415239334,0.023735683411359787,-9.506591796875
1.72752882287529e+18,-0.020362701267004013,2.8854359698016196e-05,-9.522232055664062
1.7275288228812902e+18,0.00922356080263853,0.059099506586790085,-9.491138458251953
1.7275288228842903e+18,-0.07072334736585617,-0.09417665749788284,-9.462126731872559
1.7275288228902904e+18,0.06398757547140121,0.026115255430340767,-9.516664505004883
1.7275288228962906e+18,-0.027156604453921318,-0.037262216210365295,-9.543242454528809
1.7275288228992906e+18,0.012151680886745453,-0.04191428795456886,-9.472875595092773
1.7275288229052908e+18,0.010728609748184681,-0.04742109403014183,-9.594878196716309
1.727528822911291e+18,0.04701659828424454,-0.0050030057318508625,-9.486774444580078
1.727528822917291e+18,-0.0015819823602214456,-0.016825513914227486,-9.45460033416748
1.7275288229232911e+18,-0.017596203833818436,0.01825426146388054,-9.506378173828125
1.7275288229292913e+18,-0.03963692858815193,-0.000353217707015574,-9.466374397277832
1.7275288229352914e+18,-0.09378688037395477,-0.03434983268380165,-9.54152774810791
1.7275288229382915e+18,0.04425882548093796,0.04434531182050705,-9.441877365112305
1.7275288229442916e+18,0.015330659225583076,-0.002168339677155018,-9.409537315368652
1.7275288229502917e+18,0.06628474593162537,0.112685427069664,-9.403314590454102
1.7275288229562918e+18,0.04282559081912041,0.02838461473584175,-9.463944435119629
1.727528822962292e+18,0.01464597787708044,0.011731927283108234,-9.48573112487793
1.727528822965292e+18,0.052925821393728256,-0.07752742618322372,-9.474048614501953
1.7275288229712922e+18,0.026696395128965378,-0.03726331517100334,-9.44609546661377
1.7275288229772923e+18,-0.0524260476231575,-0.0185841154307127,-9.47719669342041
1.7275288229832924e+18,-0.04230936989188194,-0.02912719175219536,-9.555782318115234
1.7275288229862925e+18,-0.02405002899467945,-0.00021187069069128484,-9.485871315002441
1.7275288229922926e+18,-0.015548130497336388,0.01386961992830038,-9.462347984313965
1.7275288229982927e+18,-0.0034748390316963196,0.02964329719543457,-9.491046905517578
1.7275288230042929e+18,0.027677927166223526,-0.10146979987621307,-9.437957763671875
1.727528823010293e+18,0.010791956447064877,-0.06134110316634178,-9.427205085754395
1.727528823013293e+18,-0.051055602729320526,-0.04984448105096817,-9.446742057800293
1.7275288230192932e+18,0.058778539299964905,0.04070840775966644,-9.432149887084961
1.7275288230252933e+18,0.01910850778222084,0.05266895145177841,-9.57419204711914
1.7275288230312934e+18,0.043314650654792786,-0.036857396364212036,-9.472153663635254
1.7275288230342935e+18,0.009157885797321796,-0.013674062676727772,-9.530654907226562
1.7275288230402936e+18,0.014492776244878769,-0.05840012803673744,-9.491819381713867
1.7275288230462938e+18,0.0346219427883625,-0.024999914690852165,-9.449104309082031
1.727528823052294e+18,-0.05139533802866936,-0.04374384880065918,-9.343863487243652
1.727528823055294e+18,0.015031588263809681,-0.052710045129060745,-9.440415382385254
1.727528823061294e+18,0.026193106546998024,-0.09439057856798172,-9.429113388061523
1.7275288230672942e+18,0.053885042667388916,0.004816924687474966,-9.395927429199219
1.7275288230732943e+18,-0.09337683767080307,0.06366593390703201,-9.479754447937012
1.7275288230762944e+18,-0.01015545055270195,-0.03627963364124298,-9.375970840454102
1.7275288230822945e+18,0.02595696598291397,0.039691951125860214,-9.483758926391602
1.7275288230882947e+18,0.011230764910578728,-0.013250964693725109,-9.449006080627441
1.7275288230942948e+18,0.026120837777853012,0.006450220011174679,-9.418594360351562
1.7275288230972948e+18,-0.01726681739091873,0.00461173988878727,-9.405501365661621
1.727528823103295e+18,-0.012358464300632477,-0.016865432262420654,-9.467447280883789
1.727528823109295e+18,-0.0014679529704153538,-0.08845821022987366,-9.493973731994629
1.7275288231152952e+18,0.025218896567821503,-0.0968240424990654,-9.411662101745605
1.7275288231212954e+18,-0.03486299142241478,-0.01609085686504841,-9.485478401184082
1.7275288231242954e+18,0.026043474674224854,0.044974640011787415,-9.403825759887695
1.7275288231302956e+18,-0.05344947800040245,-0.0300739798694849,-9.41018009185791
1.7275288231362957e+18,0.003426107345148921,0.012475453317165375,-9.353188514709473
1.7275288231422958e+18,-0.029465435072779655,0.016362039372324944,-9.475190162658691
1.727528823148296e+18,-0.013648605905473232,0.010152931325137615,-9.481659889221191
1.727528823151296e+18,-0.01737295277416706,0.04703093692660332,-9.483198165893555
1.727528823157296e+18,0.0247388556599617,0.06125501170754433,-9.515671730041504
1.7275288231632963e+18,0.030681615695357323,-0.05623888969421387,-9.386676788330078
1.7275288231692964e+18,-0.012911682017147541,-0.004015590064227581,-9.467411994934082
1.7275288231752965e+18,-0.0036558012943714857,0.0386665053665638,-9.389311790466309
1.7275288231782966e+18,-0.02505701221525669,0.034978870302438736,-9.329222679138184
1.7275288231842967e+18,0.07407364994287491,-0.056339215487241745,-9.447726249694824
1.7275288231902968e+18,-0.038029927760362625,0.024037538096308708,-9.478436470031738
1.727528823196297e+18,0.07972157746553421,0.01659478433430195,-9.411749839782715
1.727528823199297e+18,-0.0010324406903237104,-0.0670589953660965,-9.438539505004883
1.7275288232052972e+18,-0.008443299680948257,-0.08687002956867218,-9.426124572753906
1.7275288232112973e+18,0.00910298340022564,-0.019152095541357994,-9.368310928344727
1.7275288232142973e+18,-0.004296291619539261,-0.039025045931339264,-9.464515686035156
1.7275288232202975e+18,0.01824401691555977,-0.01544920913875103,-9.53982162475586
1.7275288232262976e+18,0.024206364527344704,0.016196848824620247,-9.399188041687012
1.7275288232322977e+18,-0.07581973075866699,-0.04511767998337746,-9.389578819274902
1.7275288232382979e+18,0.033828992396593094,-0.01151113398373127,-9.439933776855469
1.727528823241298e+18,-0.011837037280201912,-0.07426758110523224,-9.442605972290039
1.727528823247298e+18,-0.03814397379755974,-0.025550000369548798,-9.487854957580566
1.7275288232532982e+18,-0.1047714576125145,-0.06182858347892761,-9.407134056091309
1.7275288232592983e+18,-0.0002643935731612146,-0.03037390112876892,-9.402055740356445
1.7275288232652984e+18,-0.05928588658571243,0.044043365865945816,-9.431778907775879
1.7275288232712986e+18,-0.032226596027612686,0.007282742764800787,-9.3329496383667
1.7275288232742986e+18,-0.037335705012083054,-0.033607400953769684,-9.392292022705078
1.7275288232802988e+18,0.03352082520723343,-0.005996466614305973,-9.374937057495117
1.727528823286299e+18,0.01508984062820673,0.021743465214967728,-9.35232925415039
1.727528823292299e+18,-0.03592578321695328,-0.04254022613167763,-9.471616744995117
1.727528823295299e+18,-0.005134993232786655,0.08237389475107193,-9.478394508361816
1.7275288233012992e+18,-0.06107709929347038,0.02043304778635502,-9.446588516235352
1.7275288233072993e+18,0.0031144050881266594,-0.08178265392780304,-9.439727783203125
1.7275288233132995e+18,0.029321998357772827,0.0020674276165664196,-9.5061616897583
1.7275288233162995e+18,-0.08530424535274506,0.0006336131482385099,-9.43677043914795
1.7275288233222996e+18,0.067525714635849,0.05351002886891365,-9.399674415588379
1.7275288233282998e+18,0.02037348970770836,-0.05903156101703644,-9.37893295288086
1.7275288233343e+18,0.04339427500963211,-0.0163634791970253,-9.386371612548828
1.7275288233373e+18,0.02843134105205536,0.0439927913248539,-9.339325904846191
1.7275288233433e+18,0.023400964215397835,-0.025739677250385284,-9.500778198242188
1.7275288233493002e+18,0.011087372899055481,0.023881157860159874,-9.421693801879883
1.7275288233553004e+18,-0.0282887052744627,0.040788955986499786,-9.421552658081055
1.7275288233583004e+18,0.08389861136674881,0.062479689717292786,-9.472570419311523
1.7275288233643005e+18,0.0416664257645607,-0.10580505430698395,-9.482544898986816
1.7275288233703007e+18,0.007419799454510212,-0.05451824888586998,-9.43190860748291
1.7275288233763008e+18,-0.00297564547508955,-0.011339166201651096,-9.459076881408691
1.727528823382301e+18,0.0294011440128088,0.0007248515030369163,-9.42984390258789
1.727528823388301e+18,-0.0510748028755188,0.04338092356920242,-9.39712905883789
1.727528823391301e+18,-0.028835749253630638,0.016011646017432213,-9.413503646850586
1.7275288233973012e+18,0.012116183526813984,-0.07037835568189621,-9.436962127685547
1.7275288234033014e+18,0.009486762806773186,0.03173043951392174,-9.45942497253418
1.7275288234093015e+18,0.0020752681884914637,-0.043310198932886124,-9.413900375366211
1.7275288234153016e+18,0.009446733631193638,0.11504215747117996,-9.465999603271484
1.7275288234213018e+18,-0.04768439009785652,0.033171407878398895,-9.441661834716797
1.727528823427302e+18,-0.0465112067759037,0.032832928001880646,-9.358924865722656
1.727528823430302e+18,-0.04415317624807358,0.026679987087845802,-9.435551643371582
1.727528823436302e+18,-0.022270940244197845,0.04170507192611694,-9.413691520690918
1.7275288234423022e+18,-0.003232087241485715,0.019936688244342804,-9.564116477966309
1.7275288234483023e+18,-0.09947245568037033,0.01909792236983776,-9.406618118286133
1.7275288234543025e+18,-0.014603051356971264,-0.0008505520527251065,-9.422751426696777
1.7275288234603026e+18,-0.040730368345975876,0.02656657248735428,-9.43725299835205
1.7275288234633027e+18,0.0023560156114399433,-0.04583033174276352,-9.417194366455078
1.7275288234693028e+18,-0.005945867858827114,-0.01920210011303425,-9.400141716003418
1.727528823475303e+18,-0.006121105048805475,0.031445134431123734,-9.320905685424805
1.727528823481303e+18,0.052273087203502655,0.04857341945171356,-9.383292198181152
1.7275288234873032e+18,-0.06152807176113129,0.05274541676044464,-9.387887001037598
1.7275288234933033e+18,-0.021935688331723213,0.09969371557235718,-9.226448059082031
1.7275288234993034e+18,0.06454937160015106,0.03346022963523865,-9.273550987243652
1.7275288235053036e+18,0.07587040215730667,0.031077051535248756,-9.197585105895996
1.7275288235113037e+18,-0.017247730866074562,-0.044911183416843414,-9.28692626953125
1.7275288235173038e+18,0.013845881447196007,0.03143787384033203,-9.157047271728516
1.727528823523304e+18,0.01416853629052639,-0.0384213887155056,-9.199516296386719
1.727528823529304e+18,0.0015284790424630046,-0.009036559611558914,-9.224803924560547
1.7275288235353042e+18,-0.04678594321012497,-0.014112479984760284,-9.144351959228516
1.7275288235413043e+18,0.04558076336979866,0.029180211946368217,-9.126679420471191
1.7275288235443044e+18,-0.0016930566634982824,0.01672738790512085,-9.096046447753906
1.7275288235503045e+18,-0.09813667833805084,-0.0012346426956355572,-9.000781059265137
1.7275288235563046e+18,-0.026887597516179085,-0.013859335333108902,-9.110206604003906
1.7275288235623048e+18,-0.057731591165065765,0.03703286871314049,-9.095272064208984
1.727528823568305e+18,0.002791275968775153,-0.02618533745408058,-9.011112213134766
1.727528823574305e+18,-0.01907137967646122,-0.010432595387101173,-9.025283813476562
1.7275288235803052e+18,-0.09506525844335556,0.023308824747800827,-9.000176429748535
1.7275288235863053e+18,0.042614951729774475,0.021441016346216202,-9.018707275390625
1.7275288235923054e+18,0.05230938643217087,-0.0661383792757988,-8.91550350189209
1.7275288235953055e+18,0.020608659833669662,0.06273648887872696,-8.978938102722168
1.7275288236013056e+18,0.04978158324956894,-0.03185800090432167,-8.999225616455078
1.7275288236073057e+18,-0.008607685565948486,0.05571965500712395,-8.988417625427246
1.7275288236133059e+18,-0.009608359076082706,-0.005873796064406633,-8.920534133911133
1.727528823619306e+18,-0.06680624932050705,0.13897380232810974,-8.93592643737793
1.727528823625306e+18,-0.019679689779877663,0.06988514214754105,-8.8291597366333
1.7275288236313062e+18,-0.012385016307234764,-0.044111769646406174,-8.913352966308594
1.7275288236373064e+18,-0.056409772485494614,0.010313381440937519,-8.788812637329102
1.7275288236403064e+18,0.05600706487894058,-0.008334612473845482,-8.788302421569824
1.7275288236463066e+18,0.026012852787971497,-0.0848534032702446,-8.714916229248047
1.7275288236523067e+18,-0.01471124030649662,0.034261368215084076,-8.787132263183594
1.7275288236583068e+18,0.007090877741575241,0.07609465718269348,-8.747406959533691
1.727528823664307e+18,0.057074159383773804,0.011035066097974777,-8.697997093200684
1.727528823670307e+18,0.04891844466328621,0.06617061048746109,-8.652629852294922
1.7275288236763072e+18,-0.027455035597085953,0.05141126364469528,-8.759971618652344
1.7275288236823073e+18,-0.011452853679656982,0.05240149796009064,-8.729682922363281
1.7275288236883075e+18,0.11981894075870514,-0.10245101898908615,-8.705206871032715
1.7275288236913075e+18,-0.006014037877321243,-0.005742484703660011,-8.58376693725586
1.7275288236973076e+18,-0.028507206588983536,0.06204135715961456,-8.614021301269531
1.7275288237033078e+18,0.08287069201469421,0.08951069414615631,-8.598553657531738
1.727528823709308e+18,-0.002365582622587681,-0.02361721731722355,-8.642256736755371
1.727528823715308e+18,-0.01272000465542078,0.02631901204586029,-8.692353248596191
1.7275288237213082e+18,0.0031829108484089375,-0.03595626726746559,-8.64625358581543
1.7275288237273083e+18,0.007489391602575779,-0.006587438751012087,-8.585691452026367
1.7275288237333084e+18,0.00712837278842926,0.014253887347877026,-8.63433837890625
1.7275288237393085e+18,-0.052861008793115616,0.0011397098423913121,-8.645729064941406
1.7275288237423086e+18,0.039451248943805695,0.016825011000037193,-8.674696922302246
1.7275288237483087e+18,-0.007285226136445999,0.04613452032208443,-8.629237174987793
1.7275288237543089e+18,-0.07950548082590103,0.06620306521654129,-8.617534637451172
1.727528823760309e+18,0.019718213006854057,-0.009354867972433567,-8.666556358337402
1.727528823766309e+18,-0.007744664326310158,0.010433141142129898,-8.707038879394531
1.7275288237693092e+18,-0.05742829293012619,-0.059011735022068024,-8.73416519165039
1.7275288237753093e+18,-0.01910967379808426,0.0057494137436151505,-8.665738105773926
1.7275288237813094e+18,-0.0005885260179638863,-0.05320950224995613,-8.640381813049316
1.7275288237873096e+18,-0.024830369278788567,-0.04755248874425888,-8.657388687133789
1.7275288237903096e+18,-0.04483449086546898,-0.03349228575825691,-8.698543548583984
1.7275288237963098e+18,-0.05009371042251587,0.006123558152467012,-8.696283340454102
1.72752882380231e+18,0.01879694312810898,0.07330192625522614,-8.751062393188477
1.72752882380831e+18,-0.01818241737782955,0.020387642085552216,-8.723161697387695
1.72752882381131e+18,0.06356528401374817,0.019813889637589455,-8.826240539550781
1.7275288238173102e+18,-0.09811171889305115,-0.004107327666133642,-8.69491195678711
1.7275288238233103e+18,-0.029608992859721184,-0.04987213388085365,-8.763557434082031
1.7275288238293105e+18,-0.027839528396725655,-0.028860267251729965,-8.703474044799805
1.7275288238353106e+18,0.04524439200758934,-0.0036432789638638496,-8.800813674926758
1.7275288238413107e+18,0.001272481051273644,0.005318419076502323,-8.832172393798828
1.7275288238473108e+18,-0.06693338602781296,0.009163600392639637,-8.723042488098145
1.727528823850311e+18,-0.01230553351342678,0.04631556570529938,-8.898815155029297
1.727528823856311e+18,-0.027526475489139557,-0.029422691091895103,-8.903768539428711
1.7275288238623112e+18,-0.03939289227128029,0.055249929428100586,-8.884713172912598
1.7275288238683113e+18,0.07764541357755661,-0.006390062160789967,-8.938626289367676
1.7275288238713114e+18,0.0327070876955986,0.047641266137361526,-8.857563972473145
1.7275288238773115e+18,-0.028043435886502266,0.022935673594474792,-8.937439918518066
1.7275288238833116e+18,0.05800708755850792,0.029035411775112152,-14.039432525634766
1.7275288238893117e+18,-0.026925833895802498,-0.03571842983365059,-15.698823928833008
1.727528823895312e+18,0.024449113756418228,0.01758505403995514,-16.178272247314453
1.727528823898312e+18,-0.09020082652568817,0.014683217741549015,-16.316715240478516
1.727528823904312e+18,0.019743813201785088,0.01625017076730728,-16.393428802490234
1.7275288239103122e+18,0.1117730513215065,0.07182157039642334,-16.483314514160156
1.7275288239163123e+18,-0.020883716642856598,-0.03861543908715248,-16.424470901489258
1.7275288239223124e+18,-0.03468915447592735,0.04298330470919609,-16.404062271118164
1.7275288239253125e+18,0.02424730360507965,0.023201145231723785,-16.365882873535156
1.7275288239313126e+18,0.03978878632187843,-0.02500063367187977,-16.225017547607422
1.7275288239373128e+18,0.04992741346359253,0.052428290247917175,-16.14026641845703
1.727528823943313e+18,0.04468003660440445,0.11540940403938293,-16.081899642944336
1.727528823946313e+18,0.03680218756198883,-0.006927833892405033,-16.103391647338867
1.727528823952313e+18,-0.022101812064647675,0.02844231389462948,-16.008506774902344
1.7275288239583132e+18,0.023564627394080162,-0.007323842961341143,-15.881058692932129
1.7275288239643133e+18,0.03767235949635506,0.015657979995012283,-15.745650291442871
1.7275288239703135e+18,0.004587315488606691,0.054710227996110916,-15.709443092346191
1.7275288239733135e+18,0.08561532944440842,0.007966865785419941,-15.645264625549316
1.7275288239793137e+18,0.04720103740692139,-0.026039833202958107,-15.491598129272461
1.7275288239853138e+18,-0.015876034274697304,-0.008795661851763725,-15.42791748046875
1.7275288239883139e+18,0.03346488997340202,0.0463336743414402,-15.25084114074707
1.727528823994314e+18,0.03766340762376785,-0.041459690779447556,-15.264415740966797
1.727528824000314e+18,-0.022983746603131294,0.035534754395484924,-15.263473510742188
1.7275288240063142e+18,0.06344626843929291,0.007472355384379625,-15.104829788208008
1.7275288240093143e+18,0.04100683704018593,0.004564966540783644,-15.117839813232422
1.7275288240153144e+18,0.0621708482503891,-0.022401859983801842,-14.964972496032715
1.7275288240213146e+18,-0.008106546476483345,-0.003213145537301898,-14.910316467285156
1.7275288240273147e+18,-0.06292460113763809,-0.008479407988488674,-14.84910774230957
1.7275288240333148e+18,-0.03864142671227455,-0.02111915498971939,-14.753435134887695
1.727528824036315e+18,-0.0164274163544178,-0.0312967449426651,-14.586092948913574
1.727528824042315e+18,0.01903347671031952,-0.0021643463987857103,-14.67912483215332
1.7275288240483151e+18,0.06231210008263588,0.04391296207904816,-14.534614562988281
1.7275288240543153e+18,-0.01537894643843174,0.009508599527180195,-14.516571998596191
1.7275288240603154e+18,-0.03439617529511452,-0.07073073834180832,-14.33834457397461
1.7275288240633155e+18,-0.03141668066382408,0.0268540158867836,-14.449970245361328
1.7275288240693156e+18,0.05467279627919197,-0.0654180720448494,-14.314087867736816
1.7275288240753157e+18,0.036693673580884933,-0.029738856479525566,-14.226560592651367
1.7275288240813158e+18,0.03477092832326889,-0.03320113942027092,-14.153873443603516
1.727528824087316e+18,-0.04327841103076935,-0.0037230956368148327,-14.030592918395996
1.727528824090316e+18,0.008166087791323662,-0.03673219308257103,-14.08985710144043
1.7275288240963162e+18,0.02502083219587803,0.04290330037474632,-13.99184513092041
1.7275288241023163e+18,0.07524687796831131,0.02132880687713623,-13.942895889282227
1.7275288241083164e+18,-0.06153586506843567,-0.07657322287559509,-13.817734718322754
1.7275288241113165e+18,-0.03164010867476463,0.007207207381725311,-13.796212196350098
1.7275288241173166e+18,0.06273654103279114,0.07606641948223114,-13.68952465057373
1.7275288241233167e+18,-0.026166412979364395,0.024576665833592415,-13.619443893432617
1.7275288241263168e+18,0.01263622846454382,-0.04519163817167282,-13.647313117980957
1.727528824132317e+18,0.04566962271928787,0.00496385945007205,-13.605271339416504
1.727528824138317e+18,0.007681751623749733,-0.007331721484661102,-13.54362964630127
1.7275288241443172e+18,0.05609096214175224,0.016591234132647514,-13.469048500061035
1.7275288241503173e+18,-0.006083720363676548,0.05567894130945206,-13.422069549560547
1.7275288241563174e+18,-0.06255750358104706,-0.021581770852208138,-13.396759986877441
1.7275288241593175e+18,0.02443692833185196,0.01860252022743225,-13.21265697479248
1.7275288241653176e+18,-0.02735789865255356,0.020726384595036507,-13.345900535583496
1.7275288241713178e+18,-0.037201184779405594,-0.05374167114496231,-13.171429634094238
1.727528824177318e+18,0.022188810631632805,0.04096697270870209,-13.107863426208496
1.727528824180318e+18,0.04976629093289375,-0.029444407671689987,-13.071322441101074
1.727528824186318e+18,0.0005263191997073591,0.04217664897441864,-13.068770408630371
1.7275288241923182e+18,-0.01527951005846262,0.02032337337732315,-13.067126274108887
1.7275288241983183e+18,-0.0741187036037445,-0.005224363412708044,-12.950479507446289
1.7275288242043185e+18,-0.0402466244995594,0.027850836515426636,-12.88868236541748
1.7275288242073185e+18,0.04879048094153404,-0.04191366583108902,-12.881484985351562
1.7275288242133187e+18,-0.01629209890961647,-0.03255060315132141,-12.844520568847656
1.7275288242193188e+18,0.06326408684253693,-0.03295198455452919,-12.841836929321289
1.727528824225319e+18,0.009378978051245213,0.015594919212162495,-12.787742614746094
1.727528824231319e+18,-0.04363250732421875,0.10658439993858337,-12.684765815734863
1.7275288242373192e+18,-0.05388123542070389,0.021177416667342186,-12.725561141967773
1.7275288242403192e+18,0.005364765878766775,-0.0453721359372139,-12.625761985778809
1.7275288242463194e+18,0.0783960148692131,-0.044202446937561035,-12.652509689331055
1.7275288242523195e+18,0.04266330972313881,-0.07766634225845337,-12.571558952331543
1.7275288242583196e+18,0.026497580111026764,-0.018899139016866684,-12.605012893676758
1.7275288242643197e+18,0.0450768917798996,-0.024752333760261536,-12.496450424194336
1.7275288242703199e+18,0.019128281623125076,0.041976362466812134,-12.444564819335938
1.72752882427332e+18,0.016871269792318344,-0.030233144760131836,-12.420372009277344
1.72752882427932e+18,0.008870583958923817,-0.01253733690828085,-12.414648056030273
1.7275288242853202e+18,0.06710632890462875,-0.016639843583106995,-12.355340957641602
1.7275288242913203e+18,-0.0429258793592453,0.006842768285423517,-12.28963851928711
1.7275288242973204e+18,-0.019659945741295815,0.064337819814682,-12.216325759887695
1.7275288243003205e+18,-0.004663907457143068,0.07061824947595596,-12.18924331665039
1.7275288243063206e+18,-0.025902917608618736,-0.04739033803343773,-12.199355125427246
1.7275288243123208e+18,0.0066674817353487015,-0.018254410475492477,-12.205170631408691
1.7275288243153208e+18,0.08892729878425598,0.0489300973713398,-12.157529830932617
1.727528824321321e+18,-0.08089242875576019,-0.01895011216402054,-12.05933666229248
1.727528824327321e+18,0.00037076027365401387,0.004520757123827934,-12.141953468322754
1.7275288243333212e+18,0.0022445344366133213,0.013393575325608253,-12.094024658203125
1.7275288243393213e+18,-0.025172797963023186,0.03278284892439842,-12.070672988891602
1.7275288243453215e+18,-0.04004935547709465,-0.0418221689760685,-11.988920211791992
1.7275288243483215e+18,-0.055514004081487656,0.023419078439474106,-11.97103500366211
1.7275288243543217e+18,-0.002757653594017029,-0.0021839605178683996,-11.975690841674805
1.7275288243603218e+18,0.05377437174320221,-0.019584927707910538,-12.022123336791992
1.727528824366322e+18,-0.05301431193947792,0.00492628151550889,-11.863083839416504
1.727528824372322e+18,0.022206660360097885,-0.012962252832949162,-11.837933540344238
1.727528824375322e+18,0.024046050384640694,0.04908757284283638,-11.750321388244629
1.7275288243813222e+18,0.07296391576528549,0.02143239416182041,-11.791827201843262
1.7275288243873224e+18,0.043735697865486145,0.00952340941876173,-11.715405464172363
1.7275288243933225e+18,0.02089613489806652,0.004055551253259182,-11.764567375183105
1.7275288243963226e+18,-0.04801558703184128,0.01100824773311615,-11.748371124267578
1.7275288244023227e+18,0.05647222697734833,-0.009988037869334221,-11.761289596557617
1.7275288244083228e+18,0.0023988254833966494,0.030451340600848198,-11.610772132873535
1.727528824414323e+18,-0.006482983939349651,0.011279406026005745,-11.699525833129883
1.727528824420323e+18,-0.05351625382900238,-0.06637696176767349,-11.683688163757324
1.7275288244233231e+18,-0.009032504633069038,0.020663077011704445,-11.661948204040527
1.7275288244293233e+18,0.03729824721813202,0.05261966586112976,-11.581947326660156
1.7275288244353234e+18,0.0075061325915157795,0.008016031235456467,-11.54990005493164
1.7275288244413235e+18,0.05128774419426918,0.0526987724006176,-11.54606819152832
1.7275288244473236e+18,0.019773012027144432,0.05292730778455734,-11.479890823364258
1.7275288244503237e+18,-0.004425984341651201,-0.06889694184064865,-11.534055709838867
1.7275288244563238e+18,0.00847617071121931,0.09509767591953278,-11.445239067077637
1.727528824462324e+18,0.04928763955831528,-0.00034784170566126704,-11.436884880065918
1.727528824468324e+18,-0.01156377699226141,0.01964232139289379,-11.438982009887695
1.7275288244743242e+18,-0.018104489892721176,0.009022205136716366,-11.342060089111328
1.7275288244803244e+18,-0.08075912296772003,-0.018247053027153015,-11.450593948364258
1.7275288244833244e+18,0.06052457541227341,0.03756817802786827,-11.360520362854004
1.7275288244893245e+18,-0.008627332746982574,-0.12775219976902008,-11.416752815246582
1.7275288244983247e+18,0.010966211557388306,-0.024314317852258682,-11.328047752380371
1.727528824507325e+18,0.023089878261089325,-0.0451711043715477,-11.23940372467041
1.727528824516325e+18,-0.033269234001636505,0.02629566751420498,-11.269301414489746
1.7275288245253253e+18,0.015624100342392921,-0.018361715599894524,-11.171757698059082
1.7275288245343255e+18,-0.06308171153068542,-0.04396314546465874,-11.181463241577148
1.7275288245433257e+18,-0.08665388077497482,0.017194140702486038,-11.169977188110352
1.727528824552326e+18,-0.0031255672220140696,0.02983805164694786,-11.11349105834961
1.727528824561326e+18,-0.028033681213855743,0.006910218857228756,-11.133036613464355
1.7275288245703263e+18,-0.007493507117033005,0.0411696694791317,-11.142780303955078
1.7275288245793265e+18,0.06392466276884079,0.03998066857457161,-11.054132461547852
1.7275288245883267e+18,0.004917614161968231,-0.011797059327363968,-10.995959281921387
1.727528824600327e+18,0.004804139491170645,0.024832522496581078,-11.037769317626953
1.727528824609327e+18,0.07717904448509216,0.07308385521173477,-10.984761238098145
1.7275288246183273e+18,0.032404202967882156,-0.03676729276776314,-10.891800880432129
1.7275288246273275e+18,-0.01269671693444252,-0.03371208533644676,-10.86058235168457
1.7275288246333276e+18,-0.05233655869960785,0.02558090165257454,-10.85145092010498
1.7275288246423278e+18,0.026620246469974518,-0.002617695601657033,-10.872163772583008
1.727528824651328e+18,-0.008902126923203468,-0.0736716240644455,-10.804848670959473
1.7275288246603282e+18,0.05646272376179695,-0.025150541216135025,-10.790653228759766
1.7275288246693284e+18,-0.05320287495851517,0.08001474291086197,-10.732617378234863
1.7275288246783286e+18,0.04212437570095062,0.040577758103609085,-10.801925659179688
1.7275288246873288e+18,-0.10843615233898163,0.07037647068500519,-10.70523738861084
1.727528824696329e+18,0.0044823079369962215,0.033598192036151886,-10.8224458694458
1.7275288247053292e+18,0.010100718587636948,-0.04516855627298355,-10.77253532409668
1.7275288247143293e+18,0.02763972617685795,0.03499003127217293,-10.63484001159668
1.7275288247233295e+18,-0.0036213293205946684,0.01770135760307312,-10.653308868408203
1.7275288247323297e+18,0.02462746761739254,-0.018077708780765533,-10.691717147827148
1.72752882474133e+18,0.04630491882562637,-0.009032082743942738,-10.631725311279297
1.72752882475033e+18,-0.017162270843982697,-0.05720475688576698,-10.648910522460938
1.7275288247593303e+18,-0.06056241691112518,0.021974649280309677,-10.540292739868164
1.7275288247683305e+18,-0.02523084171116352,0.02398502081632614,-10.612730979919434
1.7275288247773307e+18,-0.004426521714776754,0.021054837852716446,-10.597687721252441
1.727528824786331e+18,-0.041786886751651764,-0.00011120698763988912,-10.529031753540039
1.727528824795331e+18,-0.06765930354595184,0.04100239649415016,-10.472125053405762
1.7275288248043313e+18,0.0022923843935132027,-0.07617858797311783,-10.438201904296875
1.7275288248163315e+18,-0.08668934553861618,0.021049313247203827,-10.528996467590332
1.7275288248253317e+18,0.07761504501104355,0.02293936163187027,-10.4779691696167
1.727528824834332e+18,0.0639951303601265,-0.029581207782030106,-10.497654914855957
1.727528824843332e+18,0.004243029747158289,-0.017336752265691757,-10.48107624053955
1.7275288248493322e+18,0.10994500666856766,0.00013386085629463196,-10.411908149719238
1.7275288248613325e+18,0.06621691584587097,-0.012982506304979324,-10.420018196105957
1.7275288248703327e+18,-0.020809488371014595,0.022486643865704536,-10.350648880004883
1.7275288248763328e+18,-0.009663693606853485,0.019774343818426132,-10.378256797790527
1.727528824882333e+18,-0.057707447558641434,0.07955817878246307,-10.410196304321289
1.727528824891333e+18,0.04022935405373573,-0.009906134568154812,-10.484638214111328
1.7275288248973332e+18,0.03001859039068222,0.01433771476149559,-10.411275863647461
1.7275288249093335e+18,0.006904485169798136,0.004509804770350456,-10.353248596191406
1.7275288249153336e+18,0.05193127691745758,-0.008083322085440159,-10.1713285446167
1.7275288249243338e+18,0.008386097848415375,-0.0232967808842659,-10.362445831298828
1.727528824933334e+18,-0.06260399520397186,-0.038851551711559296,-10.23445987701416
1.7275288249423342e+18,0.029213115572929382,0.04311026632785797,-10.274972915649414
1.7275288249513344e+18,0.02861691825091839,-0.000826055824290961,-10.30882453918457
1.7275288249633347e+18,0.008812002837657928,0.043241772800683975,-10.272195816040039
1.7275288249693348e+18,0.05597064271569252,-0.014489603228867054,-10.24736499786377
1.727528824981335e+18,-0.012884452939033508,-0.003865147940814495,-10.2177095413208
1.7275288249873352e+18,0.022815531119704247,-0.09108561277389526,-10.267334938049316
1.7275288249963354e+18,0.022234857082366943,-0.03799830377101898,-10.154685974121094
1.7275288250053356e+18,0.05563061311841011,0.030248360708355904,-10.229632377624512
1.7275288250143357e+18,0.044127143919467926,0.00046625378308817744,-10.095399856567383
1.727528825023336e+18,0.01015531737357378,0.0036791826132684946,-10.134331703186035
1.7275288250323361e+18,0.06985670328140259,0.00926932506263256,-10.168336868286133
1.7275288250413363e+18,-0.0053611090406775475,-0.10313085466623306,-10.2147216796875
1.7275288250533366e+18,-0.06367899477481842,-0.07950667291879654,-10.120757102966309
1.7275288250623368e+18,0.04896797239780426,-0.10091602802276611,-10.153033256530762
1.727528825068337e+18,0.03999921679496765,0.014273764565587044,-10.100646018981934
1.727528825077337e+18,-0.01693614199757576,0.02770911529660225,-10.058145523071289
1.7275288250863373e+18,0.013811703771352768,-0.12075277417898178,-10.045449256896973
1.7275288250953375e+18,0.03904131054878235,0.03574473410844803,-10.037848472595215
1.7275288251043377e+18,0.0001344405609415844,0.010055129416286945,-10.076684951782227
1.7275288251133379e+18,0.03563791885972023,-0.049222275614738464,-10.121902465820312
1.727528825125338e+18,0.07317087054252625,0.005567216780036688,-10.092852592468262
1.7275288251343383e+18,-0.06580226123332977,-0.017045829445123672,-10.062240600585938
1.7275288251433385e+18,-0.030285418033599854,-0.06459427624940872,-9.927032470703125
1.7275288251523387e+18,0.03754124417901039,0.02356511913239956,-10.040384292602539
1.727528825161339e+18,-0.04944481700658798,0.03386465460062027,-10.07957649230957
1.727528825167339e+18,0.05408012121915817,-0.04124854877591133,-10.088623046875
1.7275288251763392e+18,-0.0013399046147242188,-0.05666477605700493,-9.959569931030273
1.7275288251883395e+18,0.021242544054985046,0.05211900919675827,-9.981494903564453
1.7275288251973396e+18,-0.013476644642651081,-0.1219414696097374,-9.963459014892578
1.7275288252063398e+18,-0.03919258713722229,0.03398292139172554,-9.952445030212402
1.72752882521534e+18,-0.032145652920007706,0.0019180892268195748,-9.917213439941406
1.7275288252243402e+18,0.0003811638744082302,0.03089921921491623,-9.986077308654785
1.7275288252333404e+18,0.0006665042601525784,0.006615228485316038,-9.97577953338623
1.7275288252423406e+18,-0.00805663038045168,-0.03844938799738884,-10.008387565612793
1.7275288252513408e+18,-0.004258881788700819,-0.042490191757678986,-10.000629425048828
1.727528825260341e+18,-0.14893658459186554,0.019363170489668846,-9.908355712890625
1.7275288252693412e+18,-0.014821263961493969,-0.03423774242401123,-9.965441703796387
1.7275288252783414e+18,-0.019348040223121643,-0.05675467103719711,-9.994199752807617
1.7275288252873416e+18,0.0066414568573236465,0.01375135313719511,-9.876424789428711
1.7275288252963418e+18,0.05417332425713539,-0.0033153293188661337,-9.909684181213379
1.727528825305342e+18,-0.0790228620171547,0.011193353682756424,-9.976022720336914
1.7275288253143421e+18,-0.06149278208613396,0.01586308516561985,-9.80628776550293
1.7275288253233423e+18,0.07562356442213058,0.05533958226442337,-9.936681747436523
1.7275288253323425e+18,-0.002813364379107952,-0.03094763681292534,-9.895386695861816
1.7275288253383427e+18,0.01872866228222847,-0.04167012870311737,-9.94248104095459
1.727528825350343e+18,0.034946516156196594,-0.0822562724351883,-9.868535041809082
1.727528825356343e+18,-0.016041116788983345,0.05054507032036781,-9.897100448608398
1.7275288253653432e+18,0.04545947164297104,0.07813107222318649,-9.93388557434082
1.7275288253743434e+18,-0.04117833822965622,0.03425147011876106,-9.934228897094727
1.7275288253803436e+18,-0.006359634920954704,0.007406794466078281,-9.890837669372559
1.7275288253893437e+18,0.019802555441856384,-0.053784262388944626,-9.881988525390625
1.727528825398344e+18,0.06410033255815506,-0.013056723400950432,-9.786389350891113
1.727528825407344e+18,-0.018614137545228004,0.06189423426985741,-9.929980278015137
1.7275288254163443e+18,0.02482191100716591,0.008696697652339935,-9.929314613342285
1.7275288254253445e+18,-0.043483663350343704,-0.04325615614652634,-9.855934143066406
1.7275288254343447e+18,0.012171727605164051,-0.00013357277202885598,-9.867626190185547
1.727528825446345e+18,-0.018286207690835,-0.018164638429880142,-9.856392860412598
1.7275288254553452e+18,0.02088111639022827,-0.02803516946732998,-9.801783561706543
1.7275288254673454e+18,-0.018160708248615265,-0.035527538508176804,-9.735992431640625
1.7275288254763456e+18,0.003861975623294711,0.05351140722632408,-9.81408977508545
1.7275288254853458e+18,0.01738189533352852,-0.004523224197328091,-9.809906005859375
1.727528825497346e+18,0.05362173542380333,-0.0582415834069252,-9.898133277893066
1.7275288255063462e+18,-0.05768952891230583,0.04661072418093681,-9.800320625305176
1.7275288255153464e+18,0.016847334802150726,-0.003600317519158125,-9.834687232971191
1.7275288255243466e+18,0.017249125987291336,0.06608322262763977,-9.743826866149902
1.7275288255333468e+18,-0.041464462876319885,-0.01877901516854763,-9.77009391784668
1.727528825542347e+18,-0.028972703963518143,-0.02979486808180809,-9.866622924804688
1.7275288255513472e+18,0.027159933000802994,0.04161049425601959,-9.858997344970703
1.7275288255603474e+18,0.02403007447719574,0.01795559749007225,-9.767251968383789
1.7275288255693476e+18,0.04230400547385216,0.057178396731615067,-9.766395568847656
1.7275288255783478e+18,0.03885308653116226,0.02435692772269249,-9.776289939880371
1.727528825587348e+18,0.008114147000014782,-0.02406476065516472,-9.682747840881348
1.7275288255963482e+18,0.0902443528175354,0.05225655809044838,-9.87105941772461
1.7275288256053484e+18,-0.040582288056612015,0.01828591898083687,-9.810136795043945
1.7275288256143485e+18,-0.10802768170833588,-0.01908588781952858,-9.727663040161133
1.7275288256263488e+18,-0.020104259252548218,-0.025891335681080818,-9.841906547546387
1.727528825635349e+18,0.04620581865310669,-0.09123338013887405,-9.794833183288574
1.7275288256443492e+18,0.06849509477615356,0.08722785115242004,-9.7214994430542
1.7275288256533494e+18,-0.08451325446367264,0.008298796601593494,-9.757338523864746
1.7275288256623496e+18,0.00480462983250618,-0.012959876097738743,-9.735783576965332
1.7275288256713498e+18,0.03830629587173462,-0.03097822517156601,-9.720940589904785
1.72752882568035e+18,-0.02637910284101963,-0.06907999515533447,-9.782600402832031
1.7275288256893501e+18,-0.038125358521938324,0.04431202635169029,-9.761788368225098
1.7275288256983503e+18,0.032965078949928284,0.04001351445913315,-9.807177543640137
1.7275288257073505e+18,-0.10469718277454376,0.07525187730789185,-9.743380546569824
1.7275288257193508e+18,0.008532563224434853,-0.00399656780064106,-9.678543090820312
1.727528825725351e+18,-0.030086159706115723,0.0068043372593820095,-9.807491302490234
1.7275288257373512e+18,0.033603813499212265,0.01990659162402153,-9.73880672454834
1.7275288257463514e+18,0.033447910100221634,-0.0023270086385309696,-9.75743579864502
1.7275288257523515e+18,0.008289376273751259,-0.03048444353044033,-9.819815635681152
1.7275288257613517e+18,-0.08113478124141693,0.012884220108389854,-9.751131057739258
1.7275288257703519e+18,-0.038958724588155746,0.012509924359619617,-9.71143627166748
1.727528825779352e+18,-0.001294645480811596,-0.005480784922838211,-9.69235610961914
1.7275288257853522e+18,-0.05202098190784454,0.0010087918490171432,-9.751935958862305
1.7275288257883523e+18,0.0019657956436276436,-0.03801887109875679,-9.716115951538086
1.7275288257943524e+18,0.014708099886775017,0.01823599636554718,-9.750725746154785
1.7275288257943524e+18,0.014708099886775017,0.01823599636554718,-9.750725746154785
1.7275288257943524e+18,0.014708099886775017,0.01823599636554718,-9.750725746154785
1.7275288258003525e+18,0.05763014778494835,-0.039416685700416565,-9.744696617126465
1.7275288258063526e+18,0.014443183317780495,-0.05770077928900719,-9.783339500427246
1.7275288258123528e+18,0.03570961579680443,-0.019802521914243698,-9.753912925720215
1.727528825821353e+18,0.012390750460326672,-0.08445470780134201,-9.792418479919434
1.7275288258303532e+18,-0.08326803892850876,-0.021006658673286438,-9.68737506866455
1.7275288258333532e+18,-0.02440602332353592,-0.009067676961421967,-9.819576263427734
1.7275288258393533e+18,-0.003072238527238369,0.05000133067369461,-9.714044570922852
1.7275288258453535e+18,-0.07793914526700974,-0.014004439115524292,-9.726024627685547
1.7275288258513536e+18,0.03281434625387192,0.004929407965391874,-9.799092292785645
1.7275288258603538e+18,-0.023026397451758385,-0.015516811981797218,-9.75409984588623
1.727528825866354e+18,0.02101852186024189,0.002194761298596859,-9.747796058654785
1.727528825869354e+18,0.05454173684120178,-0.01557520404458046,-9.745817184448242
1.7275288258783542e+18,-0.015630487352609634,-0.0065524280071258545,-9.815585136413574
1.7275288258843543e+18,0.009110229089856148,0.046582311391830444,-9.87571907043457
1.7275288258933545e+18,-0.05358609929680824,0.05493498593568802,-9.853734970092773
1.7275288259023547e+18,-0.08025845885276794,-0.030914289876818657,-9.79814624786377
1.7275288259083548e+18,-0.04431077092885971,0.0459781214594841,-9.877193450927734
1.727528825914355e+18,-0.02055065892636776,-0.09373226016759872,-9.81503677368164
1.7275288259233551e+18,-0.05361926555633545,-0.04547594487667084,-9.806203842163086
1.7275288259293553e+18,0.04670296981930733,-0.009851254522800446,-9.891390800476074
1.7275288259383555e+18,0.05725007504224777,0.015523778274655342,-9.731297492980957
1.7275288259473556e+18,0.03945331647992134,0.008670045994222164,-9.782319068908691
1.7275288259533558e+18,-0.016947243362665176,-0.026809632778167725,-9.795080184936523
1.727528825962356e+18,-0.06131620705127716,-0.00026266841450706124,-9.83230972290039
1.727528825968356e+18,0.00955955684185028,-0.014786362648010254,-9.795171737670898
1.7275288259743562e+18,0.004520481452345848,-0.030389800667762756,-9.833097457885742
1.7275288259803564e+18,-0.001784870051778853,0.034148745238780975,-9.74146842956543
1.7275288259863565e+18,0.005057742353528738,-0.03120306320488453,-9.740206718444824
1.7275288259923566e+18,0.022364327684044838,0.03370638191699982,-9.679534912109375
1.7275288260013568e+18,-0.04677559807896614,-0.018939290195703506,-9.84471321105957
1.727528826010357e+18,0.06228489801287651,0.019239598885178566,-9.762978553771973
1.727528826016357e+18,-0.03291817381978035,0.0463901087641716,-9.74862289428711
1.7275288260223572e+18,0.07332779467105865,-0.04938821122050285,-9.74072265625
1.7275288260313574e+18,0.022295428439974785,-0.03929249942302704,-9.727912902832031
1.7275288260403576e+18,0.06790397316217422,-0.05246822535991669,-9.802614212036133
1.7275288260493578e+18,-0.025680843740701675,-0.006751008797436953,-9.750666618347168
1.727528826055358e+18,-0.022226743400096893,0.0017890441231429577,-9.823141098022461
1.727528826061358e+18,-0.04377223923802376,-0.04119044542312622,-9.724181175231934
1.7275288260703583e+18,-0.043945640325546265,0.05518190935254097,-9.802477836608887
1.7275288260763584e+18,0.04184747114777565,-0.03942365199327469,-9.731217384338379
1.7275288260823585e+18,-0.0401683934032917,0.021365448832511902,-9.748761177062988
1.7275288260853586e+18,0.04429561272263527,-0.03264828398823738,-9.794739723205566
1.7275288260883587e+18,-0.01616993360221386,0.004476891830563545,-9.747967720031738
1.7275288260943588e+18,-0.053697068244218826,-0.060985732823610306,-9.790199279785156
1.7275288260973588e+18,-0.03870690241456032,-0.02771608904004097,-9.694571495056152
1.727528826103359e+18,-0.0537770614027977,-0.0039469460025429726,-9.805139541625977
1.727528826109359e+18,0.011689906939864159,-0.05007147043943405,-9.832184791564941
1.7275288261213594e+18,0.029450619593262672,-0.008066743612289429,-9.707934379577637
1.7275288261303596e+18,0.04043435677886009,0.011166809126734734,-9.771456718444824
1.7275288261363597e+18,-0.017899755388498306,0.05381404981017113,-9.808449745178223
1.72752882614536e+18,0.008592212572693825,-0.10844376683235168,-9.820425033569336
1.72752882615136e+18,0.05230908468365669,0.08228708803653717,-9.857120513916016
1.7275288261603602e+18,0.04498549923300743,-0.02980867028236389,-9.789459228515625
1.7275288261693604e+18,-0.024643834680318832,0.030281903222203255,-9.703778266906738
1.7275288261753605e+18,-0.01757671870291233,0.03654435649514198,-9.729342460632324
1.7275288261843607e+18,-0.03671718016266823,-0.004197683185338974,-9.7323579788208
1.7275288261903608e+18,0.02049073576927185,0.0021844455040991306,-9.75351333618164
1.727528826199361e+18,0.025254027917981148,-0.0520402267575264,-9.777386665344238
1.7275288262083612e+18,-0.025860918685793877,-0.04514436423778534,-9.773439407348633
1.7275288262203615e+18,0.049049749970436096,0.016597259789705276,-9.68333625793457
1.7275288262263616e+18,-0.024393346160650253,-0.008709320798516273,-9.744800567626953
1.7275288262353618e+18,-0.023057593032717705,0.011008735746145248,-9.7932710647583
1.727528826244362e+18,-0.050839848816394806,0.048582274466753006,-9.796414375305176
1.727528826250362e+18,0.0654100626707077,-0.023046089336276054,-9.797981262207031
1.7275288262563622e+18,-0.07156878709793091,0.08787654340267181,-9.733366012573242
1.7275288262653624e+18,0.0323336124420166,-0.047243811190128326,-9.753026962280273
1.7275288262743626e+18,-0.017748262733221054,-0.015737969428300858,-9.772966384887695
1.7275288262833628e+18,0.0344676673412323,0.049261435866355896,-9.73229694366455
1.727528826292363e+18,-0.04848567023873329,0.007295472081750631,-9.75631046295166
1.7275288263013632e+18,0.11547183990478516,-0.021659500896930695,-9.763725280761719
1.7275288263073633e+18,0.016968252137303352,0.0006424581515602767,-9.735334396362305
1.7275288263163635e+18,-0.007679501548409462,-0.002570278476923704,-9.785837173461914
1.7275288263223636e+18,-0.03166237846016884,-0.026916423812508583,-9.749286651611328
1.7275288263313638e+18,-0.010901788249611855,-0.025801081210374832,-9.715038299560547
1.727528826337364e+18,0.00014431230374611914,-0.0009249516297131777,-9.747498512268066
1.7275288263463642e+18,-0.015414183028042316,0.02492021769285202,-9.764888763427734
1.7275288263523643e+18,-0.005884591955691576,-0.003741857595741749,-9.80667781829834
1.7275288263643645e+18,-0.02356068231165409,0.0321965292096138,-9.723406791687012
1.7275288263733647e+18,0.02906671352684498,-0.027398718520998955,-9.720952987670898
1.7275288263793649e+18,0.005728030577301979,-0.018891971558332443,-9.729296684265137
1.727528826388365e+18,-0.03155844658613205,0.009617455303668976,-9.719035148620605
1.7275288263943652e+18,-0.026725202798843384,0.0401512011885643,-9.712614059448242
1.7275288264003653e+18,-0.012000617571175098,0.007257961202412844,-9.767547607421875
1.7275288264063654e+18,0.03444639593362808,-0.0463738851249218,-9.715215682983398
1.7275288264123656e+18,-0.0010516007896512747,-0.029979148879647255,-9.74240779876709
1.7275288264213658e+18,0.046936776489019394,0.0643547922372818,-9.72069263458252
1.727528826427366e+18,0.0014839718351140618,-0.044030822813510895,-9.772784233093262
1.727528826433366e+18,0.05909257382154465,-0.03172976151108742,-9.733991622924805
1.7275288264423662e+18,0.022734543308615685,-0.06869310140609741,-9.78016471862793
1.7275288264513664e+18,-0.0041934046894311905,0.04705335944890976,-9.743133544921875
1.7275288264603666e+18,0.05447226017713547,-0.03735850751399994,-9.675066947937012
1.7275288264693668e+18,0.06942751258611679,0.0030479556880891323,-9.743417739868164
1.727528826478367e+18,-0.027603641152381897,-0.05753077566623688,-9.74636459350586
1.7275288264873672e+18,0.0081059280782938,-0.03393922746181488,-9.773636817932129
1.7275288264933673e+18,0.08275700360536575,-0.010633609257638454,-9.714716911315918
1.7275288265023675e+18,0.007264030631631613,0.04241234436631203,-9.712911605834961
1.7275288265113677e+18,-0.031164586544036865,0.054114919155836105,-9.749106407165527
1.7275288265203679e+18,-0.008306071162223816,0.06487193703651428,-9.77439022064209
1.727528826529368e+18,0.01920080929994583,-0.03340011462569237,-9.788966178894043
1.7275288265383683e+18,0.02755751833319664,0.02216937579214573,-9.73584270477295
1.7275288265473684e+18,0.010007069446146488,0.0058263326063752174,-9.725232124328613
1.7275288265563686e+18,0.0008583100861869752,0.02059148997068405,-9.770934104919434
1.7275288265623688e+18,0.005046890117228031,-0.046169888228178024,-9.713334083557129
1.727528826571369e+18,0.0201119314879179,0.00239936588332057,-9.781587600708008
1.727528826577369e+18,0.011249805800616741,0.0077129630371928215,-9.682499885559082
1.7275288265863693e+18,-0.02183373086154461,0.08704923838376999,-9.713066101074219
1.7275288265923694e+18,0.006158147007226944,0.009499423205852509,-9.785621643066406
1.7275288266013696e+18,0.04134994372725487,0.018809355795383453,-9.741377830505371
1.7275288266103698e+18,-0.04402606189250946,-0.0017296428559347987,-9.791919708251953
1.72752882661637e+18,-0.0013381128665059805,-0.06664162874221802,-9.72161865234375
1.72752882662237e+18,0.02889038436114788,0.07178552448749542,-9.74533462524414
1.7275288266313702e+18,-0.04973742738366127,0.015375623479485512,-9.780537605285645
1.7275288266373704e+18,0.04927719384431839,-0.00885825790464878,-9.66855239868164
1.7275288266463706e+18,0.0060738022439181805,-0.025487566366791725,-9.680761337280273
1.7275288266523707e+18,-0.001047639874741435,0.08387260884046555,-9.728147506713867
1.727528826661371e+18,0.06971820443868637,-0.0037047499790787697,-9.689699172973633
1.727528826670371e+18,-0.06593761593103409,-0.01728229783475399,-9.774683952331543
1.7275288266763712e+18,0.05345907062292099,0.012118756771087646,-9.752603530883789
1.7275288266853714e+18,0.10151192545890808,0.038359615951776505,-9.731688499450684
1.7275288266913715e+18,-0.033019669353961945,-0.004753986373543739,-9.764778137207031
1.7275288266973716e+18,-0.13602809607982635,0.015999440103769302,-9.809812545776367
1.7275288267033718e+18,0.013721894472837448,0.06781937181949615,-9.824475288391113
1.727528826712372e+18,0.06895714998245239,-0.015487510710954666,-9.788572311401367
1.727528826718372e+18,-0.022623838856816292,-0.02698591724038124,-9.748160362243652
1.7275288267243722e+18,-0.006141160149127245,0.02567911148071289,-9.709872245788574
1.7275288267303724e+18,0.035129353404045105,0.0052237603813409805,-9.696837425231934
1.7275288267363725e+18,0.0013093654997646809,-0.13077351450920105,-9.723491668701172
1.7275288267453727e+18,-0.0007590394816361368,0.03897862508893013,-9.764220237731934
1.7275288267513728e+18,-0.10014279931783676,0.0026406128890812397,-9.74576473236084
1.727528826757373e+18,-0.01291532814502716,-0.004725342616438866,-9.816492080688477
1.727528826763373e+18,-0.003264953149482608,0.03200200945138931,-9.79759407043457
1.7275288267723732e+18,0.03231535479426384,0.024425556883215904,-9.693897247314453
1.7275288267753733e+18,0.08256519585847855,-0.0399431549012661,-9.732571601867676
1.7275288267843735e+18,0.019187098369002342,0.02671312913298607,-9.748278617858887
1.7275288267873736e+18,0.02909707836806774,-0.02234318107366562,-9.689003944396973
1.7275288267933737e+18,0.06381549686193466,-0.05073542520403862,-9.773506164550781
1.7275288267993738e+18,-0.034516457468271255,-0.011988251470029354,-9.813859939575195
1.727528826805374e+18,0.09972669929265976,-0.06430259346961975,-9.79393482208252
1.727528826811374e+18,-0.0036939841229468584,-0.005537006072700024,-9.757453918457031
1.7275288268203743e+18,-0.040866244584321976,-0.047143835574388504,-9.744805335998535
1.7275288268263744e+18,0.0021820301190018654,0.017675641924142838,-9.697799682617188
1.7275288268353746e+18,0.07274147868156433,0.05184963345527649,-9.699588775634766
1.7275288268383747e+18,-0.021084193140268326,-0.050611596554517746,-9.794561386108398
1.7275288268443748e+18,0.017528163269162178,0.06106771528720856,-9.756991386413574
1.727528826850375e+18,-0.05908955633640289,0.00999668799340725,-9.758404731750488
1.727528826859375e+18,0.05529468134045601,0.003342393320053816,-9.819681167602539
1.7275288268653752e+18,0.028031110763549805,-8.22239089757204e-05,-9.664542198181152
1.7275288268743754e+18,0.06570945680141449,-0.007296940311789513,-9.760223388671875
1.7275288268803756e+18,0.0258638933300972,-0.0188024640083313,-9.754293441772461
1.7275288268863757e+18,-0.006443992257118225,-0.12726826965808868,-9.782819747924805
1.727528826895376e+18,0.011433888226747513,-0.012934556230902672,-9.80145263671875
1.727528826904376e+18,0.08985041826963425,-0.050199300050735474,-9.819755554199219
1.727528826907376e+18,-0.05085457116365433,-0.014343705028295517,-9.697418212890625
1.7275288269163763e+18,-0.03549095243215561,0.05603553354740143,-9.71052360534668
1.7275288269253765e+18,-0.011877747252583504,-0.030590323731303215,-9.727560997009277
1.7275288269343767e+18,0.0025361268781125546,0.024660062044858932,-9.775500297546387
1.7275288269403768e+18,-0.002823405433446169,-0.019199421629309654,-9.746103286743164
