timestamp,accel_x,accel_y,accel_z
1.7294966035801219e+18,0.0252824779599905,-0.07155048102140427,-9.81275749206543
1.729496603589122e+18,-0.009077792055904865,0.026038242504000664,-9.843196868896484
1.7294966035981222e+18,-0.011313156224787235,0.05120554938912392,-9.798996925354004
1.7294966036041224e+18,-0.023441025987267494,0.007439820561558008,-9.752646446228027
1.7294966036131226e+18,-0.030589774250984192,0.045989420264959335,-9.835626602172852
1.7294966036221228e+18,0.0011761193163692951,0.04041329398751259,-9.83289909362793
1.729496603628123e+18,0.0011470525059849024,0.017328394576907158,-9.78055477142334
1.729496603637123e+18,-0.02097938023507595,0.0017057327786460519,-9.777143478393555
1.7294966036461233e+18,0.043466635048389435,0.052199363708496094,-9.749075889587402
1.7294966036551235e+18,0.05538467690348625,-0.08481571823358536,-9.807828903198242
1.7294966036611236e+18,-0.008772322908043861,-0.04002305865287781,-9.782397270202637
1.7294966036701238e+18,0.03231322392821312,-0.011463254690170288,-9.77502155303955
1.729496603676124e+18,-0.029495486989617348,0.04524754732847214,-9.808006286621094
1.729496603685124e+18,-0.00956198014318943,-0.0253079142421484,-9.849223136901855
1.7294966036941243e+18,0.014515386894345284,0.01728329434990883,-9.827886581420898
1.7294966037031245e+18,-0.06947549432516098,0.048020754009485245,-9.768845558166504
1.7294966037091246e+18,-0.038708239793777466,0.05411943793296814,-9.800288200378418
1.7294966037181248e+18,0.014464730396866798,0.049803681671619415,-9.750149726867676
1.729496603727125e+18,-0.0469893217086792,-0.02454441785812378,-9.854290008544922
1.7294966037361252e+18,0.06503651291131973,-0.053321730345487595,-9.80301284790039
1.7294966037451254e+18,0.018177352845668793,0.0018294882029294968,-9.881000518798828
1.7294966037511255e+18,0.0892593190073967,0.013008546084165573,-9.775835037231445
1.7294966037601257e+18,-0.08232607692480087,-0.012999031692743301,-9.825448036193848
1.729496603769126e+18,0.03807957470417023,-0.05199797451496124,-9.73415756225586
1.729496603778126e+18,-0.01480336207896471,-0.05271027982234955,-9.910334587097168
1.7294966037871263e+18,-0.02634976990520954,0.008871315978467464,-9.778482437133789
1.7294966037931264e+18,0.06023907661437988,-0.04239396005868912,-9.857115745544434
1.7294966038021266e+18,-0.047352951020002365,0.02229263074696064,-9.815266609191895
1.7294966038111268e+18,0.04129477217793465,-0.047796618193387985,-9.821199417114258
1.729496603817127e+18,-0.07309813052415848,-0.017827948555350304,-9.860647201538086
1.729496603826127e+18,0.07059594243764877,-0.02742946892976761,-9.781387329101562
1.7294966038351273e+18,-0.04758501425385475,0.010553587228059769,-9.759526252746582
1.7294966038441275e+18,0.033450521528720856,-0.02894326113164425,-9.833425521850586
1.7294966038531277e+18,0.023277215659618378,-0.08161007612943649,-9.877957344055176
1.7294966038591278e+18,0.038300804793834686,0.07835830003023148,-9.854920387268066
1.729496603868128e+18,-0.028569893911480904,-0.010511882603168488,-9.751668930053711
1.7294966038741281e+18,-0.07211432605981827,-0.021936245262622833,-9.797487258911133
1.7294966038831283e+18,0.04185786470770836,-0.08980532735586166,-9.843640327453613
1.7294966038921285e+18,0.049444325268268585,-0.05974471941590309,-9.69573974609375
1.7294966039011287e+18,-0.037364888936281204,-0.019932126626372337,-9.786745071411133
1.7294966039071288e+18,0.051874008029699326,-0.03371194377541542,-9.783270835876465
1.729496603916129e+18,0.006668047048151493,0.0016678626416251063,-9.774667739868164
1.7294966039251292e+18,-0.027065478265285492,0.043526217341423035,-9.79384994506836
1.7294966039341294e+18,-0.006158038042485714,0.021316682919859886,-9.878185272216797
1.7294966039401295e+18,0.010886945761740208,-0.041629593819379807,-9.845446586608887
1.7294966039491297e+18,0.021219616755843163,-0.020458709448575974,-9.76386833190918
1.7294966039551299e+18,-0.0029404538217931986,-0.006875311490148306,-9.874425888061523
1.72949660396413e+18,0.0013704441953450441,0.016346411779522896,-9.779144287109375
1.7294966039731302e+18,0.02593088708817959,-0.02726518176496029,-9.835349082946777
1.7294966039821304e+18,-0.06590933352708817,0.022001007571816444,-9.757569313049316
1.7294966039911306e+18,-0.03188018128275871,-0.03260670229792595,-9.77159309387207
1.7294966040001308e+18,0.04836641997098923,-0.01192170474678278,-9.7996187210083
1.729496604006131e+18,0.026560863479971886,-0.025014856830239296,-9.864554405212402
1.7294966040151311e+18,-0.038497574627399445,0.01586531288921833,-9.78073501586914
1.7294966040241313e+18,0.06961235404014587,-0.02802148461341858,-9.782320022583008
1.7294966040331315e+18,-0.011868885718286037,-0.051584500819444656,-9.739294052124023
1.7294966040421317e+18,0.02198849618434906,-0.06094064563512802,-9.76550006866455
1.7294966040481318e+18,0.00338569818995893,0.050683971494436264,-9.732518196105957
1.729496604057132e+18,-0.011792799457907677,-0.0019482341594994068,-9.855966567993164
1.7294966040661322e+18,0.10054607689380646,-0.00025485095102339983,-9.917560577392578
1.7294966040751324e+18,-0.04320462793111801,0.0012602980714291334,-9.829076766967773
1.7294966040841326e+18,0.05687129497528076,0.022407447919249535,-9.777840614318848
1.7294966040931328e+18,-0.009554216638207436,0.0689002200961113,-9.821145057678223
1.729496604102133e+18,0.04147166758775711,-0.018668003380298615,-9.76560115814209
1.7294966041111332e+18,-0.00048634028644300997,-0.030524348840117455,-9.833148956298828
1.7294966041171333e+18,-0.04880926012992859,-0.0067445021122694016,-9.809855461120605
1.7294966041261335e+18,0.06772047281265259,0.021382339298725128,-9.853904724121094
1.7294966041351337e+18,0.051697101444005966,-0.030222494155168533,-9.814987182617188
1.729496604144134e+18,0.10179855674505234,0.028616053983569145,-9.739392280578613
1.729496604153134e+18,0.05144902318716049,0.06779439747333527,-9.768484115600586
1.7294966041591342e+18,0.06201883405447006,-0.013307567685842514,-9.827519416809082
1.7294966041711345e+18,-0.005773358978331089,0.10082452744245529,-9.83950424194336
1.7294966041771346e+18,-0.05306052044034004,0.04243673384189606,-9.828349113464355
1.7294966041861348e+18,0.009797331877052784,-0.060003165155649185,-9.816302299499512
1.729496604195135e+18,-0.0058197868056595325,-0.007093366235494614,-9.836623191833496
1.7294966042071352e+18,-0.026867767795920372,-0.03488554432988167,-9.797645568847656
1.7294966042161354e+18,0.06016475707292557,-0.06865931302309036,-9.834012985229492
1.7294966042221356e+18,0.0901675745844841,-0.04838590323925018,-9.791722297668457
1.7294966042311357e+18,-0.009821438230574131,-0.11408839374780655,-9.82847785949707
1.729496604240136e+18,0.01775740645825863,-0.026623953133821487,-9.716203689575195
1.729496604249136e+18,-0.014224376529455185,0.039776481688022614,-9.800424575805664
1.7294966042581363e+18,0.014403312467038631,-0.020234638825058937,-9.75975227355957
1.7294966042641364e+18,0.018199345096945763,0.014479482546448708,-9.698013305664062
1.7294966042731366e+18,0.03373567759990692,0.033438604325056076,-9.814497947692871
1.7294966042821368e+18,-0.005954963155090809,0.030136819928884506,-9.74222469329834
1.729496604291137e+18,0.0530426912009716,0.019903814420104027,-9.731834411621094
1.7294966043001372e+18,0.01666712947189808,0.05170626565814018,-9.85123062133789
1.7294966043091374e+18,0.12361715734004974,-0.130780428647995,-9.804183006286621
1.7294966043181376e+18,-0.027904266491532326,-0.016226500272750854,-9.759575843811035
1.7294966043271378e+18,0.005366140510886908,0.009308801032602787,-9.920808792114258
1.729496604336138e+18,0.028575072064995766,0.04949234798550606,-9.871894836425781
1.729496604342138e+18,-0.04709422215819359,-0.020067667588591576,-9.779321670532227
1.7294966043511383e+18,-0.014194137416779995,0.02979389764368534,-9.868729591369629
1.7294966043571384e+18,0.01669091358780861,-0.07553034275770187,-9.813681602478027
1.7294966043661386e+18,-0.057262398302555084,-0.02346896380186081,-9.82475471496582
1.7294966043751388e+18,0.05695037916302681,0.04331841319799423,-9.802404403686523
1.729496604384139e+18,0.048224642872810364,-0.0015378881944343448,-9.786173820495605
1.7294966043901391e+18,-0.04646969959139824,-0.018104974180459976,-9.739026069641113
1.7294966043991393e+18,-0.031649064272642136,-0.023002993315458298,-9.748246192932129
1.7294966044081395e+18,0.004023584071546793,0.009019047021865845,-9.802734375
1.7294966044171397e+18,0.019244983792304993,0.0712977722287178,-9.785627365112305
1.72949660442614e+18,0.044044457376003265,-0.03742144629359245,-9.821257591247559
1.72949660443214e+18,0.1121666207909584,0.0029979399405419827,-9.835264205932617
1.7294966044441403e+18,0.0897257849574089,0.04552541300654411,-9.757780075073242
1.7294966044501404e+18,-0.05799044296145439,-0.01465652883052826,-9.77739429473877
1.7294966044591406e+18,0.044556837528944016,-0.05100364238023758,-9.774117469787598
1.7294966044651407e+18,0.012264637276530266,0.008667560294270515,-9.811779975891113
1.729496604474141e+18,-0.027880553156137466,0.007627223618328571,-9.782862663269043
1.729496604483141e+18,0.03635050356388092,0.03687140345573425,-9.74448013305664
1.7294966044921413e+18,0.08007186651229858,-0.04261714220046997,-9.745325088500977
1.7294966044981414e+18,-0.012316728010773659,-0.11147581785917282,-9.863490104675293
1.7294966045071416e+18,0.010907270945608616,-0.07931969314813614,-9.8537015914917
1.7294966045131418e+18,-0.008806314319372177,0.08224420249462128,-9.782623291015625
1.729496604522142e+18,0.03704725578427315,0.0237102247774601,-9.766533851623535
1.7294966045311421e+18,0.012293482199311256,0.05928705632686615,-9.787298202514648
1.7294966045401423e+18,0.05952349677681923,-0.024239525198936462,-9.785110473632812
1.7294966045461425e+18,-0.008117610588669777,-0.045809678733348846,-9.780624389648438
1.7294966045551427e+18,-0.03796618431806564,0.03354387357831001,-9.846245765686035
1.7294966045641428e+18,-0.07213658839464188,0.01895970106124878,-9.829345703125
1.729496604570143e+18,0.013872964307665825,0.012598109431564808,-9.787681579589844
1.7294966045821432e+18,0.01990332640707493,-0.04567394033074379,-9.784994125366211
1.7294966045881434e+18,-0.021816618740558624,0.04176422953605652,-9.833307266235352
1.7294966045971436e+18,0.0601847805082798,0.011546825990080833,-9.847570419311523
1.7294966046061437e+18,0.06641774624586105,-0.042885612696409225,-9.778240203857422
1.729496604615144e+18,0.019024208188056946,-0.0038409081753343344,-9.823750495910645
1.729496604621144e+18,0.09881582111120224,-0.005256970413029194,-9.842635154724121
1.7294966046301443e+18,-0.00164926762226969,0.024450505152344704,-9.7774019241333
1.7294966046361444e+18,0.005302665755152702,0.014014826156198978,-9.804649353027344
1.7294966046451446e+18,-0.05142463371157646,0.04065607115626335,-9.846680641174316
1.7294966046541448e+18,-0.03774663433432579,-0.032865773886442184,-9.784526824951172
1.729496604663145e+18,0.019921472296118736,-0.029588881880044937,-9.795555114746094
1.729496604669145e+18,-0.01362268440425396,-0.018734149634838104,-9.86661434173584
1.7294966046781453e+18,0.035716552287340164,-0.01216929778456688,-9.786651611328125
1.7294966046871455e+18,-0.05251298099756241,-0.02909030020236969,-9.744678497314453
1.7294966046961457e+18,-0.004769774153828621,-0.02043754979968071,-9.881734848022461
1.7294966047021458e+18,0.03938848525285721,0.004270215984433889,-9.866031646728516
1.729496604711146e+18,-0.08172249048948288,0.016634173691272736,-9.809392929077148
1.7294966047201462e+18,-0.04305167496204376,0.01629016548395157,-9.883537292480469
1.7294966047261463e+18,-0.006737534422427416,-0.019147168844938278,-9.820818901062012
1.7294966047351465e+18,-0.06894119828939438,-0.08396082371473312,-9.823297500610352
1.7294966047441467e+18,-0.0879964753985405,0.009388302452862263,-9.842564582824707
1.729496604753147e+18,0.002771679311990738,0.019351106137037277,-9.829700469970703
1.729496604759147e+18,0.02300284430384636,-0.051327843219041824,-9.780385971069336
1.7294966047681472e+18,-0.014985836111009121,-0.05237715691328049,-9.752836227416992
1.7294966047771474e+18,0.10463874042034149,-0.023702150210738182,-9.832326889038086
1.7294966047861476e+18,0.012438245117664337,-0.026731202378869057,-9.83537483215332
1.7294966047951478e+18,0.009496161714196205,-0.003026623511686921,-9.931131362915039
1.729496604804148e+18,-0.01334582082927227,0.08281338959932327,-9.81324291229248
1.7294966048131482e+18,-0.0746556892991066,-0.04094143211841583,-9.881978988647461
1.7294966048221484e+18,0.04219614341855049,-0.05232219398021698,-9.746969223022461
1.7294966048281485e+18,0.015587513335049152,0.032744258642196655,-9.682065963745117
1.7294966048371487e+18,-0.0436018705368042,-0.07532545924186707,-9.829876899719238
1.7294966048461489e+18,-0.07842686772346497,0.08722933381795883,-9.782187461853027
1.729496604852149e+18,0.021733462810516357,-0.04127097502350807,-9.811474800109863
1.7294966048611492e+18,-0.02430672012269497,0.041172854602336884,-9.82464599609375
1.7294966048701494e+18,-0.008945204317569733,0.02207692712545395,-9.85832691192627
1.7294966048761495e+18,0.03302685171365738,0.010308835655450821,-9.785208702087402
1.7294966048881498e+18,0.00549671845510602,0.010087336413562298,-9.755816459655762
1.72949660489415e+18,-0.026349328458309174,-0.06204858049750328,-9.810091972351074
1.72949660490315e+18,-0.024077096953988075,-0.014359654858708382,-9.808996200561523
1.7294966049121503e+18,0.013104157522320747,0.022314555943012238,-9.804043769836426
1.7294966049181504e+18,0.031422581523656845,-0.04476531594991684,-9.821255683898926
1.7294966049271506e+18,0.024983640760183334,0.0329749621450901,-9.873183250427246
1.7294966049361508e+18,-0.023795120418071747,-0.05131568759679794,-9.798809051513672
1.729496604945151e+18,-0.005744743626564741,0.10421789437532425,-9.761378288269043
1.7294966049541512e+18,-0.03830390423536301,-0.08689041435718536,-9.793953895568848
1.7294966049601513e+18,-0.05635514855384827,-0.01395849883556366,-9.833305358886719
1.7294966049691515e+18,0.05535938963294029,0.018126731738448143,-9.722796440124512
1.7294966049781517e+18,-0.01806887798011303,-0.0559200793504715,-9.773274421691895
1.729496604987152e+18,-0.03430810198187828,0.046274084597826004,-9.853963851928711
1.729496604996152e+18,-0.07295572757720947,0.004048427566885948,-9.802984237670898
1.7294966050051523e+18,0.032142508774995804,-0.003670188831165433,-9.816191673278809
1.7294966050141524e+18,0.08781123161315918,-0.0006443511811085045,-9.887340545654297
1.7294966050201526e+18,-0.08026295900344849,-0.026224598288536072,-9.722772598266602
1.7294966050291528e+18,-0.013328886590898037,0.05118567869067192,-9.753992080688477
1.729496605035153e+18,-0.001754307420924306,-0.029382891952991486,-9.799495697021484
1.729496605044153e+18,-0.03224959596991539,0.02051890827715397,-9.775620460510254
1.7294966050531533e+18,0.030106356367468834,-0.00013426179066300392,-9.810083389282227
1.7294966050621535e+18,-0.029514601454138756,-0.07412667572498322,-9.748150825500488
1.7294966050681536e+18,-0.018943503499031067,0.01911051757633686,-9.816208839416504
1.7294966050771538e+18,0.0074519687332212925,0.015025470405817032,-9.833921432495117
1.729496605086154e+18,0.03713620826601982,-0.026933450251817703,-9.758459091186523
1.7294966050951542e+18,0.0028161138761788607,-0.04135717451572418,-9.841608047485352
1.7294966051041544e+18,0.0028186142444610596,-0.007597654592245817,-9.87572956085205
1.7294966051131546e+18,-0.035188496112823486,0.00828827265650034,-9.844939231872559
1.7294966051221548e+18,-0.05418407917022705,0.041769471019506454,-9.799382209777832
1.729496605131155e+18,0.06161428242921829,0.06276722252368927,-9.847628593444824
1.729496605137155e+18,-0.02465781196951866,-0.0032958537340164185,-9.719841957092285
1.7294966051461553e+18,-0.03916482999920845,0.03387575224041939,-9.803327560424805
1.7294966051521554e+18,0.013016457669436932,-0.03723861649632454,-9.86944580078125
1.7294966051611556e+18,-0.01595291495323181,0.05479489266872406,-9.773880004882812
1.7294966051701558e+18,-0.030841942876577377,-0.004062231630086899,-9.801478385925293
1.729496605179156e+18,-0.03265080228447914,-0.04103127494454384,-9.7792329788208
1.7294966051881562e+18,0.02900490164756775,-0.049035754054784775,-9.878447532653809
1.7294966052001564e+18,0.0061215064488351345,-0.03507745638489723,-9.726259231567383
1.7294966052061565e+18,0.008569244295358658,0.0547432117164135,-9.820178985595703
1.7294966052151567e+18,-0.01588154397904873,-0.053164042532444,-9.910497665405273
1.729496605224157e+18,0.013972966931760311,0.08742120116949081,-9.744477272033691
1.729496605233157e+18,-0.05845824256539345,-0.05465485528111458,-9.897583961486816
1.7294966052421573e+18,0.0057153101079165936,0.006023900583386421,-9.7371826171875
1.7294966052511575e+18,0.0812651664018631,0.028502797707915306,-9.742027282714844
1.7294966052601577e+18,0.08549569547176361,-0.01211537979543209,-9.84083080291748
1.729496605269158e+18,-0.01964266039431095,0.034720465540885925,-9.785346984863281
1.729496605275158e+18,-0.03808785229921341,-0.05872621759772301,-9.78882884979248
1.7294966052841582e+18,-0.06783617287874222,0.029298150911927223,-9.858360290527344
1.7294966052931584e+18,-0.005831679794937372,-0.10630025714635849,-9.82957935333252
1.7294966053021586e+18,-0.05943255126476288,-0.01329723373055458,-9.837684631347656
1.7294966053111588e+18,-0.007918708957731724,0.0008016854408197105,-9.78071117401123
1.729496605320159e+18,0.024315444752573967,-0.004482042044401169,-9.80679702758789
1.7294966053291592e+18,0.10125812888145447,0.05964067578315735,-9.699759483337402
1.7294966053381594e+18,-0.05115106701850891,-0.02121228538453579,-9.82124137878418
1.7294966053441595e+18,-0.010251927189528942,0.05381811037659645,-9.708868980407715
1.7294966053531597e+18,0.05220434069633484,-0.0026098270900547504,-9.8734769821167
1.7294966053621599e+18,-0.012776411138474941,-0.04106946289539337,-9.829535484313965
1.72949660536816e+18,0.023511940613389015,-0.025300178676843643,-9.754983901977539
1.7294966053771602e+18,-0.047356680035591125,-0.09977173805236816,-9.840811729431152
1.7294966053861604e+18,0.013002485036849976,0.07513046264648438,-9.785049438476562
1.7294966053921605e+18,0.01476085465401411,0.02203548699617386,-9.721412658691406
1.7294966054011607e+18,-0.12545478343963623,0.0009687796700745821,-9.779241561889648
1.729496605410161e+18,0.06393793225288391,0.03432777523994446,-9.757885932922363
1.729496605419161e+18,-0.01587153784930706,0.027531221508979797,-9.814939498901367
1.7294966054281613e+18,-0.010441568680107594,-0.046256765723228455,-9.906155586242676
1.7294966054341614e+18,0.02128838188946247,0.016159391030669212,-9.77683162689209
1.7294966054431616e+18,0.0441049262881279,-0.05874721333384514,-9.728728294372559
1.7294966054491617e+18,0.0010184438433498144,0.04604436829686165,-9.799043655395508
1.729496605458162e+18,0.012436089105904102,0.04185427352786064,-9.872613906860352
1.729496605467162e+18,-0.032672178000211716,-0.05005843564867973,-9.891790390014648
1.7294966054761623e+18,-0.002068697474896908,0.0736207589507103,-9.880851745605469
1.7294966054821624e+18,-0.0063931941986083984,-0.056224673986434937,-9.802689552307129
1.7294966054911626e+18,-0.0527055524289608,0.004953697323799133,-9.726004600524902
1.7294966055001628e+18,-0.012281879782676697,-0.04414494335651398,-9.841804504394531
1.729496605506163e+18,0.022824602201581,-0.012230230495333672,-9.840399742126465
1.7294966055151631e+18,0.0698491781949997,0.0016982662491500378,-9.91286849975586
1.7294966055241633e+18,0.0033469884656369686,-0.032628465443849564,-10.009543418884277
1.7294966055331635e+18,-0.03874809667468071,-0.05195554718375206,-10.022687911987305
1.7294966055391636e+18,-0.08586131781339645,-0.06649425625801086,-9.999428749084473
1.7294966055481638e+18,-0.06624505668878555,-0.03944648429751396,-9.958937644958496
1.729496605554164e+18,0.09209144860506058,-0.06539671123027802,-9.953581809997559
1.7294966055631642e+18,0.07011998444795609,0.06499835103750229,-10.03043270111084
1.7294966055721644e+18,-0.01374202873557806,0.018625950440764427,-10.02608585357666
1.7294966055781645e+18,-0.02997848391532898,0.037344761192798615,-10.081686019897461
1.7294966055871647e+18,-0.04257915914058685,-0.020939409732818604,-10.080099105834961
1.7294966055961649e+18,0.02473646216094494,0.011315131559967995,-10.023845672607422
1.729496605605165e+18,0.014731226488947868,0.020488472655415535,-10.139437675476074
1.7294966056141652e+18,0.014464099891483784,-0.0015325956046581268,-10.09399700164795
1.7294966056231654e+18,0.09074771404266357,0.031104547902941704,-10.149128913879395
1.7294966056291656e+18,0.0013115312904119492,0.055550795048475266,-10.182206153869629
1.7294966056381658e+18,0.11722320318222046,0.08094244450330734,-10.124197006225586
1.729496605644166e+18,-0.026017090305685997,-0.031481072306632996,-10.361050605773926
1.729496605653166e+18,-0.01153417956084013,-0.008379152975976467,-10.520512580871582
1.7294966056621663e+18,0.005440352484583855,-0.004031986929476261,-10.536298751831055
1.7294966056681664e+18,0.01124104019254446,0.0014682449400424957,-10.456205368041992
1.7294966056771666e+18,0.022394860163331032,-0.08281883597373962,-10.4898099899292
1.7294966056861668e+18,0.020795781165361404,-0.0053522405214607716,-10.569417953491211
1.729496605695167e+18,-0.022928722202777863,0.0011729521211236715,-10.542459487915039
1.7294966057041672e+18,0.05189076438546181,-0.0007299956632778049,-10.492412567138672
1.7294966057101673e+18,-0.02527625672519207,0.031015092507004738,-10.552051544189453
1.7294966057191675e+18,0.017142225056886673,0.06325075030326843,-10.581609725952148
1.7294966057281677e+18,0.02544449269771576,0.012867153622210026,-10.571541786193848
1.729496605737168e+18,-0.022371472790837288,-0.01027834601700306,-10.583285331726074
1.729496605746168e+18,-0.013312953524291515,-0.0921134203672409,-10.569775581359863
1.7294966057521682e+18,0.016428135335445404,-0.008897937834262848,-10.641788482666016
1.7294966057611684e+18,-0.028382770717144012,-0.04094056412577629,-10.553324699401855
1.7294966057701686e+18,0.027150752022862434,-0.05046095326542854,-10.556593894958496
1.7294966057791688e+18,-0.0027264817617833614,-0.02174365520477295,-10.593188285827637
1.729496605785169e+18,-0.08338312804698944,0.036408111453056335,-10.594447135925293
1.729496605794169e+18,-0.04487547278404236,0.03565200790762901,-10.561321258544922
1.7294966058031693e+18,0.06693695485591888,-0.021661870181560516,-10.557463645935059
1.7294966058091694e+18,0.007942533120512962,0.01228877529501915,-10.54738998413086
1.7294966058181696e+18,-0.028374837711453438,-0.030366918072104454,-10.553380012512207
1.7294966058271698e+18,0.026900764554739,-0.024786973372101784,-10.54791259765625
1.72949660583317e+18,0.028508871793746948,-0.07005894929170609,-10.620162963867188
1.72949660584217e+18,0.0030500665307044983,0.01977885514497757,-10.576118469238281
1.7294966058481702e+18,0.0829840824007988,-0.032329678535461426,-10.60816478729248
1.7294966058571704e+18,0.021252432838082314,0.029463542625308037,-10.618383407592773
1.7294966058661706e+18,-0.006946933455765247,-0.027838991954922676,-10.604804992675781
1.7294966058751708e+18,-0.11336543411016464,-0.011790892109274864,-10.523921966552734
1.729496605884171e+18,0.0372268445789814,0.005326658487319946,-10.623857498168945
1.7294966058901711e+18,0.07835830748081207,0.01853862591087818,-10.515606880187988
1.7294966058991713e+18,0.0558224618434906,0.047448527067899704,-10.550853729248047
1.7294966059051715e+18,0.05682989954948425,-0.042038191109895706,-10.522244453430176
1.7294966059141716e+18,0.062172941863536835,0.022046072408556938,-10.619339942932129
1.7294966059231718e+18,0.062438927590847015,-0.019117098301649094,-10.52247142791748
1.729496605929172e+18,0.06595505774021149,0.04761446639895439,-10.543610572814941
1.7294966059381722e+18,0.0010998642537742853,-0.06402450054883957,-10.614123344421387
1.7294966059471724e+18,-0.014345777221024036,0.007612783461809158,-10.530829429626465
1.7294966059561725e+18,0.055849723517894745,-0.00485432893037796,-10.601186752319336
1.7294966059651727e+18,-0.01322045736014843,0.0025207423605024815,-10.603350639343262
1.729496605974173e+18,0.06739814579486847,0.022374968975782394,-10.572790145874023
1.729496605983173e+18,-0.037300847470760345,-0.009921256452798843,-10.577031135559082
1.7294966059921733e+18,0.065280482172966,-0.09747331589460373,-10.561039924621582
1.7294966060011735e+18,0.0368494875729084,-0.00725950300693512,-10.554670333862305
1.7294966060071736e+18,0.022254792973399162,0.00951196439564228,-10.57304573059082
1.7294966060161738e+18,0.032450731843709946,-0.025996070355176926,-10.697962760925293
1.729496606025174e+18,0.026616033166646957,-0.029711704701185226,-10.691335678100586
1.7294966060311741e+18,0.011717907153069973,0.0400737002491951,-10.551706314086914
1.7294966060401743e+18,0.05963459610939026,0.029870521277189255,-10.693964004516602
1.7294966060491745e+18,-0.03424477577209473,0.03264299035072327,-10.55396842956543
1.7294966060581747e+18,-0.006547722965478897,0.019360728561878204,-10.565461158752441
1.7294966060641748e+18,0.00466989865526557,0.06723850965499878,-10.539697647094727
1.729496606073175e+18,0.04649386927485466,0.004273606929928064,-10.588027000427246
1.7294966060821752e+18,-0.034029871225357056,-0.04033440724015236,-10.539840698242188
1.7294966060881754e+18,-0.03682827204465866,0.016264719888567924,-10.635124206542969
1.7294966060971756e+18,0.04433386027812958,0.0435059480369091,-10.68643569946289
1.7294966061061757e+18,-0.04483446106314659,-0.02250177413225174,-10.55705738067627
1.729496606115176e+18,-0.022895528003573418,-0.06588168442249298,-10.616525650024414
1.7294966061241761e+18,-0.08888658136129379,0.0044342572800815105,-10.633827209472656
1.7294966061301763e+18,-0.08459709584712982,0.023689715191721916,-10.662690162658691
1.7294966061391764e+18,-0.007549480069428682,0.03857860714197159,-10.592126846313477
1.7294966061481766e+18,0.03166750818490982,0.02595842070877552,-10.57732105255127
1.7294966061541768e+18,0.02994661033153534,-0.07362987846136093,-10.617325782775879
1.729496606163177e+18,0.03699113428592682,0.09957301616668701,-10.636922836303711
1.7294966061721772e+18,-0.12130896002054214,0.04012015089392662,-10.605911254882812
1.7294966061781773e+18,-0.04803359881043434,-0.0016550899017602205,-10.548972129821777
1.7294966061871775e+18,0.011816046200692654,0.053844377398490906,-10.576597213745117
1.7294966061961777e+18,-0.037543024867773056,0.05292030796408653,-10.620145797729492
1.7294966062021778e+18,-0.026154769584536552,-0.048696305602788925,-10.614163398742676
1.729496606211178e+18,0.0343761071562767,-0.007838624529540539,-10.526759147644043
1.7294966062201782e+18,-0.03708517923951149,-0.00822468288242817,-10.555729866027832
1.7294966062291784e+18,0.019614016637206078,-0.02594287320971489,-10.683422088623047
1.7294966062351785e+18,0.03461791202425957,-0.07858645170927048,-10.625062942504883
1.7294966062441787e+18,-0.08025135099887848,-0.06072359159588814,-10.576058387756348
1.729496606253179e+18,-0.02917429991066456,0.03419414907693863,-10.630341529846191
1.729496606259179e+18,-0.06307412683963776,-0.026157531887292862,-10.57246208190918
1.7294966062681792e+18,0.01049044169485569,0.043498456478118896,-10.647622108459473
1.7294966062741793e+18,0.018243730068206787,0.017698945477604866,-10.606796264648438
1.7294966062831795e+18,0.06386884301900864,-0.05469660460948944,-10.610766410827637
1.7294966062921797e+18,-0.06797603517770767,-0.03896072134375572,-10.603421211242676
1.7294966062981798e+18,-0.059431713074445724,0.01258319616317749,-10.561173439025879
1.72949660630718e+18,0.0938587635755539,0.06255622953176498,-10.594328880310059
1.7294966063161802e+18,0.04354601725935936,-0.026546796783804893,-10.570181846618652
1.7294966063221804e+18,-0.030259478837251663,0.010828129015862942,-10.615954399108887
1.7294966063311805e+18,0.01671661250293255,-0.00262008816935122,-10.626989364624023
1.7294966063401807e+18,-0.03459901362657547,-0.007715319283306599,-10.690936088562012
1.7294966063461809e+18,0.01777658797800541,0.014561522752046585,-10.586416244506836
1.729496606355181e+18,-0.031870000064373016,0.019138798117637634,-10.643664360046387
1.7294966063611812e+18,0.07126303017139435,0.018382763490080833,-10.590182304382324
1.7294966063701814e+18,-0.020929960533976555,0.04332827031612396,-10.632124900817871
1.7294966063791816e+18,-0.0010285571916028857,-0.018889158964157104,-10.598150253295898
1.7294966063881818e+18,0.04755350947380066,-0.02284086123108864,-10.594773292541504
1.729496606397182e+18,0.03548477217555046,0.009622717276215553,-10.638752937316895
1.729496606403182e+18,0.017789525911211967,-0.07009854912757874,-10.676926612854004
1.7294966064121823e+18,0.02893981523811817,-0.03668970614671707,-10.598011016845703
1.7294966064211825e+18,-0.03451608121395111,-0.057070497423410416,-10.5869779586792
1.7294966064271826e+18,-0.03410768881440163,-0.02095334418118,-10.575535774230957
1.7294966064361828e+18,-0.02294810488820076,0.05711807310581207,-10.573508262634277
1.729496606442183e+18,-0.021216847002506256,0.007016262970864773,-10.632763862609863
1.729496606451183e+18,0.0054273465648293495,-0.01434487383812666,-10.571235656738281
1.7294966064601833e+18,-0.006644884590059519,0.047680579125881195,-10.644031524658203
1.7294966064661834e+18,0.00917070358991623,-0.0496138259768486,-10.656054496765137
1.7294966064751836e+18,0.005204471759498119,-0.13287138938903809,-10.640235900878906
1.7294966064841838e+18,0.005073088221251965,0.040835071355104446,-10.562568664550781
1.729496606493184e+18,-0.008602144196629524,-0.025469351559877396,-10.601191520690918
1.7294966065021842e+18,0.04323530197143555,-0.06801323592662811,-10.606624603271484
1.7294966065081843e+18,-0.02284332923591137,-0.020426742732524872,-10.625882148742676
1.7294966065171845e+18,-0.05623124912381172,0.015178904868662357,-10.64405632019043
1.7294966065261847e+18,0.10179206728935242,0.042938098311424255,-10.586020469665527
1.729496606535185e+18,0.05388651043176651,0.003142502624541521,-10.628265380859375
1.729496606541185e+18,-0.039592232555150986,0.07854174822568893,-10.606589317321777
1.7294966065501852e+18,-0.010467841289937496,0.0014299284666776657,-10.631714820861816
1.7294966065561853e+18,0.10010723024606705,0.03191183879971504,-10.640423774719238
1.7294966065651855e+18,-0.014180440455675125,0.03674798086285591,-10.510517120361328
1.7294966065711857e+18,-0.04193238168954849,0.037315525114536285,-10.550053596496582
1.7294966065801859e+18,-0.11734580993652344,0.040386199951171875,-10.530811309814453
1.729496606589186e+18,0.02216879278421402,0.09927048534154892,-10.565018653869629
1.7294966065981862e+18,0.013138296082615852,0.04716351255774498,-10.57066535949707
1.7294966066071864e+18,-0.0023383896332234144,0.043726082891225815,-10.538033485412598
1.7294966066131866e+18,-0.07324514538049698,-0.09308202564716339,-10.5588960647583
1.7294966066221868e+18,-0.07845626771450043,-0.036629047244787216,-10.590786933898926
1.729496606628187e+18,0.02362733520567417,-0.0759151354432106,-10.612360954284668
1.729496606637187e+18,0.012224366888403893,0.0009412753861397505,-10.620320320129395
1.7294966066461873e+18,0.008121184073388577,0.018331192433834076,-10.589807510375977
1.7294966066521874e+18,-0.06734898686408997,-0.012155568227171898,-10.602282524108887
1.7294966066611876e+18,0.0178309828042984,-0.014976144768297672,-10.606998443603516
1.7294966066701878e+18,-0.04274474084377289,0.027804885059595108,-10.552939414978027
1.729496606679188e+18,-0.06454621255397797,0.006562793627381325,-10.511151313781738
1.729496606685188e+18,-0.0857246145606041,0.0298165213316679,-10.574777603149414
1.7294966066941883e+18,-0.0013190183090046048,-0.011302515864372253,-10.569372177124023
1.7294966067031885e+18,-0.03520890697836876,0.06122102215886116,-10.563637733459473
1.7294966067091886e+18,-0.05136106163263321,-0.02261122688651085,-10.540042877197266
1.7294966067181888e+18,-0.09608682990074158,0.025831952691078186,-10.434367179870605
1.729496606727189e+18,-0.012425151653587818,0.031186573207378387,-10.478331565856934
1.7294966067361892e+18,0.04341643303632736,0.027821151539683342,-10.516493797302246
1.7294966067421893e+18,-0.09800121933221817,0.005327789578586817,-10.519542694091797
1.7294966067511895e+18,0.02235689014196396,-0.010609922930598259,-10.528948783874512
1.7294966067571896e+18,0.06089194864034653,0.11005990952253342,-10.660198211669922
1.7294966067661898e+18,0.08663348853588104,-0.006039997562766075,-10.517172813415527
1.72949660677519e+18,0.04193122312426567,0.008167212828993797,-10.580970764160156
1.7294966067841902e+18,0.08189023286104202,0.07451257109642029,-10.554231643676758
1.7294966067901903e+18,-0.04771441966295242,-0.02693978138267994,-10.540101051330566
1.7294966067991905e+18,0.007006247527897358,0.0031799033749848604,-10.528860092163086
1.7294966068051907e+18,-0.0528155192732811,0.0354316383600235,-10.527750015258789
1.7294966068141908e+18,0.04700705409049988,-0.0311001967638731,-10.518322944641113
1.729496606823191e+18,0.01952849142253399,0.05038641020655632,-10.567886352539062
1.7294966068321912e+18,-0.07984168082475662,-0.011317502707242966,-10.646170616149902
1.7294966068411914e+18,-0.04391223192214966,0.025377146899700165,-10.587336540222168
1.7294966068531917e+18,-0.03423333168029785,-0.057295091450214386,-10.528546333312988
1.7294966068621919e+18,-0.03357240557670593,-0.023209966719150543,-10.478845596313477
1.729496606868192e+18,-0.04101855680346489,-0.0067205289378762245,-10.482935905456543
1.7294966068771922e+18,-0.07715892791748047,-0.03642088547348976,-10.537321090698242
1.7294966068861924e+18,0.05416105315089226,0.003908197395503521,-10.556550979614258
1.7294966068951926e+18,0.019674383103847504,-0.049560051411390305,-10.527887344360352
1.7294966069041928e+18,0.03072742372751236,0.0012737102806568146,-10.51586627960205
1.729496606913193e+18,-0.05201225355267525,0.003922369331121445,-10.553884506225586
1.729496606919193e+18,0.07942148298025131,0.04467504844069481,-10.544440269470215
1.7294966069281933e+18,0.07181034982204437,-0.025950593873858452,-10.560809135437012
1.7294966069371935e+18,0.001358376583084464,-0.0534055158495903,-10.503900527954102
1.7294966069431936e+18,-0.058535054326057434,-0.011625930666923523,-10.493138313293457
1.7294966069521938e+18,0.029879147186875343,-0.07018274813890457,-10.484291076660156
1.729496606961194e+18,0.022134922444820404,0.004880079999566078,-10.454032897949219
1.729496606967194e+18,-0.0768318623304367,0.0063570411875844,-10.447531700134277
1.7294966069761943e+18,0.02622312307357788,-0.0036016637459397316,-10.3497896194458
1.7294966069851945e+18,0.019152991473674774,0.027511419728398323,-10.36939525604248
1.7294966069911946e+18,-0.00032888076384551823,0.05286244675517082,-10.272911071777344
1.7294966070001948e+18,0.010188735090196133,-0.015453677624464035,-10.282312393188477
1.729496607009195e+18,0.04967576637864113,-0.004970379173755646,-10.255938529968262
1.7294966070181952e+18,0.055688802152872086,-0.030467893928289413,-10.276324272155762
1.7294966070241953e+18,-0.035779789090156555,-0.021669112145900726,-10.209005355834961
1.7294966070331955e+18,0.03902135044336319,-0.0090453140437603,-10.195795059204102
1.7294966070421957e+18,0.08028411120176315,0.018989862874150276,-10.239289283752441
1.729496607051196e+18,0.04410743713378906,-0.10067541152238846,-10.112263679504395
1.729496607060196e+18,0.02047467604279518,-0.01647171936929226,-10.078930854797363
1.7294966070661962e+18,0.06440546363592148,0.012237380258738995,-10.08299446105957
1.7294966070751964e+18,-0.07048450410366058,-0.01798211596906185,-10.060532569885254
1.7294966070841966e+18,-0.052927885204553604,-0.006700224243104458,-10.071634292602539
1.7294966070931968e+18,0.09221837669610977,-0.004034943878650665,-9.933940887451172
1.729496607102197e+18,-0.005498994141817093,0.0035130640026181936,-9.930704116821289
1.729496607108197e+18,0.07574418932199478,0.036158155649900436,-9.944339752197266
1.7294966071171973e+18,-0.08265434950590134,-0.0161056499928236,-9.958107948303223
1.7294966071261975e+18,0.07054305821657181,0.02087141014635563,-9.803818702697754
1.7294966071351977e+18,0.05890211835503578,0.03511524572968483,-9.891962051391602
1.729496607144198e+18,-0.004065263085067272,-0.03338282182812691,-9.81230354309082
1.729496607153198e+18,0.07574149966239929,0.012389741837978363,-9.8211669921875
1.7294966071621983e+18,-0.03118719905614853,0.07730107009410858,-9.809814453125
1.7294966071711985e+18,-0.0672479197382927,0.016220884397625923,-9.695765495300293
1.7294966071801987e+18,-0.012942224740982056,0.0010026837699115276,-9.735551834106445
1.7294966071891988e+18,0.014711609110236168,-0.009118562564253807,-9.777835845947266
1.729496607198199e+18,0.02502250112593174,0.09956862777471542,-9.724723815917969
1.7294966072041992e+18,0.08050347864627838,0.023562587797641754,-9.680377960205078
1.7294966072131994e+18,-0.035069789737463,-0.10937107354402542,-9.693255424499512
1.7294966072221996e+18,-0.035128604620695114,0.03026159666478634,-9.748085975646973
1.7294966072311997e+18,-0.0631670281291008,0.02736971527338028,-9.649812698364258
1.7294966072402e+18,0.06392212957143784,0.004063752479851246,-9.719477653503418
1.7294966072492e+18,-0.005578361451625824,0.003740367479622364,-9.596776962280273
1.7294966072552003e+18,-0.02246495708823204,-0.00030819125822745264,-9.633191108703613
1.7294966072642004e+18,-0.029498310759663582,-0.03148305416107178,-9.668227195739746
1.7294966072732006e+18,-0.0049774982035160065,0.02638997696340084,-9.62266731262207
1.7294966072792008e+18,-0.05055767670273781,0.016761332750320435,-9.666468620300293
1.729496607288201e+18,-0.003973737359046936,-0.0304410420358181,-9.687500953674316
1.729496607294201e+18,-0.05642429739236832,-0.041610121726989746,-9.711528778076172
1.7294966073032013e+18,-0.013539016246795654,-0.012884550727903843,-9.686613082885742
1.7294966073122015e+18,-0.030301382765173912,0.06771497428417206,-9.675214767456055
1.7294966073182016e+18,0.051495034247636795,0.03634338825941086,-9.696636199951172
1.7294966073302019e+18,-0.025288166478276253,0.005843448452651501,-9.72909164428711
1.729496607336202e+18,-0.014787842519581318,-0.08877734839916229,-9.657397270202637
1.7294966073452022e+18,-0.002978122793138027,0.029968708753585815,-9.72771167755127
1.7294966073512023e+18,0.10122847557067871,0.09228874742984772,-9.683297157287598
1.7294966073602025e+18,-0.09889662265777588,-0.06366079300642014,-9.73989200592041
1.7294966073692027e+18,0.11825192719697952,0.0878613218665123,-9.716081619262695
1.7294966073752028e+18,0.1342497020959854,-0.02745058387517929,-9.60776138305664
1.729496607384203e+18,-0.02057214453816414,-0.050852324813604355,-9.599800109863281
1.7294966073932032e+18,0.042192790657281876,0.00939870998263359,-9.67525577545166
1.7294966074052035e+18,-0.03208793327212334,0.007612898480147123,-9.714485168457031
1.7294966074142036e+18,-0.02488856576383114,0.02713077701628208,-9.658024787902832
1.7294966074232038e+18,-0.006636892445385456,0.036346714943647385,-9.696332931518555
1.729496607432204e+18,0.042808160185813904,-0.07790619134902954,-9.636796951293945
1.7294966074382042e+18,-0.07504726946353912,-0.06514745950698853,-9.765305519104004
1.7294966074472044e+18,0.04633050039410591,-0.0028252876363694668,-9.743000984191895
1.7294966074562045e+18,0.07601988315582275,0.011375459842383862,-9.641117095947266
1.7294966074652047e+18,0.08029898256063461,-0.05482664704322815,-9.697822570800781
1.7294966074712049e+18,-0.041047144681215286,0.010096844285726547,-9.706445693969727
1.729496607480205e+18,0.012279215268790722,-0.042675603181123734,-9.72739028930664
1.7294966074892052e+18,-0.03546964004635811,0.026797788217663765,-9.672393798828125
1.7294966074982054e+18,0.010264361277222633,0.039422065019607544,-9.775372505187988
1.7294966075072056e+18,0.04732704535126686,-0.08280457556247711,-9.689406394958496
1.7294966075132058e+18,-0.03041674569249153,0.07199634611606598,-9.60643482208252
1.729496607522206e+18,0.005596245639026165,-0.02407722920179367,-9.633871078491211
1.7294966075312061e+18,-0.0363176204264164,-0.09018143266439438,-9.6906156539917
1.7294966075402063e+18,0.030188115313649178,-0.013133836910128593,-9.690812110900879
1.7294966075462065e+18,0.0022871976252645254,0.016530610620975494,-9.632570266723633
1.7294966075552067e+18,-0.030918525531888008,0.00667188735678792,-9.55688762664795
1.7294966075642068e+18,0.07113657891750336,-0.05942755565047264,-9.675724029541016
1.729496607570207e+18,0.029910946264863014,0.11559145897626877,-9.633308410644531
1.7294966075792072e+18,-0.044401686638593674,-0.03991906717419624,-9.546720504760742
1.7294966075882074e+18,0.00878696609288454,0.04517523571848869,-9.634352684020996
1.7294966075972076e+18,0.056551262736320496,-0.02138160727918148,-9.752127647399902
1.7294966076062077e+18,0.03976082429289818,0.04803638905286789,-9.578605651855469
1.729496607615208e+18,0.0195943471044302,-0.006864954251796007,-9.56326675415039
1.729496607621208e+18,-0.03240266442298889,-0.0903249979019165,-9.59860897064209
1.7294966076302083e+18,-0.02750743366777897,0.00730848778039217,-9.568445205688477
1.7294966076362084e+18,0.019498398527503014,0.020781055092811584,-9.565126419067383
1.7294966076452086e+18,-0.06100687012076378,0.011829210445284843,-9.61305046081543
1.7294966076542088e+18,0.02883441559970379,-0.03940095379948616,-9.605013847351074
1.729496607663209e+18,0.0014642575988546014,-0.048605673015117645,-9.650063514709473
1.7294966076722092e+18,0.010804535821080208,0.006388739682734013,-9.529973983764648
1.7294966076782093e+18,-0.002330219838768244,0.015896648168563843,-9.58546257019043
1.7294966076902095e+18,-0.031153712421655655,-0.04060612618923187,-9.57718563079834
1.7294966076962097e+18,-0.05739698186516762,-0.022292785346508026,-9.500415802001953
1.7294966077052099e+18,0.0030332421883940697,-0.05846155807375908,-9.573132514953613
1.72949660771121e+18,0.01223166473209858,-0.0017427178099751472,-9.66883373260498
1.7294966077202102e+18,-0.038334548473358154,0.016890615224838257,-9.545860290527344
1.7294966077292104e+18,0.023080624639987946,-0.06732263416051865,-9.596932411193848
1.7294966077382106e+18,-0.029606962576508522,0.045923929661512375,-9.534893035888672
1.7294966077442107e+18,-0.04108038172125816,0.049591850489377975,-9.602728843688965
1.729496607753211e+18,-0.006978545803576708,-0.003913999535143375,-9.628270149230957
1.729496607762211e+18,-0.06847906857728958,-0.02342737279832363,-9.525559425354004
1.7294966077712113e+18,0.0016589068109169602,-0.016481298953294754,-9.634711265563965
1.7294966077772114e+18,-0.011780384927988052,-0.017392322421073914,-9.627595901489258
1.7294966077862116e+18,-0.04957708716392517,0.0021820012480020523,-9.538957595825195
1.7294966077952118e+18,0.021052053198218346,-0.006801359821110964,-9.602188110351562
1.729496607804212e+18,0.03016415238380432,-0.01391106378287077,-9.616350173950195
1.729496607810212e+18,-0.05275104194879532,-0.06152619794011116,-9.578468322753906
1.7294966078192123e+18,0.020609382539987564,0.07565902173519135,-9.628331184387207
1.7294966078282125e+18,0.005976046435534954,0.035133957862854004,-9.551985740661621
1.7294966078372127e+18,0.04579407721757889,-0.005868731532245874,-9.585898399353027
1.7294966078462129e+18,0.036515913903713226,0.06854518502950668,-9.574623107910156
1.729496607855213e+18,0.0021660246420651674,-0.07254505157470703,-9.571677207946777
1.7294966078642132e+18,0.013404471799731255,-0.00683586485683918,-9.621941566467285
1.7294966078702134e+18,-0.1037956103682518,-0.07264535874128342,-9.513723373413086
1.7294966078792136e+18,0.009285502135753632,-0.042309194803237915,-9.560683250427246
1.7294966078882138e+18,0.05262495204806328,0.00011050447938032448,-9.562061309814453
1.729496607897214e+18,-0.06060749664902687,-0.03331213444471359,-9.551819801330566
1.7294966079062141e+18,-0.050551727414131165,0.02103855460882187,-9.562352180480957
1.7294966079122143e+18,0.06248936802148819,-0.00613747863098979,-9.522854804992676
1.7294966079212145e+18,0.024429716169834137,0.046024419367313385,-9.482316017150879
1.7294966079302147e+18,-0.019173093140125275,-0.004197823815047741,-9.596124649047852
1.7294966079392148e+18,0.025753604248166084,0.002361423335969448,-9.553717613220215
1.729496607948215e+18,0.02840236946940422,-0.004910803399980068,-9.50712776184082
1.7294966079572152e+18,0.009843545034527779,-0.01441825833171606,-9.647006034851074
1.7294966079632154e+18,-0.009344798512756824,0.007631892338395119,-9.546645164489746
1.7294966079722156e+18,0.0340445339679718,0.010273197665810585,-9.530363082885742
1.7294966079812157e+18,-0.08225060254335403,-0.03198850527405739,-9.501944541931152
1.729496607990216e+18,-0.06394796818494797,-0.011458683758974075,-9.587204933166504
1.729496607999216e+18,-0.005956490524113178,0.01971501111984253,-9.526851654052734
1.7294966080052163e+18,0.004894076380878687,0.03825550898909569,-9.552179336547852
1.7294966080142164e+18,0.023581646382808685,-0.0023071477189660072,-9.55102252960205
1.7294966080232166e+18,-0.014840016141533852,0.060195211321115494,-9.500816345214844
1.7294966080292168e+18,-0.043918315321207047,0.007155659608542919,-9.480648040771484
1.729496608038217e+18,0.020189281553030014,0.02332494407892227,-9.489622116088867
1.7294966080502172e+18,-0.051316194236278534,0.01769615150988102,-9.4652099609375
1.7294966080562173e+18,-0.04209675267338753,-0.033057067543268204,-9.491667747497559
1.7294966080652175e+18,0.09731239825487137,0.011236051097512245,-9.514399528503418
1.7294966080712177e+18,0.031169624999165535,-0.057692814618349075,-9.561716079711914
1.7294966080802179e+18,-0.04773668572306633,0.006444834638386965,-9.505245208740234
1.729496608089218e+18,0.07793861627578735,-0.008531116880476475,-9.570162773132324
1.7294966080952182e+18,0.0593777671456337,0.04112760350108147,-9.613510131835938
1.7294966081042184e+18,0.010476361028850079,-0.025754433125257492,-9.556995391845703
1.7294966081132186e+18,0.020080456510186195,-0.05394618213176727,-9.547210693359375
1.7294966081222188e+18,0.01198558323085308,0.03472520783543587,-9.464051246643066
1.729496608131219e+18,0.009097917936742306,-0.011225860565900803,-9.455665588378906
1.7294966081402191e+18,0.06417202949523926,-0.02148699387907982,-9.464937210083008
1.7294966081492193e+18,0.017172161489725113,-0.025236135348677635,-9.460198402404785
1.7294966081582195e+18,-0.04851840063929558,-0.007239805534482002,-9.445425033569336
1.7294966081672197e+18,0.0592242032289505,-0.02270352654159069,-9.491860389709473
1.72949660817922e+18,0.0021560003515332937,-0.06189239025115967,-9.461226463317871
1.7294966081882202e+18,0.0072662606835365295,0.00847608596086502,-9.454745292663574
1.7294966081972204e+18,0.049705538898706436,0.015929825603961945,-9.452003479003906
1.7294966082062205e+18,0.023796889930963516,-0.01630009151995182,-9.46366024017334
1.7294966082152207e+18,-0.022658348083496094,-0.06077218055725098,-9.482809066772461
1.729496608224221e+18,-0.016391627490520477,-0.026911359280347824,-9.494332313537598
1.729496608230221e+18,-0.04151563718914986,-0.03786749765276909,-9.456581115722656
1.7294966082392212e+18,-0.021823592483997345,0.006485023070126772,-9.59441089630127
1.7294966082482214e+18,0.01639082282781601,0.059629637748003006,-9.51382064819336
1.7294966082542216e+18,-0.0393269844353199,0.02587607316672802,-9.446639060974121
1.7294966082632218e+18,-0.024909963831305504,0.023577401414513588,-9.456127166748047
1.729496608272222e+18,-0.06471289694309235,0.04927170276641846,-9.438508033752441
1.729496608278222e+18,-0.04931829497218132,0.02358500473201275,-9.471528053283691
1.7294966082872223e+18,-0.020114244893193245,-0.02582845278084278,-9.508027076721191
1.7294966082962225e+18,-0.019598834216594696,0.014635369181632996,-9.421907424926758
1.7294966083052227e+18,-0.029272029176354408,0.056378234177827835,-9.516106605529785
1.7294966083112228e+18,0.07527827471494675,0.06082399562001228,-9.555349349975586
1.729496608320223e+18,-0.051651932299137115,0.06759489327669144,-9.46969223022461
1.7294966083292232e+18,0.011632665060460567,-0.08264872431755066,-9.52458381652832
1.7294966083382234e+18,-0.07064409554004669,0.06678611040115356,-9.472884178161621
1.7294966083472236e+18,-0.01206351350992918,-0.07263035327196121,-9.413796424865723
1.7294966083532237e+18,-0.020949997007846832,-0.03909675031900406,-9.493590354919434
1.7294966083622239e+18,-0.060924168676137924,-0.0329887792468071,-9.482233047485352
1.729496608371224e+18,0.060377851128578186,-0.01998039335012436,-9.553874969482422
1.7294966083802243e+18,-0.027386829257011414,0.010520117357373238,-9.45246696472168
1.7294966083892244e+18,-0.012473614886403084,0.010421890765428543,-9.381694793701172
1.7294966083982246e+18,-0.029284000396728516,0.016015708446502686,-9.453362464904785
1.7294966084072248e+18,-0.039195675402879715,-0.053909409791231155,-9.378199577331543
1.729496608416225e+18,0.03469227999448776,-0.029519792646169662,-9.448166847229004
1.7294966084252252e+18,0.008870541118085384,-0.10299265384674072,-9.40073299407959
1.7294966084342254e+18,0.03396425023674965,0.013090994209051132,-9.419763565063477
1.7294966084432256e+18,-0.03738783672451973,-0.09142111986875534,-9.448624610900879
1.7294966084522258e+18,-0.0027653416618704796,0.04443703591823578,-9.435800552368164
1.729496608461226e+18,-0.04886274039745331,0.03918343782424927,-9.350748062133789
1.7294966084702262e+18,-0.021638261154294014,0.01607659086585045,-9.43440055847168
1.7294966084762263e+18,0.03223288804292679,-0.04747657850384712,-9.374783515930176
1.7294966084852265e+18,0.03159715607762337,-0.003334235632792115,-9.446212768554688
1.7294966084942267e+18,-0.04777664691209793,0.05929840728640556,-9.441497802734375
1.729496608503227e+18,-0.02786853536963463,0.011765343137085438,-9.393746376037598
1.729496608512227e+18,-0.04615454003214836,-0.04990694299340248,-9.396215438842773
1.7294966085212273e+18,-0.013860771432518959,0.06204245239496231,-9.395750999450684
1.7294966085302275e+18,0.0012025320902466774,-0.004514510743319988,-9.482666969299316
1.7294966085392276e+18,-0.0033610665705055,0.006697650533169508,-9.427638053894043
1.7294966085482278e+18,0.04392274096608162,-0.0031835464760661125,-9.442473411560059
1.729496608557228e+18,0.01835697516798973,-0.06150581315159798,-9.414440155029297
1.7294966085632282e+18,0.026694405823946,0.039596859365701675,-9.499855041503906
1.7294966085752284e+18,-0.02300093322992325,0.0034694536589086056,-9.398642539978027
1.7294966085842286e+18,0.0006091857794672251,-0.08555184304714203,-9.438663482666016
1.7294966085902287e+18,-0.04952290654182434,-0.03948076069355011,-9.444934844970703
1.729496608602229e+18,0.07260293513536453,-0.004773190710693598,-9.427398681640625
1.7294966086112292e+18,-0.044500723481178284,-0.05964082106947899,-9.390357971191406
1.7294966086202294e+18,0.10590356588363647,-0.03357173129916191,-9.48594856262207
1.7294966086292296e+18,-0.007804828230291605,0.011293663643300533,-9.418047904968262
1.7294966086382298e+18,-0.0007250438211485744,-0.03548235818743706,-9.399714469909668
1.72949660864723e+18,-0.017557645216584206,-0.06174066662788391,-9.38529109954834
1.7294966086562301e+18,0.03181840851902962,-0.011920634657144547,-9.414753913879395
1.7294966086622303e+18,-0.0025997899938374758,-0.001133827492594719,-9.436566352844238
1.7294966086712305e+18,0.022425362840294838,-0.03987663984298706,-9.350441932678223
1.7294966086802307e+18,-0.015792569145560265,0.07797884941101074,-9.375229835510254
1.7294966086892308e+18,0.03577165678143501,0.03976840898394585,-9.302206993103027
1.729496608698231e+18,0.053998224437236786,-0.07524104416370392,-9.324714660644531
1.7294966087072312e+18,-0.00180229009129107,0.06904784590005875,-9.291243553161621
1.7294966087162314e+18,-0.0013164710253477097,-0.009119109250605106,-9.228123664855957
1.7294966087252316e+18,0.03395647183060646,-0.029418429359793663,-9.255507469177246
1.7294966087342318e+18,0.0722489133477211,-0.03995944932103157,-9.149798393249512
1.729496608743232e+18,-0.0799405500292778,-0.051456112414598465,-9.144586563110352
1.729496608749232e+18,-0.06372829526662827,0.09776312857866287,-9.134332656860352
1.7294966087582323e+18,0.0175614170730114,-0.029693281278014183,-9.135428428649902
1.7294966087642324e+18,0.009440379217267036,-0.02591424062848091,-9.173967361450195
1.7294966087732326e+18,0.037942200899124146,-0.00018627131066750735,-9.080582618713379
1.7294966087822328e+18,0.02961215376853943,-0.05111870542168617,-9.048247337341309
1.729496608791233e+18,-0.004223955795168877,-0.011751475743949413,-8.949811935424805
1.7294966088002332e+18,-0.10609995573759079,0.0469791479408741,-8.93078899383545
1.7294966088062333e+18,-0.05925694480538368,0.019275087863206863,-8.906261444091797
1.7294966088152335e+18,0.006643707398325205,0.027873774990439415,-8.99825382232666
1.7294966088242337e+18,-0.058303605765104294,-0.029546400532126427,-8.85953426361084
1.7294966088302339e+18,-0.053019408136606216,0.01989026553928852,-8.873682022094727
1.729496608839234e+18,-0.05405053496360779,-0.03442166745662689,-8.83426570892334
1.7294966088482342e+18,-0.0494089238345623,0.0065500373020768166,-8.839354515075684
1.7294966088542344e+18,0.008162620477378368,0.04366588592529297,-8.806411743164062
1.7294966088632346e+18,-0.017902128398418427,0.01725655421614647,-8.687664031982422
1.7294966088722348e+18,-0.03205680847167969,-0.041155826300382614,-8.728486061096191
1.729496608881235e+18,-0.00039971695514395833,-0.013037987053394318,-8.686422348022461
1.7294966088902351e+18,-0.062336213886737823,-0.06489774584770203,-8.675561904907227
1.7294966088992353e+18,0.04139000177383423,-0.03036325052380562,-8.680073738098145
1.7294966089082355e+18,0.014296498149633408,-0.02519109845161438,-8.6264009475708
1.7294966089172357e+18,0.019949184730648994,-0.06695383787155151,-8.68602466583252
1.729496608926236e+18,0.014711946249008179,-0.008774478919804096,-8.629782676696777
1.729496608935236e+18,0.005451359786093235,0.003759064245969057,-8.668591499328613
1.7294966089442363e+18,0.04086447134613991,-0.008628378622233868,-8.657936096191406
1.7294966089532365e+18,-0.025737214833498,0.09482581913471222,-8.678332328796387
1.7294966089622367e+18,-0.025443190708756447,0.056872446089982986,-8.71306324005127
1.729496608974237e+18,0.07230662554502487,0.10079031437635422,-8.672110557556152
1.729496608983237e+18,-0.03771853446960449,0.025226233527064323,-8.73359203338623
1.7294966089892372e+18,0.0767788216471672,0.02064882591366768,-8.787104606628418
1.7294966089982374e+18,0.07137896120548248,0.01495420467108488,-8.714414596557617
1.7294966090072376e+18,0.013050390407443047,0.017806412652134895,-8.774094581604004
1.7294966090162378e+18,-0.042294278740882874,0.041721735149621964,-14.009509086608887
1.729496609022238e+18,0.04790133610367775,0.061489153653383255,-15.544698715209961
1.7294966090312381e+18,-0.08654454350471497,-0.042164914309978485,-16.106752395629883
1.7294966090372383e+18,-0.09071062505245209,-0.036771904677152634,-16.266002655029297
1.7294966090462385e+18,-0.05463059991598129,-0.04065408185124397,-16.29395866394043
1.7294966090552387e+18,-0.03863668441772461,-0.021663624793291092,-16.09246063232422
1.7294966090612388e+18,0.07372862845659256,-0.12335273623466492,-16.1592960357666
1.729496609070239e+18,0.015660813078284264,0.08923357725143433,-15.996748924255371
1.7294966090792392e+18,0.026841094717383385,0.06777738779783249,-15.844290733337402
1.7294966090882394e+18,0.024282613769173622,-0.023193443194031715,-15.75525951385498
1.7294966090972396e+18,0.015218210406601429,0.02276970073580742,-15.615389823913574
1.7294966091032397e+18,0.03374236077070236,-0.01205511949956417,-15.581965446472168
1.7294966091122399e+18,0.024243932217359543,0.053352806717157364,-15.388785362243652
1.72949660912124e+18,-0.006922668777406216,0.021222461014986038,-15.221518516540527
1.7294966091302403e+18,-0.01868000254034996,0.030662188306450844,-15.04002571105957
1.7294966091362404e+18,-0.010592345148324966,0.015194613486528397,-15.066617012023926
1.7294966091452406e+18,0.05091462656855583,0.09072837978601456,-14.906115531921387
1.7294966091512407e+18,-0.05030087009072304,0.0314389131963253,-14.84406566619873
1.729496609160241e+18,-0.036440905183553696,-0.04286319389939308,-14.713863372802734
1.729496609169241e+18,0.0013058315962553024,0.014718294143676758,-14.65753173828125
1.7294966091782413e+18,0.007427585776895285,0.01987881027162075,-14.50976848602295
1.7294966091872415e+18,-0.06929155439138412,0.019263749942183495,-14.294961929321289
1.7294966091962417e+18,-0.0051040141843259335,0.017451979219913483,-14.348584175109863
1.7294966092022418e+18,0.0465981587767601,0.03742298111319542,-14.090520858764648
1.729496609211242e+18,0.023347120732069016,-0.0483209490776062,-13.970415115356445
1.7294966092202422e+18,-0.05890047177672386,0.002329727867618203,-13.957263946533203
1.7294966092262423e+18,0.02281370386481285,0.010559153743088245,-13.89855670928955
1.7294966092352425e+18,-0.05812375247478485,0.026486840099096298,-13.774774551391602
1.7294966092442427e+18,-0.027381060644984245,-0.03488583490252495,-13.703526496887207
1.7294966092502428e+18,-0.013270954601466656,-0.00970684178173542,-13.679705619812012
1.729496609259243e+18,-0.008973488584160805,0.06437136232852936,-13.509204864501953
1.7294966092682432e+18,0.03357727825641632,0.0773686096072197,-13.523970603942871
1.7294966092772434e+18,-0.030951950699090958,-0.11168387532234192,-13.349313735961914
1.7294966092832435e+18,-0.04100029170513153,0.004500630311667919,-13.264564514160156
1.7294966092922437e+18,0.03785216063261032,0.030776405707001686,-13.19919204711914
1.729496609301244e+18,-0.08163285255432129,0.024012740701436996,-13.161678314208984
1.729496609310244e+18,0.020932355895638466,0.0059938631020486355,-13.137344360351562
1.7294966093162442e+18,-0.08821804076433182,-0.08043654263019562,-13.07807731628418
1.7294966093252444e+18,0.06798456609249115,0.018602000549435616,-12.929462432861328
1.7294966093342446e+18,-0.052592966705560684,-0.040692321956157684,-12.858902931213379
1.7294966093432448e+18,-0.017584407702088356,-0.03110618144273758,-12.797479629516602
1.729496609349245e+18,-0.011118062771856785,0.06744035333395004,-12.748529434204102
1.729496609358245e+18,-0.06289772689342499,-0.0338079072535038,-12.756218910217285
1.7294966093672453e+18,-0.0018849237821996212,-0.04892896115779877,-12.674799919128418
1.7294966093762455e+18,0.043169472366571426,0.00047279614955186844,-12.591279983520508
1.7294966093822456e+18,0.01648365519940853,-0.045506399124860764,-12.488070487976074
1.7294966093912458e+18,0.023525655269622803,-0.028932174667716026,-12.485671997070312
1.729496609400246e+18,-0.05125980079174042,-0.05223449692130089,-12.360818862915039
1.7294966094092462e+18,-0.03893889859318733,0.013880199752748013,-12.327225685119629
1.7294966094182464e+18,0.0395621582865715,-0.03746841475367546,-12.305058479309082
1.7294966094242465e+18,-0.005235428921878338,0.04247152805328369,-12.146108627319336
1.7294966094332467e+18,-0.016130046918988228,0.03552607074379921,-12.290179252624512
1.729496609442247e+18,-0.12814068794250488,-0.032478734850883484,-12.194186210632324
1.729496609451247e+18,-0.05681399255990982,0.037141963839530945,-12.177803993225098
1.7294966094602473e+18,0.013309331610798836,0.020958594977855682,-12.108074188232422
1.7294966094662474e+18,-0.03816695138812065,-0.002762017073109746,-12.010110855102539
1.7294966094752476e+18,0.08277862519025803,-0.1045658066868782,-12.034403800964355
1.7294966094842478e+18,-0.05882066488265991,-0.07737734168767929,-11.955833435058594
1.729496609493248e+18,-0.0331324003636837,0.03122023493051529,-11.861541748046875
1.7294966095022482e+18,0.030118005350232124,0.0057962131686508656,-11.806574821472168
1.7294966095112484e+18,-0.03054078109562397,0.011720916256308556,-11.732010841369629
1.7294966095202486e+18,-0.04897086322307587,-0.035118695348501205,-11.69684886932373
1.7294966095292488e+18,-0.003424496855586767,-0.011502181179821491,-11.694661140441895
1.729496609538249e+18,0.00957034807652235,0.026679852977395058,-11.571903228759766
1.7294966095472492e+18,0.008380506187677383,0.003613279201090336,-11.67724609375
1.7294966095562493e+18,-0.016708988696336746,-0.015062108635902405,-11.540971755981445
1.7294966095652495e+18,-0.04575470834970474,-0.0333092026412487,-11.563581466674805
1.7294966095742497e+18,-0.07019025832414627,-0.0764525830745697,-11.45037841796875
1.72949660958325e+18,-0.05293327942490578,-0.024377863854169846,-11.446928024291992
1.72949660959225e+18,0.007831036113202572,-0.00806891918182373,-11.499380111694336
1.7294966096012503e+18,-0.015661001205444336,-0.0240147914737463,-11.470879554748535
1.7294966096102505e+18,-0.02705324999988079,-0.03605138882994652,-11.36423397064209
1.7294966096192507e+18,-0.05265478044748306,-0.02907242439687252,-11.360074996948242
1.729496609628251e+18,0.02577611431479454,0.013974378816783428,-11.28235912322998
1.729496609637251e+18,-0.004708544816821814,-0.05975949391722679,-11.250195503234863
1.7294966096462513e+18,0.08077146112918854,0.011280261911451817,-11.309590339660645
1.7294966096522514e+18,-0.05091080442070961,0.027417533099651337,-11.1557035446167
1.7294966096642516e+18,-0.015126504935324192,0.006794172804802656,-11.213700294494629
1.7294966096732518e+18,0.06787914037704468,-0.02328772470355034,-11.153077125549316
1.729496609679252e+18,-0.02859535813331604,-0.014830578118562698,-11.179697036743164
1.7294966096882522e+18,-0.08041547983884811,-0.005217103287577629,-11.134918212890625
1.7294966096972524e+18,0.10285735130310059,0.009919552132487297,-11.065102577209473
1.7294966097062525e+18,-0.013093647547066212,-0.010767513886094093,-11.006354331970215
1.7294966097152527e+18,0.054850898683071136,0.01674667000770569,-11.061898231506348
1.729496609724253e+18,-0.06719265133142471,0.07083435356616974,-10.938714027404785
1.729496609733253e+18,0.006174633279442787,0.04076677933335304,-10.956053733825684
1.7294966097422533e+18,-0.059720635414123535,-0.03519915044307709,-10.921113014221191
1.7294966097482534e+18,-0.0002557989791966975,0.09828183799982071,-10.844765663146973
1.7294966097572536e+18,-0.032431356608867645,0.041027575731277466,-10.937793731689453
1.7294966097662538e+18,0.012876785360276699,0.030543066561222076,-10.893691062927246
1.729496609775254e+18,-0.021950507536530495,-0.032376620918512344,-10.909403800964355
1.7294966097842542e+18,-0.012503334321081638,0.04815569147467613,-10.845595359802246
1.7294966097902543e+18,-0.09291534870862961,0.013354177586734295,-10.812167167663574
1.7294966098022546e+18,-0.05260125547647476,0.05678905174136162,-10.780428886413574
1.7294966098112548e+18,-0.021036071702837944,0.029403312131762505,-10.787638664245605
1.729496609817255e+18,0.01241620909422636,-0.03288004547357559,-10.729511260986328
1.7294966098292552e+18,-0.06597139686346054,-0.06840662658214569,-10.717616081237793
1.7294966098352553e+18,0.053027015179395676,0.046904172748327255,-10.687337875366211
1.7294966098442555e+18,-0.031475652009248734,0.06761249154806137,-10.670575141906738
1.7294966098532557e+18,-0.07754819840192795,-0.003755563171580434,-10.660322189331055
1.7294966098592558e+18,0.008317647501826286,0.03670421615242958,-10.601003646850586
1.729496609868256e+18,-0.022468622773885727,0.012788059189915657,-10.64822769165039
1.7294966098802563e+18,0.047361791133880615,-0.04112796112895012,-10.572439193725586
1.7294966098862564e+18,-0.0768854171037674,-0.003092061262577772,-10.66077709197998
1.7294966098952566e+18,-0.03344733268022537,0.026455702260136604,-10.614124298095703
1.7294966099042568e+18,-0.053328100591897964,0.028881501406431198,-10.552289962768555
1.729496609913257e+18,0.06686872988939285,0.09556639939546585,-10.542121887207031
1.7294966099222572e+18,-0.08115784823894501,-0.07426225394010544,-10.55135440826416
1.7294966099312573e+18,0.03745482861995697,-0.03364196792244911,-10.535354614257812
1.7294966099402575e+18,0.045053526759147644,-0.05738852918148041,-10.492871284484863
1.7294966099492577e+18,0.07675156742334366,0.06287634372711182,-10.457411766052246
1.7294966099552579e+18,0.08629121631383896,0.07160589843988419,-10.513227462768555
1.729496609964258e+18,0.012396609410643578,0.057751089334487915,-10.409317970275879
1.7294966099732582e+18,0.026318898424506187,0.058553002774715424,-10.483906745910645
1.7294966099822584e+18,0.008929657749831676,-0.03655340149998665,-10.417261123657227
1.7294966099882586e+18,-0.007722428999841213,-0.01563657447695732,-10.445225715637207
1.7294966099972588e+18,0.04066918417811394,-0.03819124400615692,-10.423864364624023
1.729496610006259e+18,0.0009783387649804354,-0.0035920075606554747,-10.308151245117188
1.7294966100152591e+18,-0.009722305461764336,0.011117277666926384,-10.393021583557129
1.7294966100212593e+18,0.08371002227067947,0.02426280826330185,-10.488740921020508
1.7294966100302595e+18,0.04158271104097366,-0.005558094009757042,-10.322083473205566
1.7294966100362596e+18,-0.04872271046042442,-0.0057443054392933846,-10.396178245544434
1.7294966100452598e+18,0.008054517209529877,-0.05494513362646103,-10.304327011108398
1.72949661005426e+18,-0.043963998556137085,-0.02773183025419712,-10.270774841308594
1.7294966100632602e+18,0.006363776512444019,0.0016519911587238312,-10.323612213134766
1.7294966100692603e+18,-0.015006983652710915,0.01563967578113079,-10.312828063964844
1.7294966100782605e+18,0.0836787298321724,0.08678437024354935,-10.256213188171387
1.7294966100872607e+18,0.006701216567307711,0.047074172645807266,-10.3192720413208
1.7294966100962609e+18,-0.011700902134180069,-0.004532576538622379,-10.22732925415039
1.729496610105261e+18,-0.005957528483122587,-0.047791849821805954,-10.217438697814941
1.7294966101112612e+18,0.07172274589538574,-0.017242223024368286,-10.182145118713379
1.7294966101202614e+18,0.029435979202389717,0.0158026572316885,-10.17827033996582
1.7294966101292616e+18,0.05507995933294296,0.0021298835054039955,-10.177460670471191
1.7294966101382618e+18,0.046412449330091476,-0.03633224219083786,-10.202958106994629
1.729496610147262e+18,0.028158051893115044,-0.028431430459022522,-10.18136978149414
1.729496610153262e+18,-0.02109546773135662,0.016824839636683464,-10.110125541687012
1.7294966101622623e+18,0.024757102131843567,-0.006279631983488798,-10.139961242675781
1.7294966101712625e+18,-0.00983619224280119,-0.00112124381121248,-10.193339347839355
1.7294966101802627e+18,0.0328395739197731,0.04708416014909744,-10.177043914794922
1.7294966101892628e+18,-0.00044765358325093985,2.9462928068824112e-05,-10.112264633178711
1.729496610195263e+18,0.040815193206071854,-0.05102973058819771,-10.117409706115723
1.7294966102042632e+18,0.0025668840389698744,-0.06417188048362732,-10.130590438842773
1.7294966102132634e+18,-0.047776058316230774,-0.024904079735279083,-10.098706245422363
1.7294966102222636e+18,0.0006692861206829548,-0.024123862385749817,-10.042189598083496
1.7294966102282637e+18,0.053988829255104065,0.011801437474787235,-10.157035827636719
1.729496610237264e+18,-0.05030165612697601,0.009933468885719776,-10.093230247497559
1.729496610246264e+18,-0.023742903023958206,-0.0029384049121290445,-10.123645782470703
1.7294966102522642e+18,-0.00022763069136999547,0.017703713849186897,-10.101273536682129
1.7294966102642644e+18,-0.033174436539411545,-0.052304185926914215,-10.051329612731934
1.7294966102702646e+18,0.0014177265111356974,-0.027105532586574554,-9.953203201293945
1.7294966102792648e+18,-0.0017117774114012718,-0.07313371449708939,-9.967449188232422
1.729496610288265e+18,0.04221805930137634,-0.0806831568479538,-10.047839164733887
1.7294966102972652e+18,0.035640470683574677,0.013626942411065102,-10.036657333374023
1.7294966103062653e+18,-0.03808252885937691,0.019892122596502304,-10.09559440612793
1.7294966103122655e+18,-0.09097292274236679,-0.06091028451919556,-10.057018280029297
1.7294966103212657e+18,-0.04683932289481163,-0.04215051606297493,-10.030045509338379
1.7294966103302659e+18,0.016468744724988937,-0.004849839024245739,-9.954438209533691
1.729496610336266e+18,0.054582033306360245,0.048280537128448486,-10.030559539794922
1.7294966103452662e+18,0.018492046743631363,-0.0520767867565155,-10.029675483703613
1.7294966103542664e+18,-0.053629349917173386,0.09327507019042969,-9.979835510253906
1.7294966103632666e+18,0.036231931298971176,-0.031921762973070145,-9.99066162109375
1.7294966103692667e+18,-0.02064831368625164,-0.03874477371573448,-9.973660469055176
1.729496610378267e+18,-0.05750884488224983,0.005713711492717266,-9.972257614135742
1.729496610387267e+18,-0.01700493134558201,0.04917953535914421,-9.978516578674316
1.7294966103962673e+18,0.020233064889907837,-0.03900069743394852,-9.9569673538208
1.7294966104022674e+18,0.047863125801086426,0.06245160847902298,-9.908573150634766
1.7294966104112676e+18,0.04409005865454674,0.05931296572089195,-9.94532299041748
1.7294966104202678e+18,-0.025101035833358765,0.06181233748793602,-9.989288330078125
1.729496610426268e+18,0.01579933613538742,0.02303892746567726,-9.936698913574219
1.729496610435268e+18,-0.035358089953660965,0.02203250862658024,-9.92054271697998
1.7294966104412682e+18,0.02783879265189171,0.03776993975043297,-9.860836029052734
1.7294966104502684e+18,-0.007638249546289444,-0.02003595605492592,-10.001765251159668
1.7294966104592686e+18,0.024299291893839836,0.01620795764029026,-9.89925479888916
1.7294966104682688e+18,0.005736124236136675,-0.030014323070645332,-9.852392196655273
1.729496610477269e+18,0.02034906856715679,-0.010119539685547352,-9.939894676208496
1.7294966104862692e+18,0.015015663579106331,0.03294139355421066,-9.985995292663574
1.7294966104922693e+18,0.03403729200363159,-0.022037554532289505,-9.908814430236816
1.7294966105012695e+18,-0.08946238458156586,-0.03993428125977516,-9.909284591674805
1.7294966105102697e+18,-0.04259346425533295,-0.08651212602853775,-9.944636344909668
1.7294966105162698e+18,-0.04742890223860741,-0.036228928714990616,-9.88093090057373
1.72949661052527e+18,-0.008513001725077629,0.09902588278055191,-9.86722469329834
1.7294966105342702e+18,0.019919300451874733,-0.04354335367679596,-9.8507719039917
1.7294966105432704e+18,-0.007534717209637165,-0.008959824219346046,-9.893081665039062
1.7294966105492705e+18,0.04357289522886276,-0.030650591477751732,-9.917769432067871
1.7294966105582707e+18,-0.033987510949373245,0.03534828498959541,-9.83558177947998
1.729496610567271e+18,-0.04664402827620506,-0.008979784324765205,-9.827556610107422
1.729496610576271e+18,-0.013561733067035675,-0.050641611218452454,-9.855000495910645
1.7294966105852713e+18,0.0038838812615722418,-0.010700907558202744,-9.834894180297852
1.7294966105942715e+18,-0.04965997859835625,-0.0022233552299439907,-9.805204391479492
1.7294966106032717e+18,-0.092441126704216,0.028286786749958992,-9.852209091186523
1.7294966106122719e+18,0.01995798759162426,0.03729153424501419,-9.81091022491455
1.729496610621272e+18,0.026595821604132652,-0.027759281918406487,-9.85885238647461
1.7294966106302723e+18,0.0202958844602108,-0.06826326996088028,-9.8605318069458
1.7294966106392724e+18,0.007822619751095772,-0.012131267227232456,-9.886067390441895
1.7294966106482726e+18,-0.0036612963303923607,0.005924955941736698,-9.790250778198242
1.7294966106572728e+18,-0.05639609694480896,0.03929930180311203,-9.765315055847168
1.729496610663273e+18,-0.016100388020277023,-0.004539881832897663,-9.759559631347656
1.7294966106722732e+18,0.016199054196476936,0.006711193360388279,-9.825037002563477
1.7294966106812733e+18,0.012241959571838379,-0.003344468306750059,-9.898506164550781
1.7294966106902735e+18,0.06416445970535278,0.043675705790519714,-9.791972160339355
1.7294966106992737e+18,-0.014153633266687393,0.046930231153964996,-9.84042739868164
1.729496610708274e+18,-0.03347478434443474,-0.013105643913149834,-9.725226402282715
1.729496610717274e+18,0.0469813235104084,-0.12473169714212418,-9.772007942199707
1.7294966107232742e+18,0.06078740954399109,-0.030041715130209923,-9.741272926330566
1.7294966107322744e+18,0.04892381653189659,-0.002422093413770199,-9.813896179199219
1.7294966107412746e+18,-0.03430973365902901,-0.037463996559381485,-9.763398170471191
1.7294966107472748e+18,-0.050919946283102036,-0.029712175950407982,-9.691324234008789
1.729496610756275e+18,-0.08351192623376846,-0.03203195333480835,-9.78222370147705
1.7294966107652751e+18,0.07417507469654083,-0.04859444126486778,-9.77048397064209
1.7294966107742753e+18,-0.0188034288585186,0.02829892188310623,-9.80532169342041
1.7294966107832755e+18,-0.018730947747826576,-0.05521899089217186,-9.758238792419434
1.7294966107892756e+18,-0.04139064624905586,0.02555149421095848,-9.779607772827148
1.7294966107982758e+18,0.016303900629281998,0.029894666746258736,-9.794035911560059
1.729496610807276e+18,-0.013725390657782555,-0.023397672921419144,-9.823065757751465
1.7294966108162762e+18,0.10862313956022263,0.11096237599849701,-9.655145645141602
1.7294966108252764e+18,-0.005956550594419241,-0.005119080189615488,-9.893192291259766
1.7294966108312765e+18,-0.0743328332901001,-0.006597802508622408,-9.844273567199707
1.7294966108402767e+18,0.08957745134830475,-0.036614932119846344,-9.797510147094727
1.729496610849277e+18,-0.008359963074326515,-0.0005235031712800264,-9.735815048217773
1.729496610855277e+18,-0.021462930366396904,-0.07467887550592422,-9.708064079284668
1.7294966108642772e+18,-0.008001781068742275,0.011045492254197598,-9.756793022155762
1.7294966108732774e+18,0.05213486775755882,0.03900277987122536,-9.68580436706543
1.7294966108792776e+18,0.029021890833973885,0.10302489250898361,-9.792231559753418
1.7294966108882778e+18,-0.040663499385118484,-0.0022531591821461916,-9.827362060546875
1.729496610897278e+18,-0.038333769887685776,-0.034557729959487915,-9.76379108428955
1.7294966109062781e+18,-0.004249140620231628,-0.0043699415400624275,-9.770995140075684
1.7294966109152783e+18,0.039237502962350845,0.027983713895082474,-9.80945873260498
1.7294966109242785e+18,-0.007679262664169073,0.024336503818631172,-9.776165008544922
1.7294966109332787e+18,-0.002814549719914794,-0.0067563895136117935,-9.814391136169434
1.7294966109392788e+18,-0.03345385193824768,0.03785084933042526,-9.772439002990723
1.729496610948279e+18,-0.02086285687983036,0.029370799660682678,-9.73818302154541
1.7294966109572792e+18,0.024068403989076614,0.00952563714236021,-9.717769622802734
1.7294966109632794e+18,-0.00933970045298338,-0.0845155119895935,-9.717700958251953
1.7294966109722796e+18,0.0799197182059288,0.021301500499248505,-9.682933807373047
1.7294966109812797e+18,0.01516143511980772,0.06721384823322296,-9.847440719604492
1.72949661099028e+18,-0.036914169788360596,0.05999363958835602,-9.729228019714355
1.72949661099928e+18,-0.038080550730228424,0.021333109587430954,-9.651152610778809
1.7294966110082803e+18,0.037484876811504364,0.02532299980521202,-9.669447898864746
1.7294966110142804e+18,0.023740191012620926,-0.06894561648368835,-9.750410079956055
1.7294966110232806e+18,-0.011744625866413116,-0.008047821000218391,-9.647193908691406
1.7294966110322808e+18,-0.03130056709051132,0.029615819454193115,-9.755949020385742
1.729496611038281e+18,0.05893964320421219,-0.03499821946024895,-9.716187477111816
1.7294966110472812e+18,-0.019540267065167427,-0.028194818645715714,-9.780458450317383
1.7294966110562813e+18,-0.0066145360469818115,-0.03137066587805748,-9.827116966247559
1.7294966110652815e+18,0.02224009856581688,-0.08499438315629959,-9.796101570129395
1.7294966110742817e+18,0.024473490193486214,0.038185201585292816,-9.815695762634277
1.729496611083282e+18,0.028993139043450356,0.004136090632528067,-9.890339851379395
1.729496611089282e+18,0.020246382802724838,0.012509114108979702,-9.808956146240234
1.7294966110982822e+18,-0.03819657862186432,0.06345053017139435,-9.86433219909668
1.7294966111072824e+18,0.03052649460732937,-0.08089829236268997,-9.793681144714355
1.7294966111162826e+18,0.015311132185161114,0.11318471282720566,-9.838042259216309
1.7294966111222828e+18,-0.014272606931626797,0.032082751393318176,-9.78285026550293
1.729496611131283e+18,0.07572914659976959,-0.06227782368659973,-9.83672046661377
1.7294966111402831e+18,-0.0006930120871402323,-0.016522586345672607,-9.850671768188477
1.7294966111462833e+18,0.010395348072052002,0.06316488236188889,-9.743094444274902
1.7294966111552835e+18,0.03248788043856621,-0.019013581797480583,-9.795387268066406
1.7294966111672837e+18,-0.03963828086853027,0.011262929067015648,-9.75998306274414
1.729496611176284e+18,-0.027000581845641136,-0.006433683913201094,-9.769485473632812
1.729496611185284e+18,-0.06962309032678604,-0.03190632909536362,-9.797593116760254
1.7294966111942843e+18,0.016264621168375015,-0.08204465359449387,-9.793864250183105
1.7294966112032845e+18,0.05190512165427208,0.008417109027504921,-9.730725288391113
1.7294966112092846e+18,-0.017188239842653275,0.028060603886842728,-9.833322525024414
1.7294966112182848e+18,-0.025389397516846657,-0.003566143335774541,-9.793517112731934
1.729496611227285e+18,0.021763375028967857,0.003526061773300171,-9.739872932434082
1.7294966112362852e+18,0.0426979660987854,0.02666916511952877,-9.758456230163574
1.7294966112452854e+18,0.015379508957266808,-0.019689230248332024,-9.748119354248047
1.7294966112542856e+18,0.000296051730401814,0.06984204053878784,-9.739166259765625
1.7294966112632858e+18,-0.0376010537147522,-0.029976632446050644,-9.710332870483398
1.729496611272286e+18,0.004505337215960026,0.03718095272779465,-9.711446762084961
1.7294966112812861e+18,-0.04907296597957611,0.009787973947823048,-9.742915153503418
1.7294966112872863e+18,-0.01476229913532734,0.020987359806895256,-9.69340991973877
1.7294966112962865e+18,-0.0376131646335125,-0.032910510897636414,-9.743633270263672
1.7294966113052867e+18,-0.013325061649084091,0.015145007520914078,-9.771738052368164
1.7294966113142868e+18,-0.013256697915494442,0.03830745071172714,-9.749152183532715
1.729496611323287e+18,0.03367764130234718,0.005711827427148819,-9.811656951904297
1.7294966113352873e+18,-0.019143514335155487,0.02912737987935543,-9.822405815124512
1.7294966113442875e+18,-0.05498342961072922,0.013912112452089787,-9.750405311584473
1.7294966113502876e+18,-0.06837350875139236,0.030767053365707397,-9.799123764038086
1.7294966113592878e+18,0.013881352730095387,0.018401162698864937,-9.73037052154541
1.729496611368288e+18,-0.01827617920935154,-0.020842738449573517,-9.65739917755127
1.7294966113772882e+18,0.036225758492946625,-0.044364023953676224,-9.71923542022705
1.7294966113862884e+18,-0.03761877119541168,-0.06233004480600357,-9.68256664276123
1.7294966113922885e+18,0.023678787052631378,-0.028445135802030563,-9.83825397491455
1.7294966114012887e+18,-0.08711360394954681,-0.051284439861774445,-9.7515287399292
1.729496611410289e+18,-0.04421715438365936,-2.2029907995602116e-05,-9.744806289672852
1.729496611419289e+18,-0.05999147519469261,-0.03175294026732445,-9.778182983398438
1.7294966114252892e+18,0.015821341425180435,0.032721105962991714,-9.715840339660645
1.7294966114342894e+18,-0.038806524127721786,0.0006000326247885823,-9.70434284210205
1.7294966114432896e+18,0.018780633807182312,0.00845358893275261,-9.6632661819458
1.7294966114522898e+18,0.03013303317129612,0.00022764908499084413,-9.789115905761719
1.72949661146429e+18,0.05799756571650505,-0.06202639266848564,-9.670108795166016
1.7294966114702902e+18,-0.00120266480371356,-0.0445338636636734,-9.766047477722168
1.7294966114792904e+18,0.0166466161608696,-0.013488013297319412,-9.733284950256348
1.7294966114882906e+18,0.05791838467121124,0.010431284084916115,-9.674410820007324
1.7294966114972908e+18,-0.03260890021920204,-0.03581080585718155,-9.759469032287598
1.729496611506291e+18,0.031008362770080566,0.03054925985634327,-9.768547058105469
1.7294966115152911e+18,-0.052621129900217056,-0.0722249448299408,-9.756689071655273
1.7294966115242913e+18,-0.024052519351243973,-0.04053172469139099,-9.749764442443848
1.7294966115302915e+18,-0.06403481960296631,0.03660767152905464,-9.687135696411133
1.7294966115392916e+18,-0.0069325268268585205,-0.009177269414067268,-9.7650728225708
1.7294966115482918e+18,0.01765972562134266,0.02867390401661396,-9.69663143157959
1.729496611557292e+18,-0.0004419230972416699,0.016000088304281235,-9.717094421386719
1.7294966115662922e+18,0.021291574463248253,-0.0013931524008512497,-9.649696350097656
1.7294966115752924e+18,-0.0002748071274254471,-0.008348625153303146,-9.688759803771973
1.7294966115842926e+18,-0.0034334673546254635,-0.013095056638121605,-9.752402305603027
1.7294966115932928e+18,0.0009698317153379321,-0.05048474296927452,-9.700715065002441
1.729496611602293e+18,0.0685616284608841,-0.015019613318145275,-9.753802299499512
1.7294966116112932e+18,-0.014906581491231918,0.008606357499957085,-9.671810150146484
1.7294966116202934e+18,0.002597872167825699,0.07812634110450745,-9.690483093261719
1.7294966116292936e+18,0.03126625716686249,0.002975834533572197,-9.703152656555176
1.7294966116382938e+18,-0.05638052895665169,-0.06769870966672897,-9.694231986999512
1.729496611647294e+18,-0.04527248814702034,0.040833767503499985,-9.769745826721191
1.7294966116562941e+18,0.01287258230149746,0.06524278968572617,-9.797690391540527
1.7294966116652943e+18,0.10231615602970123,-0.056842140853405,-9.731438636779785
1.7294966116742945e+18,0.05017545074224472,-0.01392461359500885,-9.743958473205566
1.7294966116832947e+18,0.0018775457283481956,-0.01593250036239624,-9.754231452941895
1.729496611692295e+18,-0.01612689346075058,-0.03434472531080246,-9.723882675170898
1.729496611698295e+18,0.025544455274939537,0.011556349694728851,-9.7455415725708
1.7294966117072952e+18,0.012209794484078884,0.009775735437870026,-9.715970993041992
1.7294966117162954e+18,-0.004295609891414642,-0.10820544511079788,-9.794474601745605
1.7294966117222956e+18,-0.10811313986778259,0.0356268435716629,-9.779212951660156
1.7294966117312957e+18,0.040933381766080856,-0.02008659765124321,-9.628447532653809
1.729496611740296e+18,-0.00924304872751236,-0.009215397760272026,-9.72959041595459
1.729496611749296e+18,0.0337366908788681,-0.016623927280306816,-9.700151443481445
1.7294966117582963e+18,0.03948615863919258,0.008526617661118507,-9.778491020202637
1.7294966117672965e+18,0.013839232735335827,-0.029077589511871338,-9.77191162109375
1.7294966117762967e+18,-0.01404595747590065,-0.004921572282910347,-9.749008178710938
1.729496611785297e+18,0.04387979581952095,-0.04714379459619522,-9.745966911315918
1.7294966117972972e+18,0.038918521255254745,0.048966579139232635,-9.800309181213379
1.7294966118032973e+18,0.03266974538564682,0.04730627313256264,-9.7172269821167
1.7294966118122975e+18,0.0013732851948589087,-0.022008441388607025,-9.678961753845215
1.7294966118212977e+18,0.014487731270492077,-0.08358677476644516,-9.619502067565918
1.7294966118302979e+18,0.0492447204887867,0.03684527054429054,-9.647006034851074
1.729496611839298e+18,-0.03492911159992218,-0.06345309317111969,-9.702205657958984
1.7294966118482982e+18,0.010401392355561256,-0.026463350281119347,-9.663284301757812
1.7294966118572984e+18,0.0742311105132103,-0.029286816716194153,-9.804675102233887
1.7294966118662986e+18,0.02162090875208378,0.04196704924106598,-9.718754768371582
1.7294966118752988e+18,0.03862674906849861,0.021674254909157753,-9.728044509887695
1.729496611884299e+18,0.03337285667657852,0.007858145982027054,-9.772062301635742
1.7294966118932992e+18,-0.017845718190073967,-0.00869807694107294,-9.720882415771484
1.7294966119022994e+18,0.009342227131128311,-0.02007422223687172,-9.727911949157715
1.7294966119112996e+18,-0.049634430557489395,-0.01319533959031105,-9.74025821685791
1.7294966119172997e+18,0.0644778460264206,-0.02184312976896763,-9.683303833007812
1.7294966119293e+18,-0.026298966258764267,0.02744770608842373,-9.758296012878418
1.7294966119383002e+18,-0.06371891498565674,-0.05213143303990364,-9.76636791229248
1.7294966119473004e+18,0.025924796238541603,0.037846945226192474,-9.738228797912598
1.7294966119563005e+18,-0.03231262415647507,0.0678287222981453,-9.778099060058594
1.7294966119653007e+18,0.013391075655817986,-0.015024131163954735,-9.753142356872559
1.729496611974301e+18,-0.027805862948298454,0.01132408156991005,-9.761287689208984
1.729496611983301e+18,0.06978791952133179,-0.09888971596956253,-9.733352661132812
1.7294966119953014e+18,0.02935485541820526,0.027785582467913628,-9.72849178314209
1.7294966120043016e+18,-0.009234036318957806,0.02349437028169632,-9.649096488952637
1.7294966120133018e+18,-0.062248583883047104,0.016563652083277702,-9.839030265808105
1.729496612022302e+18,0.019656755030155182,-0.11714287847280502,-9.715475082397461
1.7294966120313021e+18,-0.04958314821124077,-0.036192141473293304,-9.724298477172852
1.7294966120373023e+18,-0.030539534986019135,-0.04547999054193497,-9.732702255249023
1.7294966120463025e+18,-0.026126330718398094,0.023298805579543114,-9.769035339355469
1.7294966120553027e+18,-0.014166589826345444,0.05305849388241768,-9.750329971313477
1.7294966120643028e+18,0.047504451125860214,0.07154291868209839,-9.745089530944824
1.729496612070303e+18,-0.03107394464313984,0.05845937132835388,-9.756647109985352
1.7294966120793032e+18,0.001804570434615016,-0.016692424193024635,-9.784616470336914
1.7294966120883034e+18,-0.01003237348049879,-0.00514610018581152,-9.694738388061523
1.7294966121003036e+18,0.09066326171159744,-0.002157081151381135,-9.757746696472168
1.7294966121093038e+18,0.02527206763625145,-0.04718264564871788,-9.703153610229492
1.729496612115304e+18,-0.003276882926002145,0.006737196817994118,-9.799105644226074
1.7294966121243041e+18,-0.048004742711782455,0.0177468191832304,-9.754190444946289
1.7294966121333043e+18,0.04488864913582802,0.01676088012754917,-9.683023452758789
1.7294966121423045e+18,-0.00048469725879840553,0.013102255761623383,-9.758767127990723
1.7294966121513047e+18,0.0651240274310112,-0.038566190749406815,-9.809971809387207
1.7294966121573048e+18,0.05490487813949585,-0.00040646642446517944,-9.754650115966797
1.729496612166305e+18,-0.006334315519779921,-0.012704304419457912,-9.756613731384277
1.7294966121753052e+18,0.017241818830370903,0.02003997005522251,-9.823734283447266
1.7294966121843054e+18,0.06205812096595764,-0.06054982542991638,-9.77354907989502
1.7294966121933056e+18,0.008440723642706871,0.07079694420099258,-9.784650802612305
1.7294966122023058e+18,-0.035393357276916504,0.004945290740579367,-9.725178718566895
1.729496612211306e+18,-0.02134804055094719,0.04828653857111931,-9.807281494140625
1.729496612217306e+18,0.005375719629228115,-0.021761931478977203,-9.801332473754883
1.7294966122263063e+18,-0.0055814264342188835,0.014955391176044941,-9.74404525756836
1.7294966122353065e+18,-0.031639039516448975,-0.033946190029382706,-9.760148048400879
1.7294966122443067e+18,-0.11745166033506393,-0.03770185634493828,-9.76137638092041
1.7294966122503068e+18,-0.028197243809700012,-0.00018146946968045086,-9.753490447998047
1.729496612259307e+18,0.04338784143328667,0.024469858035445213,-9.793791770935059
1.7294966122683072e+18,0.0003889418439939618,-0.005567519925534725,-9.707112312316895
1.7294966122773074e+18,-0.010198082774877548,-0.02455504797399044,-9.714484214782715
1.7294966122863076e+18,-0.002654947340488434,-0.056022197008132935,-9.735576629638672
1.7294966122953078e+18,-0.031535182148218155,0.049524713307619095,-9.778040885925293
1.729496612304308e+18,-0.004693059250712395,0.06779750436544418,-9.840897560119629
1.7294966123133082e+18,0.01742265187203884,0.011054269969463348,-9.800329208374023
1.7294966123223084e+18,0.010862607508897781,0.06638207286596298,-9.800395011901855
1.7294966123313085e+18,0.010315786115825176,0.01767946220934391,-9.701091766357422
1.7294966123373087e+18,-0.028907176107168198,-0.036493152379989624,-9.721753120422363
1.7294966123463089e+18,-0.08295096457004547,-0.035615045577287674,-9.767621040344238
1.729496612355309e+18,-0.015359778888523579,-0.018904348835349083,-9.736403465270996
1.7294966123613092e+18,-0.026363804936408997,-0.03100108914077282,-9.65391731262207
1.7294966123703094e+18,0.04735950008034706,0.05717075616121292,-9.646679878234863
1.7294966123793096e+18,0.041397325694561005,0.011698179878294468,-9.777214050292969
1.7294966123883098e+18,-0.012134221382439137,0.004233113955706358,-9.74591064453125
1.72949661239731e+18,0.04766741022467613,-0.07823391258716583,-9.757607460021973
1.7294966124063101e+18,0.050713494420051575,0.012925950810313225,-9.725836753845215
1.7294966124153103e+18,-0.0055259778164327145,-0.03816778585314751,-9.772613525390625
1.7294966124243105e+18,0.04074053093791008,0.08264971524477005,-9.777192115783691
1.7294966124303107e+18,0.08251148462295532,0.014728730544447899,-9.820548057556152
1.7294966124393108e+18,-0.03535594418644905,-0.018864575773477554,-9.791111946105957
1.729496612448311e+18,-0.06013721972703934,-0.033854890614748,-9.735797882080078
1.7294966124573112e+18,0.041335586458444595,0.03269832953810692,-9.67366886138916
1.7294966124663114e+18,-0.060692574828863144,0.0010338814463466406,-9.707511901855469
1.7294966124753116e+18,0.008438867516815662,-0.0042007663287222385,-9.793947219848633
1.7294966124843118e+18,-0.015420840121805668,-0.030565619468688965,-9.75648307800293
1.729496612493312e+18,-0.06171486899256706,0.0666976273059845,-9.801590919494629
1.7294966125023122e+18,-0.051976319402456284,0.0005833428585901856,-9.789554595947266
1.7294966125083123e+18,0.08039955794811249,0.08008425682783127,-9.769193649291992
1.7294966125173125e+18,-0.054706573486328125,0.05378560349345207,-9.822159767150879
1.7294966125263127e+18,0.03476443886756897,0.025426773354411125,-9.818721771240234
1.729496612535313e+18,0.018954265862703323,0.025023415684700012,-9.831497192382812
1.729496612544313e+18,-0.01950342394411564,-0.05581095814704895,-9.765345573425293
1.7294966125503132e+18,-0.010387962684035301,-0.0010711454087868333,-9.762614250183105
1.7294966125593134e+18,-0.0492800697684288,0.004534629173576832,-9.790199279785156
1.7294966125683136e+18,-0.04865245521068573,0.06025797873735428,-9.82109260559082
1.7294966125773138e+18,-0.011539200320839882,-0.011200597509741783,-9.8157377243042
1.729496612583314e+18,-0.029487255960702896,-0.03952236473560333,-9.720553398132324
1.729496612592314e+18,0.014599308371543884,-0.0787234902381897,-9.734382629394531
1.7294966126013143e+18,-0.051649291068315506,-0.0041359793394804,-9.765655517578125
1.7294966126073144e+18,-0.020909829065203667,-0.07180402427911758,-9.752257347106934
1.7294966126163146e+18,0.04327293485403061,-0.01535937748849392,-9.781222343444824
1.7294966126253148e+18,0.009997231885790825,-0.14319537580013275,-9.732101440429688
1.729496612634315e+18,0.048495687544345856,-0.066615030169487,-9.806336402893066
1.7294966126433152e+18,-0.00733896903693676,-0.013229414820671082,-9.771815299987793
1.7294966126523154e+18,0.02876300923526287,0.013097388669848442,-9.764837265014648
1.7294966126613156e+18,-0.010454158298671246,0.03490971773862839,-9.795369148254395
1.7294966126673157e+18,-0.020318901166319847,0.010753778740763664,-9.799356460571289
1.729496612676316e+18,-0.10357500612735748,-0.08856863528490067,-9.728777885437012
1.729496612685316e+18,-0.026394076645374298,0.031180063262581825,-9.737008094787598
1.7294966126973164e+18,-0.05354270339012146,-0.07385461777448654,-9.836000442504883
1.7294966127033165e+18,-0.023946907371282578,0.03799979388713837,-9.755282402038574
1.7294966127123167e+18,0.015614648349583149,0.02996346540749073,-9.796116828918457
1.7294966127213169e+18,0.028554558753967285,0.0010547181591391563,-9.77318000793457
1.729496612730317e+18,-0.03523516654968262,-0.007794802542775869,-9.747167587280273
1.7294966127393172e+18,0.07066137343645096,0.018269451335072517,-9.810418128967285
1.7294966127483174e+18,-0.008434227667748928,-0.03390046954154968,-9.759336471557617
1.7294966127603177e+18,-0.007388412952423096,0.015428459271788597,-9.793671607971191
1.729496612769318e+18,-0.00694725476205349,-0.054396215826272964,-9.844636917114258
1.729496612778318e+18,0.043945908546447754,0.019316812977194786,-9.829914093017578
1.7294966127873183e+18,-0.0906066745519638,0.021129701286554337,-9.707358360290527
1.7294966127963185e+18,-0.004459627438336611,-0.050925113260746,-9.779057502746582
1.7294966128053187e+18,-0.004627598449587822,-0.06579222530126572,-9.822884559631348
1.7294966128113188e+18,0.04290217533707619,0.07282905280590057,-9.835326194763184
1.729496612820319e+18,0.00538748549297452,-0.044299978762865067,-9.803457260131836
1.7294966128293192e+18,-0.1278611421585083,0.012352927587926388,-9.795478820800781
1.7294966128413194e+18,0.032563623040914536,-0.0032923195976763964,-9.782869338989258
1.7294966128503196e+18,0.07865986973047256,0.01242143101990223,-9.75385570526123
1.7294966128563197e+18,0.02385726571083069,0.0648529902100563,-9.76462173461914
1.72949661286532e+18,0.016310665756464005,-0.024962160736322403,-9.725751876831055
1.72949661287132e+18,-0.011044940911233425,0.005198725499212742,-9.73857593536377
1.7294966128803203e+18,-0.03971660137176514,0.06495823711156845,-9.746378898620605
1.7294966128893204e+18,-0.02576218731701374,0.04424697160720825,-9.760013580322266
1.7294966128953206e+18,-0.013720162212848663,0.12484774738550186,-9.709723472595215
1.7294966129043208e+18,0.07011188566684723,-0.024123964831233025,-9.791857719421387
1.729496612913321e+18,0.02891937829554081,0.02174447663128376,-9.7960844039917
1.7294966129223212e+18,-0.0023598710540682077,0.10406702011823654,-9.73731517791748
1.7294966129283213e+18,-0.002736813621595502,-0.004598087165504694,-9.757575035095215
1.7294966129403215e+18,0.04070202633738518,-0.07516171038150787,-9.768877029418945
1.7294966129493217e+18,0.02517925761640072,0.021426741033792496,-9.821102142333984
1.729496612958322e+18,0.05002833157777786,-0.0321815125644207,-9.789281845092773
1.729496612967322e+18,-0.04902392253279686,0.02256755158305168,-9.803129196166992
1.7294966129763223e+18,0.003978366497904062,0.008683128282427788,-9.73429012298584
1.7294966129853225e+18,-0.06114143133163452,-0.005013858899474144,-9.766461372375488
1.7294966129943227e+18,0.007954154163599014,0.030803566798567772,-9.74091625213623
1.729496613003323e+18,0.09345077723264694,0.03859419748187065,-9.883431434631348
1.729496613009323e+18,0.010967421345412731,0.0803770050406456,-9.737813949584961
1.7294966130183232e+18,-0.009126530028879642,0.016529791057109833,-9.76143741607666
1.7294966130303235e+18,0.11344805359840393,-0.0020989165641367435,-9.815437316894531
1.7294966130393236e+18,-0.028160054236650467,-0.043506596237421036,-9.850288391113281
1.7294966130483238e+18,0.025759678333997726,-0.047698646783828735,-9.809885025024414
1.729496613057324e+18,-0.012245678342878819,0.03770149126648903,-9.745827674865723
1.7294966130663242e+18,-0.023210275918245316,0.006007273215800524,-9.747849464416504
1.7294966130753244e+18,0.028931936249136925,-3.319531970191747e-05,-9.82781982421875
1.7294966130843246e+18,-0.05716123804450035,0.014465940184891224,-9.86023998260498
1.7294966130933248e+18,-0.0265443604439497,-0.00820915773510933,-9.820171356201172
1.729496613102325e+18,-0.01974586769938469,-0.014322265051305294,-9.80648136138916
1.729496613108325e+18,-0.03435893356800079,0.03684622049331665,-9.758247375488281
1.7294966131173253e+18,0.03250075504183769,-0.009883747436106205,-9.722265243530273
1.7294966131263255e+18,-0.0213764738291502,-0.06041456758975983,-9.765572547912598
1.7294966131353257e+18,-0.02101321518421173,0.019177446141839027,-9.849656105041504
1.7294966131413258e+18,0.007673365063965321,0.015330716036260128,-9.825261116027832
1.729496613150326e+18,-0.035523999482393265,0.013459003530442715,-9.854307174682617
1.7294966131593262e+18,0.0213286392390728,0.07016108930110931,-9.75328254699707
1.7294966131683264e+18,-0.03671692684292793,0.032834529876708984,-9.805379867553711
1.7294966131773266e+18,-0.004782325122505426,-0.0632086843252182,-9.802714347839355
1.7294966131833267e+18,-0.041411034762859344,-0.0068575311452150345,-9.835221290588379
1.729496613192327e+18,0.039142463356256485,0.005284057930111885,-9.748042106628418
1.729496613201327e+18,0.005117702763527632,-0.05966845154762268,-9.856064796447754
1.7294966132103273e+18,0.020211493596434593,-0.017643647268414497,-9.840075492858887
1.7294966132193275e+18,-0.03921567648649216,-0.011490875855088234,-9.803149223327637
1.7294966132283277e+18,0.048876527696847916,-0.021526165306568146,-9.72480297088623
1.7294966132343278e+18,-0.0195052120834589,0.07989063113927841,-9.821320533752441
1.729496613246328e+18,0.021320246160030365,-0.03367256373167038,-9.797481536865234
1.7294966132523282e+18,0.05617723986506462,-0.02732721157371998,-9.83523178100586
1.7294966132643284e+18,-0.004342564847320318,0.041336651891469955,-9.815179824829102
1.7294966132703286e+18,0.08104758709669113,-0.002467208309099078,-9.760272026062012
1.7294966132793288e+18,-0.04767732694745064,0.01450648345053196,-9.77314281463623
1.729496613288329e+18,-0.04759443551301956,0.05031206086277962,-9.91564655303955
1.7294966132973292e+18,-0.0004720251599792391,-0.023941770195961,-9.840178489685059
1.7294966133063293e+18,-0.005107516888529062,-0.0057008941657841206,-9.825252532958984
1.7294966133123295e+18,-0.003565361490473151,0.07309962809085846,-9.755873680114746
1.7294966133213297e+18,-0.0052754562348127365,0.03100205585360527,-9.841486930847168
1.7294966133303299e+18,-0.004226939287036657,-0.03834095597267151,-9.731302261352539
1.72949661333633e+18,-0.022959141060709953,0.03881150484085083,-9.852412223815918
1.7294966133453302e+18,-0.05618467926979065,0.04209249094128609,-9.683380126953125
1.7294966133543304e+18,0.08310720324516296,0.016119038686156273,-9.827408790588379
1.7294966133603305e+18,0.036397140473127365,0.07424613833427429,-9.745870590209961
1.7294966133693307e+18,0.04789149761199951,-0.019658679142594337,-9.772628784179688
1.729496613378331e+18,0.033257871866226196,-0.04524877294898033,-9.724488258361816
1.729496613387331e+18,-0.020831407979130745,0.027923161163926125,-9.795525550842285
1.7294966133963313e+18,-0.04239267855882645,-0.0008626857306808233,-9.838722229003906
1.7294966134023314e+18,0.050172653049230576,0.0036213661078363657,-9.792274475097656
1.7294966134113316e+18,-0.013727206736803055,-0.06368766725063324,-9.847357749938965
1.7294966134203318e+18,-0.05374659225344658,-0.040889762341976166,-9.776396751403809
1.729496613429332e+18,-0.010775024071335793,0.08091165125370026,-9.845766067504883
1.729496613435332e+18,-0.00431872857734561,0.009949201717972755,-9.823758125305176
1.7294966134443323e+18,0.04069337248802185,0.0039052392821758986,-9.788498878479004
1.7294966134533325e+18,-0.03577973693609238,-0.08967310935258865,-9.746313095092773
1.7294966134623327e+18,0.07345408201217651,-0.026268867775797844,-9.865976333618164
1.7294966134713329e+18,-0.058498986065387726,-0.009183228947222233,-9.741926193237305
1.729496613480333e+18,-0.022848468273878098,-0.0027531220111995935,-9.761200904846191
1.7294966134893332e+18,-0.01626606658101082,-0.10062383115291595,-9.814934730529785
1.7294966134953334e+18,0.02622181735932827,0.027006788179278374,-9.740818977355957
1.7294966135043336e+18,0.062101200222969055,0.04718557745218277,-9.764750480651855
1.7294966135133338e+18,0.010838371701538563,-0.04795236140489578,-9.801920890808105
1.729496613522334e+18,0.05830955505371094,-0.03669394180178642,-9.771714210510254
1.7294966135313341e+18,-0.0025546769611537457,0.028563862666487694,-9.797322273254395
1.7294966135373343e+18,0.07572225481271744,-0.05039525032043457,-9.796676635742188
1.7294966135463345e+18,-0.0071761105209589005,0.010725550353527069,-9.83177375793457
1.7294966135553347e+18,0.09894382953643799,0.05094776675105095,-9.745687484741211
1.7294966135643348e+18,0.01371356938034296,-0.002973629394546151,-9.786453247070312
1.729496613570335e+18,-0.005095568485558033,-0.04877825826406479,-9.848211288452148
1.7294966135793352e+18,-0.02099209651350975,0.05358685925602913,-9.829841613769531
1.7294966135883354e+18,0.039447490125894547,-0.04462231323122978,-9.816137313842773
1.7294966135973356e+18,-0.003623155178502202,0.06633427739143372,-9.80222225189209
1.7294966136063357e+18,-0.05001579225063324,0.003627609461545944,-9.753965377807617
1.729496613615336e+18,0.013886641710996628,-0.022624991834163666,-9.788312911987305
1.7294966136243361e+18,0.07780993729829788,0.009332118555903435,-9.827061653137207
1.7294966136303363e+18,0.05901992321014404,0.013724932447075844,-9.804299354553223
1.7294966136393364e+18,-0.019924882799386978,0.08871287852525711,-9.76988697052002
1.7294966136453366e+18,-0.02434595860540867,0.02321925200521946,-9.804890632629395
1.7294966136543368e+18,-0.05765403434634209,0.00015811472258064896,-9.872321128845215
1.729496613663337e+18,-0.020012684166431427,-0.03094545006752014,-9.847517967224121
1.7294966136723372e+18,0.047329943627119064,0.012828249484300613,-9.810489654541016
1.7294966136813373e+18,-0.03427589312195778,0.025682536885142326,-9.81583309173584
1.7294966136903375e+18,0.09769821912050247,0.05765136331319809,-9.723529815673828
1.7294966136963377e+18,0.031860657036304474,0.020734738558530807,-9.744202613830566
1.7294966137053379e+18,0.021231960505247116,0.0003223484382033348,-9.809713363647461
1.729496613714338e+18,-0.025935757905244827,-0.016987569630146027,-9.872698783874512
1.7294966137203382e+18,-0.01741919293999672,-0.050352174788713455,-9.83214282989502
1.7294966137293384e+18,0.000443293247371912,0.036307819187641144,-9.800549507141113
1.7294966137353385e+18,-0.01139103714376688,-0.08003830909729004,-9.8143310546875
1.7294966137443387e+18,0.040859486907720566,-0.017701750621199608,-9.74051284790039
1.729496613756339e+18,-0.04285872355103493,0.01035269908607006,-9.768819808959961
1.729496613762339e+18,-0.004778136964887381,-0.003804505569860339,-9.790821075439453
1.7294966137713393e+18,0.036764658987522125,0.01317918486893177,-9.811065673828125
1.7294966137803395e+18,0.005151610821485519,0.08857952803373337,-9.812369346618652
1.7294966137893396e+18,0.040504340082407,-0.015382979065179825,-9.812241554260254
1.7294966137983398e+18,0.012216875329613686,-0.033515360206365585,-9.756640434265137
1.72949661380734e+18,-0.031177379190921783,0.03147291764616966,-9.80821418762207
1.7294966138163402e+18,0.05846910551190376,-0.014935140497982502,-9.852670669555664
1.7294966138253404e+18,-0.0786735862493515,-0.048730067908763885,-9.796781539916992
1.7294966138343406e+18,-0.00881139375269413,-0.0664154514670372,-9.76148796081543
1.7294966138403407e+18,0.024920055642724037,-0.034538764506578445,-9.840193748474121
1.729496613849341e+18,0.03959902748465538,-0.02377155050635338,-9.752094268798828
1.729496613858341e+18,-0.052886828780174255,0.045716091990470886,-9.730056762695312
1.7294966138673413e+18,0.12181002646684647,0.023410433903336525,-9.710108757019043
1.7294966138763415e+18,0.05623096600174904,-0.01649632304906845,-9.82865047454834
1.7294966138853417e+18,-0.0070777456276118755,0.037348952144384384,-9.780831336975098
1.729496613894342e+18,0.02893689274787903,0.04459663853049278,-9.757652282714844
1.729496613903342e+18,-0.01780729368329048,-0.019903600215911865,-9.836167335510254
1.7294966139123423e+18,-0.023162249475717545,-0.036225128918886185,-9.867988586425781
1.7294966139213425e+18,0.00816581305116415,0.008957290090620518,-9.827203750610352
1.7294966139303427e+18,0.034245990216732025,-0.045494526624679565,-9.851390838623047
1.7294966139393428e+18,-0.02963501214981079,0.02982250601053238,-9.795875549316406
1.729496613948343e+18,-0.062307409942150116,0.008752892725169659,-9.823001861572266
1.7294966139573432e+18,0.010881929658353329,-0.006471388973295689,-9.85495662689209
1.7294966139663434e+18,-0.0772278681397438,0.007448396645486355,-9.857834815979004
1.7294966139753436e+18,-0.027360735461115837,0.011113901622593403,-9.703124046325684
1.7294966139843438e+18,-0.010508110746741295,0.017570286989212036,-9.798030853271484
1.729496613993344e+18,0.0524463951587677,-0.054969921708106995,-9.75821590423584
1.7294966140023442e+18,0.026325678452849388,-0.0887012928724289,-9.801496505737305
1.7294966140113444e+18,0.06612098962068558,0.014516723342239857,-9.798822402954102
1.7294966140203446e+18,0.03781931474804878,-0.0351429246366024,-9.81244945526123
1.7294966140263447e+18,-0.010022888891398907,0.018283270299434662,-9.77723217010498
1.729496614035345e+18,0.04334660992026329,0.03148994222283363,-9.786144256591797
1.729496614044345e+18,-0.08974168449640274,0.046920716762542725,-9.830491065979004
1.7294966140533453e+18,-0.0023860647343099117,0.016698431223630905,-9.804814338684082
1.7294966140623455e+18,-0.008094800636172295,-0.0879431888461113,-9.793702125549316
1.7294966140713457e+18,0.036628514528274536,-0.021308235824108124,-9.755088806152344
1.7294966140773458e+18,-0.04512931406497955,0.010648822411894798,-9.792162895202637
1.729496614086346e+18,0.022435098886489868,-0.029638485983014107,-9.871183395385742
1.7294966140983462e+18,0.07029058784246445,-0.015478458255529404,-9.8427095413208
1.7294966141043464e+18,-0.012962480075657368,-0.03765598312020302,-9.790820121765137
1.7294966141133466e+18,0.04078587144613266,0.044940829277038574,-9.749852180480957
1.7294966141223468e+18,0.05304541066288948,-0.022602401673793793,-9.831050872802734
1.729496614131347e+18,-0.06279418617486954,0.014980373904109001,-9.76389217376709
1.729496614137347e+18,0.01619855873286724,-0.015341224148869514,-9.749445915222168
1.7294966141463473e+18,0.00012089830852346495,-0.029170414432883263,-9.80125904083252
1.7294966141553475e+18,0.004514611326158047,-0.025000955909490585,-9.734990119934082
1.7294966141643476e+18,-0.011902482248842716,-0.0497455857694149,-9.804876327514648
1.7294966141733478e+18,-0.010735370218753815,0.016537928953766823,-9.854330062866211
1.729496614182348e+18,0.026686429977416992,0.0005989668425172567,-9.826610565185547
1.7294966141913482e+18,-0.059968750923871994,0.010776790790259838,-8.328556060791016
1.7294966142003484e+18,0.002833249047398567,-0.017600979655981064,-8.05325698852539
1.7294966142093486e+18,-0.05912790820002556,-0.05483117699623108,-8.137527465820312
1.7294966142153487e+18,-0.13118523359298706,0.08291078358888626,-8.794352531433105
1.729496614224349e+18,-0.097877636551857,0.045317642390728,-9.244236946105957
1.729496614233349e+18,-0.07034569978713989,0.01157146692276001,-9.158458709716797
1.7294966142393492e+18,-0.018411599099636078,0.021965714171528816,-9.056065559387207
1.7294966142483494e+18,0.020210303366184235,0.01708521507680416,-9.13008975982666
1.7294966142573496e+18,-0.0027156025171279907,0.09211209416389465,-9.070008277893066
1.7294966142663498e+18,0.0037334561347961426,0.051745399832725525,-8.770808219909668
1.72949661427235e+18,-0.05565287172794342,-0.030718199908733368,-8.635284423828125
1.7294966142813501e+18,-0.09759818017482758,0.054095637053251266,-8.667293548583984
1.7294966142903503e+18,-0.06156381592154503,0.06121480464935303,-8.145371437072754
1.7294966142993505e+18,-0.08378540724515915,0.06556647270917892,-8.185154914855957
1.7294966143053507e+18,-0.046797025948762894,-0.036036331206560135,-8.285443305969238
1.7294966143143508e+18,-0.07120734453201294,0.04017337039113045,-8.267803192138672
1.729496614323351e+18,-0.07947800308465958,0.05747748911380768,-8.057628631591797
1.7294966143323512e+18,-0.03462529554963112,0.06035882979631424,-7.921697616577148
1.7294966143413514e+18,-0.12257837504148483,-0.05232962220907211,-7.903189659118652
1.7294966143473516e+18,-0.05544888600707054,0.08005723357200623,-7.936164379119873
1.7294966143563517e+18,-0.10912110656499863,0.07333680987358093,-7.981504440307617
1.729496614365352e+18,-0.09785398840904236,0.0033348239958286285,-7.92832612991333
1.729496614371352e+18,-0.11076464504003525,0.014955314807593822,-7.751689434051514
1.7294966143803523e+18,-0.036347318440675735,-0.009578870609402657,-7.746273994445801
1.7294966143893524e+18,-0.08783343434333801,0.08963246643543243,-7.853062152862549
1.7294966143983526e+18,-0.003187846392393112,0.06227372959256172,-7.714015007019043
1.7294966144073528e+18,-0.06023052707314491,0.08938940614461899,-7.623921871185303
1.729496614416353e+18,-0.06885328888893127,-9.885057806968689e-05,-7.7148518562316895
1.7294966144253532e+18,0.006549868732690811,-0.053189557045698166,-7.710028648376465
1.7294966144313533e+18,0.04898259788751602,0.008669713512063026,-7.803013324737549
1.7294966144403535e+18,-0.013213656842708588,0.03995221108198166,-7.690942764282227
1.7294966144493537e+18,-0.005845510400831699,-0.06233712285757065,-7.573800086975098
1.729496614458354e+18,-0.0917515754699707,0.007626321166753769,-7.555267810821533
1.729496614467354e+18,-0.059504032135009766,0.025675687938928604,-7.644181251525879
1.7294966144733542e+18,-0.04097751900553703,0.002588439267128706,-7.643819332122803
1.7294966144823544e+18,0.009195814840495586,-0.03542366251349449,-7.712907791137695
1.7294966144913546e+18,0.021670009940862656,0.009923952631652355,-7.752795219421387
1.7294966145003548e+18,0.01996220462024212,-0.020374318584799767,-7.544146537780762
1.729496614506355e+18,0.05748223140835762,-0.06602384150028229,-7.639381408691406
1.7294966145153551e+18,0.028073564171791077,0.003691113321110606,-7.621077537536621
1.7294966145243553e+18,0.007408205419778824,0.03803379088640213,-7.7748894691467285
1.7294966145333555e+18,0.0684109479188919,-0.04212445765733719,-7.6533026695251465
1.7294966145423557e+18,-0.00668021384626627,-0.00936509482562542,-7.776710033416748
1.729496614551356e+18,-0.044244181364774704,0.0012465422041714191,-7.736981391906738
1.729496614560356e+18,-0.0892535001039505,0.02672794833779335,-7.724374771118164
1.7294966145693563e+18,0.0186426043510437,0.03195345401763916,-7.780299663543701
1.7294966145753564e+18,-0.04706874489784241,0.025703920051455498,-7.762295246124268
1.7294966145843566e+18,0.01604430377483368,-0.09835172444581985,-7.8586602210998535
1.7294966145933568e+18,-0.08085876703262329,0.008860756643116474,-7.8482770919799805
1.729496614602357e+18,-0.057716675102710724,0.00866694562137127,-7.8894500732421875
1.7294966146113572e+18,0.0444074384868145,0.040330301970243454,-7.927330493927002
1.7294966146203574e+18,0.017876166850328445,0.08012495189905167,-7.913050651550293
1.7294966146263575e+18,6.011221557855606e-05,0.11081257462501526,-7.9273362159729
1.7294966146353577e+18,0.018434129655361176,0.012206727638840675,-7.838526725769043
1.729496614644358e+18,0.016910364851355553,0.034230709075927734,-7.959967613220215
1.729496614653358e+18,0.0008073532953858376,0.004597005434334278,-8.033232688903809
1.7294966146623583e+18,0.08833316713571548,0.010877881199121475,-8.011765480041504
1.7294966146683584e+18,0.05622066184878349,-0.07526062428951263,-8.030256271362305
1.7294966146773586e+18,-0.0551278293132782,-0.012544033117592335,-8.129870414733887
1.7294966146863588e+18,0.005762673448771238,0.015175171196460724,-8.20225715637207
1.729496614695359e+18,0.003409641794860363,-0.007134284824132919,-8.2315673828125
1.7294966147043592e+18,-0.0024942196905612946,-0.013674100860953331,-8.176069259643555
1.7294966147133594e+18,0.00014126021414995193,-0.08982868492603302,-8.173587799072266
1.7294966147193595e+18,-0.03498615697026253,0.021331166848540306,-8.134511947631836
1.7294966147283597e+18,0.030522966757416725,0.028767921030521393,-8.271533966064453
1.72949661473736e+18,0.007185660302639008,0.02512046881020069,-8.302716255187988
1.72949661474636e+18,0.1270897388458252,-0.016054727137088776,-8.236244201660156
1.7294966147553603e+18,-0.05027376115322113,-0.07952216267585754,-8.3389892578125
1.7294966147613604e+18,0.04885558411478996,0.0734027773141861,-8.35952091217041
1.7294966147703606e+18,0.06885124742984772,0.08180350810289383,-8.397727966308594
1.7294966147793608e+18,0.024502679705619812,-0.031031828373670578,-8.385363578796387
1.729496614788361e+18,0.026049014180898666,0.05170103535056114,-8.420360565185547
1.7294966147973612e+18,0.016469262540340424,-0.06648039072751999,-8.443795204162598
1.7294966148063613e+18,0.004179365932941437,0.00774500984698534,-8.53991413116455
1.7294966148153615e+18,0.0701843723654747,-0.01090499758720398,-8.417688369750977
1.7294966148213617e+18,0.05543593689799309,-0.025594642385840416,-8.48237133026123
1.7294966148303619e+18,-0.06850742548704147,-0.043998148292303085,-8.47396183013916
1.729496614839362e+18,0.01171957142651081,0.03346491605043411,-8.525018692016602
1.7294966148483622e+18,0.0666065514087677,-0.05031152814626694,-8.577685356140137
1.7294966148543624e+18,0.019407302141189575,0.04425087571144104,-8.535344123840332
1.7294966148633626e+18,-0.07718969881534576,-0.0029904814437031746,-8.60915756225586
1.7294966148723628e+18,-0.010260039009153843,-0.026764798909425735,-8.645824432373047
1.729496614881363e+18,-0.04249025508761406,0.03700008615851402,-8.60484504699707
1.729496614887363e+18,-0.01613972708582878,-0.04251476377248764,-8.690061569213867
1.7294966148963633e+18,-0.03814812749624252,-0.02729489840567112,-8.749486923217773
1.7294966149053635e+18,-0.0339663028717041,-0.02293122187256813,-8.688570022583008
1.7294966149143636e+18,-0.0565519817173481,0.0066799563355743885,-8.798263549804688
1.7294966149233638e+18,0.019549012184143066,0.011584999971091747,-8.721843719482422
1.729496614932364e+18,-0.025465723127126694,0.047530271112918854,-8.840909004211426
1.7294966149683648e+18,-0.018081821501255035,-0.07687007635831833,-8.978106498718262
1.729496614977365e+18,-0.043285809457302094,-0.050990644842386246,-8.927050590515137
1.7294966149863652e+18,-0.05260016396641731,-0.019067011773586273,-8.858295440673828
1.7294966149923653e+18,0.055741287767887115,0.0753609836101532,-8.949117660522461
1.7294966150013655e+18,-0.06621360778808594,-0.07493013888597488,-8.902853965759277
1.7294966150103657e+18,0.04098166525363922,-0.0195214431732893,-8.986898422241211
1.729496615019366e+18,-0.018364107236266136,-0.02496645599603653,-8.939217567443848
1.729496615028366e+18,-0.054624106734991074,0.025271521881222725,-9.018217086791992
1.7294966150373663e+18,-0.03204181417822838,0.02260415069758892,-9.039312362670898
1.7294966150463665e+18,-0.03616601228713989,0.046539586037397385,-9.097387313842773
1.7294966150523666e+18,-0.07217179238796234,0.009847134351730347,-9.179027557373047
1.7294966150613668e+18,-0.02796233631670475,-0.0029715304262936115,-9.137557029724121
1.729496615070367e+18,-0.02704443410038948,-0.051062341779470444,-9.179008483886719
1.7294966150793672e+18,-0.010087268427014351,0.0013190670870244503,-9.180802345275879
1.7294966150883674e+18,-0.15062543749809265,0.0626373142004013,-9.09701919555664
1.7294966150943675e+18,-0.025265665724873543,0.010943176224827766,-9.249839782714844
1.7294966151033677e+18,0.01531045138835907,-0.00018376950174570084,-9.33741283416748
1.7294966151123679e+18,-0.10345111787319183,-0.03620120510458946,-9.251078605651855
1.729496615121368e+18,0.039645224809646606,0.0559050515294075,-9.335853576660156
1.7294966151303683e+18,0.0013290531933307648,0.0116410031914711,-9.35270881652832
1.7294966151393684e+18,-0.08922755718231201,0.018155045807361603,-9.280267715454102
1.7294966151453686e+18,-0.03958425670862198,-0.05385509505867958,-9.29623031616211
1.7294966151543688e+18,-0.04090648889541626,0.05047304555773735,-9.419013977050781
1.729496615163369e+18,-0.07451709359884262,0.062162771821022034,-9.322230339050293
1.7294966151723692e+18,-0.036941252648830414,0.03267847001552582,-9.434584617614746
1.7294966151813693e+18,-0.06697537004947662,0.01621020957827568,-9.46451473236084
1.7294966151873695e+18,-0.02578444592654705,0.034149426966905594,-9.478243827819824
1.7294966151963697e+18,-0.054584816098213196,-0.02157020755112171,-9.560545921325684
1.72949661520837e+18,-0.032199688255786896,0.04511082544922829,-9.475699424743652
1.72949661521437e+18,-0.019002776592969894,-0.08779940754175186,-9.555692672729492
1.7294966152233702e+18,0.015208683907985687,0.07573994249105453,-9.558097839355469
1.7294966152293704e+18,-0.0019107051193714142,0.02877315878868103,-9.55562973022461
1.7294966152383706e+18,-0.03381820768117905,0.03930944204330444,-9.506351470947266
1.7294966152473708e+18,0.006087809801101685,0.04692021384835243,-9.576781272888184
1.729496615256371e+18,-0.08297967910766602,0.03405947983264923,-9.60483169555664
1.729496615262371e+18,-0.05643482133746147,-0.03018450364470482,-9.643054962158203
1.7294966152713713e+18,-0.10347537696361542,0.04250660911202431,-9.670397758483887
1.7294966152803715e+18,-0.049561090767383575,0.02793283946812153,-9.676240921020508
1.7294966152893716e+18,-0.0288543701171875,0.04523767903447151,-9.71654224395752
1.7294966152953718e+18,-0.09872974455356598,-0.004897904582321644,-9.711222648620605
1.729496615304372e+18,0.01360425353050232,0.01843269169330597,-9.722805976867676
1.7294966153133722e+18,-0.07512951642274857,-0.006910087540745735,-9.729243278503418
1.7294966153223724e+18,-0.07563266158103943,0.03569371998310089,-9.753107070922852
1.7294966153313725e+18,-0.051736194640398026,0.01623767428100109,-9.808298110961914
1.7294966153403727e+18,-0.10233011096715927,-0.05653705447912216,-9.865930557250977
1.729496615349373e+18,-0.004489347338676453,0.017393430694937706,-9.915897369384766
1.729496615355373e+18,-0.04280797392129898,0.008555085398256779,-9.842514038085938
1.7294966153643732e+18,-0.06816364079713821,0.07569605857133865,-9.903882026672363
1.7294966153733734e+18,-0.0019485503435134888,0.01784268021583557,-9.986900329589844
1.7294966153823736e+18,-0.043404676020145416,-0.011569945141673088,-10.05450439453125
1.7294966153913738e+18,-0.05118613690137863,-0.028959549963474274,-9.945162773132324
1.729496615400374e+18,-0.1098845824599266,0.11410912871360779,-9.946368217468262
1.7294966154093742e+18,-0.0864499881863594,-0.04469488561153412,-9.99106502532959
1.7294966154183744e+18,-0.08417054265737534,0.020780380815267563,-9.987069129943848
1.7294966154273746e+18,-0.087803415954113,0.026695746928453445,-10.017624855041504
1.7294966154363748e+18,-0.14777310192584991,0.04079055413603783,-10.068707466125488
1.729496615445375e+18,-0.05548017472028732,-0.017514880746603012,-10.087233543395996
1.7294966154543752e+18,-0.07849237322807312,0.039484903216362,-10.164958953857422
1.7294966154633754e+18,-0.08162741363048553,0.10387124866247177,-10.13376522064209
1.7294966154723756e+18,-0.04446408525109291,0.09507447481155396,-10.315611839294434
1.7294966154813757e+18,-0.12765057384967804,0.054239314049482346,-10.123897552490234
1.729496615490376e+18,-0.03512143716216087,0.001506127417087555,-10.15534782409668
1.729496615499376e+18,-0.10870946198701859,0.0013950001448392868,-10.18305778503418
1.7294966155053763e+18,-0.07830242812633514,-0.0377466082572937,-10.20932388305664
1.7294966155143764e+18,-0.0932006910443306,0.10876058787107468,-10.212846755981445
1.7294966155233766e+18,-0.03801122307777405,-0.00950835831463337,-10.209216117858887
1.7294966155323768e+18,-0.05738984793424606,0.15135414898395538,-10.345891952514648
1.729496615541377e+18,-0.12794509530067444,-0.006929926574230194,-10.267492294311523
1.7294966155533773e+18,-0.07484765350818634,0.015844088047742844,-10.260361671447754
1.7294966155623775e+18,-0.13931286334991455,0.023906590417027473,-10.272948265075684
1.7294966155713777e+18,-0.042977225035429,0.03953921049833298,-10.284845352172852
1.7294966155803779e+18,-0.08454472571611404,-0.012178104370832443,-10.389437675476074
1.729496615589378e+18,-0.0010013878345489502,-0.05154857784509659,-10.396538734436035
1.7294966155983782e+18,-0.024958759546279907,-0.06028354912996292,-10.34735107421875
1.7294966156073784e+18,-0.14207372069358826,0.13174808025360107,-10.49712085723877
1.7294966156163786e+18,-0.11325167864561081,-0.016666892915964127,-10.450416564941406
1.7294966156253788e+18,-0.09495557844638824,-0.006880279630422592,-10.4862642288208
1.729496615631379e+18,-0.0058985427021980286,0.04025807976722717,-10.494402885437012
1.7294966156403791e+18,-0.10559769719839096,0.04650350287556648,-10.561494827270508
1.7294966156493793e+18,-0.14147937297821045,0.015430695377290249,-10.548672676086426
1.7294966156613796e+18,-0.06725393235683441,0.019846854731440544,-10.49533748626709
1.7294966156703798e+18,-0.0983111634850502,-0.011411987245082855,-10.390056610107422
1.72949661567938e+18,-0.1469321995973587,0.01984311081469059,-10.615547180175781
1.7294966156883802e+18,-0.11504638940095901,0.03154373914003372,-10.584994316101074
1.7294966156973804e+18,-0.0737866461277008,0.060742661356925964,-10.640299797058105
