timestamp,gyro_x,gyro_y,gyro_z
1.7294966035801219e+18,0.00011775339226005599,0.0001155071659013629,0.0004958885838277638
1.729496603589122e+18,-0.0031090083066374063,-0.0009999244939535856,0.003366767195984721
1.7294966035981222e+18,0.0006786474259570241,0.0015352461487054825,-0.0021367003209888935
1.7294966036041224e+18,0.0013536351034417748,0.0006812711362726986,-0.0008307543466798961
1.7294966036131226e+18,-0.0020285460632294416,0.0005313504952937365,-0.001972382655367255
1.7294966036221228e+18,0.0010821445612236857,0.00022888180683366954,-0.0005188712384551764
1.729496603628123e+18,0.000968334439676255,-0.0014936767984181643,-0.0005993725499138236
1.729496603637123e+18,-0.00074508145917207,-0.00026636477559804916,-0.0009469817159697413
1.7294966036461233e+18,-0.0005310338456183672,0.001551841152831912,-0.0009461890440434217
1.7294966036551235e+18,0.0012527209473773837,0.0010332464007660747,0.00015940725279506296
1.7294966036611236e+18,-0.002453380264341831,-0.0009401688585057855,-0.0024932879023253918
1.7294966036701238e+18,0.0028555577155202627,0.0015665735118091106,0.0023795056622475386
1.729496603676124e+18,0.0004959242651239038,-0.00024127951473928988,0.0010305797914043069
1.729496603685124e+18,-0.00015692546730861068,-0.0004292306548450142,0.0014439617516472936
1.7294966036941243e+18,0.0032240571454167366,0.0013395212590694427,0.0010996144264936447
1.7294966037031245e+18,0.00020863824465777725,0.0008121044957078993,0.003361515700817108
1.7294966037091246e+18,-2.8474340069806203e-05,-0.0016463049687445164,-0.0002784130338113755
1.7294966037181248e+18,-0.0009558931924402714,-0.0031441536266356707,0.0019654161296784878
1.729496603727125e+18,-0.003027351340278983,-0.00015670071297790855,0.0004419102624524385
1.7294966037361252e+18,-0.0006352709606289864,0.0007860849727876484,-0.00012375930964481086
1.7294966037451254e+18,-0.0026433542370796204,0.0009395444649271667,-0.003656941233202815
1.7294966037511255e+18,-0.002299050334841013,-0.0016080832574516535,0.002310829935595393
1.7294966037601257e+18,-0.0005595296388491988,-0.0013798975851386786,-0.00025335437385365367
1.729496603769126e+18,-0.0034495790023356676,0.0008612924721091986,0.0013420064933598042
1.729496603778126e+18,0.0012210184941068292,0.0015274961479008198,-0.00014981890853960067
1.7294966037871263e+18,-0.0003557665040716529,0.0005305310478433967,0.0013975740876048803
1.7294966037931264e+18,-0.0008345973328687251,-0.0007105253753252327,-0.00017727562226355076
1.7294966038021266e+18,0.0016793891554698348,0.0008476898656226695,-0.00019903095380868763
1.7294966038111268e+18,0.0011966597521677613,0.0012158487224951386,0.00046709305024705827
1.729496603817127e+18,0.0007398029556497931,-0.0005393766332417727,0.0004055716854054481
1.729496603826127e+18,0.0003699506924021989,0.0010897672036662698,0.00046826372272334993
1.7294966038351273e+18,-0.002185193821787834,-0.0001234308147104457,-0.00421580346301198
1.7294966038441275e+18,-8.426287240581587e-05,0.0037972964346408844,-0.00012036182306474075
1.7294966038531277e+18,0.0020750316325575113,-0.00011613189417403191,0.0007477605831809342
1.7294966038591278e+18,-0.0014369013952091336,-0.00035652893711812794,0.0006864209426566958
1.729496603868128e+18,0.0009648282430134714,0.00022545421961694956,-0.0030920642893761396
1.7294966038741281e+18,-0.0009058960131369531,-0.0008737112511880696,-0.003155031707137823
1.7294966038831283e+18,0.0006260808440856636,0.0002982822188641876,-0.0008314285660162568
1.7294966038921285e+18,-0.0014607844641432166,-0.0006949944072403014,-0.00065771141089499
1.7294966039011287e+18,0.0004209964245092124,0.0018119908636435866,-0.0022914817091077566
1.7294966039071288e+18,0.001539271674118936,-0.0011067987652495503,0.0013655374059453607
1.729496603916129e+18,-0.0007127386634238064,-0.0007561753154732287,-0.0008513388456776738
1.7294966039251292e+18,0.0007180850952863693,0.003816436743363738,0.0009828242473304272
1.7294966039341294e+18,-0.0012685494730249047,0.0011696388246491551,-0.00028960220515727997
1.7294966039401295e+18,-0.00046274837222881615,-0.0007071635336615145,0.00103357236366719
1.7294966039491297e+18,-0.0017966781742870808,-0.001912111765705049,0.0007737134583294392
1.7294966039551299e+18,0.0008694871212355793,-0.001996300183236599,0.0007321598241105676
1.72949660396413e+18,0.00020526065782178193,-0.0032685273326933384,-0.002875435398891568
1.7294966039731302e+18,0.0016421516193076968,-5.508669710252434e-05,0.00020247558131814003
1.7294966039821304e+18,-0.0007301673176698387,0.0011324862716719508,0.00031093755387701094
1.7294966039911306e+18,0.0001667816104600206,-0.003047607373446226,-0.0008673726115375757
1.7294966040001308e+18,-0.0001539029472041875,0.0037548590917140245,-0.0005896169459447265
1.729496604006131e+18,0.0007980631780810654,0.000668680586386472,0.000834417762234807
1.7294966040151311e+18,0.0013671376509591937,0.0013188361190259457,-0.0011701019247993827
1.7294966040241313e+18,0.002901223720982671,-0.002541894093155861,-0.0010271853534504771
1.7294966040331315e+18,-0.0013407879741862416,-0.0030785687267780304,0.00213223765604198
1.7294966040421317e+18,0.0015984497731551528,-0.0004636438679881394,-0.0009375475347042084
1.7294966040481318e+18,0.00015261229418683797,0.0006650706054642797,-0.004013532306998968
1.729496604057132e+18,0.0025095518212765455,0.001048308564350009,0.0011445562122389674
1.7294966040661322e+18,0.0023473373148590326,-0.0014513221103698015,-0.0028283530846238136
1.7294966040751324e+18,-0.0013893920695409179,-0.00048182858154177666,-0.0017889123409986496
1.7294966040841326e+18,0.0011824520770460367,-7.941981311887503e-05,0.0009556635632179677
1.7294966040931328e+18,-0.004206894896924496,-0.0018515776610001922,-0.0008676168508827686
1.729496604102133e+18,-0.0003218978235963732,7.24165074643679e-05,-0.00015382557467091829
1.7294966041111332e+18,0.0011077262461185455,-0.003149778116494417,-0.00011813714081654325
1.7294966041171333e+18,0.0004822805058211088,0.0022368093486875296,0.000927937391679734
1.7294966041261335e+18,0.0008563385927118361,0.0016063048969954252,0.0002602699969429523
1.7294966041351337e+18,0.0010086082620546222,0.00018391817866358906,-0.002774714259430766
1.729496604144134e+18,0.0027359318919479847,0.0005531088681891561,0.0014637879794463515
1.729496604153134e+18,-0.0029424556996673346,0.0005152312223799527,-0.0011322826612740755
1.7294966041591342e+18,-0.0003954750136472285,-4.2440031393198296e-05,0.0010632978519424796
1.7294966041711345e+18,0.0019401356112211943,0.0019046139204874635,-0.002249977085739374
1.7294966041771346e+18,0.002094160532578826,0.0002654244308359921,-0.0006337795639410615
1.7294966041861348e+18,0.0005189484218135476,-0.0012841640273109078,-0.0007502329535782337
1.729496604195135e+18,-0.0021647638641297817,0.002137727104127407,0.00030734125175513327
1.7294966042071352e+18,0.0012930859811604023,0.0010629520984366536,0.0041096871718764305
1.7294966042161354e+18,-0.0011669740779325366,0.0022296581882983446,0.0022493607830256224
1.7294966042221356e+18,-0.0004828449455089867,0.0006592398276552558,-0.0013405481586232781
1.7294966042311357e+18,0.0002185279008699581,0.0009405363816767931,-0.002486057113856077
1.729496604240136e+18,-0.00011876702046720311,-0.0015380746917799115,-0.0011001008097082376
1.729496604249136e+18,-0.000991405569948256,0.0004780826857313514,-0.0012338639935478568
1.7294966042581363e+18,-0.0009027830674313009,0.0005673420964740217,0.0006044104811735451
1.7294966042641364e+18,6.170234701130539e-05,-0.0015824432484805584,-0.004312493838369846
1.7294966042731366e+18,-0.000795001455117017,-0.00027052100631408393,-0.00044230607454665005
1.7294966042821368e+18,-0.00212659384123981,-0.0009624951635487378,-0.0007683485164307058
1.729496604291137e+18,-0.002513271989300847,-0.0033940360881388187,0.002474434208124876
1.7294966043001372e+18,-0.0013780920999124646,0.0019815328996628523,0.00023763038916513324
1.7294966043091374e+18,-0.000503671180922538,0.000407418207032606,-0.0012131108669564128
1.7294966043181376e+18,0.001019874820485711,0.0011512883938848972,-0.0009726724238134921
1.7294966043271378e+18,-0.0028051736298948526,0.002417311305180192,-0.002055552089586854
1.729496604336138e+18,0.0012534325942397118,0.00027262087678536773,-0.001468436443246901
1.729496604342138e+18,-0.00031158883939497173,0.003710186807438731,0.0007118610083125532
1.7294966043511383e+18,0.0006738175288774073,-0.001497756689786911,0.00039578910218551755
1.7294966043571384e+18,0.003026151331141591,0.000869926530867815,0.0028923936188220978
1.7294966043661386e+18,-0.0002625470224302262,-0.001858305768109858,-0.00021362147526815534
1.7294966043751388e+18,-0.0009364630677737296,0.0017145696328952909,0.00014613904932048172
1.729496604384139e+18,-0.002569860313087702,0.002242140471935272,-0.0013376397546380758
1.7294966043901391e+18,0.003281888784840703,-0.00165201083291322,0.0030843166168779135
1.7294966043991393e+18,-0.0024686448741704226,0.0019287564791738987,-0.002941436367109418
1.7294966044081395e+18,0.0005444961134344339,0.0023764437064528465,0.00024788748123683035
1.7294966044171397e+18,0.004840188194066286,0.0008702594204805791,0.0021438824478536844
1.72949660442614e+18,0.0034021148458123207,-0.0005400479421950877,-0.0014939914690330625
1.72949660443214e+18,-6.189514533616602e-05,0.0020531462505459785,-0.0007133273174986243
1.7294966044441403e+18,-0.0033259436022490263,-0.00257180817425251,0.002871906850486994
1.7294966044501404e+18,0.0028518266044557095,-0.0010550788138061762,0.0002236083964817226
1.7294966044591406e+18,-0.0032899300567805767,-0.0007613410707563162,-0.0009228954440914094
1.7294966044651407e+18,0.00212581898085773,-0.0028327242471277714,-0.0001293670356972143
1.729496604474141e+18,-0.000522858405020088,0.0007130892481654882,0.002086417516693473
1.729496604483141e+18,-0.0022929669357836246,-0.0025891088880598545,-0.00026914317277260125
1.7294966044921413e+18,-1.12500913473923e-06,0.0007006717496551573,-0.0006211767322383821
1.7294966044981414e+18,-0.0008168930653482676,-0.0003177316684741527,0.0010929949348792434
1.7294966045071416e+18,-0.0021887740585952997,-0.0026505112182348967,-0.0004892749711871147
1.7294966045131418e+18,-0.00018780207028612494,-0.00026493737823329866,-0.0026223596651107073
1.729496604522142e+18,-0.00072004139656201,-0.0012649190612137318,-0.0021277086343616247
1.7294966045311421e+18,-0.0005923689459450543,0.002010412747040391,-4.043156877742149e-05
1.7294966045401423e+18,-0.00043942275806330144,0.002290921751409769,0.0018920677248388529
1.7294966045461425e+18,-0.003165759611874819,0.0009341175900772214,0.0012944384943693876
1.7294966045551427e+18,-0.001422424684278667,0.0002958820550702512,-0.0007759847794659436
1.7294966045641428e+18,-0.0033609389793127775,-4.504780372371897e-05,0.0009133910061791539
1.729496604570143e+18,-0.00048584642354398966,0.0006459950818680227,-0.0020396967884153128
1.7294966045821432e+18,-0.0019493947038426995,-0.00023957403027452528,0.0011700673494488
1.7294966045881434e+18,-0.0006740880198776722,0.0015537446597591043,0.002318396931514144
1.7294966045971436e+18,-0.0015320169040933251,-0.0016009635291993618,-0.0011419588699936867
1.7294966046061437e+18,0.00010767595085781068,0.001359926420263946,-0.0006040239823050797
1.729496604615144e+18,0.0023387016262859106,0.0006635769968852401,0.001360743772238493
1.729496604621144e+18,0.002472525229677558,-0.0022789305076003075,0.0003164960944559425
1.7294966046301443e+18,-0.002614501165226102,-0.0003061367606278509,-0.001695053419098258
1.7294966046361444e+18,0.0006883276510052383,0.0046506235376000404,0.001646999386139214
1.7294966046451446e+18,-0.0010399406310170889,0.0002498292305972427,0.0030179177410900593
1.7294966046541448e+18,-0.002246727468445897,0.0007856200099922717,0.0012681271182373166
1.729496604663145e+18,0.005248007830232382,-0.0013205606956034899,0.0013827832881361246
1.729496604669145e+18,-0.003495464799925685,0.001160777872428298,0.0013724524760618806
1.7294966046781453e+18,-0.0005044284625910223,-0.0007256297976709902,0.0011471821926534176
1.7294966046871455e+18,0.0008800752111710608,0.0004513087624218315,-0.0031521341297775507
1.7294966046961457e+18,0.0010925327660515904,0.0007976089837029576,-0.0019844917114824057
1.7294966047021458e+18,-0.0001939866633620113,-0.0023512449115514755,0.001626952551305294
1.729496604711146e+18,0.0013554372126236558,-0.0005315958405844867,0.0029913417529314756
1.7294966047201462e+18,-0.0026356615126132965,-0.0012835609959438443,-2.2139056454761885e-05
1.7294966047261463e+18,-0.0012595616281032562,-0.0032255458645522594,-0.0003086922806687653
1.7294966047351465e+18,0.00033872443600557745,0.0004907577531412244,-0.00027052551740780473
1.7294966047441467e+18,-0.00043644304969348013,-0.0007661990239284933,-0.0017462261021137238
1.729496604753147e+18,-0.00044653069926425815,-0.003458454040810466,0.0010983060346916318
1.729496604759147e+18,-0.001452825265005231,0.0017040243837982416,-3.649110453807225e-07
1.7294966047681472e+18,0.0012813867069780827,-0.00030184516799636185,0.0017086180159822106
1.7294966047771474e+18,-0.0009865646716207266,-0.0015172985149547458,-0.0008013384067453444
1.7294966047861476e+18,-0.00021503436437342316,-0.0004163788980804384,-0.0013471167767420411
1.7294966047951478e+18,0.0037897429428994656,-0.0036543540190905333,-0.0016376142157241702
1.729496604804148e+18,0.001785620697773993,0.0001943949901033193,-6.28551933914423e-05
1.7294966048131482e+18,0.0008641790482215583,-0.0002661727776285261,0.00014468123845290393
1.7294966048221484e+18,0.0014329772675409913,0.0023596053943037987,-0.0009535395074635744
1.7294966048281485e+18,-0.002033190568909049,-0.0018465690081939101,-0.0009715552441775799
1.7294966048371487e+18,0.0035854028537869453,-0.00028335049864836037,0.0014893985353410244
1.7294966048461489e+18,0.0002093117218464613,0.0004133520706091076,-0.0019238687818869948
1.729496604852149e+18,-0.0008425264968536794,-0.0004064718377776444,0.002285194117575884
1.7294966048611492e+18,-0.000985806924290955,0.0030732513405382633,-0.002075082389637828
1.7294966048701494e+18,0.0001195766162709333,-0.002442328492179513,-0.0014704931527376175
1.7294966048761495e+18,0.0021942986641079187,0.000668457942083478,0.0010886740637943149
1.7294966048881498e+18,-7.426856609527022e-05,-0.0028387021739035845,5.633414730255026e-06
1.72949660489415e+18,-0.0003419713757466525,-0.0013632748741656542,0.0008187312050722539
1.72949660490315e+18,4.997524956706911e-05,-0.00028757378458976746,-0.0006165177910588682
1.7294966049121503e+18,0.0011053640628233552,-0.003914895001798868,-0.0006051273667253554
1.7294966049181504e+18,-0.0016235942021012306,7.459897915396141e-06,-0.00048693540156818926
1.7294966049271506e+18,-0.0007378712180070579,-0.0010724777821451426,0.0011065589496865869
1.7294966049361508e+18,0.00031375870457850397,-0.0011870163725689054,0.002176490379497409
1.729496604945151e+18,-0.0005484333960339427,0.0024148121010512114,0.0007574412156827748
1.7294966049541512e+18,0.002542894333600998,-0.0015300341183319688,0.0011150469072163105
1.7294966049601513e+18,0.0014226241037249565,-2.4772240067250095e-05,-0.0005766619578935206
1.7294966049691515e+18,-0.002143384888768196,-0.003285575658082962,-0.0010393395787104964
1.7294966049781517e+18,-0.0004293543170206249,0.0007240815320983529,0.0007013975991867483
1.729496604987152e+18,0.0003553447313606739,-0.0011863294057548046,0.002394413109868765
1.729496604996152e+18,0.0009423516457900405,-0.0010349663207307458,-0.0007178394589573145
1.7294966050051523e+18,0.0012370349140837789,-0.0013892664574086666,-0.0029825426172465086
1.7294966050141524e+18,0.002409233944490552,-0.0006680046790279448,-0.0005297136958688498
1.7294966050201526e+18,0.002703829435631633,0.0030509750358760357,-0.0010029152035713196
1.7294966050291528e+18,0.002117699710652232,-0.00029802770586684346,-0.0015363165875896811
1.729496605035153e+18,-0.0016301368596032262,0.0020278082229197025,0.00048437732039019465
1.729496605044153e+18,-0.00031350768404081464,0.001222848310135305,9.76385927060619e-05
1.7294966050531533e+18,-0.0035707007627934217,-0.0008491497719660401,0.0041605085134506226
1.7294966050621535e+18,0.0015708612045273185,0.00014859730436000973,-0.0005083992145955563
1.7294966050681536e+18,-0.0008761095814406872,0.0008580277790315449,0.0007600379176437855
1.7294966050771538e+18,-0.0016797365387901664,0.000913210678845644,-0.0030748751014471054
1.729496605086154e+18,-0.00169245689176023,-0.0006800227565690875,0.0012363462010398507
1.7294966050951542e+18,-0.002084718318656087,0.0017600416904315352,-0.0019680887926369905
1.7294966051041544e+18,0.0004317423445172608,0.0008605820476077497,-0.00127397698815912
1.7294966051131546e+18,-0.0005900710821151733,-0.0021475180983543396,2.5188332074321806e-05
1.7294966051221548e+18,-0.0008044049609452486,0.002296754391863942,-0.001193932374008
1.729496605131155e+18,0.0015868882182985544,0.001690412638708949,0.0011096288217231631
1.729496605137155e+18,0.0014087437884882092,0.0011604526080191135,-0.0007320550503209233
1.7294966051461553e+18,-0.0016600851668044925,-0.0013703831937164068,8.142956357914954e-05
1.7294966051521554e+18,-0.0014667781069874763,-0.0025858618319034576,-0.004540848545730114
1.7294966051611556e+18,0.0013975775800645351,-0.0008780247299000621,0.0004481738433241844
1.7294966051701558e+18,0.0020150886848568916,0.001195784192532301,-0.0019022299675270915
1.729496605179156e+18,-0.0010512053268030286,6.939066952327266e-05,-0.003085233038291335
1.7294966051881562e+18,0.0005885462160222232,0.0005307263345457613,-0.0005141253350302577
1.7294966052001564e+18,0.000390211382182315,0.00180629245005548,0.0007952667656354606
1.7294966052061565e+18,-0.0003817398101091385,-0.0006666559493169188,6.776519148843363e-05
1.7294966052151567e+18,-0.001748924027197063,0.001383367576636374,0.0026100112590938807
1.729496605224157e+18,0.0020939374808222055,-0.001653335988521576,-0.0013625110732391477
1.729496605233157e+18,6.885873881401494e-05,0.0006500209565274417,5.35931576450821e-05
1.7294966052421573e+18,0.0003132346901111305,0.0033918831031769514,-0.001636009430512786
1.7294966052511575e+18,0.0011260403553023934,0.00047625484876334667,-0.00038862935616634786
1.7294966052601577e+18,-0.0005333247827365994,0.0012602971401065588,0.0008179071010090411
1.729496605269158e+18,0.0002430726890452206,-0.0018193407449871302,0.00029058923246338964
1.729496605275158e+18,-0.001729818875901401,-0.0004022029461339116,0.002320962492376566
1.7294966052841582e+18,0.0010609709424898028,0.0021811593323946,0.0018518994329497218
1.7294966052931584e+18,9.246788977179676e-05,-0.0007452939171344042,-0.0014959104591980577
1.7294966053021586e+18,0.00038015347672626376,0.0013771244557574391,-6.11599170952104e-05
1.7294966053111588e+18,-0.0014968451578170061,0.0018037718255072832,0.0005704985233023763
1.729496605320159e+18,-0.002475528744980693,-0.0012576576555147767,-0.0005379542126320302
1.7294966053291592e+18,-0.0003043693141080439,-0.0006754031055606902,0.0009854676900431514
1.7294966053381594e+18,0.0011701959883794188,-0.0017238871660083532,0.00016994903853628784
1.7294966053441595e+18,-0.0026094322092831135,-0.0015497449785470963,-0.0012085671769455075
1.7294966053531597e+18,0.000964904495049268,0.0019008871167898178,-0.0003958415181841701
1.7294966053621599e+18,0.002140318276360631,-0.0018671167781576514,-0.0009581624763086438
1.72949660536816e+18,-0.00258239614777267,-0.00019642581173684448,0.0002669409732334316
1.7294966053771602e+18,0.0011018536752089858,0.001019451068714261,-0.0004688504559453577
1.7294966053861604e+18,-0.002053140662610531,0.002255144529044628,-0.001696708262898028
1.7294966053921605e+18,-0.002495430875569582,-8.945590525399894e-05,-0.0002173058019252494
1.7294966054011607e+18,0.00144051609095186,-0.0012348515447229147,0.0011910352623090148
1.729496605410161e+18,0.002606815192848444,-4.636416633729823e-05,0.0016943593509495258
1.729496605419161e+18,6.366441084537655e-05,0.0007686843164265156,0.0009022990125231445
1.7294966054281613e+18,2.853973455785308e-05,-0.002832709811627865,0.0005029941676184535
1.7294966054341614e+18,0.0006208824343048036,0.0009591898997314274,0.000637479592114687
1.7294966054431616e+18,-0.0014258984010666609,-0.0021927549969404936,-0.00040737554081715643
1.7294966054491617e+18,-0.0010703055886551738,-0.0007899412885308266,0.0005712545826099813
1.729496605458162e+18,0.001569940010085702,0.0003584730438888073,0.0005821892991662025
1.729496605467162e+18,-8.667541260365397e-05,0.0010173679329454899,0.001792825642041862
1.7294966054761623e+18,0.022474907338619232,-0.025553906336426735,-0.002278624102473259
1.7294966054821624e+18,0.038450226187705994,-0.04819187894463539,-0.0002492210187483579
1.7294966054911626e+18,0.06373979151248932,-0.07277967035770416,-0.0006356016965582967
1.7294966055001628e+18,0.07822440564632416,-0.09399189800024033,-0.0014286935329437256
1.729496605506163e+18,0.08456128090620041,-0.10270798951387405,0.0012531981337815523
1.7294966055151631e+18,0.07582408934831619,-0.10276532918214798,-0.001213165931403637
1.7294966055241633e+18,0.06373216956853867,-0.09109868854284286,0.0008100575068965554
1.7294966055331635e+18,0.04909331724047661,-0.08533112704753876,-0.0006564888171851635
1.7294966055391636e+18,0.050065744668245316,-0.07952965795993805,-0.00033897507819347084
1.7294966055481638e+18,0.05249853432178497,-0.08028705418109894,-0.0008858186192810535
1.729496605554164e+18,0.05862119793891907,-0.08468714356422424,7.64344003982842e-05
1.7294966055631642e+18,0.07146968692541122,-0.08767113089561462,-0.00030734195024706423
1.7294966055721644e+18,0.07034510374069214,-0.08771549165248871,-0.000998005853034556
1.7294966055781645e+18,0.07190866023302078,-0.08812182396650314,0.0008423859835602343
1.7294966055871647e+18,0.06176714971661568,-0.08009689301252365,0.00036399788223206997
1.7294966055961649e+18,0.039248671382665634,-0.07088503241539001,-0.002554494421929121
1.729496605605165e+18,0.0319434255361557,-0.05693734437227249,-0.0008077782113105059
1.7294966056141652e+18,0.022876333445310593,-0.04932955652475357,-0.0020001258235424757
1.7294966056231654e+18,0.023606786504387856,-0.046232081949710846,-0.0027898643165826797
1.7294966056291656e+18,0.029021762311458588,-0.04293002933263779,-0.002696014940738678
1.7294966056381658e+18,0.029085729271173477,-0.04244501143693924,-0.0011064335703849792
1.729496605644166e+18,0.029650019481778145,-0.04081060737371445,-0.002328168135136366
1.729496605653166e+18,0.02587953954935074,-0.03521728515625,-0.0007414051215164363
1.7294966056621663e+18,0.015670180320739746,-0.021088704466819763,-0.0012207916006445885
1.7294966056681664e+18,0.006970830261707306,-0.019085535779595375,-0.0021581866312772036
1.7294966056771666e+18,-0.000535622239112854,-0.010106786154210567,-0.0012197416508570313
1.7294966056861668e+18,-0.005730277858674526,-0.003554243128746748,0.00033455685479566455
1.729496605695167e+18,-0.0072531565092504025,0.003676281776279211,-0.0009822139982134104
1.7294966057041672e+18,-0.004855821840465069,0.006096983328461647,-0.001152495271526277
1.7294966057101673e+18,-0.003167638787999749,0.009431786835193634,5.646550562232733e-05
1.7294966057191675e+18,-0.005928250961005688,0.01035147812217474,-0.0022785949986428022
1.7294966057281677e+18,-0.005821150727570057,0.013368339277803898,-0.002436759416013956
1.729496605737168e+18,-0.012254561297595501,0.014951304532587528,-0.001164199784398079
1.729496605746168e+18,-0.02127194218337536,0.02030046284198761,-0.0017750285333022475
1.7294966057521682e+18,-0.02196398936212063,0.024822382256388664,-0.0009707353310659528
1.7294966057611684e+18,-0.026398882269859314,0.027654677629470825,-0.0005776665639132261
1.7294966057701686e+18,-0.02558136358857155,0.03408825770020485,-0.0020139124244451523
1.7294966057791688e+18,-0.02047603577375412,0.0355980359017849,-0.001978218089789152
1.729496605785169e+18,-0.021923257037997246,0.034027986228466034,-0.0006907813367433846
1.729496605794169e+18,-0.01928202249109745,0.03693646565079689,3.3455435186624527e-06
1.7294966058031693e+18,-0.022946739569306374,0.03612254559993744,-0.0020772949792444706
1.7294966058091694e+18,-0.022599412128329277,0.039009109139442444,-0.0013491587014868855
1.7294966058181696e+18,-0.029037106782197952,0.03541070595383644,-0.0005046515725553036
1.7294966058271698e+18,-0.03198843449354172,0.04147675260901451,-0.0016407552175223827
1.72949660583317e+18,-0.030675875023007393,0.03981761634349823,-0.0013235294027253985
1.72949660584217e+18,-0.02739618718624115,0.03787313029170036,-0.003374780062586069
1.7294966058481702e+18,-0.025031093508005142,0.03932463750243187,-0.0022359408903867006
1.7294966058571704e+18,-0.025232991203665733,0.04258674383163452,-0.0018676315667107701
1.7294966058661706e+18,-0.026394911110401154,0.04333223029971123,-0.0022840891033411026
1.7294966058751708e+18,-0.023920437321066856,0.03850767761468887,0.000601596781052649
1.729496605884171e+18,-0.029194841161370277,0.038685888051986694,-0.0010831777472048998
1.7294966058901711e+18,-0.02612784132361412,0.041251178830862045,-0.0003381175920367241
1.7294966058991713e+18,-0.02737879566848278,0.0384209118783474,-0.0003202746156603098
1.7294966059051715e+18,-0.02203153446316719,0.038330256938934326,-0.0008038162486627698
1.7294966059141716e+18,-0.025857457891106606,0.03720799833536148,0.00019238831009715796
1.7294966059231718e+18,-0.02460305579006672,0.03729911148548126,0.00017814512830227613
1.729496605929172e+18,-0.024515066295862198,0.03451201319694519,-0.0010440698824822903
1.7294966059381722e+18,-0.02618885412812233,0.030904646962881088,-0.0011006873100996017
1.7294966059471724e+18,-0.023100299760699272,0.03133348003029823,-0.0005125784082338214
1.7294966059561725e+18,-0.02551533281803131,0.035127293318510056,-0.001892243861220777
1.7294966059651727e+18,-0.023130543529987335,0.03436695411801338,-0.0016441830666735768
1.729496605974173e+18,-0.021067431196570396,0.037545397877693176,-0.002322930609807372
1.729496605983173e+18,-0.021371444687247276,0.03618789464235306,-0.0023732471745461226
1.7294966059921733e+18,-0.02307862974703312,0.03188434988260269,-0.005205224268138409
1.7294966060011735e+18,-0.021964529529213905,0.031482890248298645,-0.001819864846765995
1.7294966060071736e+18,-0.022850390523672104,0.032885417342185974,0.0018054683459922671
1.7294966060161738e+18,-0.022874418646097183,0.028048284351825714,-0.002146691782400012
1.729496606025174e+18,-0.02297859825193882,0.02964114584028721,-0.003604611847549677
1.7294966060311741e+18,-0.02002527192234993,0.025077277794480324,-0.0032942071557044983
1.7294966060401743e+18,-0.016742337495088577,0.026805462315678596,-0.0027627204544842243
1.7294966060491745e+18,-0.016417719423770905,0.025850415229797363,-0.0016669456381350756
1.7294966060581747e+18,-0.014380648732185364,0.022215718403458595,-0.0026207806076854467
1.7294966060641748e+18,-0.015322580933570862,0.027701063081622124,-0.0023517399094998837
1.729496606073175e+18,-0.02029459923505783,0.02552393451333046,-0.0018839486874639988
1.7294966060821752e+18,-0.016747036948800087,0.023906851187348366,-0.001717155915684998
1.7294966060881754e+18,-0.011907124891877174,0.02071365714073181,-0.0002376777119934559
1.7294966060971756e+18,-0.016732722520828247,0.02097925916314125,-0.0017416473710909486
1.7294966061061757e+18,-0.015100904740393162,0.019855663180351257,-0.0009485206101089716
1.729496606115176e+18,-0.014896326698362827,0.016697434708476067,-0.0010819635353982449
1.7294966061241761e+18,-0.013343140482902527,0.01955120451748371,-0.000854983925819397
1.7294966061301763e+18,-0.013063270598649979,0.01696353778243065,-0.0017090998589992523
1.7294966061391764e+18,-0.01658618077635765,0.017452284693717957,-0.00235715857706964
1.7294966061481766e+18,-0.01132822036743164,0.015303660184144974,-0.0030198621097952127
1.7294966061541768e+18,-0.011979488655924797,0.014833945780992508,-0.004780125804245472
1.729496606163177e+18,-0.010823148302733898,0.01352354884147644,-0.0030153547413647175
1.7294966061721772e+18,-0.009066008031368256,0.011068996042013168,-0.004280880559235811
1.7294966061781773e+18,-0.00883952435106039,0.009190711192786694,-0.0011529263574630022
1.7294966061871775e+18,-0.0070555442944169044,0.014502661302685738,-0.0010946225374937057
1.7294966061961777e+18,-0.009942975826561451,0.009650686755776405,-0.004680602345615625
1.7294966062021778e+18,-0.00972028635442257,0.014815891161561012,-0.0016608983278274536
1.729496606211178e+18,-0.011096898466348648,0.010247277095913887,-0.004016433842480183
1.7294966062201782e+18,-0.010327213443815708,0.009107574820518494,-0.002444272628054023
1.7294966062291784e+18,-0.005741737317293882,0.010058451443910599,-0.0003808521432802081
1.7294966062351785e+18,-0.009470931254327297,0.009049590677022934,-0.000316177261993289
1.7294966062441787e+18,-0.007880985736846924,0.009494461119174957,-0.001673253602348268
1.729496606253179e+18,-0.005159624386578798,0.009210057556629181,0.0004985468694940209
1.729496606259179e+18,-0.008412095718085766,0.0074830250814557076,-0.0013332541566342115
1.7294966062681792e+18,-0.008977091871201992,0.008126613683998585,-0.0022484646178781986
1.7294966062741793e+18,-0.009812251664698124,0.010676715523004532,-0.001806066371500492
1.7294966062831795e+18,-0.011100256815552711,0.008434283547103405,9.097112342715263e-05
1.7294966062921797e+18,-0.008615119382739067,0.01186165027320385,0.0008815225446596742
1.7294966062981798e+18,-0.011086556129157543,0.008497326634824276,0.0002791229635477066
1.72949660630718e+18,-0.006506345234811306,0.009068825282156467,-0.0014983369037508965
1.7294966063161802e+18,-0.002982406411319971,0.007506150286644697,0.0009383908472955227
1.7294966063221804e+18,-0.005929615814238787,0.0075628627091646194,8.057826198637486e-05
1.7294966063311805e+18,-0.004708579275757074,0.0066001201048493385,-0.002841831650584936
1.7294966063401807e+18,-0.0054989829659461975,0.007897972129285336,-0.002592635340988636
1.7294966063461809e+18,-0.006997128017246723,0.010357417166233063,-0.00212908280082047
1.729496606355181e+18,-0.0074019660241901875,0.010623432695865631,-0.0020637433044612408
1.7294966063611812e+18,-0.00838194414973259,0.007113658357411623,0.0018584132194519043
1.7294966063701814e+18,-0.009404192678630352,0.012163280509412289,-0.0007292602094821632
1.7294966063791816e+18,-0.007433756720274687,0.009522926062345505,-0.0028729743789881468
1.7294966063881818e+18,-0.0016525837127119303,0.009092877618968487,-0.0002963653823826462
1.729496606397182e+18,0.001213576877489686,0.00940263457596302,0.0009732145117595792
1.729496606403182e+18,0.0007450106786563993,0.010500705800950527,-0.00184699019882828
1.7294966064121823e+18,-0.005067257210612297,0.00871917326003313,-0.0007666816236451268
1.7294966064211825e+18,-0.00648362236097455,0.011395215056836605,-0.0009956732392311096
1.7294966064271826e+18,-0.008907917886972427,0.013025004416704178,8.564142626710236e-05
1.7294966064361828e+18,-0.0074262460693717,0.009418639354407787,-0.0009234006283804774
1.729496606442183e+18,-0.007620880845934153,0.012851870618760586,-0.001364029129035771
1.729496606451183e+18,-0.003026648424565792,0.010410783812403679,-0.0006849796045571566
1.7294966064601833e+18,-0.0009250699658878148,0.011961741372942924,0.004036718979477882
1.7294966064661834e+18,0.00075886445119977,0.012771302834153175,0.002126046223565936
1.7294966064751836e+18,-0.0009601657511666417,0.011584552004933357,-0.002182594034820795
1.7294966064841838e+18,-0.003704328089952469,0.013072031550109386,0.002006286522373557
1.729496606493184e+18,-0.0068813650868833065,0.0077593219466507435,-1.5612939023412764e-05
1.7294966065021842e+18,-0.011295590549707413,0.010599409230053425,7.820954488124698e-05
1.7294966065081843e+18,-0.008627445437014103,0.006038011983036995,-0.0002702163183130324
1.7294966065171845e+18,-0.004757363814860582,0.006681922357529402,0.0011897245422005653
1.7294966065261847e+18,-0.00208683917298913,0.00843393336981535,0.0006416748510673642
1.729496606535185e+18,0.002962967846542597,0.011779221706092358,0.0020878221839666367
1.729496606541185e+18,0.0023430241271853447,0.014174537733197212,-0.0021727620624005795
1.7294966065501852e+18,-0.0009226922993548214,0.0065324329771101475,0.001329503720626235
1.7294966065561853e+18,-0.00475552212446928,0.010782945901155472,-0.0003829876659438014
1.7294966065651855e+18,-0.00890452228486538,0.009312139824032784,0.0025632712058722973
1.7294966065711857e+18,-0.010101307183504105,0.00989230815321207,0.0010920362547039986
1.7294966065801859e+18,-0.00977382343262434,0.005308434832841158,0.002729238010942936
1.729496606589186e+18,-0.0068102264776825905,0.010491520166397095,-0.00035806046798825264
1.7294966065981862e+18,-0.003910429775714874,0.012256206013262272,0.0003590972046367824
1.7294966066071864e+18,-0.004825180396437645,0.01082681305706501,0.0006627006805501878
1.7294966066131866e+18,-0.0038318021688610315,0.00522777670994401,0.0008315328741446137
1.7294966066221868e+18,-0.005272609647363424,0.007481718901544809,0.0020258338190615177
1.729496606628187e+18,-0.006749042309820652,0.002745597390457988,0.004302379209548235
1.729496606637187e+18,-0.00643033254891634,0.006509913131594658,0.00015784299466758966
1.7294966066461873e+18,-0.008202034048736095,0.007054977118968964,0.0018612820422276855
1.7294966066521874e+18,-0.00809796154499054,0.0047402167692780495,0.0005436225910671055
1.7294966066611876e+18,-0.004225220996886492,0.005585222039371729,0.0025488603860139847
1.7294966066701878e+18,-0.005693494342267513,0.00556900491937995,0.0030828409362584352
1.729496606679188e+18,-0.002267860807478428,0.005008978303521872,0.002079575089737773
1.729496606685188e+18,-0.007043625693768263,0.006012123543769121,7.009797263890505e-05
1.7294966066941883e+18,-0.0016880352050065994,0.007060895673930645,0.0036355569027364254
1.7294966067031885e+18,0.0006989804096519947,0.002093409188091755,0.002994979964569211
1.7294966067091886e+18,-0.00010278250556439161,0.0030770183075219393,-0.000695208553224802
1.7294966067181888e+18,-0.0007185313734225929,0.0023030885495245457,0.001490734051913023
1.729496606727189e+18,-0.002636565826833248,0.0016778854187577963,0.002558726817369461
1.7294966067361892e+18,-0.00473122950643301,0.0006810901686549187,0.00034811010118573904
1.7294966067421893e+18,-0.0011786322575062513,0.005293157882988453,-0.0004184120334684849
1.7294966067511895e+18,-0.0033977932762354612,0.004560608416795731,-0.0002239118330180645
1.7294966067571896e+18,-0.004851047415286303,0.002791291568428278,0.003135689999908209
1.7294966067661898e+18,-0.004171296022832394,0.0023285141214728355,0.0024529877118766308
1.72949660677519e+18,-0.005311072804033756,0.001881356700323522,0.0018401704728603363
1.7294966067841902e+18,-0.0024629917461425066,-0.0011010682210326195,0.0020749608520418406
1.7294966067901903e+18,-0.0016812165267765522,0.00037497328594326973,0.0022884360514581203
1.7294966067991905e+18,-0.0006955571006983519,0.0007242101710289717,0.0013568931026384234
1.7294966068051907e+18,0.0013648211024701595,0.002879686653614044,0.005466524511575699
1.7294966068141908e+18,-0.00039876869414001703,0.0021479749120771885,0.0029349508695304394
1.729496606823191e+18,-0.003678069217130542,0.002828204073011875,0.0030403733253479004
1.7294966068321912e+18,-0.007226681336760521,0.001208398025482893,0.0031237376388162374
1.7294966068411914e+18,-0.005809069145470858,0.0021620753686875105,0.006295420229434967
1.7294966068531917e+18,-0.004518658854067326,0.0002479536924511194,0.001941997790709138
1.7294966068621919e+18,-0.004285865928977728,-0.0005909097380936146,0.003922673873603344
1.729496606868192e+18,0.0013829220551997423,0.003066345350816846,0.007362985983490944
1.7294966068771922e+18,0.0013388977386057377,0.0017714403802528977,0.0017219285946339369
1.7294966068861924e+18,-0.0003909983206540346,-0.0015518353320658207,0.0014838696224614978
1.7294966068951926e+18,-0.003914502449333668,-8.080038242042065e-06,0.003333970671519637
1.7294966069041928e+18,-0.007534359581768513,0.000433953944593668,0.0006031629163771868
1.729496606913193e+18,-0.006943108513951302,0.0024409587495028973,0.0015979221789166331
1.729496606919193e+18,-0.0009737215004861355,0.0008554781670682132,0.0025757241528481245
1.7294966069281933e+18,0.00024242745712399483,-0.00044130219612270594,0.0027135859709233046
1.7294966069371935e+18,-0.0020605630706995726,0.002141835168004036,0.0037586449179798365
1.7294966069431936e+18,0.0005331237334758043,0.00017915794160217047,0.0026523082051426172
1.7294966069521938e+18,-0.001330305589362979,0.0016067938413470984,0.0028625638224184513
1.729496606961194e+18,-0.0022010470274835825,-0.0017930627800524235,0.003653532825410366
1.729496606967194e+18,-0.0015618304023519158,0.002370368456467986,0.0024389103055000305
1.7294966069761943e+18,-0.0024035884998738766,0.0037890933454036713,0.0020988681353628635
1.7294966069851945e+18,-0.002878551371395588,-0.0006817220710217953,0.002947424538433552
1.7294966069911946e+18,-0.0018157075392082334,0.005541845690459013,0.001971205696463585
1.7294966070001948e+18,0.0001236440148204565,0.00250149704515934,-0.00012404588051140308
1.729496607009195e+18,0.000322886451613158,0.0034389877691864967,0.003694837214425206
1.7294966070181952e+18,-0.0007005247753113508,0.001216783421114087,0.003375664819031954
1.7294966070241953e+18,-0.005346179474145174,-0.0010946994880214334,0.000979643315076828
1.7294966070331955e+18,-0.005840787198394537,-0.0017731087282299995,-0.0004913182929158211
1.7294966070421957e+18,-0.0016052434220910072,-0.0016597392968833447,0.0030958629213273525
1.729496607051196e+18,-0.001911486149765551,0.0026143647264689207,-0.0004951395094394684
1.729496607060196e+18,-0.0014386019902303815,0.0020111354533582926,0.0019576360937207937
1.7294966070661962e+18,-0.0006481257150880992,-0.00041245645843446255,0.00373843964189291
1.7294966070751964e+18,0.0005293973372317851,0.002568738767877221,0.00264428136870265
1.7294966070841966e+18,0.0009110858081839979,0.004119856283068657,0.00259421463124454
1.7294966070931968e+18,0.0035716667771339417,0.0014234674163162708,0.0017208741046488285
1.729496607102197e+18,2.6709531084634364e-05,0.0018027222249656916,0.0023983269929885864
1.729496607108197e+18,-0.001836605602875352,0.0011350205168128014,0.0006897024577483535
1.7294966071171973e+18,-0.0009504938498139381,0.0006857006810605526,0.0037691204342991114
1.7294966071261975e+18,-0.0011040187673643231,0.0011636059498414397,-0.001524795196019113
1.7294966071351977e+18,-0.0027065405156463385,0.001481708837673068,0.0005618497380055487
1.729496607144198e+18,0.0031975898891687393,0.00472769420593977,0.002039995277300477
1.729496607153198e+18,-0.0006747550796717405,0.004716681316494942,0.0004280655412003398
1.7294966071621983e+18,0.0017341317143291235,0.004496076609939337,-0.00100371812004596
1.7294966071711985e+18,0.0012964889174327254,0.0021576317958533764,0.003696498228237033
1.7294966071801987e+18,0.0024469189811497927,-0.0011864507105201483,0.00038288396899588406
1.7294966071891988e+18,0.001753354794345796,0.0012632203288376331,0.0014817635528743267
1.729496607198199e+18,0.0022421646863222122,0.0030970503576099873,0.000300055427942425
1.7294966072041992e+18,0.0018879943527281284,0.0017610134091228247,-0.0018745210254564881
1.7294966072131994e+18,0.002340676262974739,0.00496951537206769,-0.0018097817664965987
1.7294966072221996e+18,0.003632277250289917,0.005986778996884823,-0.0011353065492585301
1.7294966072311997e+18,0.004955411888659,0.005014209076762199,0.0029683406464755535
1.7294966072402e+18,0.0032336695585399866,0.004105744883418083,0.0009397772373631597
1.7294966072492e+18,0.0024615100119262934,0.003540197852998972,0.0007670869235880673
1.7294966072552003e+18,0.002130180364474654,0.0029889752622693777,-6.69709115754813e-05
1.7294966072642004e+18,0.0029410975985229015,-0.002519555389881134,0.0011643352918326855
1.7294966072732006e+18,-0.0019843722693622112,0.000694984570145607,-0.003644796786829829
1.7294966072792008e+18,0.0025488054379820824,-0.0020918864756822586,-0.0035466665867716074
1.729496607288201e+18,0.0011608750792220235,-0.001973092323169112,0.0030497172847390175
1.729496607294201e+18,0.004660382866859436,-0.0004963345127180219,-0.0022989024873822927
1.7294966073032013e+18,0.00593091594055295,0.00032398058101534843,0.0029022404924035072
1.7294966073122015e+18,0.005235711112618446,0.000884478387888521,-0.0029841288924217224
1.7294966073182016e+18,0.002598813036456704,0.0016176353674381971,0.003690495155751705
1.7294966073302019e+18,-0.0021739033982157707,-0.0028506473172456026,0.0017681370954960585
1.729496607336202e+18,0.0011471097823232412,-0.0032673231326043606,0.0005600352887995541
1.7294966073452022e+18,-0.0009183762012980878,-0.0035000741481781006,-0.0008401025552302599
1.7294966073512023e+18,0.0006241176160983741,-0.004368244204670191,-0.00027584523195400834
1.7294966073602025e+18,0.0006878890562802553,-0.0033160275779664516,0.00013980199582874775
1.7294966073692027e+18,0.0020013218745589256,-0.003334019798785448,-0.003338666632771492
1.7294966073752028e+18,0.0015941121382638812,-0.0021437229588627815,0.00033742847153916955
1.729496607384203e+18,0.002158781513571739,-0.003516575787216425,-0.001388042001053691
1.7294966073932032e+18,0.0002701536868698895,0.0011218634899705648,0.0007500218925997615
1.7294966074052035e+18,-0.0024764107074588537,-0.0003215025644749403,0.0029758219607174397
1.7294966074142036e+18,-0.0013888783287256956,-0.00406913785263896,-0.0013385734055191278
1.7294966074232038e+18,-0.0012901301961392164,-0.0016374485567212105,-0.00196846853941679
1.729496607432204e+18,-0.0012142378836870193,-0.0005297809257172048,-0.0026469777803868055
1.7294966074382042e+18,0.00235628429800272,-0.0004974149051122367,-0.001047339290380478
1.7294966074472044e+18,0.0022062845528125763,-0.002644795458763838,0.0006134111317805946
1.7294966074562045e+18,0.0038993139751255512,-0.0005081313429400325,-0.00027954630786553025
1.7294966074652047e+18,1.693240483291447e-05,-0.0031360602006316185,0.0007153715705499053
1.7294966074712049e+18,-0.0021741832606494427,-0.00236526969820261,0.0020419692154973745
1.729496607480205e+18,-0.0012216028990224004,-0.0010088746203109622,0.00032831900171004236
1.7294966074892052e+18,0.0009275646880269051,-0.004608124028891325,0.0015329825691878796
1.7294966074982054e+18,-7.507385453209281e-05,-0.0008715269505046308,0.0009193303994834423
1.7294966075072056e+18,0.00438760407269001,-0.0025721692945808172,0.0006251282175071537
1.7294966075132058e+18,0.0029062579851597548,-0.0005183056346140802,0.0016580477822571993
1.729496607522206e+18,0.0023931837640702724,-0.0017996197566390038,0.0015886927722021937
1.7294966075312061e+18,-0.0011790459975600243,-0.0022657671943306923,5.500549013959244e-05
1.7294966075402063e+18,-0.00038628815673291683,-0.003506298642605543,0.0016481323400512338
1.7294966075462065e+18,0.002851091558113694,-0.0034083710052073,-0.0020238514989614487
1.7294966075552067e+18,-0.0006416882388293743,-0.0017151267966255546,0.0014604475582018495
1.7294966075642068e+18,0.0030018845573067665,-0.005035261623561382,0.00150222925003618
1.729496607570207e+18,0.0052372245118021965,-0.003106445074081421,0.0007235714001581073
1.7294966075792072e+18,0.004979999735951424,-0.0091527896001935,-0.00014987564645707607
1.7294966075882074e+18,0.003761131316423416,-0.0034790989011526108,-0.0009373713983222842
1.7294966075972076e+18,0.00494847446680069,-0.006831591948866844,0.0010267130564898252
1.7294966076062077e+18,0.004494081251323223,-0.00518550630658865,0.0029516899958252907
1.729496607615208e+18,0.0008080920670181513,-0.005783686880022287,0.00148681178689003
1.729496607621208e+18,0.0033633096609264612,-0.004537549801170826,-0.00211565219797194
1.7294966076302083e+18,0.0006908765062689781,0.00019129551947116852,0.004107367247343063
1.7294966076362084e+18,0.002430184744298458,-0.006007538177073002,0.0009613119182176888
1.7294966076452086e+18,0.0035584799479693174,-0.001611956860870123,0.0003593884175643325
1.7294966076542088e+18,0.000885630608536303,-0.0037112762220203876,0.003818692872300744
1.729496607663209e+18,0.004554472863674164,-0.007804251275956631,0.00012054538819938898
1.7294966076722092e+18,0.0022937851026654243,-0.007195873651653528,0.001260279444977641
1.7294966076782093e+18,0.001572177978232503,-0.004284252878278494,0.0026990873739123344
1.7294966076902095e+18,0.0017580100102350116,-0.00878618098795414,0.003204531501978636
1.7294966076962097e+18,-0.0008925404981710017,-0.003087412565946579,0.00032826163806021214
1.7294966077052099e+18,-0.00027503742603585124,-0.005670067388564348,0.0031458104494959116
1.72949660771121e+18,0.0032038348726928234,-0.0055951871909201145,0.0026442324742674828
1.7294966077202102e+18,0.004009833559393883,-0.004291852470487356,0.0010611473117023706
1.7294966077292104e+18,0.004143208730965853,-0.0031050455290824175,0.0010122876847162843
1.7294966077382106e+18,0.007624875754117966,-0.005959284491837025,-0.00021527474746108055
1.7294966077442107e+18,0.00024471431970596313,-0.008270777761936188,0.0031713058706372976
1.729496607753211e+18,0.006511871702969074,-0.005198579281568527,0.0013587500434368849
1.729496607762211e+18,0.004515816457569599,-0.005522185005247593,0.0027424944564700127
1.7294966077712113e+18,0.00465796934440732,-0.00559103861451149,0.00342038506641984
1.7294966077772114e+18,0.002694549970328808,-0.006505625322461128,0.000467791804112494
1.7294966077862116e+18,0.001136718550696969,-0.0068042101338505745,0.005374521017074585
1.7294966077952118e+18,0.0011748780962079763,-0.0035966846626251936,-0.0008580454159528017
1.729496607804212e+18,0.0015600972110405564,-0.007943647913634777,0.0003917114809155464
1.729496607810212e+18,0.0034199152141809464,-0.00463121710345149,0.0007812441908754408
1.7294966078192123e+18,0.005707557313144207,-0.004664351232349873,-0.007317904382944107
1.7294966078282125e+18,0.010976663790643215,-0.00679729925468564,-0.024106070399284363
1.7294966078372127e+18,0.010266002267599106,-0.005837832577526569,-0.02475797012448311
1.7294966078462129e+18,0.01249491423368454,-0.004430740140378475,-0.025627173483371735
1.729496607855213e+18,0.0076219202019274235,-0.0062532490119338036,-0.02752368524670601
1.7294966078642132e+18,0.0071242256090044975,-0.005650232546031475,-0.026465056464076042
1.7294966078702134e+18,0.009148335084319115,-0.008726458996534348,-0.02540639229118824
1.7294966078792136e+18,0.003632868640124798,-0.003510689828544855,-0.027356592938303947
1.7294966078882138e+18,0.00700205797329545,-0.006843165494501591,-0.02381649799644947
1.729496607897214e+18,0.0028367184568196535,-0.0062333219684660435,-0.026101961731910706
1.7294966079062141e+18,0.005809294059872627,-0.003655328880995512,-0.02536637708544731
1.7294966079122143e+18,0.007930045947432518,-0.005727304611355066,-0.023808887228369713
1.7294966079212145e+18,0.007010289002209902,-0.004148487932980061,-0.024246517568826675
1.7294966079302147e+18,0.006073351483792067,-0.00683025224134326,-0.024338772520422935
1.7294966079392148e+18,0.002674634801223874,-0.007403139024972916,-0.021912775933742523
1.729496607948215e+18,0.000419936201069504,-0.00809731986373663,-0.016861537471413612
1.7294966079572152e+18,0.0017090250039473176,-0.005062712822109461,-0.01882518269121647
1.7294966079632154e+18,-0.001659496920183301,-0.006111742928624153,-0.01970398612320423
1.7294966079722156e+18,0.0015995793510228395,-0.006109953857958317,-0.018414832651615143
1.7294966079812157e+18,0.0017224008915945888,-0.003655635751783848,-0.013172673061490059
1.729496607990216e+18,0.0019003604538738728,-0.0008371747098863125,-0.013242307119071484
1.729496607999216e+18,0.00021876237588003278,-0.002621893072500825,-0.008967097848653793
1.7294966080052163e+18,-0.003028108738362789,-0.0029025885742157698,-0.010505571961402893
1.7294966080142164e+18,-0.00029950356110930443,-0.005176975391805172,-0.008488438092172146
1.7294966080232166e+18,-0.004006403498351574,-0.005763912573456764,-0.006937083322554827
1.7294966080292168e+18,-0.00251411902718246,-0.007139881141483784,-0.007529545575380325
1.729496608038217e+18,-0.0002468229504302144,-0.0049701109528541565,-0.0021798666566610336
1.7294966080502172e+18,0.0008415663614869118,-0.0030969479121267796,-0.0015525908675044775
1.7294966080562173e+18,-0.0004890820709988475,-0.0059526227414608,-0.0009422156144864857
1.7294966080652175e+18,-0.0015048920176923275,-0.0010447243694216013,0.00028353024390526116
1.7294966080712177e+18,-4.910082498099655e-05,-0.003473469987511635,0.0008273195708170533
1.7294966080802179e+18,-0.003023747820407152,-0.004293648526072502,0.0026846076361835003
1.729496608089218e+18,-0.0005984027520753443,-0.001273531699553132,0.005154770333319902
1.7294966080952182e+18,-0.0014999411068856716,-0.0047628069296479225,0.006026807706803083
1.7294966081042184e+18,-0.0021981894969940186,-0.007017010822892189,0.009276574477553368
1.7294966081132186e+18,-0.0002681006444618106,-0.00482028815895319,0.00901048630475998
1.7294966081222188e+18,-0.001244089799001813,0.00023863045498728752,0.007544334977865219
1.729496608131219e+18,0.0031579039059579372,-0.001052092993631959,0.007482713554054499
1.7294966081402191e+18,0.0024183806963264942,-0.003363332711160183,0.012970436364412308
1.7294966081492193e+18,0.0004860134795308113,-0.0011177515843883157,0.012776982970535755
1.7294966081582195e+18,0.0030642168130725622,-0.005582026671618223,0.016193175688385963
1.7294966081672197e+18,0.0020682173781096935,-0.0021240138448774815,0.016670795157551765
1.72949660817922e+18,0.004899597726762295,-0.0024093356914818287,0.015429504215717316
1.7294966081882202e+18,0.0038616382516920567,0.0005297785392031074,0.01999460905790329
1.7294966081972204e+18,0.004881876986473799,-0.0022899690084159374,0.01820949837565422
1.7294966082062205e+18,0.007154517341405153,-0.004370595794171095,0.02578822150826454
1.7294966082152207e+18,0.003246814478188753,-0.0068603879772126675,0.02317054383456707
1.729496608224221e+18,0.0055987648665905,-0.005657165311276913,0.02300984039902687
1.729496608230221e+18,0.004331560339778662,-0.005277841817587614,0.025906171649694443
1.7294966082392212e+18,0.008465241640806198,-0.00473635271191597,0.027292247861623764
1.7294966082482214e+18,0.0005190276424400508,-0.002224500523880124,0.02923966571688652
1.7294966082542216e+18,-0.0008839564980007708,-0.002977905794978142,0.026721270754933357
1.7294966082632218e+18,-0.0017871425952762365,-0.0020677221473306417,0.034201908856630325
1.729496608272222e+18,-0.0009988336823880672,-0.0012369868345558643,0.033300358802080154
1.729496608278222e+18,0.002077574608847499,-0.0020739873871207237,0.030497044324874878
1.7294966082872223e+18,0.002863827161490917,-0.0054313610307872295,0.03154568001627922
1.7294966082962225e+18,0.004453951958566904,-0.00505127664655447,0.03460606187582016
1.7294966083052227e+18,0.004729577340185642,-0.007255942560732365,0.031569723039865494
1.7294966083112228e+18,-0.0012914228718727827,-0.007615247275680304,0.03490753471851349
1.729496608320223e+18,0.0012999335303902626,-0.005674484185874462,0.03572215139865875
1.7294966083292232e+18,-0.004321820102632046,-0.005635745357722044,0.0411313995718956
1.7294966083382234e+18,-0.004574116785079241,-0.007824359461665154,0.03993998467922211
1.7294966083472236e+18,-0.0036301726941019297,-0.008499126881361008,0.03958022594451904
1.7294966083532237e+18,-0.0013291012728586793,-0.01027502678334713,0.039278168231248856
1.7294966083622239e+18,0.0021757236681878567,-0.009379041381180286,0.041570741683244705
1.729496608371224e+18,-0.00010627717711031437,-0.006152813322842121,0.04409927502274513
1.7294966083802243e+18,-0.001734226825647056,-0.007570780348032713,0.045039210468530655
1.7294966083892244e+18,-0.0012357615632936358,-0.007923204451799393,0.04496779292821884
1.7294966083982246e+18,0.0006077525904402137,-0.006637263111770153,0.043947745114564896
1.7294966084072248e+18,-0.0005578191485255957,-0.008080246858298779,0.04538184776902199
1.729496608416225e+18,0.001467373687773943,-0.005768449977040291,0.04695797711610794
1.7294966084252252e+18,0.003346619661897421,-0.0030484150629490614,0.044910259544849396
1.7294966084342254e+18,0.005717133171856403,-0.005522675346583128,0.047294821590185165
1.7294966084432256e+18,0.00580134941264987,-0.0054779876954853535,0.04764994606375694
1.7294966084522258e+18,0.0007646024459972978,-0.008219490759074688,0.04335459694266319
1.729496608461226e+18,0.004442209843546152,-0.008451835252344608,0.04804836958646774
1.7294966084702262e+18,-4.0393671952188015e-05,-0.0053739845752716064,0.04770376533269882
1.7294966084762263e+18,0.003440400119870901,-0.009144475683569908,0.047601521015167236
1.7294966084852265e+18,0.004431344103068113,-0.005598840303719044,0.048216160386800766
1.7294966084942267e+18,0.002337929094210267,-0.005492690484970808,0.04825696721673012
1.729496608503227e+18,0.0029191398061811924,-0.0034848391078412533,0.04582598805427551
1.729496608512227e+18,0.0020395168103277683,-0.00779343768954277,0.048610907047986984
1.7294966085212273e+18,0.0002139208372682333,-0.003991429693996906,0.049356959760189056
1.7294966085302275e+18,0.0015726493438705802,-0.008418056182563305,0.05226326733827591
1.7294966085392276e+18,0.000906433560885489,-0.008927582763135433,0.04842742532491684
1.7294966085482278e+18,0.002727606799453497,-0.009404297918081284,0.04951705038547516
1.729496608557228e+18,0.0020721761975437403,-0.002937959274277091,0.04791588336229324
1.7294966085632282e+18,0.002317894948646426,-0.0038514432962983847,0.051322802901268005
1.7294966085752284e+18,0.003207564353942871,-0.00702337920665741,0.0529797337949276
1.7294966085842286e+18,0.0006825081072747707,-0.007466037757694721,0.05358770489692688
1.7294966085902287e+18,-0.0009125829674303532,-0.007152840495109558,0.04912187159061432
1.729496608602229e+18,7.554957119282335e-05,-0.007506572641432285,0.054021310061216354
1.7294966086112292e+18,0.0006198098417371511,-0.00756891118362546,0.05490700155496597
1.7294966086202294e+18,0.00047915929462760687,-0.006786709651350975,0.050399281084537506
1.7294966086292296e+18,-0.0006939468439668417,-0.006133465562015772,0.05350483953952789
1.7294966086382298e+18,0.003107073251157999,-0.005969931371510029,0.05496206879615784
1.72949660864723e+18,0.003070545382797718,-0.00530165433883667,0.05556357279419899
1.7294966086562301e+18,0.006013536360114813,-0.004688756074756384,0.05636400356888771
1.7294966086622303e+18,0.005673377774655819,-0.005119902081787586,0.05371076241135597
1.7294966086712305e+18,0.003489953465759754,-0.004504384472966194,0.056774526834487915
1.7294966086802307e+18,0.0032516191713511944,-0.004174455069005489,0.05994393676519394
1.7294966086892308e+18,0.003138695377856493,-0.0020506323780864477,0.05728713423013687
1.729496608698231e+18,0.0006167243700474501,-0.006323032546788454,0.057378966361284256
1.7294966087072312e+18,0.006454861722886562,-0.0017629351932555437,0.05866682156920433
1.7294966087162314e+18,-0.00028673000633716583,-0.001787134213373065,0.060642920434474945
1.7294966087252316e+18,0.006134629249572754,-0.004161418881267309,0.06235268712043762
1.7294966087342318e+18,0.0022134899627417326,-0.0029643613379448652,0.05748545005917549
1.729496608743232e+18,0.0004717720439657569,-0.004390616901218891,0.05929998308420181
1.729496608749232e+18,-0.0012171295238658786,-0.007009396329522133,0.06165539473295212
1.7294966087582323e+18,-0.0010939614148810506,-0.004955325275659561,0.061949823051691055
1.7294966087642324e+18,0.0016734208911657333,-0.004696620162576437,0.061177514493465424
1.7294966087732326e+18,0.0024017931427806616,-0.001830850844271481,0.06648167222738266
1.7294966087822328e+18,0.003359583904966712,-0.001183421816676855,0.06203979253768921
1.729496608791233e+18,0.0028735697269439697,-0.002223435090854764,0.06260627508163452
1.7294966088002332e+18,0.0024111680686473846,-0.006678401492536068,0.06350646167993546
1.7294966088062333e+18,-0.0005077042151242495,-0.001982802525162697,0.06415387243032455
1.7294966088152335e+18,0.000955951982177794,-0.002896447665989399,0.06542105227708817
1.7294966088242337e+18,0.0017822399968281388,-0.00490115350112319,0.06472331285476685
1.7294966088302339e+18,-0.0002800820511765778,-0.005107398144900799,0.06769030541181564
1.729496608839234e+18,0.002255064435303211,-0.0038713221438229084,0.06469094008207321
1.7294966088482342e+18,0.00020545790903270245,-0.005095248576253653,0.06840740889310837
1.7294966088542344e+18,-0.0012886200565844774,-0.003149661235511303,0.06419722735881805
1.7294966088632346e+18,-0.00012147566303610802,-0.003810105612501502,0.06824991852045059
1.7294966088722348e+18,0.002334029646590352,-0.007577202748507261,0.0692160353064537
1.729496608881235e+18,0.0007289770292118192,-0.005187119357287884,0.06704400479793549
1.7294966088902351e+18,0.0036449905019253492,-0.005534019786864519,0.069095678627491
1.7294966088992353e+18,-9.01695602806285e-05,-0.004130702931433916,0.06818374246358871
1.7294966089082355e+18,0.00043788226321339607,-0.004658428952097893,0.0694233700633049
1.7294966089172357e+18,-0.0027163117192685604,-0.005119130946695805,0.06993100047111511
1.729496608926236e+18,-0.003644034266471863,-0.006617301143705845,0.0725899413228035
1.729496608935236e+18,-0.004708137828856707,-0.004162820987403393,0.07061432301998138
1.7294966089442363e+18,-0.0015475951367989182,-0.0053168549202382565,0.07070792466402054
1.7294966089532365e+18,-0.0029994803480803967,-0.003904942190274596,0.07074471563100815
1.7294966089622367e+18,-0.0002659228630363941,-0.0027607353404164314,0.0708034485578537
1.729496608974237e+18,0.00021806926815770566,-0.003351666033267975,0.07046078145503998
1.729496608983237e+18,-0.004402326885610819,-0.00431647477671504,0.06763233244419098
1.7294966089892372e+18,0.0006259383517317474,-0.005032050888985395,0.07155340164899826
1.7294966089982374e+18,0.0012170894769951701,-0.006122946739196777,0.072908915579319
1.7294966090072376e+18,-0.0036338018253445625,-0.0007899885531514883,0.07059250771999359
1.7294966090162378e+18,0.0017060494283214211,-0.005465244874358177,0.07247792929410934
1.729496609022238e+18,0.0001253477530553937,-0.007188319228589535,0.0677022784948349
1.7294966090312381e+18,0.010852117091417313,-0.009364807046949863,0.06633898615837097
1.7294966090372383e+18,0.01577707938849926,-0.015069428831338882,0.06501492112874985
1.7294966090462385e+18,0.01998754031956196,-0.015798771753907204,0.06655818969011307
1.7294966090552387e+18,0.023421915248036385,-0.024971773847937584,0.06796910613775253
1.7294966090612388e+18,0.021755214780569077,-0.02060646004974842,0.06316560506820679
1.729496609070239e+18,0.019247496500611305,-0.021794386208057404,0.06109243631362915
1.7294966090792392e+18,0.01500078197568655,-0.026855044066905975,0.05836085230112076
1.7294966090882394e+18,0.01486673578619957,-0.024790048599243164,0.05699221417307854
1.7294966090972396e+18,0.020017100498080254,-0.02541608177125454,0.05796052888035774
1.7294966091032397e+18,0.020787930116057396,-0.02524571493268013,0.05715664103627205
1.7294966091122399e+18,0.024862850084900856,-0.026984889060258865,0.05588102340698242
1.72949660912124e+18,0.02704920433461666,-0.026026109233498573,0.05276211351156235
1.7294966091302403e+18,0.024069225415587425,-0.028382135555148125,0.05249856039881706
1.7294966091362404e+18,0.01819702610373497,-0.026296302676200867,0.049139589071273804
1.7294966091452406e+18,0.017669061198830605,-0.02279367484152317,0.04999478533864021
1.7294966091512407e+18,0.015171391889452934,-0.022976553067564964,0.048136111348867416
1.729496609160241e+18,0.01728484220802784,-0.021525509655475616,0.04844836890697479
1.729496609169241e+18,0.018858319148421288,-0.01884293369948864,0.0465405210852623
1.7294966091782413e+18,0.019711395725607872,-0.021247975528240204,0.04419415071606636
1.7294966091872415e+18,0.018670503050088882,-0.020338140428066254,0.046534303575754166
1.7294966091962417e+18,0.012958827428519726,-0.01656489446759224,0.04681655764579773
1.7294966092022418e+18,0.010507509112358093,-0.015818731859326363,0.044754963368177414
1.729496609211242e+18,0.007151601370424032,-0.015615442767739296,0.04209110885858536
1.7294966092202422e+18,0.004851008765399456,-0.013822558335959911,0.04386802390217781
1.7294966092262423e+18,0.0044974833726882935,-0.011087038554251194,0.04210846126079559
1.7294966092352425e+18,0.004338080994784832,-0.015179384499788284,0.04073449596762657
1.7294966092442427e+18,0.011128585785627365,-0.010056436993181705,0.041686560958623886
1.7294966092502428e+18,0.0078117758966982365,-0.01176444161683321,0.043051593005657196
1.729496609259243e+18,0.008230767212808132,-0.010003621689975262,0.038820162415504456
1.7294966092682432e+18,0.003447343595325947,-0.009015954099595547,0.03631164878606796
1.7294966092772434e+18,0.0016425547655671835,-0.008415279909968376,0.04011939465999603
1.7294966092832435e+18,0.0006446797633543611,-0.004565315321087837,0.03872616961598396
1.7294966092922437e+18,0.001571443397551775,-0.00398269621655345,0.03371850401163101
1.729496609301244e+18,-0.0005983210867270827,-0.0047416118904948235,0.03632590174674988
1.729496609310244e+18,0.00246625579893589,-0.004311166703701019,0.035743825137615204
1.7294966093162442e+18,0.002098174300044775,-0.003514224197715521,0.03487476706504822
1.7294966093252444e+18,0.004726576153188944,-0.0012143624480813742,0.03397897258400917
1.7294966093342446e+18,0.001350946957245469,-0.005472549237310886,0.030895419418811798
1.7294966093432448e+18,-0.0025319927372038364,-0.0009857302065938711,0.03602343425154686
1.729496609349245e+18,-0.0006717675714753568,0.0011068728053942323,0.034161459654569626
1.729496609358245e+18,-0.004501234274357557,0.0005314594600349665,0.028430692851543427
1.7294966093672453e+18,-0.0012505059130489826,0.0010853353887796402,0.031230321153998375
1.7294966093762455e+18,-0.0022000528406351805,0.0015227899421006441,0.028457680717110634
1.7294966093822456e+18,-0.0004262278089299798,-0.0015437372494488955,0.026835307478904724
1.7294966093912458e+18,0.0012640291824936867,-0.0006038474966771901,0.02633524313569069
1.729496609400246e+18,0.0004861759953200817,-0.0005905615398660302,0.02981480211019516
1.7294966094092462e+18,0.0007402437040582299,0.0013985114637762308,0.02086472138762474
1.7294966094182464e+18,-0.0012258188799023628,0.00198626727797091,0.024812504649162292
1.7294966094242465e+18,-0.0014068166492506862,0.0033904416486620903,0.025908298790454865
1.7294966094332467e+18,0.003130232449620962,0.005172328557819128,0.024046869948506355
1.729496609442247e+18,0.0004019115585833788,0.001887570833787322,0.022342398762702942
1.729496609451247e+18,0.00155469193123281,0.004049362614750862,0.025489334017038345
1.7294966094602473e+18,0.0020841644145548344,0.003591656219214201,0.020985368639230728
1.7294966094662474e+18,0.001015032408758998,0.004502497147768736,0.025597484782338142
1.7294966094752476e+18,-0.001813091104850173,-0.0007648228202015162,0.022253284230828285
1.7294966094842478e+18,-0.0024429659824818373,-9.893556125462055e-05,0.01826607994735241
1.729496609493248e+18,-0.004082072991877794,0.002828159835189581,0.02435782179236412
1.7294966095022482e+18,-0.0019764527678489685,0.0019323215819895267,0.02182147651910782
1.7294966095112484e+18,0.0024148921947926283,0.0023926387075334787,0.017554160207509995
1.7294966095202486e+18,0.0005128312623128295,0.0033612502738833427,0.020115302875638008
1.7294966095292488e+18,0.0019286818569526076,0.0031353721860796213,0.017498254776000977
1.729496609538249e+18,0.0004426548257470131,0.0030820579268038273,0.018731990829110146
1.7294966095472492e+18,0.00023691347450949252,0.0018258499912917614,0.01697736792266369
1.7294966095562493e+18,-0.0004217063542455435,0.005256528966128826,0.018748492002487183
1.7294966095652495e+18,-0.0030976985581219196,0.0057108448818326,0.01808096095919609
1.7294966095742497e+18,-0.0010180026292800903,0.00311487028375268,0.014713031239807606
1.72949660958325e+18,-0.0037217263597995043,0.001181941945105791,0.015223800204694271
1.72949660959225e+18,0.001709038857370615,0.004452342167496681,0.014931056648492813
1.7294966096012503e+18,-0.00155575608368963,0.00729295052587986,0.015561142936348915
1.7294966096102505e+18,-0.0003513928968459368,0.008258111774921417,0.014360999688506126
1.7294966096192507e+18,-0.0024686576798558235,0.008144816383719444,0.013357964344322681
1.729496609628251e+18,-0.005832326598465443,0.004392604809254408,0.013790693134069443
1.729496609637251e+18,0.00029187509790062904,0.003325666533783078,0.012780277989804745
1.7294966096462513e+18,-0.0008616067934781313,0.0039125485345721245,0.010212909430265427
1.7294966096522514e+18,0.0016002540942281485,0.006779642775654793,0.015032120048999786
1.7294966096642516e+18,0.004129800945520401,0.006096371449530125,0.015040434896945953
1.7294966096732518e+18,0.0013660058612003922,0.005516961216926575,0.012824606150388718
1.729496609679252e+18,0.0009063204634003341,0.005593248642981052,0.012920704670250416
1.7294966096882522e+18,-0.0008100634440779686,0.007353330962359905,0.010195087641477585
1.7294966096972524e+18,-0.004872001241892576,0.009524030610918999,0.010805740021169186
1.7294966097062525e+18,-0.0009661494987085462,0.00957473460584879,0.00845574215054512
1.7294966097152527e+18,-0.003982718102633953,0.0071053639985620975,0.007659795228391886
1.729496609724253e+18,-0.00067014095839113,0.008403846062719822,0.010009783320128918
1.729496609733253e+18,-0.0029177116230130196,0.009947828948497772,0.008850771933794022
1.7294966097422533e+18,-0.004842718131840229,0.007103367708623409,0.00735546974465251
1.7294966097482534e+18,-0.0025516583118587732,0.009749072603881359,0.00935288891196251
1.7294966097572536e+18,-0.005347086116671562,0.009503278881311417,0.010414808057248592
1.7294966097662538e+18,-0.0023517112713307142,0.010880209505558014,0.00984056293964386
1.729496609775254e+18,-0.0031671435572206974,0.009230128489434719,0.006489884573966265
1.7294966097842542e+18,-0.002614662516862154,0.008418599143624306,0.00765392417088151
1.7294966097902543e+18,-0.005921364761888981,0.009379521943628788,0.007086966652423143
1.7294966098022546e+18,-0.0024754819460213184,0.011968538165092468,0.008178438991308212
1.7294966098112548e+18,-0.004900445230305195,0.006769237108528614,0.007533025927841663
1.729496609817255e+18,-0.00930129922926426,0.008643963374197483,0.005327539052814245
1.7294966098292552e+18,-0.006320059299468994,0.006598110310733318,0.00731950718909502
1.7294966098352553e+18,-0.004318748135119677,0.009732511825859547,0.0037620761431753635
1.7294966098442555e+18,-0.0019097222248092294,0.0062423329800367355,0.004667472559958696
1.7294966098532557e+18,-0.0024899309501051903,0.009114679880440235,0.004054807126522064
1.7294966098592558e+18,-0.0043207742273807526,0.008157473988831043,0.006162770092487335
1.729496609868256e+18,-0.005238526035100222,0.009946063160896301,0.005932117346674204
1.7294966098802563e+18,-0.0075640385039150715,0.010061297565698624,0.005131924990564585
1.7294966098862564e+18,-0.009270615875720978,0.007983733899891376,0.004024299792945385
1.7294966098952566e+18,-0.0073127467185258865,0.0033261957578361034,0.005457804538309574
1.7294966099042568e+18,-0.0030160327441990376,0.003987893927842379,-0.0005015376955270767
1.729496609913257e+18,0.0008285375079140067,0.008173905313014984,0.004656578414142132
1.7294966099222572e+18,-0.0012906783958896995,0.0058863358572125435,0.004434536676853895
1.7294966099312573e+18,-0.0037087497767060995,0.007899287156760693,0.003088627476245165
1.7294966099402575e+18,-0.0033956863917410374,0.005141617264598608,0.0031291849445551634
1.7294966099492577e+18,-0.0075707947835326195,0.004160785581916571,0.004179319366812706
1.7294966099552579e+18,-0.006574132014065981,0.006574045866727829,0.0035461969673633575
1.729496609964258e+18,-0.005124402232468128,0.0050743515603244305,0.003968818113207817
1.7294966099732582e+18,-0.003723433241248131,0.004490261897444725,0.0019561215303838253
1.7294966099822584e+18,-0.004612854681909084,0.006309110671281815,0.0003241696394979954
1.7294966099882586e+18,0.0007063501980155706,0.005981382913887501,0.003165776375681162
1.7294966099972588e+18,-0.0028085848316550255,0.008865075185894966,0.002051833551377058
1.729496610006259e+18,-0.004199498798698187,0.005254969000816345,0.0015660315984860063
1.7294966100152591e+18,-0.004765028599649668,0.009098788723349571,0.0009252384770661592
1.7294966100212593e+18,-0.0023842481896281242,0.010678754188120365,0.0015318430960178375
1.7294966100302595e+18,-0.004264448303729296,0.009069818072021008,0.002429944695904851
1.7294966100362596e+18,-0.004561235196888447,0.008273609913885593,0.005593414418399334
1.7294966100452598e+18,-0.003772667609155178,0.00905513670295477,-0.00011022354010492563
1.72949661005426e+18,-0.004187653306871653,0.008783000521361828,-0.000106004998087883
1.7294966100632602e+18,0.0016729929484426975,0.009045235812664032,-0.0004812742117792368
1.7294966100692603e+18,-0.0021891151554882526,0.010937999002635479,-0.001882580341771245
1.7294966100782605e+18,-0.0010487906401976943,0.009999534115195274,0.00254710391163826
1.7294966100872607e+18,-0.0017944129649549723,0.011502035893499851,0.00021389476023614407
1.7294966100962609e+18,-0.00517821591347456,0.010181508027017117,-0.0012975925346836448
1.729496610105261e+18,-0.0019354233518242836,0.012064134702086449,0.0032847183756530285
1.7294966101112612e+18,-0.004322351887822151,0.011617387644946575,0.001950324745848775
1.7294966101202614e+18,0.00031854165717959404,0.011872529983520508,-0.0019887802191078663
1.7294966101292616e+18,-0.0033578984439373016,0.01083504781126976,-0.0024798440281301737
1.7294966101382618e+18,-0.004151636268943548,0.008505135774612427,0.0007391441031359136
1.729496610147262e+18,-0.004413853865116835,0.007015482988208532,-0.0014446447603404522
1.729496610153262e+18,-0.005134438630193472,0.010684676468372345,0.003248505061492324
1.7294966101622623e+18,-0.004591434262692928,0.010623043403029442,-0.0028003801126033068
1.7294966101712625e+18,-0.004525955766439438,0.00941685400903225,-0.000871485099196434
1.7294966101802627e+18,-0.0023304715286940336,0.013665391132235527,-0.0013368717627599835
1.7294966101892628e+18,-0.004019396845251322,0.014889285899698734,0.0015268870629370213
1.729496610195263e+18,-0.0032719296868890524,0.013137402012944221,-0.0013986751437187195
1.7294966102042632e+18,-0.0016404766356572509,0.01234564371407032,0.002163979457691312
1.7294966102132634e+18,-0.003407958662137389,0.011821647174656391,-0.0028570755384862423
1.7294966102222636e+18,-0.0056089116260409355,0.011132732033729553,-0.003135339356958866
1.7294966102282637e+18,-0.0059726424515247345,0.008527616038918495,0.0005798108177259564
1.729496610237264e+18,-0.0030575417913496494,0.007632009219378233,-0.0008529017795808613
1.729496610246264e+18,-0.004245906602591276,0.010006826370954514,-0.00025954365264624357
1.7294966102522642e+18,-0.0019185396376997232,0.010143992491066456,0.00011361308861523867
1.7294966102642644e+18,0.0008026323048397899,0.006631661672145128,-0.00030574575066566467
1.7294966102702646e+18,-0.0041014887392520905,0.009988334961235523,0.001873637898825109
1.7294966102792648e+18,-0.0028528457041829824,0.009699768386781216,-0.0010086578549817204
1.729496610288265e+18,-0.004816861357539892,0.012899424880743027,-0.003392025362700224
1.7294966102972652e+18,-0.007226122077554464,0.009657420217990875,-0.0022415700368583202
1.7294966103062653e+18,-0.004035393241792917,0.010154319927096367,-0.004281923174858093
1.7294966103122655e+18,-0.0036913142539560795,0.010221526958048344,0.0011665496276691556
1.7294966103212657e+18,-0.001269251573830843,0.006555427331477404,-0.0025988277047872543
1.7294966103302659e+18,0.0011157762492075562,0.0035893309395760298,-0.0012566001387313008
1.729496610336266e+18,0.003401645924896002,0.004647514317184687,-0.000271150260232389
1.7294966103452662e+18,4.420278128236532e-05,0.005831204354763031,-0.00023315008729696274
1.7294966103542664e+18,0.0013032190036028624,0.009379151277244091,-0.0028716044034808874
1.7294966103632666e+18,-0.0014932329067960382,0.012588725425302982,-0.00325945345684886
1.7294966103692667e+18,-0.004395349882543087,0.010532597079873085,8.739763870835304e-05
1.729496610378267e+18,-0.006566792726516724,0.008603309281170368,-0.001539858989417553
1.729496610387267e+18,1.7776619642972946e-05,0.005684883799403906,-0.0025330667849630117
1.7294966103962673e+18,-0.0017642360180616379,0.00509650819003582,-0.003074624575674534
1.7294966104022674e+18,-0.002936416305601597,0.005343233235180378,0.0008687342051416636
1.7294966104112676e+18,-0.0011436528293415904,0.007386175449937582,-0.0027344515547156334
1.7294966104202678e+18,-0.004307976923882961,0.0105670765042305,-6.179558113217354e-05
1.729496610426268e+18,-0.0013316581025719643,0.009229639545083046,-0.004212769214063883
1.729496610435268e+18,-0.00676247151568532,0.007765020709484816,-0.00030094338580965996
1.7294966104412682e+18,-0.006068533752113581,0.00624344265088439,-0.0019294508965685964
1.7294966104502684e+18,-0.005432387348264456,0.004447221290320158,-0.0021385217551141977
1.7294966104592686e+18,-0.002138825599104166,0.004997451789677143,-0.0011263865744695067
1.7294966104682688e+18,-0.004253837745636702,0.005462481174618006,-0.001134027261286974
1.729496610477269e+18,-0.0027437936514616013,0.005299273878335953,-0.0024834242649376392
1.7294966104862692e+18,-0.0029873906169086695,0.006110064685344696,-0.004354754462838173
1.7294966104922693e+18,-0.003981464542448521,0.006884052883833647,-0.00625712750479579
1.7294966105012695e+18,-0.006394076161086559,0.007551489397883415,-0.006044368259608746
1.7294966105102697e+18,-0.002278061117976904,0.007453874684870243,-0.001952173886820674
1.7294966105162698e+18,-0.001359403133392334,0.006033546756953001,-0.005157284438610077
1.72949661052527e+18,-0.004667159169912338,0.005824663210660219,-0.003241465426981449
1.7294966105342702e+18,-0.004008932504802942,0.00598260248079896,-0.002327521098777652
1.7294966105432704e+18,-0.0052803680300712585,0.004653939977288246,-0.003537185722962022
1.7294966105492705e+18,-0.004888521041721106,0.005919030401855707,-0.003251246875151992
1.7294966105582707e+18,-0.003916638437658548,0.005839874967932701,-0.0023180125281214714
1.729496610567271e+18,-0.0011726218508556485,0.005038794595748186,-0.003299150848761201
1.729496610576271e+18,0.000506869750097394,0.005025725811719894,-0.0014727002708241343
1.7294966105852713e+18,0.001366674667224288,0.007188030984252691,-0.0014000729424878955
1.7294966105942715e+18,-0.000877822283655405,0.00766419805586338,-0.003630669554695487
1.7294966106032717e+18,-0.0009409647900611162,0.006883506663143635,-0.0013172272592782974
1.7294966106122719e+18,-0.002416773699223995,0.005812120623886585,-0.0043158745393157005
1.729496610621272e+18,-0.00271087558940053,0.005694263614714146,-0.002033521421253681
1.7294966106302723e+18,-0.004128103144466877,0.007177438121289015,-0.0027299148496240377
1.7294966106392724e+18,-0.0017778638284653425,0.007363781798630953,-0.004404360428452492
1.7294966106482726e+18,-0.001096885884180665,0.008129284717142582,-0.002420111559331417
1.7294966106572728e+18,0.004374925047159195,0.005226504523307085,-0.001361934351734817
1.729496610663273e+18,0.005017277784645557,0.0036240778863430023,-0.0034742022398859262
1.7294966106722732e+18,0.005155910272151232,0.005857671145349741,-0.005351088009774685
1.7294966106812733e+18,0.003932483959943056,0.005461621098220348,-0.002075433498248458
1.7294966106902735e+18,0.003746800124645233,0.003620107425376773,-0.003844199702143669
1.7294966106992737e+18,-0.0009327885927632451,0.009648695588111877,-0.003834895323961973
1.729496610708274e+18,0.0024818629026412964,0.0067193894647061825,-0.001985947834327817
1.729496610717274e+18,0.0013111213920637965,0.00735840667039156,-0.001249978318810463
1.7294966107232742e+18,0.004751105327159166,0.007530029863119125,-0.004623963497579098
1.7294966107322744e+18,0.0019015457946807146,0.003085061674937606,-0.0036545416805893183
1.7294966107412746e+18,-0.0020976108498871326,0.005067565944045782,-0.0007147507276386023
1.7294966107472748e+18,0.001396882813423872,0.005771685857325792,-0.0020256720017641783
1.729496610756275e+18,-0.002440999262034893,0.007733090315014124,-0.0022379178553819656
1.7294966107652751e+18,-0.0011320644989609718,0.006429528817534447,-0.005999275017529726
1.7294966107742753e+18,0.003948152996599674,0.008449212647974491,-0.0031172556336969137
1.7294966107832755e+18,0.002950077410787344,0.010908725671470165,-0.0030190926045179367
1.7294966107892756e+18,0.0034078829921782017,0.012730706483125687,-0.0035849749110639095
1.7294966107982758e+18,0.003284691832959652,0.008101512677967548,-0.006314043886959553
1.729496610807276e+18,-0.002536492422223091,0.006265922915190458,-0.004400222562253475
1.7294966108162762e+18,-0.004203561693429947,0.005274659488350153,-0.0037209666334092617
1.7294966108252764e+18,-0.00020714988932013512,0.005511108320206404,-0.004117599222809076
1.7294966108312765e+18,-0.0037856954149901867,0.0026268111541867256,-0.003998059779405594
1.7294966108402767e+18,-0.0009509706869721413,0.006774526555091143,-0.0049093421548604965
1.729496610849277e+18,0.0036206161603331566,0.00599459046497941,-0.0020220146980136633
1.729496610855277e+18,0.004659727681428194,0.007704438176006079,-0.001993712969124317
1.7294966108642772e+18,0.005469140596687794,0.006420448422431946,-0.004416787996888161
1.7294966108732774e+18,0.006063215900212526,0.007340835873037577,-0.0032224818132817745
1.7294966108792776e+18,0.003698543179780245,0.004800803028047085,-0.003330578561872244
1.7294966108882778e+18,-0.000623210915364325,0.0024378420785069466,-0.0013890191912651062
1.729496610897278e+18,0.00012427809997461736,0.00635296106338501,-0.005439712665975094
1.7294966109062781e+18,0.0022070002742111683,0.0013731089420616627,-0.0028271228075027466
1.7294966109152783e+18,0.008318139240145683,0.006032641511410475,-0.006111571099609137
1.7294966109242785e+18,0.005784837994724512,0.005069760140031576,-0.002700725570321083
1.7294966109332787e+18,0.005260481033474207,0.00888058077543974,-0.002713097259402275
1.7294966109392788e+18,0.005760199390351772,0.008097373880445957,-0.004457458388060331
1.729496610948279e+18,0.005194281227886677,0.005839281715452671,-0.0040479376912117004
1.7294966109572792e+18,0.00187863246537745,0.001681634457781911,-0.004282284528017044
1.7294966109632794e+18,4.2553176172077656e-05,0.004643529653549194,-0.0019049795810133219
1.7294966109722796e+18,-0.001448789145797491,0.0014955513179302216,-0.0035941265523433685
1.7294966109812797e+18,0.0032967785373330116,0.0011466654250398278,-0.003232810879126191
1.72949661099028e+18,0.005704767536371946,0.0031389619689434767,-0.00430781114846468
1.72949661099928e+18,0.005953237880021334,0.0036505144089460373,-0.0035367808304727077
1.7294966110082803e+18,0.00562621746212244,0.004765425808727741,-0.004321367479860783
1.7294966110142804e+18,0.002959548495709896,0.0071941097266972065,-0.004731022287160158
1.7294966110232806e+18,-0.0002625968772917986,0.00751134566962719,-0.00440516322851181
1.7294966110322808e+18,-0.0014703981578350067,0.005040977615863085,-0.005347386933863163
1.729496611038281e+18,-0.001402433728799224,0.0031115931924432516,-0.0027477028779685497
1.7294966110472812e+18,-0.0011784841772168875,0.006615709513425827,-0.0029674870893359184
1.7294966110562813e+18,-0.004107716493308544,0.004203510470688343,-0.002414292423054576
1.7294966110652815e+18,-0.0010539479553699493,0.0036215363070368767,-0.004466956946998835
1.7294966110742817e+18,0.0011595003306865692,0.005295286886394024,-0.0032031694427132607
1.729496611083282e+18,0.0031005670316517353,0.004545368254184723,-0.005120423156768084
1.729496611089282e+18,0.008096916601061821,0.00876698736101389,-0.00456377025693655
1.7294966110982822e+18,0.003392791375517845,0.004799993708729744,-0.0033070873469114304
1.7294966111072824e+18,0.004032490774989128,0.006334069184958935,-0.002839805791154504
1.7294966111162826e+18,0.0012958459556102753,0.0004116198979318142,-0.00443193968385458
1.7294966111222828e+18,-0.0012289228616282344,0.0019721847493201494,-0.004091320093721151
1.729496611131283e+18,-0.00160090415738523,-0.00019628042355179787,-0.002484567929059267
1.7294966111402831e+18,-0.0005139840068295598,0.0024200917687267065,-0.0038951796013861895
1.7294966111462833e+18,-0.00017979450058192015,0.0024035796523094177,-0.00419546477496624
1.7294966111552835e+18,0.002958229510113597,-0.00040287524461746216,-0.005027436651289463
1.7294966111672837e+18,0.001497459365054965,0.0061008017510175705,-0.0022907310631126165
1.729496611176284e+18,0.0004837949527427554,0.002384908962994814,-0.0025313463993370533
1.729496611185284e+18,0.0007045717793516815,0.004450840875506401,-0.0012883616145700216
1.7294966111942843e+18,-0.0037992349825799465,0.0034743251744657755,-0.004021686501801014
1.7294966112032845e+18,-0.0038773759733885527,0.0013282529544085264,-0.0032334383577108383
1.7294966112092846e+18,-0.00021909840870648623,0.003247775137424469,-0.0023270759265869856
1.7294966112182848e+18,0.0010897123720496893,0.0009817384416237473,-0.0037215808406472206
1.729496611227285e+18,0.0030614836141467094,-0.00212641479447484,-0.006118484772741795
1.7294966112362852e+18,0.0013299471465870738,-0.0023152828216552734,-0.004615472629666328
1.7294966112452854e+18,0.002611009404063225,0.00048450054600834846,-0.00434072595089674
1.7294966112542856e+18,0.0012244336539879441,0.0011441786773502827,-0.0002745583187788725
1.7294966112632858e+18,-0.002437224145978689,0.0011468178126960993,-0.0031721212435513735
1.729496611272286e+18,-0.00035363994538784027,0.0007206207374110818,-0.005634230095893145
1.7294966112812861e+18,-0.005295397248119116,0.0025793907698243856,-0.0031116886530071497
1.7294966112872863e+18,0.00048032429185695946,-0.0008499141549691558,-0.0016982132801786065
1.7294966112962865e+18,-7.280305726453662e-05,-0.000331746821757406,-0.003443019697442651
1.7294966113052867e+18,0.0005807823035866022,-0.0012004389427602291,-0.0024904143065214157
1.7294966113142868e+18,0.003628405276685953,-0.000494224252179265,-0.0005540542770177126
1.729496611323287e+18,0.0014235003618523479,-0.0014513189671561122,-0.004477218724787235
1.7294966113352873e+18,-0.0032303109765052795,0.0025900076143443584,-0.003667237237095833
1.7294966113442875e+18,0.0017773957224562764,-4.6389177441596985e-06,-0.0020382865332067013
1.7294966113502876e+18,-0.003351713065057993,-0.00028848793590441346,-0.0005440805107355118
1.7294966113592878e+18,0.0017983207944780588,-0.00028061901684850454,-0.003806385910138488
1.729496611368288e+18,0.005492200143635273,-0.0003195239696651697,-0.002782023511826992
1.7294966113772882e+18,0.002910816576331854,-0.004006292205303907,-0.00335409096442163
1.7294966113862884e+18,0.00268995831720531,-0.0014950161566957831,-0.004721047822386026
1.7294966113922885e+18,0.004261675290763378,-0.0015377374365925789,-0.0061887213960289955
1.7294966114012887e+18,-0.0004580109962262213,-0.0020905935671180487,-0.005696739070117474
1.729496611410289e+18,-0.002253941260278225,-0.0029296381399035454,-0.004518299363553524
1.729496611419289e+18,-0.0037811000365763903,-0.002343021333217621,-0.00043895328417420387
1.7294966114252892e+18,-0.0020381230860948563,0.0009802933782339096,-0.003130238503217697
1.7294966114342894e+18,0.0018684426322579384,0.00019671989139169455,-0.0017035206547006965
1.7294966114432896e+18,0.0040436056442558765,-0.0033872579224407673,-0.0032757436856627464
1.7294966114522898e+18,6.360840052366257e-05,-0.002733621746301651,-0.0059332773089408875
1.72949661146429e+18,0.0006385516608133912,-0.00731574185192585,-0.002743286080658436
1.7294966114702902e+18,-0.0026672021485865116,-0.0024931500665843487,-0.0005292233545333147
1.7294966114792904e+18,-0.001608569175004959,-0.005543092265725136,-0.004769070073962212
1.7294966114882906e+18,-0.0011767435353249311,-0.006525557488203049,-0.0032697622664272785
1.7294966114972908e+18,-0.0017038271762430668,-0.002804119372740388,-0.005533494520932436
1.729496611506291e+18,0.0018758921651169658,-0.001288851723074913,-0.0024502775631844997
1.7294966115152911e+18,0.005274099297821522,-0.00521022779867053,-0.0017300978070124984
1.7294966115242913e+18,0.004718199837952852,-0.004620743449777365,-0.0038601288106292486
1.7294966115302915e+18,0.0024809823371469975,-0.002284026239067316,-0.0017820041393861175
1.7294966115392916e+18,-0.00010444881627336144,-0.005205022171139717,-0.00643591582775116
1.7294966115482918e+18,-0.0005090259364806116,-0.0018227417021989822,-0.0060663726180791855
1.729496611557292e+18,-0.0024980625603348017,0.00013450696133077145,-0.006019249092787504
1.7294966115662922e+18,-0.001926589640788734,-0.0005047903396189213,-0.0008379949722439051
1.7294966115752924e+18,-0.0015680566430091858,-0.0020436907652765512,-0.0032555453944951296
1.7294966115842926e+18,0.0005235206335783005,-0.00645329337567091,-0.004662422463297844
1.7294966115932928e+18,-0.0004519492795225233,-0.008109726011753082,-0.0037263708654791117
1.729496611602293e+18,-0.0008768581901676953,-0.007855216041207314,0.0002455422654747963
1.7294966116112932e+18,-0.003235104726627469,-0.003756600432097912,-0.004553989972919226
1.7294966116202934e+18,-0.002708463231101632,-0.0005292415153235197,-0.004461834207177162
1.7294966116292936e+18,-0.0029381942003965378,-0.00036622080369852483,-0.00397904496639967
1.7294966116382938e+18,-0.00044766534119844437,-0.0009637465700507164,-0.003668692661449313
1.729496611647294e+18,-0.0005665991920977831,0.001141783781349659,-0.006043511442840099
1.7294966116562941e+18,-0.004591573029756546,-0.0037223570980131626,-0.0025385399349033833
1.7294966116652943e+18,-0.002164027653634548,-0.003947609104216099,-0.0016749242786318064
1.7294966116742945e+18,-0.006007208023220301,-0.0009366037556901574,-0.0026032300665974617
1.7294966116832947e+18,-0.0036878015380352736,0.0011781023349612951,-0.0031022008042782545
1.729496611692295e+18,-0.002820598427206278,-0.0020004413090646267,-0.0034559324849396944
1.729496611698295e+18,-0.0008481394033879042,0.005059100687503815,-0.003067893208935857
1.7294966117072952e+18,-0.0018637801986187696,-0.0010609134333208203,-0.0016719597624614835
1.7294966117162954e+18,-0.0013165310956537724,0.0015506756026297808,-0.0026000228244811296
1.7294966117222956e+18,-0.002525756601244211,-0.0027541208546608686,-0.0031074811704456806
1.7294966117312957e+18,-0.002471565967425704,-0.0031814214307814837,0.001117571722716093
1.729496611740296e+18,-0.004252092447131872,-0.002404238795861602,-0.0024448311887681484
1.729496611749296e+18,-0.003787051886320114,-0.0026880900841206312,-0.0053658196702599525
1.7294966117582963e+18,-0.002688442124053836,-0.0035639218986034393,-0.0006364996079355478
1.7294966117672965e+18,-0.0014146516332402825,-0.0014162021689116955,-0.0032606683671474457
1.7294966117762967e+18,0.0011999174021184444,-0.0010206317529082298,-0.00332769681699574
1.729496611785297e+18,-0.003260617610067129,-0.00015166238881647587,-0.0036483448930084705
1.7294966117972972e+18,-0.0012811891501769423,-0.0005318105686455965,-0.0020915409550070763
1.7294966118032973e+18,-0.003280719742178917,-0.004508878570050001,-0.004730004817247391
1.7294966118122975e+18,-0.003310476429760456,-0.0042373244650661945,-0.0026859100908041
1.7294966118212977e+18,-0.0030487780459225178,-0.005580628290772438,-0.0025478415191173553
1.7294966118302979e+18,-0.0021556236315518618,-0.004607832059264183,0.0005277488380670547
1.729496611839298e+18,-0.001832190086133778,0.0005290107219479978,-0.0005690259858965874
1.7294966118482982e+18,-0.0024166246876120567,0.0024278932251036167,-0.0011315897572785616
1.7294966118572984e+18,0.0014797404874116182,0.00033802451798692346,-0.0016336026601493359
1.7294966118662986e+18,-0.001083956565707922,-0.0011082631535828114,-0.0019676601514220238
1.7294966118752988e+18,0.0032781539484858513,-0.005291705951094627,-0.0018259759526699781
1.729496611884299e+18,0.00019190949387848377,-0.00013671116903424263,-0.0018322850810363889
1.7294966118932992e+18,-0.0034384930040687323,-0.0051828850992023945,-0.002969071501865983
1.7294966119022994e+18,0.0002654028940014541,0.0001924100797623396,-0.0018384018912911415
1.7294966119112996e+18,-0.0016689114272594452,-0.0005395415937528014,-0.0044667962938547134
1.7294966119172997e+18,-2.429314554319717e-05,-0.0008208866929635406,-0.0028905102517455816
1.7294966119293e+18,9.812868665903807e-05,-0.0023997342213988304,-0.00282897031866014
1.7294966119383002e+18,0.0018171787960454822,0.0012412385549396276,0.0005003178957849741
1.7294966119473004e+18,0.00286129885353148,0.001699891989119351,-0.003154563717544079
1.7294966119563005e+18,-0.00010216620285063982,-0.0009237080812454224,-0.005533062852919102
1.7294966119653007e+18,0.001679720007814467,-0.003170049749314785,-0.003178747370839119
1.729496611974301e+18,-0.0003231078153476119,0.0009560416219756007,0.00043356046080589294
1.729496611983301e+18,0.0004428251413628459,-0.0008366379770450294,-0.004517946392297745
1.7294966119953014e+18,-0.0021256059408187866,-0.0013437753077596426,-0.0032879789359867573
1.7294966120043016e+18,-0.0050650849007070065,0.0006126508815214038,-0.0028130896389484406
1.7294966120133018e+18,0.00017796282190829515,-0.0005990703939460218,-0.004428358748555183
1.729496612022302e+18,0.004015393555164337,-0.002508204896003008,-0.001008358085528016
1.7294966120313021e+18,0.0001586639555171132,-0.001552895992062986,0.00027900910936295986
1.7294966120373023e+18,-0.0008765035308897495,-0.001595661393366754,-0.001930921571329236
1.7294966120463025e+18,0.00024613781715743244,-0.0038244808092713356,-0.0028148700948804617
1.7294966120553027e+18,-0.003088158555328846,-0.0014099443797022104,-0.004025131464004517
1.7294966120643028e+18,-0.003513517789542675,-0.00765911303460598,-0.0026040240190923214
1.729496612070303e+18,-0.0027401486877352,-0.00498121976852417,-0.0019017064478248358
1.7294966120793032e+18,-0.00220278836786747,-0.00771981431171298,1.0271323844790459e-05
1.7294966120883034e+18,0.001832765992730856,-0.005648851860314608,-0.003893513698130846
1.7294966121003036e+18,0.0010130628943443298,-0.005477316211909056,-0.0018683981616050005
1.7294966121093038e+18,0.0033054661471396685,-0.0031145205721259117,-0.0022044454235583544
1.729496612115304e+18,0.002901042578741908,-0.004897898528724909,-0.002573007019236684
1.7294966121243041e+18,6.819650297984481e-05,-0.004238008987158537,-0.002444234909489751
1.7294966121333043e+18,-0.005086681805551052,-0.0030797100625932217,-0.004013612866401672
1.7294966121423045e+18,-0.004466680344194174,-0.004520846530795097,-0.00443496648222208
1.7294966121513047e+18,-0.00036213360726833344,-0.004417964722961187,-0.003325690981000662
1.7294966121573048e+18,-0.000844061840325594,-0.006628900766372681,-0.0024666129611432552
1.729496612166305e+18,-0.0017008085269480944,-0.005811517126858234,-0.0034893746487796307
1.7294966121753052e+18,-0.0007328276988118887,-0.007158410735428333,-0.004391825757920742
1.7294966121843054e+18,0.001848829910159111,-0.006130890920758247,-0.0046127596870064735
1.7294966121933056e+18,0.0005055845249444246,-0.004840304609388113,-0.004859206732362509
1.7294966122023058e+18,-0.003024893347173929,-0.004644923377782106,0.0013279798440635204
1.729496612211306e+18,-0.0025366414338350296,-0.004369069822132587,0.00046190060675144196
1.729496612217306e+18,0.0007168566808104515,-0.004335802514106035,0.0011007788125425577
1.7294966122263063e+18,-0.0003254153416492045,-0.0031527287792414427,-0.00241202674806118
1.7294966122353065e+18,0.00031670735916122794,-0.002099962206557393,-0.0016388219082728028
1.7294966122443067e+18,0.0028989410493522882,-0.005136013962328434,-0.0038765445351600647
1.7294966122503068e+18,-7.132795872166753e-05,-0.005139713175594807,-0.0010092643788084388
1.729496612259307e+18,-0.002813889179378748,-0.008100958541035652,-0.005141097120940685
1.7294966122683072e+18,0.0002245316281914711,-0.006768033839762211,-0.005452791228890419
1.7294966122773074e+18,-0.0019047959940508008,-0.006404448300600052,0.0009105476783588529
1.7294966122863076e+18,-0.002944529289379716,-0.005140327382832766,-0.0009003999875858426
1.7294966122953078e+18,-0.0019043234642595053,-0.0058167134411633015,-0.0013301314320415258
1.729496612304308e+18,-0.0009363136487081647,-0.005700722802430391,0.0009983232012018561
1.7294966123133082e+18,0.0025240909308195114,-0.0011471915058791637,-0.0032207858748733997
1.7294966123223084e+18,0.0041989972814917564,-0.00290992995724082,-0.004678636789321899
1.7294966123313085e+18,0.00035910436417907476,-0.006652016192674637,-0.0021835786756128073
1.7294966123373087e+18,0.005115889012813568,-0.006121406797319651,-0.0012807648163288832
1.7294966123463089e+18,0.0033239652402698994,-0.009885288774967194,0.0010807339567691088
1.729496612355309e+18,0.0009285442647524178,-0.006836095359176397,-0.0008756384486332536
1.7294966123613092e+18,-0.002467190381139517,-0.0035040839575231075,-0.0025030116084963083
1.7294966123703094e+18,-0.0007377887377515435,-0.006070834584534168,-0.0019623057451099157
1.7294966123793096e+18,0.0002379794605076313,-0.0031302710995078087,0.00024422514252364635
1.7294966123883098e+18,0.0008259224705398083,-0.00543599296361208,-0.002481569070369005
1.72949661239731e+18,0.005550805479288101,-0.0046823048032820225,3.9675505831837654e-05
1.7294966124063101e+18,0.0007048786501400173,-0.0030913115479052067,-0.002406754996627569
1.7294966124153103e+18,0.0029424368403851986,-0.00221739849075675,-0.0017797874752432108
1.7294966124243105e+18,-0.0045199403539299965,-0.00325598381459713,-0.002445903606712818
1.7294966124303107e+18,-0.003664757590740919,-0.0027982050087302923,-0.001131262630224228
1.7294966124393108e+18,-0.002928992034867406,-0.003886735299602151,-0.002398496028035879
1.729496612448311e+18,-0.000870305229909718,-0.003832413349300623,-0.0014932493213564157
1.7294966124573112e+18,0.00032771140104159713,-0.0048200408928096294,-0.0010758142452687025
1.7294966124663114e+18,0.0032354434952139854,-0.0011681783944368362,-0.0014312205603346229
1.7294966124753116e+18,0.0008468285668641329,-0.001791811315342784,-0.0010314621031284332
1.7294966124843118e+18,0.0011488428572192788,-0.0008006835705600679,-0.0018396946834400296
1.729496612493312e+18,-0.0014024556148797274,0.00020131681230850518,-0.002176126930862665
1.7294966125023122e+18,-0.002553455764427781,0.00022045057266950607,-0.0005890119355171919
1.7294966125083123e+18,-0.0030633823480457067,0.0006157838506624103,0.0002420132514089346
1.7294966125173125e+18,0.00031861825846135616,-0.0019159496296197176,-0.0018034743843600154
1.7294966125263127e+18,0.006096778903156519,-0.00016745517496019602,-0.0001056566834449768
1.729496612535313e+18,0.003526515094563365,-0.0019059943733736873,-0.003806149121373892
1.729496612544313e+18,0.003208685666322708,-0.0009035284165292978,-0.0037056254222989082
1.7294966125503132e+18,0.002827899530529976,-0.00466596893966198,-0.00023218279238790274
1.7294966125593134e+18,-0.0022694848012179136,0.0004375677090138197,-0.0017565113957971334
1.7294966125683136e+18,-0.004447749815881252,-0.002714618807658553,-0.0054845260456204414
1.7294966125773138e+18,-0.004484331235289574,-0.002187456237152219,-0.0005495639052242041
1.729496612583314e+18,-0.0006682087550871074,0.00040008965879678726,-0.0031033882405608892
1.729496612592314e+18,0.004956208169460297,0.00023370631970465183,-0.005554693751037121
1.7294966126013143e+18,0.004969161003828049,-0.005215802229940891,-0.001282810466364026
1.7294966126073144e+18,0.006274833343923092,-0.005604485981166363,-0.001509084366261959
1.7294966126163146e+18,0.0038759745657444,-0.00673809926956892,-0.001436449121683836
1.7294966126253148e+18,-0.0010047953110188246,-0.00776997534558177,-0.004802391864359379
1.729496612634315e+18,-0.005025027319788933,-0.0043700626119971275,-0.0013060427736490965
1.7294966126433152e+18,-0.0020382325164973736,-0.008168186992406845,-0.0017859438667073846
1.7294966126523154e+18,-0.0028356052935123444,-0.007076141890138388,-0.0027254398446530104
1.7294966126613156e+18,0.0024337596260011196,-0.004918737802654505,-0.00040735257789492607
1.7294966126673157e+18,0.0018845731392502785,-0.005155354738235474,-0.005926548503339291
1.729496612676316e+18,0.0027123193722218275,-0.002256541745737195,-0.002527885138988495
1.729496612685316e+18,0.0025143176317214966,-0.007560058496892452,-0.0025268287863582373
1.7294966126973164e+18,0.0018766543362289667,-0.003557539777830243,0.0015835901722311974
1.7294966127033165e+18,0.0010106489062309265,-0.007965519092977047,-0.0011539929546415806
1.7294966127123167e+18,0.001215240452438593,-0.008141151629388332,0.0011144690215587616
1.7294966127213169e+18,-0.005251910537481308,-0.006124719046056271,-9.804125875234604e-05
1.729496612730317e+18,0.004793504718691111,-0.008600705303251743,-0.0010781791061162949
1.7294966127393172e+18,0.0020873891189694405,-0.0035580957774072886,-0.003924309741705656
1.7294966127483174e+18,0.002085238927975297,-0.004454282112419605,-0.0011971334461122751
1.7294966127603177e+18,0.0015901081496849656,-0.004075556993484497,-0.001967628486454487
1.729496612769318e+18,0.00030795938801020384,-0.005149181932210922,-0.0033259913325309753
1.729496612778318e+18,-0.00016438314924016595,-0.006673244293779135,-0.0009116915171034634
1.7294966127873183e+18,-0.0017941277474164963,-0.0071982345543801785,-0.005945924203842878
1.7294966127963185e+18,-0.0007456820458173752,-0.009952862747013569,0.00010184082202613354
1.7294966128053187e+18,0.001535626477561891,-0.006200082134455442,-0.0007337229326367378
1.7294966128113188e+18,0.003892643842846155,-0.007590755820274353,-0.0024338418152183294
1.729496612820319e+18,0.0015899757854640484,-0.005851653404533863,-0.00033699627965688705
1.7294966128293192e+18,0.005535495467483997,-0.005661596078425646,0.0008673572447150946
1.7294966128413194e+18,0.0019919939804822206,-0.002605493413284421,-0.0009588969987817109
1.7294966128503196e+18,-0.00275862542912364,-0.004025505390018225,-0.0022321108262985945
1.7294966128563197e+18,-0.0032065915875136852,-0.005436650011688471,-0.001109107630327344
1.72949661286532e+18,-0.0027565632481127977,-0.007021788507699966,-0.0014517626259475946
1.72949661287132e+18,-0.0017606662586331367,-0.006728727370500565,-0.0040850271470844746
1.7294966128803203e+18,-0.0017507565207779408,-0.0035862629301846027,-0.0013098812196403742
1.7294966128893204e+18,0.004848324228078127,-0.007595607079565525,-0.001482375431805849
1.7294966128953206e+18,0.004933352582156658,-0.008850812911987305,-0.0028025819920003414
1.7294966129043208e+18,0.0016163570107892156,-0.008656001649796963,0.0015586018562316895
1.729496612913321e+18,-0.0020919160451740026,-0.007506966590881348,-0.0035155033692717552
1.7294966129223212e+18,-0.004211346618831158,-0.006257302593439817,-0.002630605362355709
1.7294966129283213e+18,-0.005265154410153627,-0.007420202251523733,-0.002726759295910597
1.7294966129403215e+18,-0.007264075800776482,-0.009088060818612576,-0.0025669203605502844
1.7294966129493217e+18,-0.00410423381254077,-0.0077053094282746315,-0.0029014325700700283
1.729496612958322e+18,-0.001368607860058546,-0.005005551502108574,-0.004193197004497051
1.729496612967322e+18,-0.004341120831668377,-0.01012799795717001,-0.0018302028765901923
1.7294966129763223e+18,0.0011091260239481926,-0.0092331413179636,-0.004898013547062874
1.7294966129853225e+18,-0.004453676752746105,-0.007669097278267145,-0.0050472598522901535
1.7294966129943227e+18,-0.004846502095460892,-0.006582507863640785,-0.0026401961222290993
1.729496613003323e+18,-0.0040916092693805695,-0.0026691537350416183,-0.0007251501083374023
1.729496613009323e+18,-0.004457303788512945,-0.0024256915785372257,-0.0022835477720946074
1.7294966130183232e+18,-0.002378975972533226,-0.0019401125609874725,-0.0026776245795190334
1.7294966130303235e+18,0.0014773739967495203,-0.0028879966121166945,0.0012134913122281432
1.7294966130393236e+18,0.0007188157178461552,-0.007828551344573498,-0.0020503108389675617
1.7294966130483238e+18,-0.0036087469197809696,-0.011948241852223873,0.0001084811519831419
1.729496613057324e+18,-0.006219605449587107,-0.008048717863857746,-0.001681658672168851
1.7294966130663242e+18,-0.006226569414138794,-0.007274969946593046,-0.003576675895601511
1.7294966130753244e+18,-0.004867608658969402,-0.0022827601060271263,-0.0016751195071265101
1.7294966130843246e+18,-0.0016521253855898976,-0.0024958516005426645,-0.00018031604122370481
1.7294966130933248e+18,0.0019908887334167957,-0.002603914588689804,-0.003931560553610325
1.729496613102325e+18,0.00501374201849103,-0.003373037790879607,-0.0002497482346370816
1.729496613108325e+18,0.001124695991165936,-0.006179733667522669,-0.0017364096129313111
1.7294966131173253e+18,0.00011916927178390324,-0.006238984875380993,-0.002095075324177742
1.7294966131263255e+18,-0.0001346974167972803,-0.005572787951678038,-0.0004606202710419893
1.7294966131353257e+18,-0.0021256098989397287,-0.006908337119966745,-0.00044451362919062376
1.7294966131413258e+18,-0.002568857278674841,-0.005881221499294043,-0.0024798656813800335
1.729496613150326e+18,-0.003102544229477644,-0.006368796341121197,0.0020374360028654337
1.7294966131593262e+18,-0.001296596834436059,-0.0015117337461560965,-0.0024318138603121042
1.7294966131683264e+18,-0.001908449805341661,-0.0013897167518734932,-0.0007751210359856486
1.7294966131773266e+18,0.0013995124027132988,-0.0018865641904994845,-0.0028980765491724014
1.7294966131833267e+18,7.994991028681397e-05,-0.0019850353710353374,0.0010653675999492407
1.729496613192327e+18,0.002407952444627881,-0.003789610927924514,-0.001857949304394424
1.729496613201327e+18,-0.000315339129883796,-0.005710893776267767,-0.0013906575040891767
1.7294966132103273e+18,-0.003253500210121274,-0.005017638206481934,-0.001322170253843069
1.7294966132193275e+18,-0.0014951217453926802,-0.005060398019850254,-0.00048220925964415073
1.7294966132283277e+18,-0.006253850646317005,-0.0027971439994871616,-0.0004976571653969586
1.7294966132343278e+18,-0.005305386148393154,-0.0009258260251954198,-0.0014614334795624018
1.729496613246328e+18,-0.00533527135848999,-0.0020994062069803476,-0.0008148500928655267
1.7294966132523282e+18,-0.0005197310820221901,-0.0016503010410815477,1.608137972652912e-05
1.7294966132643284e+18,-0.0007822473999112844,-0.0020699272863566875,-0.005046622361987829
1.7294966132703286e+18,0.001991800731047988,-0.004217133857309818,-0.0006787283346056938
1.7294966132793288e+18,0.001368500990793109,-0.0046291472390294075,-0.0020914224442094564
1.729496613288329e+18,0.0006783303688280284,-0.004235515836626291,-0.0007925904355943203
1.7294966132973292e+18,-0.0007820657338015735,-0.006062357220798731,-0.0013406105572357774
1.7294966133063293e+18,-0.0019096625037491322,-0.007021372672170401,-0.002428736537694931
1.7294966133123295e+18,-0.0032035293988883495,-0.005419588647782803,-0.0019854584243148565
1.7294966133213297e+18,0.00028323475271463394,-0.0028542429208755493,-0.0036806371062994003
1.7294966133303299e+18,-2.5777495466172695e-05,-0.003797809826210141,-0.0010718839475885034
1.72949661333633e+18,0.004805759061127901,-0.002189412945881486,-0.0009513794793747365
1.7294966133453302e+18,0.0017192612867802382,-0.004647179506719112,-0.0014941602712497115
1.7294966133543304e+18,0.007684740237891674,-0.002759488532319665,-0.0014931956538930535
1.7294966133603305e+18,0.0012675343314185739,-0.006211657077074051,-0.0006684225518256426
1.7294966133693307e+18,0.0010723302839323878,-0.004184278659522533,-0.002301725558936596
1.729496613378331e+18,-1.7654907424002886e-05,-0.002988430205732584,-0.00014508492313325405
1.729496613387331e+18,-0.0050438325852155685,-0.004158596973866224,-0.0037707388401031494
1.7294966133963313e+18,-0.003064506221562624,-0.004476645495742559,-0.000973832793533802
1.7294966134023314e+18,-0.0020234426483511925,-0.006328531075268984,-0.0033559727016836405
1.7294966134113316e+18,-0.0023255227133631706,-0.003413114231079817,-0.0010088090784847736
1.7294966134203318e+18,-0.0010191532783210278,-0.002639302983880043,0.0004769529914483428
1.729496613429332e+18,-0.0012382855638861656,-0.00018286285921931267,-0.002461799420416355
1.729496613435332e+18,0.0032413324806839228,-0.0035398320760577917,-0.0012210080167278647
1.7294966134443323e+18,-0.0017419462092220783,-0.005062843672931194,-0.0036684744991362095
1.7294966134533325e+18,0.0034929749090224504,-0.005293038673698902,0.00019356189295649529
1.7294966134623327e+18,-0.002415555529296398,-0.002104443032294512,0.0001457053003832698
1.7294966134713329e+18,-0.0020758991595357656,-0.006330624222755432,0.0010849183890968561
1.729496613480333e+18,-0.0032322267070412636,-0.0010499728377908468,-0.004178251605480909
1.7294966134893332e+18,-0.0021213532891124487,0.002414550632238388,7.614144124090672e-05
1.7294966134953334e+18,-0.003614838933572173,-0.003386612981557846,0.00013279670383781195
1.7294966135043336e+18,0.0007782811298966408,-0.0040744212456047535,-0.002004491165280342
1.7294966135133338e+18,0.003859254065901041,-0.006277283653616905,-0.003306292463093996
1.729496613522334e+18,-0.0018116370774805546,-0.004744612146168947,-0.003044477431103587
1.7294966135313341e+18,0.0038396522868424654,-0.005085345357656479,-0.001629466307349503
1.7294966135373343e+18,-0.0012368165189400315,-0.0019141313387081027,-0.0007341988966800272
1.7294966135463345e+18,-0.0024583861231803894,-0.0012783663114532828,-0.0018562882905825973
1.7294966135553347e+18,0.0015800659311935306,0.003776468336582184,-0.004392330069094896
1.7294966135643348e+18,-0.0009162877686321735,0.0011632287641987205,-0.0015489370562136173
1.729496613570335e+18,-0.00221672048792243,0.00016300290008075535,-0.0005723258946090937
1.7294966135793352e+18,-0.0014444169355556369,-0.0010746412444859743,0.0001598364906385541
1.7294966135883354e+18,0.0012656677281484008,-0.0036857379600405693,0.0019515638705343008
1.7294966135973356e+18,0.0037806148175150156,-0.001435218146070838,-0.0022826394997537136
1.7294966136063357e+18,0.0030632195994257927,0.00033469131449237466,-0.0013990623410791159
1.729496613615336e+18,0.0022702631540596485,0.0024865686427801847,-0.001963123446330428
1.7294966136243361e+18,0.0024256487376987934,0.0014365441165864468,-0.0012523087207227945
1.7294966136303363e+18,-0.0022565345279872417,0.0033522711601108313,0.0010690245544537902
1.7294966136393364e+18,-0.004020321182906628,0.00035887700505554676,-0.0015399977564811707
1.7294966136453366e+18,-0.004424828104674816,-0.002466784557327628,-0.000253871432505548
1.7294966136543368e+18,-0.0008285932708531618,-0.00030256196623668075,-0.001357545144855976
1.729496613663337e+18,0.0005308968247845769,0.0012328645680099726,-0.002536607440561056
1.7294966136723372e+18,3.9360602386295795e-05,-0.00216775294393301,-0.00048355915350839496
1.7294966136813373e+18,-0.0019451251719146967,1.4227807696443051e-05,-0.001062349183484912
1.7294966136903375e+18,-0.004050633404403925,-0.000933961826376617,4.230160266160965e-05
1.7294966136963377e+18,-0.006900970824062824,-0.002266780473291874,-0.0019617360085248947
1.7294966137053379e+18,-0.010161947458982468,-0.0022041727788746357,0.0005313715664669871
1.729496613714338e+18,-0.004515850450843573,-0.0005608765641227365,-0.0014403352979570627
1.7294966137203382e+18,-0.0019070932175964117,0.0008866830030456185,-0.0020179497078061104
1.7294966137293384e+18,0.001531025511212647,-0.0011095443041995168,-0.00026283517945557833
1.7294966137353385e+18,0.004200110211968422,0.004314117133617401,-0.0023328408133238554
1.7294966137443387e+18,0.0008883965201675892,0.0002912136260420084,0.0008913255296647549
1.729496613756339e+18,0.0005049426690675318,0.0008901826222427189,-0.0026815019082278013
1.729496613762339e+18,-0.0018830604385584593,0.0006018368294462562,-0.0015877215191721916
1.7294966137713393e+18,0.0005690862890332937,0.000621907296590507,0.003066803328692913
1.7294966137803395e+18,0.0012401231797412038,-0.0006384476437233388,-0.006516917143017054
1.7294966137893396e+18,0.0017254514386877418,-0.00221558241173625,-0.004534820094704628
1.7294966137983398e+18,0.001731476979330182,0.0007516065961681306,-0.0009126412332989275
1.72949661380734e+18,0.0001657881075516343,0.0027180463075637817,0.00014192576054483652
1.7294966138163402e+18,0.0017201812006533146,0.00795119907706976,-3.88164771720767e-05
1.7294966138253404e+18,-7.218040991574526e-05,0.004587249830365181,-0.003381692571565509
1.7294966138343406e+18,-0.00011553149670362473,0.0018320378148928285,0.0005583690945059061
1.7294966138403407e+18,-0.0011879244120791554,0.003290732391178608,0.0008544583688490093
1.729496613849341e+18,-0.003846794366836548,-0.0023724690545350313,-0.0025779546704143286
1.729496613858341e+18,-0.0012597115710377693,-0.00018880076822824776,-0.004520104266703129
1.7294966138673413e+18,0.00024423110880889,0.0005527570610865951,0.001124928705394268
1.7294966138763415e+18,-0.001448298105970025,0.0003105321666225791,-0.0025545740500092506
1.7294966138853417e+18,0.0045297532342374325,0.003631927538663149,0.000922053586691618
1.729496613894342e+18,-0.0015061248559504747,0.0021253940649330616,-0.0030453293584287167
1.729496613903342e+18,0.002424879465252161,0.002077072160318494,0.0017137005925178528
1.7294966139123423e+18,0.0013897118624299765,0.0026065839920192957,0.00014871027087792754
1.7294966139213425e+18,0.002217570785433054,0.000620672304648906,-0.001976672327145934
1.7294966139303427e+18,-0.0021204575896263123,-0.0010575971100479364,-0.0006208733539097011
1.7294966139393428e+18,-0.0001821499754441902,0.0012489671353250742,-0.002107810229063034
1.729496613948343e+18,-0.002697500865906477,0.002604328328743577,-0.0007336136186495423
1.7294966139573432e+18,0.0021196010056883097,-0.0007315513212233782,0.001550695626065135
1.7294966139663434e+18,0.0029697054997086525,0.0012159585021436214,-0.002931856084614992
1.7294966139753436e+18,0.005389968864619732,0.0007422887138091028,0.0003123708302155137
1.7294966139843438e+18,0.0008970162598416209,-0.0017993764486163855,0.00026277394499629736
1.729496613993344e+18,-0.0002361598890274763,0.002387402579188347,0.000605063745751977
1.7294966140023442e+18,-0.0038545378483831882,0.001850225729867816,-0.002618995727971196
1.7294966140113444e+18,0.0008176399860531092,0.003201225074008107,-0.001870166976004839
1.7294966140203446e+18,0.001384231261909008,0.004775370471179485,0.002650241367518902
1.7294966140263447e+18,0.00225234217941761,0.0006045890040695667,-0.0011921850964426994
1.729496614035345e+18,0.00032217090483754873,-0.0015871258219704032,0.00041516212513670325
1.729496614044345e+18,0.003992133773863316,0.0001980567758437246,0.0008129424531944096
1.7294966140533453e+18,0.0026956864167004824,0.00024701724760234356,-0.00011614273535087705
1.7294966140623455e+18,0.001955420942977071,0.002260875888168812,-0.0013833584962412715
1.7294966140713457e+18,-0.0005349429557099938,0.006033893674612045,-0.0031657335348427296
1.7294966140773458e+18,-0.0008830226142890751,0.004641280975192785,-0.00021519395522773266
1.729496614086346e+18,-0.004779735580086708,0.00466949213296175,-0.002645250177010894
1.7294966140983462e+18,-0.0018089821096509695,0.004324374254792929,-0.003984092269092798
1.7294966141043464e+18,-0.002464515157043934,0.002952543320134282,-0.0012987626250833273
1.7294966141133466e+18,-0.0008062061388045549,0.002644777065142989,-0.0008261041948571801
1.7294966141223468e+18,0.005897846072912216,0.0028443688061088324,0.0002873392659239471
1.729496614131347e+18,0.0013998562935739756,0.0040568700060248375,0.0005367827834561467
1.729496614137347e+18,0.002314159646630287,0.0035372604615986347,-7.901899516582489e-05
1.7294966141463473e+18,0.00043789565097540617,0.00655269855633378,-0.0033830096945166588
1.7294966141553475e+18,-0.0008888099109753966,0.00013581756502389908,-0.0014824073296040297
1.7294966141643476e+18,0.0006248477729968727,9.353738278150558e-06,-0.0007415314321406186
1.7294966141733478e+18,0.0006148987449705601,0.000584266206715256,0.00024306232808157802
1.729496614182348e+18,0.000460280803963542,-0.0020150751806795597,-0.001184819033369422
1.7294966141913482e+18,-0.13382552564144135,-0.5021263360977173,-0.005165045149624348
1.7294966142003484e+18,-0.37600573897361755,-1.3987431526184082,-0.010974952951073647
1.7294966142093486e+18,-0.6866667866706848,-2.307523250579834,-0.01748088002204895
1.7294966142153487e+18,-0.9857497215270996,-2.808481216430664,-0.020989393815398216
1.729496614224349e+18,-1.3838527202606201,-3.198646306991577,-0.030804285779595375
1.729496614233349e+18,-1.647343635559082,-3.20969557762146,-0.041204243898391724
1.7294966142393492e+18,-1.7204095125198364,-3.0969338417053223,-0.04833809286355972
1.7294966142483494e+18,-1.672895908355713,-2.9138617515563965,-0.057275332510471344
1.7294966142573496e+18,-1.5385737419128418,-2.8626246452331543,-0.06924977153539658
1.7294966142663498e+18,-1.4188872575759888,-2.968369245529175,-0.07435302436351776
1.72949661427235e+18,-1.37415611743927,-3.0923802852630615,-0.07926050573587418
1.7294966142813501e+18,-1.4086185693740845,-3.2639992237091064,-0.08904629200696945
1.7294966142903503e+18,-1.523592472076416,-3.324406623840332,-0.09785635769367218
1.7294966142993505e+18,-1.6136904954910278,-3.2129247188568115,-0.10538442432880402
1.7294966143053507e+18,-1.6284745931625366,-3.067399263381958,-0.11078771203756332
1.7294966143143508e+18,-1.556604027748108,-2.7955265045166016,-0.11916642636060715
1.729496614323351e+18,-1.3905292749404907,-2.5479624271392822,-0.12420602887868881
1.7294966143323512e+18,-1.195491909980774,-2.3696444034576416,-0.1297796368598938
1.7294966143413514e+18,-1.043937087059021,-2.2616467475891113,-0.13639557361602783
1.7294966143473516e+18,-0.9925622344017029,-2.212754249572754,-0.1384688764810562
1.7294966143563517e+18,-0.9724708199501038,-2.125174045562744,-0.14303405582904816
1.729496614365352e+18,-0.9901767373085022,-1.9866328239440918,-0.14753596484661102
1.729496614371352e+18,-0.9917501211166382,-1.8654232025146484,-0.14686793088912964
1.7294966143803523e+18,-0.9492847323417664,-1.6516828536987305,-0.1546735167503357
1.7294966143893524e+18,-0.831263542175293,-1.4291408061981201,-0.1572292000055313
1.7294966143983526e+18,-0.6735981702804565,-1.2320634126663208,-0.15756456553936005
1.7294966144073528e+18,-0.5269591212272644,-1.083135962486267,-0.15834319591522217
1.729496614416353e+18,-0.43583497405052185,-0.9739688038825989,-0.156335711479187
1.7294966144253532e+18,-0.39758992195129395,-0.8629065752029419,-0.16171739995479584
1.7294966144313533e+18,-0.39361849427223206,-0.7898126840591431,-0.15906710922718048
1.7294966144403535e+18,-0.39985963702201843,-0.6698716878890991,-0.16443338990211487
1.7294966144493537e+18,-0.37345176935195923,-0.5336154103279114,-0.16318298876285553
1.729496614458354e+18,-0.308657169342041,-0.3950156569480896,-0.1589135229587555
1.729496614467354e+18,-0.21184080839157104,-0.28082701563835144,-0.15696808695793152
1.7294966144733542e+18,-0.14782629907131195,-0.21093575656414032,-0.15924684703350067
1.7294966144823544e+18,-0.0658063143491745,-0.12029535323381424,-0.15706224739551544
1.7294966144913546e+18,-0.023944398388266563,-0.058193884789943695,-0.1547585278749466
1.7294966145003548e+18,-0.017489418387413025,0.007455255836248398,-0.153721883893013
1.729496614506355e+18,-0.02253471501171589,0.04658963531255722,-0.1539074033498764
1.7294966145153551e+18,-0.027858246117830276,0.11605894565582275,-0.15174686908721924
1.7294966145243553e+18,-0.011822483502328396,0.17748209834098816,-0.15151195228099823
1.7294966145333555e+18,0.03202914074063301,0.24404095113277435,-0.15151317417621613
1.7294966145423557e+18,0.0904102772474289,0.2959272563457489,-0.14929795265197754
1.729496614551356e+18,0.1377435326576233,0.3345106542110443,-0.1451653689146042
1.729496614560356e+18,0.16895246505737305,0.3665124475955963,-0.1452587991952896
1.7294966145693563e+18,0.16226665675640106,0.3914504647254944,-0.14248061180114746
1.7294966145753564e+18,0.15437297523021698,0.4059532582759857,-0.13907413184642792
1.7294966145843566e+18,0.14007112383842468,0.42987167835235596,-0.13762666285037994
1.7294966145933568e+18,0.13379031419754028,0.44797995686531067,-0.13687191903591156
1.729496614602357e+18,0.15452642738819122,0.4730463922023773,-0.12906931340694427
1.7294966146113572e+18,0.18311366438865662,0.49045541882514954,-0.1280892938375473
1.7294966146203574e+18,0.21102604269981384,0.5014243721961975,-0.12557083368301392
1.7294966146263575e+18,0.21772858500480652,0.5062782168388367,-0.12344833463430405
1.7294966146353577e+18,0.22075553238391876,0.510461688041687,-0.12052067369222641
1.729496614644358e+18,0.20496058464050293,0.5136739015579224,-0.12111002206802368
1.729496614653358e+18,0.19430291652679443,0.5154197216033936,-0.11519381403923035
1.7294966146623583e+18,0.18301795423030853,0.5190653800964355,-0.1120508685708046
1.7294966146683584e+18,0.18187440931797028,0.5206571221351624,-0.11003760248422623
1.7294966146773586e+18,0.1915164589881897,0.5246708989143372,-0.1064397469162941
1.7294966146863588e+18,0.2075432986021042,0.5246708393096924,-0.10178548097610474
1.729496614695359e+18,0.2183205485343933,0.5276302695274353,-0.10096729546785355
1.7294966147043592e+18,0.21873429417610168,0.5211512446403503,-0.09760817140340805
1.7294966147133594e+18,0.20498502254486084,0.5127854943275452,-0.09126484394073486
1.7294966147193595e+18,0.19784322381019592,0.510200023651123,-0.09034976363182068
1.7294966147283597e+18,0.18700869381427765,0.5033760666847229,-0.08725780993700027
1.72949661473736e+18,0.18042486906051636,0.5001205801963806,-0.08400797098875046
1.72949661474636e+18,0.18277429044246674,0.4984891712665558,-0.08203920722007751
1.7294966147553603e+18,0.1903776377439499,0.4969583749771118,-0.07398679107427597
1.7294966147613604e+18,0.1980273425579071,0.49637725949287415,-0.07178998738527298
1.7294966147703606e+18,0.20496608316898346,0.49296244978904724,-0.06977401673793793
1.7294966147793608e+18,0.2034870833158493,0.48693573474884033,-0.06671830266714096
1.729496614788361e+18,0.19482922554016113,0.48350441455841064,-0.06178319454193115
1.7294966147973612e+18,0.1827559769153595,0.4739550054073334,-0.058536410331726074
1.7294966148063613e+18,0.17630194127559662,0.4681168794631958,-0.05278193578124046
1.7294966148153615e+18,0.17702016234397888,0.46769624948501587,-0.05005473271012306
1.7294966148213617e+18,0.17565202713012695,0.46382686495780945,-0.047931261360645294
1.7294966148303619e+18,0.1846720278263092,0.46383723616600037,-0.04321527108550072
1.729496614839362e+18,0.19061292707920074,0.45931339263916016,-0.0377420075237751
1.7294966148483622e+18,0.19389066100120544,0.4573359191417694,-0.033912621438503265
1.7294966148543624e+18,0.1945570558309555,0.45544105768203735,-0.030301013961434364
1.7294966148633626e+18,0.18522848188877106,0.4479374885559082,-0.03003004565834999
1.7294966148723628e+18,0.17824313044548035,0.44203701615333557,-0.026428639888763428
1.729496614881363e+18,0.17465367913246155,0.43129873275756836,-0.0191632192581892
1.729496614887363e+18,0.16843338310718536,0.42845895886421204,-0.01803368702530861
1.7294966148963633e+18,0.17029809951782227,0.4228031039237976,-0.016124334186315536
1.7294966149053635e+18,0.17422740161418915,0.41890159249305725,-0.010425272397696972
1.7294966149143636e+18,0.1812593936920166,0.41524478793144226,-0.00827689841389656
1.7294966149233638e+18,0.18329760432243347,0.41494473814964294,-0.00218893657438457
1.729496614932364e+18,0.17744533717632294,0.4127024710178375,0.0017041173996403813
1.7294966149683648e+18,0.16457946598529816,0.39446955919265747,0.016775842756032944
1.729496614977365e+18,0.1712389439344406,0.3946608901023865,0.019325342029333115
1.7294966149863652e+18,0.17583763599395752,0.3940969407558441,0.02509242668747902
1.7294966149923653e+18,0.17613109946250916,0.39146655797958374,0.028787869960069656
1.7294966150013655e+18,0.1797875463962555,0.39360666275024414,0.030410632491111755
1.7294966150103657e+18,0.17437337338924408,0.39199069142341614,0.038104794919490814
1.729496615019366e+18,0.1735849678516388,0.3933357298374176,0.0372348353266716
1.729496615028366e+18,0.16891178488731384,0.3907623887062073,0.0387662909924984
1.7294966150373663e+18,0.17034800350666046,0.38795948028564453,0.043850816786289215
1.7294966150463665e+18,0.1695428043603897,0.3824247419834137,0.04817122593522072
1.7294966150523666e+18,0.16868305206298828,0.3826696276664734,0.049742281436920166
1.7294966150613668e+18,0.17156268656253815,0.3811323344707489,0.05448506399989128
1.729496615070367e+18,0.17313113808631897,0.38052254915237427,0.05777350440621376
