timestamp,accel_x,accel_y,accel_z
1.7294989684165706e+18,0.0029164922889322042,-0.011901766993105412,-9.823180198669434
1.729498968428571e+18,-0.013101889751851559,-0.015734393149614334,-9.764355659484863
1.729498968437571e+18,-0.027516866102814674,0.020120643079280853,-9.881889343261719
1.7294989684495713e+18,0.004792916122823954,-0.04091009870171547,-9.851481437683105
1.7294989684585715e+18,-0.04509573429822922,0.0006459380965679884,-9.824746131896973
1.7294989684675717e+18,-0.02110772207379341,0.04002854600548744,-9.836175918579102
1.729498968476572e+18,-0.024499813094735146,0.008659846149384975,-9.840551376342773
1.7294989684885722e+18,0.07779014855623245,0.04681941494345665,-9.892607688903809
1.7294989684975724e+18,0.00018180096230935305,-0.0803852379322052,-9.780467987060547
1.7294989685065725e+18,-0.047384679317474365,-0.0032979378011077642,-9.777778625488281
1.7294989685155727e+18,-0.027299968525767326,0.030768129974603653,-9.761985778808594
1.729498968527573e+18,0.05432186648249626,0.02242184430360794,-9.836959838867188
1.7294989685365732e+18,-0.02880622260272503,0.00422491692006588,-9.774815559387207
1.7294989685455734e+18,0.09403666853904724,-0.060101740062236786,-9.78232192993164
1.7294989685575736e+18,0.01891499198973179,-0.06039348989725113,-9.758928298950195
1.7294989685665738e+18,0.003408979857340455,-0.019192039966583252,-9.820377349853516
1.729498968575574e+18,0.01761559024453163,0.045551978051662445,-9.82781982421875
1.7294989685845742e+18,0.022672252729535103,-0.0015190261183306575,-9.845823287963867
1.7294989685965745e+18,-0.05006954446434975,0.02380230464041233,-9.747809410095215
1.7294989686055747e+18,0.01189435739070177,0.013628578744828701,-9.719114303588867
1.7294989686145748e+18,0.0005448672454804182,-0.035481154918670654,-9.810528755187988
1.729498968623575e+18,0.0173818226903677,-0.02608247846364975,-9.846138000488281
1.7294989686325752e+18,-0.05837617069482803,0.014028435572981834,-9.795878410339355
1.7294989686415754e+18,0.026916293427348137,0.029903771355748177,-9.818852424621582
1.7294989686535757e+18,-0.023569466546177864,-0.014137661084532738,-9.838400840759277
1.7294989686625759e+18,0.008624507114291191,-0.07248058170080185,-9.885538101196289
1.729498968671576e+18,-0.03009016625583172,0.009575593285262585,-9.825113296508789
1.7294989686805763e+18,0.00633673882111907,-0.03466100990772247,-9.849411010742188
1.7294989686895764e+18,0.007131433114409447,-0.011546032503247261,-9.694583892822266
1.7294989686985766e+18,0.02130504511296749,-0.04174824059009552,-9.799277305603027
1.7294989687075768e+18,-0.00389416073448956,0.06283523142337799,-9.913586616516113
1.729498968716577e+18,0.024396328255534172,0.05581662431359291,-9.800265312194824
1.7294989687255772e+18,-0.038073841482400894,0.031371187418699265,-9.834736824035645
1.7294989687375775e+18,-0.05904921516776085,-0.025389479473233223,-9.800405502319336
1.7294989687465777e+18,-0.041223473846912384,-0.03284376487135887,-9.815568923950195
1.7294989687555779e+18,-0.0278866495937109,0.02189064212143421,-9.864726066589355
1.729498968767578e+18,0.027132436633110046,0.03757423907518387,-9.829893112182617
1.7294989687765783e+18,0.0012124216882511973,-0.022021731361746788,-9.816118240356445
1.7294989687855785e+18,0.06048067659139633,-0.016523197293281555,-9.771296501159668
1.7294989687945787e+18,0.024046771228313446,0.027304070070385933,-9.884843826293945
1.729498968803579e+18,0.018404103815555573,-0.03808750957250595,-9.805305480957031
1.729498968812579e+18,-0.0016672583296895027,-0.010694955475628376,-9.81901741027832
1.7294989688215793e+18,-0.016376178711652756,-0.062248703092336655,-9.877459526062012
1.7294989688305795e+18,-0.019517643377184868,-0.03649822995066643,-9.772513389587402
1.7294989688395796e+18,-0.07459099590778351,-0.05891138315200806,-9.834582328796387
1.7294989688485798e+18,0.044379062950611115,-0.04968223348259926,-9.75749683380127
1.72949896885758e+18,-0.022301511839032173,0.07620758563280106,-9.774724006652832
1.7294989688665802e+18,-0.09511223435401917,0.006668711081147194,-9.739755630493164
1.7294989688785805e+18,-0.09581226855516434,0.02262202277779579,-9.748866081237793
1.7294989688875807e+18,-0.0032659550197422504,0.020665450021624565,-9.875253677368164
1.7294989688965809e+18,-0.008357665501534939,-0.0394962877035141,-9.840778350830078
1.729498968905581e+18,0.0220684502273798,-0.08783124387264252,-9.827725410461426
1.7294989689145812e+18,0.0034024512860924006,-0.013355119153857231,-9.827089309692383
1.7294989689205814e+18,-0.05975359305739403,-0.0474606528878212,-9.850804328918457
1.7294989689295816e+18,0.03382793068885803,0.04109370708465576,-9.703385353088379
1.7294989689385818e+18,0.015444319695234299,-0.04611656069755554,-9.782639503479004
1.729498968947582e+18,-0.012401286512613297,0.05623430758714676,-9.84183406829834
1.7294989689565821e+18,0.04811331257224083,-0.028995027765631676,-9.816271781921387
1.7294989689655823e+18,0.0426175594329834,-0.0449141301214695,-9.923407554626465
1.7294989689745825e+18,-0.020796893164515495,-0.04124220088124275,-9.73185920715332
1.7294989689805827e+18,-0.049845967441797256,-0.012535418383777142,-9.884115219116211
1.7294989689895828e+18,0.04553529992699623,0.03992922231554985,-9.795380592346191
1.729498968998583e+18,-0.030636487528681755,0.047491587698459625,-9.864326477050781
1.7294989690075832e+18,-0.042418111115694046,0.08068810403347015,-9.83034610748291
1.7294989690165834e+18,-0.05197368562221527,0.03176333010196686,-9.761691093444824
1.7294989690255836e+18,-0.03363322839140892,-0.053059693425893784,-9.836017608642578
1.7294989690315837e+18,0.03743584454059601,-0.06776273995637894,-9.782651901245117
1.729498969040584e+18,0.022546373307704926,-0.016270970925688744,-9.778687477111816
1.729498969049584e+18,0.020851146429777145,-0.016377905383706093,-9.863210678100586
1.7294989690555843e+18,0.04035881534218788,-0.055841680616140366,-9.692961692810059
1.7294989690645844e+18,-0.005505501292645931,-0.027932416647672653,-9.745892524719238
1.7294989690735846e+18,0.025336602702736855,-0.0023169787600636482,-9.916461944580078
1.7294989690825848e+18,0.023940935730934143,0.04478232190012932,-9.861197471618652
1.729498969091585e+18,-0.08587374538183212,0.00998089462518692,-9.825614929199219
1.7294989690975852e+18,0.056883156299591064,-0.05936694145202637,-9.752593040466309
1.7294989691065853e+18,-0.05109588801860809,0.012673893943428993,-9.851788520812988
1.7294989691155855e+18,0.01812076009809971,-0.05580373853445053,-9.84150505065918
1.7294989691245857e+18,0.009959757328033447,-0.08645804971456528,-9.777156829833984
1.729498969133586e+18,0.038206879049539566,-0.01699790731072426,-9.81468391418457
1.729498969142586e+18,0.018288008868694305,-0.009640322998166084,-9.811152458190918
1.7294989691515863e+18,0.0642540231347084,-0.05027247592806816,-9.872611045837402
1.7294989691605865e+18,-0.006910880096256733,0.027556175366044044,-9.814173698425293
1.7294989691695867e+18,0.02200097218155861,-0.021037081256508827,-9.79610538482666
1.729498969178587e+18,0.010969897732138634,-0.038327571004629135,-9.856036186218262
1.729498969187587e+18,0.059292711317539215,-0.03610927239060402,-9.801095008850098
1.7294989691965873e+18,-0.026401858776807785,-0.028009403496980667,-9.868457794189453
1.7294989692025874e+18,-0.029790658503770828,0.039162714034318924,-9.80158805847168
1.7294989692115876e+18,0.0013736588880419731,-0.09111545234918594,-9.86318588256836
1.7294989692205878e+18,-0.028112931177020073,0.029529036954045296,-9.828104019165039
1.729498969226588e+18,0.027803940698504448,0.023458175361156464,-9.762833595275879
1.729498969235588e+18,-0.05644511803984642,-0.048791129142045975,-9.756855964660645
1.7294989692445883e+18,0.028957325965166092,0.022678229957818985,-9.770942687988281
1.7294989692535885e+18,-0.017621682956814766,0.028187105432152748,-9.773540496826172
1.7294989692625887e+18,-0.030505750328302383,0.0005283569917082787,-9.738466262817383
1.7294989692715889e+18,0.05653272569179535,0.04892779141664505,-9.772464752197266
1.729498969277589e+18,0.048682261258363724,0.06173999235033989,-9.797954559326172
1.7294989692865892e+18,-0.002794654108583927,-0.049279335886240005,-9.788597106933594
1.7294989692955894e+18,-0.01545768789947033,0.06520256400108337,-9.784049987792969
1.7294989693045896e+18,0.039948586374521255,-0.10642030090093613,-9.715133666992188
1.7294989693135898e+18,0.06777612119913101,0.06499163806438446,-9.772523880004883
1.72949896932259e+18,0.016105396673083305,-0.017862532287836075,-9.789546012878418
1.7294989693315901e+18,0.01262364536523819,0.025984304025769234,-9.858649253845215
1.7294989693375903e+18,0.07617045193910599,0.09250149130821228,-9.786367416381836
1.7294989693465905e+18,-0.006590629927814007,-0.03492533788084984,-9.849227905273438
1.7294989693555907e+18,-0.010105890221893787,0.02951100282371044,-9.791300773620605
1.7294989693645908e+18,0.026288600638508797,0.007637630216777325,-9.708206176757812
1.729498969370591e+18,-0.01598023623228073,-0.03864326700568199,-9.883585929870605
1.7294989693795912e+18,0.09052557498216629,0.048061031848192215,-9.813898086547852
1.7294989693885914e+18,-0.06082278490066528,0.0761643722653389,-9.79552173614502
1.7294989693975916e+18,0.032939523458480835,0.001628260244615376,-9.80472469329834
1.7294989694035917e+18,0.007069531828165054,-0.0022359283175319433,-9.838947296142578
1.7294989694125919e+18,-0.034231845289468765,0.039946943521499634,-9.88404655456543
1.729498969421592e+18,0.03644382581114769,-0.027338020503520966,-9.824252128601074
1.7294989694305923e+18,0.04948776960372925,0.012042847461998463,-9.784652709960938
1.7294989694365924e+18,-0.0843193531036377,0.014539218507707119,-9.826584815979004
1.7294989694455926e+18,-0.020864469930529594,-0.04570113122463226,-9.767145156860352
1.7294989694545928e+18,0.03755473718047142,0.004179555922746658,-9.780608177185059
1.729498969463593e+18,0.0014254682464525104,-0.014517522417008877,-9.842503547668457
1.7294989694725932e+18,-0.0032171423081308603,-0.04427140951156616,-9.767667770385742
1.7294989694815933e+18,-0.015283897519111633,0.026899950578808784,-9.77054214477539
1.7294989694905935e+18,0.0048729670234024525,-0.05336824432015419,-9.782770156860352
1.7294989694995937e+18,-0.017871394753456116,0.10877662152051926,-9.802088737487793
1.729498969508594e+18,-0.05836747586727142,-0.01570158265531063,-9.776847839355469
1.729498969514594e+18,-0.014000117778778076,-0.053979016840457916,-9.805474281311035
1.7294989695235942e+18,0.1140342429280281,-0.015577812679111958,-9.837987899780273
1.7294989695325944e+18,0.03951064497232437,0.0013421825133264065,-9.799181938171387
1.7294989695385946e+18,0.04701194539666176,0.017465095967054367,-9.787494659423828
1.7294989695475948e+18,0.0372711680829525,0.023713499307632446,-9.787060737609863
1.729498969556595e+18,0.025471588596701622,0.04499046877026558,-9.82557201385498
1.7294989695655951e+18,0.046673160046339035,-0.023659346625208855,-9.771416664123535
1.7294989695715953e+18,0.022498952224850655,-0.02238140068948269,-9.872273445129395
1.7294989695805955e+18,0.016488725319504738,0.032333988696336746,-9.873432159423828
1.7294989695895956e+18,-0.004128817468881607,0.024486975744366646,-9.835440635681152
1.7294989695955958e+18,-0.021175917237997055,-0.04682908207178116,-9.812926292419434
1.729498969604596e+18,0.053255077451467514,0.04558945447206497,-9.769735336303711
1.7294989696135962e+18,-0.010386764071881771,-0.05117924511432648,-9.753820419311523
1.7294989696225964e+18,-0.03497627004981041,0.07212602347135544,-9.843281745910645
1.7294989696315965e+18,0.025719990953803062,-0.10954169929027557,-9.803723335266113
1.7294989696375967e+18,-0.04929913207888603,0.055934756994247437,-9.824477195739746
1.7294989696465969e+18,0.012054852209985256,0.004776076413691044,-9.81036376953125
1.729498969655597e+18,0.00530933728441596,-0.06990958005189896,-9.857068061828613
1.7294989696645972e+18,-0.09827334433794022,-0.0590052604675293,-9.752251625061035
1.7294989696735974e+18,0.044761624187231064,-0.0059067606925964355,-9.752737045288086
1.7294989696795976e+18,0.04152628779411316,0.018858611583709717,-9.815760612487793
1.7294989696885978e+18,-0.06942009180784225,0.10460128635168076,-9.829317092895508
1.729498969694598e+18,0.06109226495027542,0.01031979825347662,-9.884784698486328
1.729498969703598e+18,0.018609821796417236,0.0029209523927420378,-9.804685592651367
1.7294989697125983e+18,-0.10031908005475998,-0.026145245879888535,-9.855659484863281
1.7294989697185984e+18,-0.08699236065149307,0.0019156477646902204,-9.796293258666992
1.7294989697275986e+18,-0.026592258363962173,0.017374830320477486,-9.791390419006348
1.7294989697365988e+18,0.007262024562805891,0.06965526938438416,-9.744620323181152
1.729498969745599e+18,-0.033335763961076736,0.03916554152965546,-9.810300827026367
1.729498969751599e+18,0.03448142483830452,-0.06995493918657303,-9.847298622131348
1.7294989697605993e+18,-0.04346251115202904,0.09747868776321411,-9.829361915588379
1.7294989697695995e+18,-0.0019254538929089904,0.03748781234025955,-9.77104377746582
1.7294989697785997e+18,0.028653135523200035,-0.012973918579518795,-9.75704574584961
1.7294989697876e+18,-0.02366637997329235,-0.04428376629948616,-9.832478523254395
1.7294989697966e+18,0.03981735184788704,-0.08555300533771515,-9.817248344421387
1.7294989698026002e+18,-0.01317524816840887,-0.009844074957072735,-9.800025939941406
1.7294989698116004e+18,0.020528150722384453,-0.017758889123797417,-9.831070899963379
1.7294989698206006e+18,0.02163095399737358,0.016555162146687508,-9.787116050720215
1.7294989698296008e+18,-0.026334892958402634,-0.002727359998971224,-9.82696533203125
1.729498969835601e+18,0.005764261353760958,-0.0012263813987374306,-9.79498291015625
1.729498969844601e+18,0.06231699883937836,0.06854946911334991,-9.765243530273438
1.7294989698536013e+18,0.07485851645469666,-0.0025940306950360537,-9.810461044311523
1.7294989698626015e+18,0.025032686069607735,-0.05749895051121712,-9.744380950927734
1.7294989698716017e+18,0.06322330981492996,0.06283388286828995,-9.748613357543945
1.7294989698806019e+18,-0.012428265996277332,0.028811506927013397,-9.897318840026855
1.729498969889602e+18,-0.005170740187168121,0.00890692975372076,-9.863733291625977
1.7294989698956022e+18,0.044466037303209305,-0.023452753201127052,-9.773865699768066
1.7294989699046024e+18,0.07217183709144592,0.08057186752557755,-9.767760276794434
1.7294989699136026e+18,-0.0016307737678289413,-0.04445105046033859,-9.777992248535156
1.7294989699226028e+18,0.027565954253077507,-0.05129404366016388,-9.804410934448242
1.729498969931603e+18,-0.017223281785845757,0.04003053158521652,-9.830426216125488
1.7294989699406031e+18,0.00213196431286633,-0.048903413116931915,-9.822739601135254
1.7294989699466033e+18,-0.045891571789979935,-0.034765638411045074,-9.825291633605957
1.7294989699556035e+18,-0.1086316853761673,0.04071301221847534,-9.84408187866211
1.7294989699646036e+18,0.05954868718981743,-0.043701156973838806,-9.821852684020996
1.7294989699736038e+18,-0.023449325934052467,-0.04900772124528885,-9.874183654785156
1.729498969982604e+18,-0.020429784432053566,-0.009787037037312984,-9.815199851989746
1.7294989699886042e+18,-0.009647265076637268,-0.10197240859270096,-9.788586616516113
1.7294989699976044e+18,-0.01371401734650135,-0.04720205068588257,-9.722257614135742
1.7294989700066045e+18,-0.04575672373175621,0.05447975546121597,-9.891690254211426
1.7294989700156047e+18,0.05146634578704834,-0.013796943239867687,-9.795830726623535
1.729498970024605e+18,0.031963933259248734,0.0421161912381649,-9.817026138305664
1.729498970033605e+18,0.020786656066775322,0.07907470315694809,-9.89766788482666
1.7294989700396052e+18,-0.032771795988082886,0.04349343106150627,-9.707497596740723
1.7294989700486054e+18,-0.004587828181684017,-0.05609896406531334,-9.796908378601074
1.7294989700576056e+18,-0.028962066397070885,0.0504087433218956,-9.765877723693848
1.7294989700666058e+18,0.010634362697601318,0.02832712046802044,-9.807295799255371
1.729498970075606e+18,0.004894683137536049,-0.007269532419741154,-9.80871295928955
1.7294989700816061e+18,-0.02158970944583416,-0.012062550522387028,-9.868453979492188
1.7294989700906063e+18,0.11974120885133743,0.03540650010108948,-9.807044982910156
1.7294989700996065e+18,0.01524188369512558,0.062247488647699356,-9.793229103088379
1.7294989701086067e+18,-0.08390514552593231,0.023989975452423096,-9.811869621276855
1.7294989701146068e+18,0.010175708681344986,-0.03446835279464722,-9.770116806030273
1.729498970123607e+18,-0.042207010090351105,-0.020947890356183052,-9.792896270751953
1.7294989701326072e+18,0.01856263354420662,-0.01748073846101761,-9.728394508361816
1.7294989701416074e+18,-0.02524912916123867,0.02935703471302986,-9.832530975341797
1.7294989701506076e+18,-0.011675206013023853,-0.03018658608198166,-9.829330444335938
1.7294989701566077e+18,0.0025864015333354473,-0.05306050181388855,-9.782774925231934
1.729498970165608e+18,0.05875695124268532,0.009032838977873325,-9.813470840454102
1.7294989701746081e+18,-0.019858065992593765,0.00207190471701324,-9.77570629119873
1.7294989701836083e+18,-0.027766184881329536,0.010476313531398773,-9.760883331298828
1.7294989701896084e+18,-0.0009684766409918666,0.011101535521447659,-9.81594181060791
1.7294989701986086e+18,-0.013696557842195034,0.03825650364160538,-9.83669662475586
1.7294989702076088e+18,-0.006795124150812626,0.012696143239736557,-9.812163352966309
1.729498970216609e+18,-0.025199292227625847,0.0036951315123587847,-9.867044448852539
1.7294989702256092e+18,0.0017171233193948865,0.07337798923254013,-9.902681350708008
1.7294989702346094e+18,0.003028743900358677,-0.002599121769890189,-9.752321243286133
1.7294989702436096e+18,0.01139773428440094,-0.025303523987531662,-9.766010284423828
1.7294989702496097e+18,-0.020794635638594627,0.009153701364994049,-9.822484970092773
1.72949897025861e+18,0.04439929127693176,0.05364549905061722,-9.774248123168945
1.72949897026761e+18,-0.03889333829283714,0.02674536034464836,-9.851129531860352
1.7294989702766103e+18,0.04025838524103165,-0.029994463548064232,-9.794089317321777
1.7294989702856105e+18,-0.009439775720238686,-0.019500287249684334,-9.716527938842773
1.7294989702946107e+18,-0.01610773615539074,-0.04987421631813049,-9.861449241638184
1.7294989703006108e+18,0.01942402310669422,-0.07521267980337143,-9.841882705688477
1.729498970309611e+18,-0.014680919237434864,0.11460178345441818,-9.844414710998535
1.7294989703186112e+18,-0.016407806426286697,0.039465807378292084,-9.790609359741211
1.7294989703276114e+18,0.01286500133574009,0.029656583443284035,-9.824373245239258
1.7294989703366116e+18,-0.020462458953261375,0.017745671793818474,-9.851795196533203
1.7294989703426117e+18,-0.045257288962602615,-0.008950832299888134,-9.785314559936523
1.729498970351612e+18,0.056112732738256454,0.06969223916530609,-9.786093711853027
1.729498970360612e+18,-0.008929389528930187,-0.004969707690179348,-9.825119018554688
1.7294989703696123e+18,0.00690658250823617,0.027433890849351883,-9.786042213439941
1.7294989703786125e+18,0.01865377277135849,-0.10345489531755447,-9.771458625793457
1.7294989703876127e+18,-0.017858093604445457,-0.02714165672659874,-9.786858558654785
1.7294989703936128e+18,-0.014688646420836449,-0.011596896685659885,-9.834268569946289
1.729498970402613e+18,0.014449289999902248,0.015323098748922348,-9.829912185668945
1.7294989704116132e+18,0.005644728429615498,-0.012390470132231712,-9.802395820617676
1.7294989704206134e+18,-0.017173152416944504,0.01310395821928978,-9.767426490783691
1.7294989704296136e+18,0.013276833109557629,0.0721384659409523,-9.785192489624023
1.7294989704386138e+18,-0.04036601632833481,-0.007171441800892353,-9.801353454589844
1.729498970444614e+18,-0.017196744680404663,-0.06588566303253174,-9.865718841552734
1.729498970453614e+18,0.0015527778305113316,-0.03285236656665802,-9.77033805847168
1.7294989704626143e+18,0.051285311579704285,-0.0015655988827347755,-9.8429594039917
1.7294989704716145e+18,-0.03757013753056526,0.010159243829548359,-9.793085098266602
1.7294989704806147e+18,0.025400228798389435,-0.00041355175198987126,-9.821220397949219
1.7294989704896148e+18,-0.07962139695882797,-0.07349944114685059,-9.866618156433105
1.729498970495615e+18,0.012922901660203934,0.040088362991809845,-9.882791519165039
1.7294989705046152e+18,0.014731315895915031,-0.062440481036901474,-9.780226707458496
1.7294989705136154e+18,0.07743138819932938,-0.05649643763899803,-9.856717109680176
1.7294989705226156e+18,-0.049694254994392395,-0.016992677003145218,-9.85472583770752
1.7294989705286157e+18,0.02411867491900921,-0.06906139850616455,-9.85416030883789
1.729498970537616e+18,0.028445787727832794,0.002244829200208187,-9.799988746643066
1.729498970546616e+18,0.08448296040296555,-0.004533151164650917,-9.851934432983398
1.7294989705526162e+18,-0.015899455174803734,0.023869791999459267,-9.792247772216797
1.7294989705616164e+18,0.05890350788831711,-0.037885233759880066,-9.722125053405762
1.7294989705706166e+18,0.0035145950969308615,0.02952815592288971,-9.776884078979492
1.7294989705766167e+18,0.08319759368896484,-0.07422023266553879,-9.85600757598877
1.729498970585617e+18,-0.07630745321512222,-0.0047151618637144566,-9.78913688659668
1.729498970594617e+18,0.05728701502084732,-0.007626383565366268,-9.78406810760498
1.7294989706036173e+18,0.025867050513625145,-0.0151209756731987,-9.795660018920898
1.7294989706096174e+18,0.01621963083744049,-0.005188696086406708,-9.896831512451172
1.7294989706186176e+18,-0.0703185647726059,0.08095721900463104,-9.800138473510742
1.7294989706276178e+18,-0.01827237568795681,0.05183024704456329,-9.775641441345215
1.729498970636618e+18,0.016830461099743843,0.05352973937988281,-9.897683143615723
1.729498970642618e+18,0.04874551296234131,-0.023790255188941956,-9.835224151611328
1.7294989706516183e+18,-0.0351446196436882,-0.07254118472337723,-9.795015335083008
1.7294989706606185e+18,-0.04258561506867409,-0.007488612551242113,-9.845987319946289
1.7294989706696187e+18,-0.02274683117866516,-0.027774401009082794,-9.811683654785156
1.7294989706756188e+18,0.03236477077007294,0.019442912191152573,-9.849348068237305
1.729498970684619e+18,0.045435696840286255,0.002661667997017503,-9.857320785522461
1.7294989706936192e+18,-0.00884432066231966,-0.01135967206209898,-9.785623550415039
1.7294989706996193e+18,0.03719879686832428,0.010729020461440086,-9.774714469909668
1.7294989707086195e+18,0.008621301501989365,0.01949039101600647,-9.790670394897461
1.7294989707176197e+18,0.03606540709733963,0.041206877678632736,-9.81490421295166
1.72949897072662e+18,-0.027504559606313705,-0.04098805785179138,-9.766826629638672
1.72949897073262e+18,0.01096971333026886,-0.1045575737953186,-9.758984565734863
1.7294989707416202e+18,-0.023618141189217567,0.04046514257788658,-9.830523490905762
1.7294989707506204e+18,-0.020004423335194588,0.124335877597332,-9.792414665222168
1.7294989707596206e+18,-0.022453803569078445,0.008756670169532299,-9.902262687683105
1.7294989707656207e+18,-0.059319619089365005,-0.030299505218863487,-9.80479907989502
1.729498970774621e+18,-0.06528642773628235,-0.02623656392097473,-9.82116413116455
1.729498970783621e+18,-0.04157841578125954,-0.07881778478622437,-9.775338172912598
1.7294989707926213e+18,-0.017741309478878975,-0.01619909331202507,-9.873412132263184
1.7294989708016215e+18,0.03162284567952156,0.016383161768317223,-9.824438095092773
1.7294989708076216e+18,0.0232364721596241,-0.00978415459394455,-9.808196067810059
1.7294989708166218e+18,0.033448226749897,-0.04805474728345871,-9.773419380187988
1.729498970825622e+18,0.027172483503818512,0.030513297766447067,-9.859379768371582
1.7294989708316221e+18,-0.016939295455813408,-0.0025758743286132812,-9.808286666870117
1.7294989708406223e+18,-0.06817087531089783,0.06116235628724098,-9.833378791809082
1.7294989708496225e+18,0.02353264018893242,-0.04591885581612587,-9.818603515625
1.7294989708556227e+18,-0.027637217193841934,0.023917000740766525,-9.83902645111084
1.7294989708646228e+18,-0.05898117274045944,-0.032918404787778854,-9.889379501342773
1.729498970873623e+18,0.021294057369232178,0.04874182492494583,-9.907482147216797
1.7294989708826232e+18,-0.025520266965031624,-0.0005658278241753578,-9.952536582946777
1.7294989708886234e+18,0.008252297528088093,0.014633990824222565,-9.951783180236816
1.7294989708976236e+18,-0.02237088978290558,0.1078735888004303,-9.999533653259277
1.7294989709066237e+18,0.033662617206573486,0.01912723109126091,-9.983796119689941
1.729498970915624e+18,-0.03960426524281502,0.0022255191579461098,-10.004968643188477
1.729498970921624e+18,-0.0014817407354712486,-0.05142107233405113,-9.974205017089844
1.7294989709306243e+18,0.004695325158536434,0.024323374032974243,-10.102137565612793
1.7294989709396244e+18,-0.06524364650249481,-0.006551133468747139,-10.001107215881348
1.7294989709486246e+18,-0.01863304153084755,0.01811586506664753,-10.077165603637695
1.7294989709546248e+18,0.0066260844469070435,0.02243891917169094,-10.176779747009277
1.729498970963625e+18,-0.06796637177467346,-0.016866108402609825,-10.07017993927002
1.7294989709726252e+18,0.009146232157945633,0.04542422294616699,-10.14511489868164
1.7294989709786253e+18,0.01415055152028799,-0.02618333138525486,-10.116456985473633
1.7294989709876255e+18,0.04486626014113426,-0.05220858380198479,-10.466240882873535
1.7294989709966257e+18,-0.00010209111496806145,0.03749581426382065,-10.462286949157715
1.7294989710026258e+18,0.03991694375872612,0.02509472519159317,-10.472643852233887
1.729498971011626e+18,-0.048657141625881195,-0.0688822939991951,-10.525151252746582
1.7294989710206262e+18,0.01727898046374321,0.09356445074081421,-10.44303035736084
1.7294989710266263e+18,0.0485202930867672,-0.011254013516008854,-10.553807258605957
1.7294989710356265e+18,-0.02353539876639843,-0.01351217832416296,-10.417840003967285
1.7294989710446267e+18,-0.02460106648504734,-0.03304296359419823,-10.53338623046875
1.7294989710506268e+18,-0.02722785249352455,0.0886736661195755,-10.49731159210205
1.729498971059627e+18,-0.028095481917262077,0.025572558864951134,-10.61959457397461
1.7294989710686272e+18,0.05352722108364105,-0.06200440600514412,-10.54096508026123
1.7294989710746273e+18,-0.07069864869117737,-0.0503850020468235,-10.624835014343262
1.7294989710836275e+18,-0.045571792870759964,0.024254579097032547,-10.538617134094238
1.7294989710926277e+18,-0.011807775124907494,0.01286303624510765,-10.53500747680664
1.729498971101628e+18,-0.06259842962026596,0.020857179537415504,-10.524312019348145
1.729498971107628e+18,0.00047111581079661846,0.06169743463397026,-10.56811809539795
1.7294989711166282e+18,0.026087390258908272,0.0027898410335183144,-10.602482795715332
1.7294989711256284e+18,-0.08685842156410217,0.03155884891748428,-10.55761432647705
1.7294989711346286e+18,-0.021977471187710762,-0.035612478852272034,-10.591129302978516
1.7294989711436288e+18,0.05834660679101944,0.06906325370073318,-10.551383972167969
1.729498971152629e+18,-0.04102778807282448,-0.026204364374279976,-10.573487281799316
1.7294989711616292e+18,0.023100513964891434,0.038804151117801666,-10.481180191040039
1.7294989711676293e+18,-0.0700172632932663,-0.011875536292791367,-10.550162315368652
1.7294989711766295e+18,0.003659140085801482,-0.011975375935435295,-10.598798751831055
1.7294989711856297e+18,-0.03301389142870903,-0.007454589940607548,-10.591784477233887
1.72949897119463e+18,-0.016579696908593178,0.04826195538043976,-10.588035583496094
1.72949897120363e+18,-0.07059962302446365,0.008364398032426834,-10.63144588470459
1.7294989712096302e+18,0.0016637719236314297,0.12539197504520416,-10.633724212646484
1.7294989712186304e+18,-0.030095135793089867,-0.023688342422246933,-10.55986499786377
1.7294989712276306e+18,0.01985882967710495,0.05640585348010063,-10.658793449401855
1.7294989712366308e+18,-0.004233230836689472,-0.04167637228965759,-10.51233959197998
1.729498971242631e+18,0.02522941492497921,0.022527392953634262,-10.500990867614746
1.729498971251631e+18,0.013095074333250523,0.05716013163328171,-10.666033744812012
1.7294989712606313e+18,0.051488544791936874,-0.047218114137649536,-10.549897193908691
1.7294989712696315e+18,0.0012393661309033632,-0.03549071401357651,-10.653569221496582
1.7294989712756316e+18,0.009094255045056343,0.04760991409420967,-10.659250259399414
1.7294989712846318e+18,0.02737049199640751,-0.018682081252336502,-10.576396942138672
1.729498971293632e+18,0.037169523537158966,0.050552867352962494,-10.63466739654541
1.729498971299632e+18,-0.010183563455939293,0.023014187812805176,-10.496973037719727
1.7294989713086323e+18,0.0024193483404815197,0.07396331429481506,-10.700723648071289
1.7294989713176325e+18,0.044205352663993835,0.005796494893729687,-10.568761825561523
1.7294989713266327e+18,-0.013947902247309685,-0.011728087440133095,-10.61044692993164
1.7294989713326328e+18,0.04576760530471802,-0.001885607372969389,-10.701148986816406
1.729498971341633e+18,0.037657950073480606,0.09042913466691971,-10.628562927246094
1.7294989713506332e+18,-0.026285449042916298,-0.028837837278842926,-10.553865432739258
1.7294989713596334e+18,0.015203380957245827,-0.018167275935411453,-10.598376274108887
1.7294989713656335e+18,0.07143137603998184,0.02158885821700096,-10.668008804321289
1.7294989713746337e+18,-0.03670142590999603,-0.02281961962580681,-10.627079010009766
1.729498971383634e+18,-0.059798941016197205,0.09954909980297089,-10.717652320861816
1.729498971389634e+18,-0.047235503792762756,0.021414417773485184,-10.596220016479492
1.7294989713986342e+18,0.015995927155017853,0.018688403069972992,-10.681004524230957
1.7294989714076344e+18,0.010658136568963528,-0.0375991053879261,-10.616690635681152
1.7294989714136346e+18,0.024234071373939514,0.00733770988881588,-10.595327377319336
1.7294989714226348e+18,0.024141380563378334,-0.10096170753240585,-10.609430313110352
1.729498971431635e+18,0.014486569911241531,-0.012746280059218407,-10.63051986694336
1.729498971437635e+18,0.009728467091917992,-0.02867913246154785,-10.643024444580078
1.7294989714466353e+18,0.0006074074190109968,0.08801315724849701,-10.633378028869629
1.7294989714556355e+18,0.005514994263648987,-0.020521804690361023,-10.508752822875977
1.7294989714616356e+18,0.05539004132151604,-0.03305484354496002,-10.666704177856445
1.7294989714706358e+18,0.01619020663201809,-0.005152859725058079,-10.687225341796875
1.729498971479636e+18,0.023174086585640907,-0.0035241441801190376,-10.694107055664062
1.729498971485636e+18,0.02787802927196026,0.08634869009256363,-10.686471939086914
1.7294989714946363e+18,-0.02140272781252861,-0.017606981098651886,-10.586328506469727
1.7294989715036365e+18,0.022532014176249504,-0.06745170801877975,-10.592947006225586
1.7294989715096366e+18,0.014794525690376759,-0.0038448090199381113,-10.652216911315918
1.7294989715186368e+18,-0.01874723844230175,-0.007252572104334831,-10.701196670532227
1.729498971527637e+18,-0.019256707280874252,-0.03748810663819313,-10.570199012756348
1.729498971533637e+18,-0.0005719964392483234,-0.03258306905627251,-10.62236499786377
1.7294989715426373e+18,-0.05980510264635086,0.0028837271966040134,-10.600044250488281
1.7294989715516375e+18,-0.0072427112609148026,-0.03817841038107872,-10.68946647644043
1.7294989715606377e+18,0.017463596537709236,0.008055516518652439,-10.594408988952637
1.729498971569638e+18,0.0430002324283123,-0.014011682942509651,-10.589922904968262
1.729498971578638e+18,-0.02549254707992077,0.04198797047138214,-10.491537094116211
1.7294989715846382e+18,0.05817000940442085,0.007386486046016216,-10.58066463470459
1.7294989715936384e+18,0.016789527609944344,0.000726640282664448,-10.673609733581543
1.7294989716026386e+18,-0.04959969222545624,0.03842056542634964,-10.61398696899414
1.7294989716116388e+18,0.06271795183420181,0.005617805756628513,-10.627568244934082
1.729498971617639e+18,-0.013852911069989204,0.042540065944194794,-10.67275619506836
1.729498971626639e+18,0.03962777927517891,0.029359057545661926,-10.540417671203613
1.7294989716356393e+18,0.013613945804536343,-0.06637859344482422,-10.5809907913208
1.7294989716446395e+18,-0.02827933244407177,-0.015232663601636887,-10.506691932678223
1.7294989716506396e+18,-0.01629609428346157,0.04113555699586868,-10.627952575683594
1.7294989716596398e+18,-0.0029119267128407955,-0.008834291249513626,-10.605870246887207
1.72949897166864e+18,0.06729233264923096,0.008833848871290684,-10.623307228088379
1.7294989716776402e+18,0.0007650601328350604,0.052317388355731964,-10.618612289428711
1.7294989716866404e+18,0.0626496970653534,0.08690059185028076,-10.655923843383789
1.7294989716926405e+18,0.038574445992708206,-0.03372010961174965,-10.645013809204102
1.7294989717016407e+18,-0.012924503535032272,0.05793973058462143,-10.623143196105957
1.729498971710641e+18,-0.03818199038505554,-0.004102145321667194,-10.666762351989746
1.729498971716641e+18,-0.06400808691978455,0.09203313291072845,-10.581755638122559
1.7294989717256412e+18,-0.0068316166289150715,-0.012851886451244354,-10.63426685333252
1.7294989717346414e+18,0.04798941686749458,-0.04996872693300247,-10.6419677734375
1.7294989717436416e+18,-0.02726183831691742,0.05724191665649414,-10.624924659729004
1.7294989717526418e+18,-0.0008124439045786858,-0.0016132413875311613,-10.66767406463623
1.729498971758642e+18,0.0010399348102509975,0.05600366368889809,-10.6698579788208
1.729498971767642e+18,0.048042088747024536,0.05254928022623062,-10.533602714538574
1.7294989717766423e+18,-0.01384470984339714,0.0010982506209984422,-10.701798439025879
1.7294989717826424e+18,0.039960332214832306,0.01043084729462862,-10.477622985839844
1.7294989717916426e+18,-0.0314883328974247,-0.039816826581954956,-10.598725318908691
1.7294989718006428e+18,0.011461622081696987,-0.007125220261514187,-10.633551597595215
1.729498971809643e+18,-0.0383232943713665,0.03275526314973831,-10.50973892211914
1.7294989718186432e+18,-0.00983443669974804,0.09402713924646378,-10.502720832824707
1.7294989718246433e+18,0.01616896688938141,0.0014988769544288516,-10.604161262512207
1.7294989718336435e+18,0.022037740796804428,0.008402724750339985,-10.535154342651367
1.7294989718396436e+18,0.02535889483988285,-0.06441652774810791,-10.577301979064941
1.7294989718486438e+18,-0.02092467062175274,0.04730233550071716,-10.569167137145996
1.729498971857644e+18,0.0024130381643772125,-0.007734599988907576,-10.631118774414062
1.7294989718666442e+18,0.058660995215177536,-0.0727003887295723,-10.610745429992676
1.7294989718726444e+18,-0.03932282328605652,-0.027387239038944244,-10.609441757202148
1.7294989718816445e+18,-0.05985315889120102,-0.06571365892887115,-10.663269996643066
1.7294989718906447e+18,-0.029164854437112808,-0.02030290476977825,-10.592249870300293
1.7294989718966449e+18,0.023434996604919434,0.057514488697052,-10.706632614135742
1.729498971905645e+18,-0.030069351196289062,-0.09395898133516312,-10.525471687316895
1.7294989719146452e+18,-0.019016671925783157,-0.07723519951105118,-10.5607271194458
1.7294989719206454e+18,-0.032385095953941345,0.04922663792967796,-10.604519844055176
1.7294989719296456e+18,0.0024013034999370575,-0.016533132642507553,-10.64995288848877
1.7294989719386458e+18,-0.048466335982084274,0.00016752840019762516,-10.59596061706543
1.729498971944646e+18,-0.039631180465221405,0.014806422404944897,-10.562189102172852
1.729498971953646e+18,0.06878392398357391,-0.001083312090486288,-10.581951141357422
1.7294989719626463e+18,-0.021929554641246796,0.016391130164265633,-10.607147216796875
1.7294989719686464e+18,-0.03945009782910347,0.0037467496003955603,-10.5591459274292
1.7294989719776466e+18,0.03288518264889717,-0.03993690386414528,-10.580146789550781
1.7294989719866468e+18,-0.05175579711794853,-0.04190652817487717,-10.700439453125
1.729498971992647e+18,0.02794567495584488,0.06125469505786896,-10.612497329711914
1.729498972001647e+18,0.043005190789699554,0.006614156067371368,-10.648221969604492
1.7294989720106473e+18,-0.04804247245192528,0.03800259530544281,-10.567021369934082
1.7294989720166474e+18,0.016721948981285095,0.09298756718635559,-10.562987327575684
1.7294989720256476e+18,-0.012682447209954262,-0.02036381885409355,-10.604496955871582
1.7294989720346478e+18,-0.01100844331085682,-0.005747123621404171,-10.683070182800293
1.729498972040648e+18,0.06917697191238403,0.0242060087621212,-10.590015411376953
1.729498972049648e+18,-0.05160762742161751,0.012181239202618599,-10.510149955749512
1.7294989720586483e+18,0.0015690235886722803,-0.07733225077390671,-10.599292755126953
1.7294989720676485e+18,0.06801603734493256,-0.05267948657274246,-10.513978004455566
1.7294989720736486e+18,0.02444540709257126,0.014374496415257454,-10.5264892578125
1.7294989720826488e+18,-0.021570732817053795,0.020860426127910614,-10.505444526672363
1.729498972091649e+18,-0.06354831159114838,0.018932819366455078,-10.56255054473877
1.7294989720976492e+18,-0.010309982113540173,0.0022281664423644543,-10.612994194030762
1.7294989721066493e+18,-0.06914135068655014,0.031073950231075287,-10.534478187561035
1.7294989721126495e+18,0.015879230573773384,-0.00028734642546623945,-10.540022850036621
1.7294989721216497e+18,-0.06481193751096725,0.01884607970714569,-10.53299617767334
1.7294989721306499e+18,-0.057929545640945435,0.00710808951407671,-10.648039817810059
1.72949897213965e+18,-0.07471911609172821,0.027853449806571007,-10.599495887756348
1.7294989721456502e+18,-0.07684523612260818,-0.05718137323856354,-10.501232147216797
1.7294989721546504e+18,0.024956123903393745,-0.01964407227933407,-10.546905517578125
1.7294989721636506e+18,0.06323690712451935,-0.025217043235898018,-10.497726440429688
1.7294989721726508e+18,-0.07169532030820847,0.003335966495797038,-10.547243118286133
1.729498972178651e+18,-0.015355898067355156,-0.044038571417331696,-10.611766815185547
1.729498972187651e+18,0.035326652228832245,0.04274918884038925,-10.50859260559082
1.7294989721966513e+18,-0.051459670066833496,-0.0020863134413957596,-10.614805221557617
1.7294989722026514e+18,0.01057220809161663,-0.007898526266217232,-10.574583053588867
1.7294989722116516e+18,-0.03470746427774429,-0.04425157234072685,-10.57947063446045
1.7294989722206518e+18,0.03204083442687988,0.01047691609710455,-10.546990394592285
1.729498972226652e+18,0.0919250026345253,0.033260710537433624,-10.531065940856934
1.729498972235652e+18,-0.03740362450480461,-0.023318206891417503,-10.476844787597656
1.7294989722446523e+18,0.017664924263954163,0.019371988251805305,-10.510756492614746
1.7294989722506524e+18,-0.05334876477718353,0.02432984486222267,-10.505608558654785
1.7294989722596526e+18,0.04942147433757782,0.044458359479904175,-10.507575035095215
1.7294989722686528e+18,0.09242025017738342,0.04872556030750275,-10.474609375
1.729498972274653e+18,0.04571854695677757,0.008771990425884724,-10.40961742401123
1.729498972283653e+18,0.040942344814538956,0.049581680446863174,-10.517599105834961
1.7294989722926533e+18,0.03786222264170647,-0.05124432593584061,-10.420748710632324
1.7294989723016535e+18,-0.08566540479660034,0.058696288615465164,-10.338081359863281
1.7294989723076536e+18,-0.0002576879342086613,-0.01603625901043415,-10.352173805236816
1.7294989723166538e+18,0.05393027141690254,0.05122426152229309,-10.329684257507324
1.729498972325654e+18,-0.0665101483464241,0.07473725825548172,-10.35254192352295
1.7294989723346542e+18,0.07906302809715271,0.07548331469297409,-10.258822441101074
1.7294989723406543e+18,-0.020963609218597412,-0.013607638888061047,-10.219208717346191
1.7294989723496545e+18,-0.004396687727421522,0.0006607604445889592,-10.233782768249512
1.7294989723616548e+18,-0.04389205202460289,-0.0008691514376550913,-10.176681518554688
1.729498972367655e+18,-0.007006158120930195,-0.0040336535312235355,-10.093183517456055
1.729498972376655e+18,-0.0502617210149765,-0.021537834778428078,-10.207762718200684
1.7294989723856553e+18,-0.024860061705112457,-0.0669809877872467,-10.219667434692383
1.7294989723946555e+18,0.10667998343706131,-0.05193512886762619,-10.047220230102539
1.7294989724036557e+18,0.01641138270497322,0.008126373402774334,-10.099299430847168
1.7294989724096558e+18,-0.022348305210471153,0.00497392425313592,-10.007476806640625
1.729498972418656e+18,-0.010030493140220642,0.028915807604789734,-10.078861236572266
1.7294989724276562e+18,-0.016940077766776085,0.011404541321098804,-9.999346733093262
1.7294989724336563e+18,-0.05834555625915527,-0.03553609922528267,-9.974913597106934
1.7294989724426565e+18,0.012933648191392422,-0.017148427665233612,-9.89255428314209
1.7294989724516567e+18,-0.033849116414785385,-0.06789261847734451,-9.879843711853027
1.729498972460657e+18,0.03910936415195465,0.007843687199056149,-9.916586875915527
1.7294989724726572e+18,-0.07240680605173111,0.0016797780990600586,-9.79650592803955
1.7294989724846574e+18,-0.10079986602067947,-0.05416646972298622,-9.751995086669922
1.7294989724906575e+18,0.023201709613204002,-0.01074099913239479,-9.692985534667969
1.7294989724996577e+18,0.029739025980234146,-0.034728385508060455,-9.74644947052002
1.729498972508658e+18,0.033403389155864716,0.0339028500020504,-9.682085037231445
1.729498972517658e+18,-0.012899074703454971,-0.033038653433322906,-9.680113792419434
1.7294989725266583e+18,-0.03439359366893768,-0.036932434886693954,-9.737733840942383
1.7294989725356585e+18,0.06540824472904205,0.028315629810094833,-9.6445894241333
1.7294989725446587e+18,-0.016847742721438408,0.019094888120889664,-9.692626953125
1.729498972553659e+18,0.01697930507361889,-0.06342107057571411,-9.708880424499512
1.729498972559659e+18,-0.04663919284939766,0.033022068440914154,-9.751382827758789
1.7294989725686592e+18,-0.05849732086062431,0.05983012914657593,-9.786521911621094
1.7294989725806595e+18,-0.03625662997364998,0.007681205868721008,-9.622182846069336
1.7294989725896596e+18,-0.060943637043237686,-0.019945908337831497,-9.7487211227417
1.7294989725956598e+18,0.002970063826069236,-0.004644360858947039,-9.732420921325684
1.72949897260466e+18,-0.017028290778398514,0.01526174508035183,-9.66623592376709
1.7294989726136602e+18,0.011496058665215969,-0.03446687385439873,-9.666045188903809
1.7294989726226604e+18,-0.12041407823562622,0.027525033801794052,-9.704885482788086
1.7294989726316605e+18,0.048854947090148926,-0.02174966409802437,-9.704201698303223
1.7294989726406607e+18,-0.00666505703702569,-0.06809632480144501,-9.631291389465332
1.729498972649661e+18,0.050193123519420624,0.041321948170661926,-9.728761672973633
1.729498972655661e+18,-0.0009016853873617947,-0.07417915761470795,-9.690035820007324
1.7294989726646612e+18,-0.0012492877431213856,0.027120931074023247,-9.676702499389648
1.7294989726736614e+18,0.08115895092487335,0.010460424236953259,-9.687108993530273
1.7294989726826616e+18,-0.03245655447244644,-0.11631293594837189,-9.623030662536621
1.7294989726916618e+18,-0.015249175950884819,-0.05690509080886841,-9.722573280334473
1.729498972697662e+18,0.02692350000143051,-0.016946353018283844,-9.757734298706055
1.7294989727066621e+18,-0.014033826999366283,0.04080820828676224,-9.688654899597168
1.7294989727156623e+18,0.014295883476734161,-0.0035975868813693523,-9.688575744628906
1.7294989727246625e+18,-0.0004183583951089531,0.028604231774806976,-9.766996383666992
1.7294989727306627e+18,0.03078140690922737,0.04772518202662468,-9.745819091796875
1.7294989727396628e+18,0.024917788803577423,0.023001322522759438,-9.675202369689941
1.729498972748663e+18,0.0026641327422112226,0.036389511078596115,-9.675117492675781
1.7294989727546632e+18,-0.02545146271586418,0.08323411643505096,-9.711419105529785
1.7294989727636634e+18,0.049897558987140656,-0.022195063531398773,-9.641916275024414
1.7294989727726636e+18,-0.04376421868801117,-0.00777343800291419,-9.660694122314453
1.7294989727816637e+18,0.03234412893652916,0.030191419646143913,-9.710780143737793
1.729498972790664e+18,0.07471548765897751,0.05317803844809532,-9.674646377563477
1.729498972796664e+18,-0.07259014248847961,0.02576971985399723,-9.7211275100708
1.7294989728056643e+18,-0.044167183339595795,-0.04350464791059494,-9.678237915039062
1.7294989728146644e+18,-0.015547042712569237,-0.0067271338775753975,-9.672245979309082
1.7294989728206646e+18,-0.015435206703841686,0.024406947195529938,-9.659116744995117
1.7294989728296648e+18,0.008321098983287811,0.08414848148822784,-9.728306770324707
1.729498972838665e+18,-0.03859157860279083,-0.03122100606560707,-9.597169876098633
1.7294989728476652e+18,0.05828903615474701,0.0006087584770284593,-9.66501235961914
1.7294989728536653e+18,0.005862854886800051,-0.07670968770980835,-9.734973907470703
1.7294989728626655e+18,0.017064500600099564,-0.030005093663930893,-9.658318519592285
1.7294989728716657e+18,-0.06539960950613022,-0.03976864367723465,-9.641324996948242
1.7294989728776658e+18,0.02592385932803154,-0.018553700298070908,-9.621091842651367
1.729498972886666e+18,-0.08823896944522858,0.07325661182403564,-9.615570068359375
1.7294989728956662e+18,0.04436233267188072,-0.0699298083782196,-9.558257102966309
1.7294989729016663e+18,-0.04648326337337494,-0.04482189565896988,-9.609166145324707
1.7294989729106665e+18,0.08495357632637024,-0.03837710618972778,-9.665414810180664
1.7294989729196667e+18,-0.015462195500731468,-0.07706491649150848,-9.682085037231445
1.7294989729256668e+18,0.02301815338432789,0.018498802557587624,-9.645652770996094
1.729498972934667e+18,0.04182275012135506,-0.016033969819545746,-9.64334487915039
1.7294989729436672e+18,0.08152952790260315,-0.006291310302913189,-9.581084251403809
1.7294989729496673e+18,-0.0425480417907238,-0.014105214737355709,-9.620593070983887
1.7294989729586675e+18,0.017000366002321243,-0.040019441395998,-9.580514907836914
1.7294989729676677e+18,0.010414881631731987,0.06922758370637894,-9.662701606750488
1.7294989729736678e+18,0.06260733306407928,-3.358203684911132e-05,-9.603779792785645
1.729498972982668e+18,-0.11047203093767166,0.04538276791572571,-9.59752368927002
1.7294989729916682e+18,0.04911598935723305,0.025128401815891266,-9.634851455688477
1.7294989729976684e+18,0.0037884265184402466,0.03894013166427612,-9.598493576049805
1.7294989730066685e+18,-0.028598662465810776,0.02708209678530693,-9.57433795928955
1.7294989730156687e+18,-0.027103880420327187,-0.014250191859900951,-9.606874465942383
1.7294989730216689e+18,0.01594981923699379,-0.0050048828125,-9.664243698120117
1.729498973030669e+18,0.03438108041882515,-0.018226448446512222,-9.515954971313477
1.7294989730366692e+18,0.0399397537112236,0.052492789924144745,-9.608602523803711
1.7294989730456694e+18,0.023179376497864723,0.03730187937617302,-9.632189750671387
1.7294989730546696e+18,-0.025340605527162552,-0.05075158551335335,-9.649479866027832
1.7294989730606697e+18,-0.02253374084830284,-0.022225283086299896,-9.66185474395752
1.72949897306967e+18,-0.005827254615724087,-0.026965022087097168,-9.577422142028809
1.72949897307567e+18,0.03602136671543121,-0.029045721516013145,-9.549273490905762
1.7294989730846702e+18,0.017833493649959564,0.0012835534289479256,-9.669075965881348
1.7294989730936704e+18,0.04243896156549454,0.03744190186262131,-9.560042381286621
1.7294989731026706e+18,-0.0027817278169095516,0.013798514381051064,-9.585904121398926
1.7294989731086707e+18,-0.008244093507528305,0.04576481133699417,-9.612678527832031
1.729498973117671e+18,-0.004702924285084009,0.009868977591395378,-9.593433380126953
1.729498973126671e+18,-0.024550318717956543,-0.009504534304141998,-9.462791442871094
1.7294989731326712e+18,-0.04425876960158348,0.04480365291237831,-9.604671478271484
1.7294989731416714e+18,-0.03628719225525856,-0.023804495111107826,-9.619437217712402
1.7294989731506716e+18,0.021174710243940353,-0.0440693125128746,-9.592961311340332
1.7294989731596718e+18,-0.02020198106765747,0.10606254637241364,-9.685977935791016
1.729498973165672e+18,0.02553096041083336,0.023320503532886505,-9.530275344848633
1.7294989731746721e+18,0.06271745264530182,-0.0214071124792099,-9.55320930480957
1.7294989731836723e+18,-0.015514548867940903,-0.03864775970578194,-9.607006072998047
1.7294989731926725e+18,-0.005467546638101339,0.03220217302441597,-9.561234474182129
1.7294989731986726e+18,-0.02501644380390644,-0.024406222626566887,-9.46245288848877
1.7294989732076728e+18,-0.008464060723781586,-0.027041185647249222,-9.641226768493652
1.729498973216673e+18,-0.0397438108921051,0.0755438432097435,-9.48193359375
1.7294989732226732e+18,-0.055606454610824585,0.04830352962017059,-9.569491386413574
1.7294989732316733e+18,-0.00028835024568252265,-0.015614042058587074,-9.57843017578125
1.7294989732406735e+18,-0.008387629874050617,-0.04819246008992195,-9.434346199035645
1.7294989732496737e+18,-0.0325096920132637,-0.07171478867530823,-9.537240982055664
1.7294989732556739e+18,0.008189458400011063,0.0545390360057354,-9.536201477050781
1.729498973264674e+18,-0.014917416498064995,0.00848935917019844,-9.645265579223633
1.7294989732736742e+18,0.04614316299557686,0.00333628011867404,-9.599591255187988
1.7294989732826744e+18,-0.0070523452013731,-0.007020775694400072,-9.537672996520996
1.7294989732886746e+18,0.038993287831544876,0.004178511444479227,-9.462531089782715
1.7294989732976748e+18,-0.017962131649255753,-0.022930758073925972,-9.545788764953613
1.729498973306675e+18,0.002896515652537346,-0.055062830448150635,-9.470376014709473
1.729498973312675e+18,-0.05932753533124924,0.023769740015268326,-9.508356094360352
1.7294989733216753e+18,-0.05742356926202774,0.06487008184194565,-9.555795669555664
1.7294989733306755e+18,-0.051363926380872726,0.013668067753314972,-9.58065128326416
1.7294989733396756e+18,0.023282324895262718,0.04062764346599579,-9.59660816192627
1.7294989733456758e+18,-0.04820115491747856,0.01954105868935585,-9.45067024230957
1.729498973354676e+18,-0.11782862991094589,0.020134713500738144,-9.569058418273926
1.7294989733636762e+18,-0.016092725098133087,-0.07162892818450928,-9.578877449035645
1.7294989733696763e+18,0.01613200642168522,-0.07853768020868301,-9.524614334106445
1.7294989733786765e+18,-0.02114569954574108,-0.013515543192625046,-9.453824043273926
1.7294989733876767e+18,-0.03129728510975838,-0.023565154522657394,-9.599076271057129
1.7294989733936768e+18,0.05136564001441002,0.01038749422878027,-9.533149719238281
1.729498973402677e+18,-0.018264608457684517,-0.019246507436037064,-9.487189292907715
1.7294989734116772e+18,0.019803984090685844,0.021741356700658798,-9.411356925964355
1.7294989734206774e+18,0.0128111457452178,0.04181122034788132,-9.510714530944824
1.7294989734266775e+18,-0.02187250927090645,-0.02797750197350979,-9.581755638122559
1.7294989734356777e+18,-0.07164893299341202,-0.010942311026155949,-9.5698823928833
1.729498973444678e+18,0.05785537138581276,-0.06916408240795135,-9.482706069946289
1.729498973453678e+18,0.021715736016631126,-0.0631365105509758,-9.531153678894043
1.7294989734596782e+18,0.011873322539031506,0.016240602359175682,-9.474346160888672
1.7294989734686784e+18,-0.019628746435046196,-0.06889504194259644,-9.527499198913574
1.7294989734776786e+18,0.13338018953800201,-0.026125798001885414,-9.432592391967773
1.7294989734866788e+18,0.04305775463581085,0.07213465124368668,-9.384177207946777
1.729498973492679e+18,-0.0036355347838252783,0.0564982071518898,-9.606707572937012
1.729498973501679e+18,0.023588282987475395,-0.05961931496858597,-9.60797119140625
1.7294989735106793e+18,-0.006637856364250183,0.03699186444282532,-9.522160530090332
1.7294989735196795e+18,0.015765758231282234,-0.003300861455500126,-9.51590347290039
1.7294989735286797e+18,0.007295378018170595,0.017624232918024063,-9.45383071899414
1.7294989735346798e+18,3.639981150627136e-05,0.002040622290223837,-9.49454116821289
1.72949897354368e+18,0.018252216279506683,0.026257570832967758,-9.456480026245117
1.7294989735526802e+18,0.05334607884287834,-0.048136088997125626,-9.496431350708008
1.7294989735616804e+18,0.03668848052620888,0.060894280672073364,-9.489107131958008
1.7294989735706806e+18,0.003014412010088563,0.014776550233364105,-9.484610557556152
1.7294989735766807e+18,0.0022422480396926403,0.13391095399856567,-9.49609375
1.729498973585681e+18,-0.042882442474365234,0.015619136393070221,-9.45949935913086
1.729498973594681e+18,0.013598629273474216,-0.00675311591476202,-9.47237491607666
1.7294989736036813e+18,-0.03026779741048813,0.026519788429141045,-9.447123527526855
1.7294989736126815e+18,0.015286348760128021,0.0012329837772995234,-9.434392929077148
1.7294989736186816e+18,-0.07415203005075455,-0.0014727473026141524,-9.413167953491211
1.7294989736276818e+18,-0.057336755096912384,0.0015735423658043146,-9.34793758392334
1.729498973636682e+18,0.029673317447304726,0.0425693541765213,-9.51140308380127
1.729498973642682e+18,-0.008384687826037407,-0.04589514061808586,-9.425468444824219
1.7294989736516823e+18,-0.014576895162463188,-0.009159635752439499,-9.393547058105469
1.7294989736606825e+18,-0.006592368707060814,0.025250714272260666,-9.454353332519531
1.7294989736666826e+18,0.03268400952219963,0.011790595948696136,-9.391556739807129
1.7294989736756828e+18,0.028064720332622528,-0.016908233985304832,-9.533000946044922
1.729498973684683e+18,-0.010128794237971306,-0.06740928441286087,-9.462974548339844
1.7294989736936832e+18,0.037793226540088654,-0.012314489111304283,-9.489742279052734
1.7294989736996833e+18,-0.01551890466362238,-0.0012707359855994582,-9.42498779296875
1.7294989737086835e+18,-0.015033118426799774,0.015127686783671379,-9.492037773132324
1.7294989737146836e+18,0.07575750350952148,0.023993099108338356,-9.402629852294922
1.7294989737236838e+18,-0.04393373057246208,-0.04177718237042427,-9.503216743469238
1.729498973732684e+18,0.021681712940335274,-0.031317152082920074,-9.432246208190918
1.7294989737386842e+18,-0.006731040775775909,-0.016815058887004852,-9.490985870361328
1.7294989737476844e+18,-0.0014036656357347965,0.04207387939095497,-9.480185508728027
1.7294989737566845e+18,-0.07944408059120178,-0.02757253497838974,-9.403422355651855
1.7294989737656847e+18,0.015073521062731743,-0.06572875380516052,-9.439874649047852
1.7294989737716849e+18,-0.03430860489606857,-0.044407445937395096,-9.470208168029785
1.729498973780685e+18,-0.039606090635061264,0.03784888982772827,-9.436445236206055
1.7294989737896852e+18,-0.011899704113602638,-0.04202713072299957,-9.375598907470703
1.7294989737956854e+18,0.020492244511842728,0.005233015865087509,-9.509415626525879
1.7294989738046856e+18,0.0201028510928154,-0.03142987936735153,-9.449628829956055
1.7294989738136858e+18,-0.07480370253324509,0.006128266919404268,-9.423434257507324
1.729498973819686e+18,-0.00012842525029554963,0.06383774429559708,-9.424476623535156
1.729498973828686e+18,-0.01732569932937622,0.026766911149024963,-9.492823600769043
1.7294989738346862e+18,0.012761658988893032,0.004020023159682751,-9.432341575622559
1.7294989738436864e+18,0.045395366847515106,0.039553266018629074,-9.435235977172852
1.7294989738526866e+18,0.020772140473127365,-0.01682524010539055,-9.432574272155762
1.7294989738616868e+18,-0.05209856852889061,0.014031665399670601,-9.487419128417969
1.729498973870687e+18,0.024681780487298965,0.0034577087499201298,-9.481884956359863
1.7294989738796872e+18,0.004621733911335468,0.04562504217028618,-9.415595054626465
1.7294989738856873e+18,0.0037684235721826553,0.030265765264630318,-9.423966407775879
1.7294989738946875e+18,-0.0013605955755338073,0.0008263512281700969,-9.414261817932129
1.7294989739036877e+18,-0.04458305612206459,-0.049667440354824066,-9.396092414855957
1.7294989739126879e+18,0.03592396527528763,-0.006269474979490042,-9.400492668151855
1.729498973918688e+18,0.07684731483459473,-0.013517187908291817,-9.41891098022461
1.7294989739276882e+18,0.0325557217001915,-0.054483816027641296,-9.527933120727539
1.7294989739366884e+18,0.06653895229101181,-0.04486210644245148,-9.487153053283691
1.7294989739426885e+18,0.0010106663685292006,-0.029528725892305374,-9.378445625305176
1.7294989739546888e+18,0.03348159044981003,0.012321320362389088,-9.409923553466797
1.729498973963689e+18,-0.023380426689982414,-0.006079215090721846,-9.359310150146484
1.729498973969689e+18,-0.08799874037504196,-0.018453247845172882,-9.443065643310547
1.7294989739786893e+18,0.022698482498526573,-0.058775369077920914,-9.427139282226562
1.7294989739876895e+18,0.032106541097164154,-0.010758419521152973,-9.435214042663574
1.7294989739966897e+18,0.08842884749174118,-0.026741458103060722,-9.38390827178955
1.7294989740026898e+18,0.010144062340259552,0.0125211700797081,-9.504034042358398
1.72949897401169e+18,-0.025965414941310883,0.0651353970170021,-9.32744312286377
1.7294989740206902e+18,-0.04331007972359657,-0.011368708685040474,-9.346497535705566
1.7294989740266903e+18,-0.002908310852944851,-0.03259696811437607,-9.32186222076416
1.7294989740356905e+18,-0.02019524946808815,-0.012898123823106289,-9.360004425048828
1.7294989740446907e+18,-0.01771264150738716,0.02008603699505329,-9.344018936157227
1.7294989740506908e+18,-0.004238121211528778,0.013734202831983566,-9.197986602783203
1.729498974059691e+18,-0.03331121802330017,0.0017231153324246407,-9.268516540527344
1.7294989740686912e+18,0.004235940985381603,0.04146968200802803,-9.169072151184082
1.7294989740746913e+18,0.045054465532302856,0.050400953739881516,-9.2320556640625
1.7294989740836915e+18,0.002569606527686119,0.008392549119889736,-9.18425178527832
1.7294989740926917e+18,0.056616004556417465,0.019086075946688652,-9.14306926727295
1.729498974101692e+18,0.018125008791685104,-0.02640644460916519,-9.158668518066406
1.729498974110692e+18,0.1039724051952362,-0.0005918160313740373,-9.129887580871582
1.7294989741166922e+18,-0.0008430001907981932,0.05848466604948044,-9.102242469787598
1.7294989741256924e+18,-0.05524241551756859,0.03427666425704956,-9.067593574523926
1.7294989741346926e+18,0.03871345520019531,-0.03100106120109558,-9.03278923034668
1.7294989741436928e+18,0.08051270246505737,0.00431394949555397,-8.951748847961426
1.729498974152693e+18,-0.00800502672791481,0.030357953161001205,-8.94482135772705
1.7294989741616932e+18,0.04524460434913635,-0.05248783901333809,-8.871328353881836
1.7294989741706934e+18,-0.01543740276247263,-0.023647747933864594,-8.984001159667969
1.7294989741766935e+18,0.00792555883526802,-0.02777395211160183,-8.895939826965332
1.7294989741856937e+18,-0.07684268057346344,-0.03515806421637535,-8.89516830444336
1.729498974194694e+18,0.020896969363093376,0.04366147518157959,-8.81889533996582
1.729498974203694e+18,-0.05806068331003189,0.027937153354287148,-8.85150146484375
1.7294989742126943e+18,0.030383942648768425,0.10525479167699814,-8.831073760986328
1.7294989742216945e+18,-0.039349265396595,-0.03735320270061493,-8.852120399475098
1.7294989742276946e+18,-0.06318676471710205,0.05082637444138527,-8.68291187286377
1.7294989742366948e+18,-0.031176818534731865,-0.03789740800857544,-8.65692138671875
1.729498974245695e+18,-0.04694604501128197,-0.026075193658471107,-8.665314674377441
1.729498974251695e+18,-0.012838872149586678,0.017163502052426338,-8.621286392211914
1.7294989742606953e+18,-0.019388742744922638,0.07539322227239609,-8.627908706665039
1.7294989742696955e+18,-0.008728175424039364,0.012051431462168694,-8.566022872924805
1.7294989742786957e+18,-0.008973073214292526,-0.010871210135519505,-8.596365928649902
1.729498974287696e+18,0.027658214792609215,-0.0179752204567194,-8.711801528930664
1.729498974296696e+18,-0.05715998262166977,-0.025921542197465897,-8.69894027709961
1.7294989743056963e+18,-0.05639491602778435,-0.030707672238349915,-8.712600708007812
1.7294989743116964e+18,0.02311565913259983,0.03421172499656677,-8.743254661560059
1.7294989743206966e+18,-0.003613622859120369,-0.0310236643999815,-8.721710205078125
1.7294989743296968e+18,0.01925959810614586,-0.015408973209559917,-8.7742280960083
1.729498974338697e+18,0.030901983380317688,-0.02132456563413143,-8.730177879333496
1.7294989743476972e+18,0.02977030538022518,-0.06657338887453079,-8.750288963317871
1.7294989743566973e+18,0.04227263480424881,0.00044919265201315284,-8.729571342468262
1.7294989743656975e+18,-0.04225866124033928,-0.010742388665676117,-12.119637489318848
1.7294989743716977e+18,0.06121278554201126,0.03285090997815132,-14.940224647521973
1.7294989743806979e+18,-0.002066397573798895,0.016375482082366943,-16.092304229736328
1.729498974389698e+18,-0.03179514780640602,-0.041405681520700455,-16.21666145324707
1.7294989743986982e+18,-0.008066022768616676,-0.0829743966460228,-16.260705947875977
1.7294989744076984e+18,0.022263802587985992,-0.011481977067887783,-16.187902450561523
1.7294989744136986e+18,-0.008761927485466003,-0.0213810782879591,-16.161014556884766
1.7294989744226988e+18,0.016533736139535904,-0.006401267368346453,-16.023971557617188
1.729498974428699e+18,-0.07184755057096481,-0.02706402912735939,-15.893024444580078
1.729498974437699e+18,0.014389466494321823,-0.020258285105228424,-15.854660034179688
1.7294989744466993e+18,-0.057256367057561874,0.018898293375968933,-15.69057846069336
1.7294989744526994e+18,0.10864051431417465,0.0311021376401186,-15.547408103942871
1.7294989744616996e+18,-0.07061666995286942,-0.00914801750332117,-15.382894515991211
1.7294989744706998e+18,-0.008746767416596413,-0.005911938846111298,-15.285165786743164
1.7294989744797e+18,-0.0671439915895462,0.018657242879271507,-15.182624816894531
1.7294989744887002e+18,-0.023058857768774033,0.02584550529718399,-14.998002052307129
1.7294989744947003e+18,-0.0041866903193295,0.015913568437099457,-14.999561309814453
1.7294989745037005e+18,0.06323714554309845,0.025316324084997177,-14.820539474487305
1.7294989745127007e+18,0.010583030059933662,-0.044615596532821655,-14.675987243652344
1.7294989745217009e+18,0.04826735332608223,-0.07862485945224762,-14.57677936553955
1.729498974527701e+18,0.036227285861968994,0.02798626758158207,-14.608500480651855
1.7294989745367012e+18,0.050902340561151505,-0.019484756514430046,-14.431227684020996
1.7294989745457014e+18,-0.029306253418326378,-8.099840488284826e-05,-14.288666725158691
1.7294989745547016e+18,0.008856799453496933,0.03990333527326584,-14.163350105285645
1.7294989745637018e+18,-0.003984418697655201,0.004420496057718992,-14.090510368347168
1.729498974572702e+18,-0.032319191843271255,0.08800005167722702,-13.987180709838867
1.729498974578702e+18,-0.06647864729166031,-0.012477200478315353,-13.896364212036133
1.7294989745877023e+18,0.00946789514273405,-0.016979224979877472,-13.723134994506836
1.7294989745967025e+18,0.0036989590153098106,0.06991603970527649,-13.748129844665527
1.7294989746057027e+18,0.011751352809369564,0.0316641591489315,-13.62247371673584
1.7294989746117028e+18,0.0037860998418182135,-0.00811731070280075,-13.519962310791016
1.729498974620703e+18,0.0645778477191925,-0.10036943852901459,-13.5232572555542
1.7294989746297032e+18,-0.017098739743232727,0.004952740855515003,-13.33996868133545
1.7294989746387034e+18,-0.03493107855319977,-0.014676211401820183,-13.286922454833984
1.7294989746447035e+18,-0.010565214790403843,-0.04176040366292,-13.259849548339844
1.7294989746537037e+18,-0.012492288835346699,-0.011540757492184639,-13.262473106384277
1.7294989746627039e+18,0.0055524916388094425,-0.010751611553132534,-13.101598739624023
1.729498974671704e+18,0.045070432126522064,-0.08349121361970901,-12.982712745666504
1.7294989746837043e+18,-0.1174592524766922,-0.08716510981321335,-12.887906074523926
1.7294989746897044e+18,-0.0890229120850563,0.06946461647748947,-12.832066535949707
1.7294989747017047e+18,-0.027759816497564316,-0.03212406113743782,-12.742376327514648
1.7294989747077048e+18,-0.012306179851293564,-0.004605581518262625,-12.668603897094727
1.729498974716705e+18,-0.004681926686316729,0.04924844950437546,-12.639809608459473
1.7294989747257052e+18,-0.09421046823263168,-0.0043433308601379395,-12.593788146972656
1.7294989747347054e+18,0.06762859225273132,0.019192753359675407,-12.510945320129395
1.7294989747437056e+18,-0.01688024401664734,0.0071194348856806755,-12.499587059020996
1.7294989747527058e+18,-0.007528654299676418,-0.0023862039670348167,-12.389166831970215
1.729498974761706e+18,0.021572250872850418,-0.041945844888687134,-12.333861351013184
1.729498974767706e+18,0.036074329167604446,-0.0002656814467627555,-12.307920455932617
1.7294989747767063e+18,0.06830775737762451,0.02817130833864212,-12.309538841247559
1.7294989747857065e+18,0.08342354744672775,-0.04025347903370857,-12.207921981811523
1.7294989747947067e+18,-0.04070943593978882,-0.03233188018202782,-12.126805305480957
1.729498974803707e+18,-0.007394158747047186,-0.022947126999497414,-12.15040397644043
1.729498974812707e+18,0.047063179314136505,0.005870322696864605,-12.111455917358398
1.7294989748217073e+18,-0.023091759532690048,-0.03783346340060234,-11.99215030670166
1.7294989748307075e+18,-0.02968565560877323,-0.012215754948556423,-11.958844184875488
1.7294989748367076e+18,0.02538173645734787,-0.05383095517754555,-11.87235164642334
1.7294989748457078e+18,-0.010828775353729725,-0.021352168172597885,-11.823705673217773
1.729498974854708e+18,-0.03497449308633804,-0.08363897353410721,-11.849227905273438
1.729498974860708e+18,-0.06922750174999237,-0.05086391419172287,-11.737363815307617
1.7294989748697083e+18,0.002894703997299075,0.09114564955234528,-11.761373519897461
1.7294989748787085e+18,0.03900600224733353,-0.027411477640271187,-11.753762245178223
1.7294989748847086e+18,0.0008115802193060517,-0.016965650022029877,-11.61135196685791
1.7294989748937088e+18,-0.027115408331155777,0.05782955512404442,-11.667083740234375
1.729498974902709e+18,-0.015388716012239456,-0.01735280640423298,-11.623275756835938
1.7294989749117092e+18,0.06875225156545639,0.09924115240573883,-11.562623023986816
1.7294989749177093e+18,0.011974042281508446,-0.04210392013192177,-11.576519966125488
1.7294989749267095e+18,-0.07735409587621689,0.039704762399196625,-11.469526290893555
1.7294989749357097e+18,-0.0623849518597126,0.006474778521806002,-11.417635917663574
1.7294989749417098e+18,0.04824232682585716,0.01652868464589119,-11.464908599853516
1.72949897495071e+18,-0.05436332896351814,-0.03564934805035591,-11.405631065368652
1.7294989749597102e+18,0.03429045155644417,-0.07845804840326309,-11.32931900024414
1.7294989749687104e+18,-0.08960533142089844,-0.02344820834696293,-11.383844375610352
1.7294989749747105e+18,0.04457947984337807,0.016448186710476875,-11.225528717041016
1.7294989749837107e+18,-0.041027579456567764,-0.017372312024235725,-11.253300666809082
1.729498974992711e+18,0.024715546518564224,0.05456408113241196,-11.222311973571777
1.729498975001711e+18,-0.012800145894289017,0.008320791646838188,-11.199211120605469
1.7294989750107113e+18,-0.01770821027457714,0.026595741510391235,-11.171919822692871
1.7294989750197115e+18,-0.026329366490244865,0.01095524337142706,-11.18925666809082
1.7294989750257116e+18,-0.015342270955443382,0.04844231158494949,-11.18874740600586
1.7294989750347118e+18,0.0023127063177525997,-0.03068966418504715,-11.043258666992188
1.729498975043712e+18,0.024653516709804535,-0.05577969178557396,-11.121681213378906
1.7294989750527122e+18,0.023379703983664513,0.012055461294949055,-11.111485481262207
1.7294989750617124e+18,0.10844021290540695,-0.03910600021481514,-11.054945945739746
1.7294989750707126e+18,0.0003098350134678185,0.03142509236931801,-10.95406723022461
1.7294989750797128e+18,-0.008569499477744102,-0.04807304963469505,-10.972803115844727
1.729498975088713e+18,0.04577416926622391,-0.05403009429574013,-10.965319633483887
1.729498975094713e+18,0.006917972583323717,-0.09100831300020218,-11.02121353149414
1.7294989751037133e+18,0.062464017421007156,0.022812210023403168,-10.887528419494629
1.7294989751127135e+18,-0.018744423985481262,0.025334622710943222,-10.815078735351562
1.7294989751217137e+18,0.07183610647916794,0.0520140640437603,-10.941387176513672
1.7294989751307139e+18,-0.004569381009787321,0.04923725500702858,-10.760077476501465
1.729498975136714e+18,0.03207619488239288,-0.020260928198695183,-10.842631340026855
1.7294989751457142e+18,0.03234133496880531,-0.002474892186000943,-10.799149513244629
1.7294989751547144e+18,-0.057299792766571045,0.08103736490011215,-10.81330680847168
1.7294989751637146e+18,0.037196457386016846,0.004271914251148701,-10.747461318969727
1.7294989751727148e+18,-0.0434262678027153,-0.033197689801454544,-10.753978729248047
1.729498975178715e+18,-0.05257588252425194,-0.06292774528265,-10.723812103271484
1.729498975187715e+18,0.058184683322906494,-0.042166441679000854,-10.650140762329102
1.7294989751967153e+18,0.02422531321644783,-0.019559776410460472,-10.693934440612793
1.7294989752057155e+18,-0.04314883053302765,-0.03473738580942154,-10.611021995544434
1.7294989752117156e+18,-0.024676242843270302,0.015718484297394753,-10.659727096557617
1.7294989752207158e+18,-0.005254862830042839,0.04021388292312622,-10.589224815368652
1.729498975229716e+18,0.02964378520846367,0.029287081211805344,-10.688628196716309
1.729498975235716e+18,0.0695875808596611,0.039849791675806046,-10.62209415435791
1.7294989752447163e+18,-0.019934361800551414,-0.026393920183181763,-10.607183456420898
1.7294989752507164e+18,0.0009474773542024195,-0.053791362792253494,-10.549393653869629
1.7294989752597166e+18,0.026934538036584854,-0.04085998609662056,-10.571064949035645
1.7294989752687168e+18,-0.041722360998392105,-0.06758001446723938,-10.54890251159668
1.729498975277717e+18,-0.04172409698367119,-0.011449211277067661,-10.51053524017334
1.729498975283717e+18,-0.009958473965525627,0.08239453285932541,-10.533082962036133
1.7294989752927173e+18,0.024524180218577385,-0.05290775001049042,-10.438446044921875
1.7294989753017175e+18,-0.017314808443188667,-0.02350868098437786,-10.467713356018066
1.7294989753107177e+18,0.09393604099750519,-0.036397550255060196,-10.417377471923828
1.7294989753167178e+18,0.04712725058197975,-0.04120224341750145,-10.460541725158691
1.729498975325718e+18,-0.036970049142837524,-0.049232691526412964,-10.388671875
1.7294989753347182e+18,0.05522843822836876,-0.0852288007736206,-10.367716789245605
1.7294989753437184e+18,0.050021663308143616,0.05459379404783249,-10.412221908569336
1.7294989753527186e+18,0.0107279596850276,-0.015526747331023216,-10.410731315612793
1.7294989753587187e+18,-0.0018471955554559827,0.022590840235352516,-10.451778411865234
1.729498975367719e+18,-0.027383731678128242,-0.14593887329101562,-10.336823463439941
1.729498975373719e+18,0.01806638389825821,0.0252281092107296,-10.320436477661133
1.7294989753827192e+18,-0.03193075582385063,0.012390309013426304,-10.425344467163086
1.7294989753917194e+18,-0.008325645700097084,-0.016686920076608658,-10.32232666015625
1.7294989754007196e+18,0.013606498017907143,-0.009893344715237617,-10.322539329528809
1.7294989754067197e+18,0.05556872859597206,0.0012388566974550486,-10.3064603805542
1.72949897541572e+18,0.019611617550253868,-0.01829802617430687,-10.277120590209961
1.72949897542172e+18,0.0141285490244627,0.025924373418092728,-10.337200164794922
1.7294989754307203e+18,0.010257091373205185,0.052288610488176346,-10.164200782775879
1.7294989754367204e+18,0.038975633680820465,-0.020183490589261055,-10.248082160949707
1.7294989754457206e+18,0.03916225582361221,0.04536674916744232,-10.19737720489502
1.7294989754547208e+18,-0.005778991151601076,0.012566924095153809,-10.280765533447266
1.729498975460721e+18,0.0736522227525711,0.022321078926324844,-10.265254020690918
1.729498975469721e+18,0.04539390280842781,0.031895771622657776,-10.232152938842773
1.7294989754787213e+18,0.0929272249341011,-0.03095925599336624,-10.17806625366211
1.7294989754847214e+18,0.08269856125116348,-0.060024529695510864,-10.222770690917969
1.7294989754937216e+18,-0.011892841197550297,-0.011641307733952999,-10.239144325256348
1.7294989755027218e+18,-0.06432358175516129,-0.008837921544909477,-10.145654678344727
1.729498975508722e+18,-0.005793864838778973,-0.048047568649053574,-10.187196731567383
1.729498975517722e+18,-0.0646972507238388,0.02848023548722267,-10.157637596130371
1.7294989755237222e+18,-0.015610271133482456,0.010131747461855412,-10.143559455871582
1.7294989755327224e+18,0.05811132490634918,0.017603233456611633,-10.157706260681152
1.7294989755417226e+18,0.015098034404218197,0.007091621868312359,-10.151636123657227
1.7294989755477228e+18,0.00013317930279299617,0.04298468306660652,-10.180317878723145
1.729498975556723e+18,-0.047408923506736755,0.0076627833768725395,-10.135900497436523
1.7294989755657231e+18,0.0405459851026535,0.02114534191787243,-10.138994216918945
1.7294989755717233e+18,0.037119559943675995,-0.07670550793409348,-10.076323509216309
1.7294989755807235e+18,-0.06720346212387085,0.04634237289428711,-9.970592498779297
1.7294989755897236e+18,0.0811503604054451,-0.04425155743956566,-10.085835456848145
1.7294989755987238e+18,0.11117015779018402,-0.05158936232328415,-10.092336654663086
1.729498975604724e+18,0.042680587619543076,0.010256027802824974,-10.07371711730957
1.7294989756137242e+18,-0.02375449426472187,-0.01912718452513218,-10.008623123168945
1.7294989756227244e+18,-0.06181814521551132,-0.06114720553159714,-10.113295555114746
1.7294989756287245e+18,0.07888175547122955,-0.03915933147072792,-10.083213806152344
1.7294989756377247e+18,0.012854766100645065,-0.01846974529325962,-10.03544807434082
1.7294989756467249e+18,0.020437223836779594,0.02220488153398037,-10.018555641174316
1.729498975652725e+18,-0.03467775136232376,-0.023386746644973755,-10.055119514465332
1.7294989756617252e+18,0.020163124427199364,-0.012849635444581509,-10.011173248291016
1.7294989756707254e+18,0.040328528732061386,0.03243190050125122,-10.00702953338623
1.7294989756797256e+18,0.03357037901878357,0.010482574813067913,-10.053960800170898
1.7294989756857257e+18,0.03778408467769623,0.06883277744054794,-10.044401168823242
1.729498975694726e+18,-0.02153787948191166,0.06305205076932907,-10.029427528381348
1.729498975703726e+18,0.0780489444732666,-0.0077241756953299046,-9.937045097351074
1.7294989757097262e+18,-0.005743834190070629,0.001440904918126762,-9.955828666687012
1.7294989757187264e+18,0.08999060839414597,0.004594625439494848,-9.87049388885498
1.7294989757277266e+18,-0.016454242169857025,0.010237189941108227,-9.908305168151855
1.7294989757367268e+18,-0.02522696927189827,0.03952857479453087,-9.975112915039062
1.729498975742727e+18,-0.024816179648041725,-0.023861220106482506,-9.967019081115723
1.729498975751727e+18,0.07562503218650818,-0.05817320570349693,-9.986455917358398
1.7294989757607273e+18,0.03983710706233978,-0.028449196368455887,-9.954024314880371
1.7294989757697275e+18,-0.012184885330498219,0.0032690020743757486,-9.96933650970459
1.7294989757757276e+18,-0.045414820313453674,-0.10173598676919937,-9.958430290222168
1.7294989757847278e+18,-0.018918724730610847,0.050925757735967636,-9.96410083770752
1.729498975793728e+18,-0.017044002190232277,-0.0009015242685563862,-9.925612449645996
1.7294989758027282e+18,0.044374190270900726,0.03649607673287392,-9.94533920288086
1.7294989758117284e+18,0.0035753105767071247,-0.03098330833017826,-9.850720405578613
1.7294989758207286e+18,-0.02583833411335945,-0.03962087631225586,-9.911029815673828
1.7294989758297288e+18,0.0013988593127578497,0.0815652534365654,-9.8999662399292
1.729498975838729e+18,0.07230030745267868,0.06537699699401855,-9.91154670715332
1.729498975844729e+18,-0.07806921750307083,0.0014773753937333822,-9.98013687133789
1.7294989758537293e+18,0.017865654081106186,-0.03777902200818062,-9.912322044372559
1.7294989758627295e+18,0.06585220992565155,0.05840734392404556,-9.850676536560059
1.7294989758687296e+18,0.03685736656188965,-0.05863513797521591,-9.866591453552246
1.7294989758777298e+18,0.030316125601530075,-0.06362462788820267,-9.862757682800293
1.72949897588673e+18,-0.035147007554769516,-0.005976721178740263,-9.912874221801758
1.7294989758957302e+18,-0.02933330461382866,0.012535091489553452,-9.851428031921387
1.7294989759017303e+18,-0.05151216685771942,0.010430192574858665,-9.856345176696777
1.7294989759107305e+18,-0.0005112726357765496,-0.02025952748954296,-9.883169174194336
1.7294989759197307e+18,-0.008446703664958477,-0.01753612607717514,-9.883384704589844
1.729498975928731e+18,-0.043014492839574814,0.005403920542448759,-9.86180305480957
1.729498975937731e+18,-0.07782300561666489,-0.08442556858062744,-9.800195693969727
1.7294989759467313e+18,-0.12448550015687943,0.037543121725320816,-9.90182876586914
1.7294989759527314e+18,-0.07024878263473511,-0.016498912125825882,-9.833600997924805
1.7294989759617316e+18,5.7991885114461184e-05,0.06621978431940079,-9.81700611114502
1.7294989759707318e+18,-0.05322796106338501,-0.02974514849483967,-9.876394271850586
1.729498975979732e+18,0.027550259605050087,-0.015573601238429546,-9.848489761352539
1.729498975985732e+18,0.08851023763418198,0.01970922201871872,-9.843469619750977
1.7294989759947323e+18,0.059130240231752396,-0.036546144634485245,-9.842350959777832
1.7294989760037325e+18,-0.07002666592597961,-0.012023511342704296,-9.862083435058594
1.7294989760097326e+18,-0.09749175608158112,-0.0042397212237119675,-9.842167854309082
1.7294989760187328e+18,-0.03853313997387886,-0.008230616338551044,-9.802285194396973
1.729498976027733e+18,-0.040545836091041565,0.011847828514873981,-9.849231719970703
1.729498976033733e+18,0.012952008284628391,0.02053792215883732,-9.741707801818848
1.7294989760427333e+18,0.05599392578005791,-0.0660208910703659,-9.791213035583496
1.7294989760517335e+18,0.04171936213970184,-0.03783106058835983,-9.8550443649292
1.7294989760607337e+18,0.06297069042921066,-0.013029324822127819,-9.800312995910645
1.7294989760667338e+18,-0.026067687198519707,0.03629494458436966,-9.823576927185059
1.729498976075734e+18,0.016941649839282036,0.041900601238012314,-9.849076271057129
1.7294989760847342e+18,-0.01431367453187704,0.06073823571205139,-9.780234336853027
1.7294989760907343e+18,-0.0009391912026330829,0.06131099909543991,-9.717523574829102
1.7294989760997345e+18,0.013349411077797413,-0.004153566434979439,-9.794848442077637
1.7294989761087347e+18,-0.0841987356543541,-0.0030305436812341213,-9.836227416992188
1.7294989761147348e+18,0.08111000806093216,-0.014704789035022259,-9.799631118774414
1.729498976123735e+18,-0.039584048092365265,-0.013773193582892418,-9.846625328063965
1.7294989761327352e+18,0.008005151525139809,0.0031889239326119423,-9.746133804321289
1.7294989761447355e+18,0.025753729045391083,-0.039630331099033356,-9.740232467651367
1.7294989761507356e+18,0.019220521673560143,0.04741727560758591,-9.740338325500488
1.7294989761597358e+18,0.06302136182785034,0.058345500379800797,-9.758265495300293
1.729498976168736e+18,-0.08786331117153168,0.004121772944927216,-9.753395080566406
1.7294989761777362e+18,0.06794201582670212,0.010921960696578026,-9.762351989746094
1.7294989761867364e+18,-0.05034584552049637,0.03185874596238136,-9.783696174621582
1.7294989761927365e+18,0.0061828019097447395,0.029960980638861656,-9.795129776000977
1.7294989762017367e+18,0.03828614950180054,-0.027993211522698402,-9.74404239654541
1.729498976210737e+18,-0.06380561739206314,0.01751856319606304,-9.708072662353516
1.729498976219737e+18,0.026485159993171692,-0.010727579705417156,-9.828568458557129
1.7294989762287373e+18,-0.009932786226272583,-0.042644940316677094,-9.7286376953125
1.7294989762347374e+18,0.02045278251171112,-0.02114212140440941,-9.855510711669922
1.7294989762437376e+18,-0.03049432672560215,0.024091990664601326,-9.712505340576172
1.7294989762527378e+18,0.017299583181738853,0.05460609123110771,-9.760287284851074
1.729498976261738e+18,0.05036481097340584,-0.006255523767322302,-9.661396980285645
1.7294989762707382e+18,0.032946255058050156,-0.008780984207987785,-9.766164779663086
1.7294989762767383e+18,0.07157912105321884,-0.04021032527089119,-9.793965339660645
1.7294989762857385e+18,0.018629154190421104,0.013755571097135544,-9.834028244018555
1.7294989762947387e+18,0.07156231999397278,-0.02150675840675831,-9.730055809020996
1.729498976303739e+18,-0.10627337545156479,-0.013553710654377937,-9.71192741394043
1.729498976309739e+18,-0.10190366953611374,-0.0621124729514122,-9.654086112976074
1.7294989763187392e+18,0.01214342936873436,0.05314435437321663,-9.75220012664795
1.7294989763277394e+18,-0.026781238615512848,0.0008037453517317772,-9.761667251586914
1.7294989763367396e+18,0.08832153677940369,0.044228509068489075,-9.745659828186035
1.7294989763427397e+18,-0.03931057080626488,0.026410013437271118,-9.764139175415039
1.72949897635174e+18,0.002691789995878935,-0.06584645807743073,-9.71767807006836
1.72949897636074e+18,0.03770409896969795,0.10101360827684402,-9.731298446655273
1.7294989763667402e+18,0.03134261444211006,-0.01109374687075615,-9.672717094421387
1.7294989763757404e+18,-0.06662978231906891,-0.07525523006916046,-9.762800216674805
1.7294989763847406e+18,0.060567498207092285,-0.028998445719480515,-9.640279769897461
1.7294989763937408e+18,-0.05401279777288437,0.05512189492583275,-9.71558952331543
1.729498976399741e+18,-0.0058663636445999146,0.025516677647829056,-9.74816608428955
1.729498976408741e+18,-0.06204458698630333,0.005013797432184219,-9.85871696472168
1.7294989764177413e+18,0.031045634299516678,0.04424183815717697,-9.8931245803833
1.7294989764267415e+18,-0.031445350497961044,0.05627066642045975,-9.802809715270996
1.7294989764327416e+18,-0.0386512391269207,-0.007387462537735701,-9.812151908874512
1.7294989764417418e+18,0.008063191547989845,0.07845833897590637,-9.847063064575195
1.729498976450742e+18,0.03305354714393616,0.006949729286134243,-9.799528121948242
1.7294989764597422e+18,0.007166335359215736,0.04704168066382408,-9.835652351379395
1.7294989764657423e+18,0.03357774391770363,-0.011831944808363914,-9.790053367614746
1.7294989764747425e+18,-0.010367783717811108,-0.03124942258000374,-9.767884254455566
1.7294989764807427e+18,0.020387856289744377,-0.0037090610712766647,-9.86174201965332
1.7294989764897428e+18,-0.05226375535130501,0.01753382198512554,-9.841939926147461
1.729498976498743e+18,0.06424622982740402,0.05362015590071678,-9.842825889587402
1.7294989765077432e+18,0.020674729719758034,-0.00778471864759922,-9.819022178649902
1.7294989765137434e+18,0.03241461142897606,0.037870824337005615,-9.891931533813477
1.7294989765227436e+18,0.021652454510331154,-0.005348143167793751,-9.864829063415527
1.7294989765317437e+18,0.08496329188346863,0.08572736382484436,-9.814311027526855
1.729498976540744e+18,-0.017242219299077988,0.12880383431911469,-9.791882514953613
1.729498976546744e+18,-0.005353355780243874,-0.020613741129636765,-9.772906303405762
1.7294989765557443e+18,0.003188967239111662,0.03418731316924095,-9.783693313598633
1.7294989765647444e+18,-0.016992775723338127,-0.0557655394077301,-9.874906539916992
1.7294989765737446e+18,-0.07910871505737305,-0.04137850180268288,-9.750174522399902
1.7294989765827448e+18,0.001618143287487328,0.021306190639734268,-9.758927345275879
1.729498976588745e+18,-0.04510587081313133,-0.0018381353002041578,-9.734415054321289
1.7294989765977452e+18,0.012968546710908413,-0.03814254701137543,-9.774099349975586
1.7294989766067453e+18,0.031488947570323944,-0.053212329745292664,-9.799979209899902
1.7294989766157455e+18,0.0654970109462738,0.014041252434253693,-9.747529983520508
1.7294989766217457e+18,0.04435555264353752,0.04785963147878647,-9.831968307495117
1.7294989766307459e+18,-0.05045803636312485,-0.03820853307843208,-9.73007583618164
1.729498976639746e+18,-0.015690607950091362,0.007446862291544676,-9.753477096557617
1.7294989766487462e+18,-0.03764369338750839,-0.046353548765182495,-9.787611961364746
1.7294989766547464e+18,-0.036538299173116684,0.02035432495176792,-9.785383224487305
1.7294989766637466e+18,-0.013972265645861626,0.021772027015686035,-9.758584022521973
1.7294989766727468e+18,0.043420132249593735,0.034979499876499176,-9.816398620605469
1.729498976681747e+18,-0.04723753780126572,-0.000772530329413712,-9.735196113586426
1.7294989766907471e+18,0.02613663300871849,0.011114324443042278,-9.749860763549805
1.7294989766967473e+18,-0.020679177716374397,0.02506227232515812,-9.814739227294922
1.7294989767057475e+18,-0.044663574546575546,-0.017538974061608315,-9.859474182128906
1.7294989767147476e+18,-0.011697117239236832,-0.007512284442782402,-9.70739459991455
1.7294989767237478e+18,-0.07425820827484131,-0.025471679866313934,-9.726435661315918
1.729498976732748e+18,0.01513568963855505,0.07756222039461136,-9.785995483398438
1.7294989767417482e+18,-0.011342438869178295,0.004058102145791054,-9.649308204650879
1.7294989767477484e+18,-0.0889810100197792,-0.04003544896841049,-9.795984268188477
1.7294989767567485e+18,-0.02621416188776493,0.017276667058467865,-9.714557647705078
1.7294989767657487e+18,0.018494591116905212,0.07576011121273041,-9.78172779083252
1.729498976774749e+18,-0.008123442530632019,-0.01590619795024395,-9.81060791015625
1.729498976780749e+18,0.00021051251678727567,0.01619846373796463,-9.754898071289062
1.7294989767897492e+18,0.02501632645726204,0.05138952657580376,-9.69356632232666
1.7294989767987494e+18,-0.03622223809361458,0.03947725519537926,-9.717940330505371
1.7294989768077496e+18,0.004567722789943218,-0.03405570983886719,-9.814435958862305
1.7294989768137498e+18,-0.05562658980488777,-0.03518446162343025,-9.718297958374023
1.72949897682275e+18,0.0012835341040045023,0.029279271140694618,-9.69853401184082
1.7294989768317501e+18,0.013515724800527096,0.059130046516656876,-9.802312850952148
1.7294989768407503e+18,0.06532091647386551,0.05738520249724388,-9.643987655639648
1.7294989768497505e+18,0.016212457790970802,0.056521207094192505,-9.763300895690918
1.7294989768557507e+18,0.00552731566131115,-0.05337359011173248,-9.74221420288086
1.7294989768647508e+18,0.050800494849681854,-0.038303326815366745,-9.755756378173828
1.729498976873751e+18,0.005795324221253395,0.06904523074626923,-9.74150276184082
1.7294989768827512e+18,-0.045147985219955444,-0.030587850138545036,-9.781771659851074
1.7294989768917514e+18,-0.017113901674747467,-0.10042081028223038,-9.757136344909668
1.7294989768977516e+18,0.011861161328852177,-0.04340696334838867,-9.781538963317871
1.7294989769067517e+18,0.052334029227495193,0.10378669202327728,-9.731595993041992
1.729498976915752e+18,-0.02985829859972,0.04131210595369339,-9.752201080322266
1.7294989769247521e+18,-0.028043875470757484,-0.021299192681908607,-9.736124992370605
1.7294989769307523e+18,-0.01200587023049593,-0.037482161074876785,-9.632505416870117
1.7294989769397524e+18,0.01991119608283043,0.04615418240427971,-9.708955764770508
1.7294989769487526e+18,0.012834286317229271,-0.014993719756603241,-9.793581008911133
1.7294989769577528e+18,0.10062281787395477,0.017890699207782745,-9.741130828857422
1.729498976966753e+18,0.058118194341659546,0.016043465584516525,-9.708240509033203
1.7294989769757532e+18,-0.03024725429713726,-0.018717605620622635,-9.814766883850098
1.7294989769817533e+18,0.014598270878195763,-0.03806180879473686,-9.777632713317871
1.7294989769907535e+18,-0.09154624491930008,-0.06962264329195023,-9.720190048217773
1.7294989769997537e+18,-0.0225213672965765,-0.029925072565674782,-9.708221435546875
1.7294989770057539e+18,0.06118268147110939,0.04537156596779823,-9.800691604614258
1.729498977014754e+18,0.020192552357912064,0.05895320326089859,-9.755489349365234
1.7294989770237542e+18,-0.027978843078017235,-0.028461772948503494,-9.712164878845215
1.7294989770297544e+18,-0.0053789750672876835,-0.02956869825720787,-9.76433277130127
1.7294989770387546e+18,-0.08727703988552094,-0.021527405828237534,-9.68007755279541
1.7294989770477548e+18,0.07280643284320831,-0.0029412435833364725,-9.702934265136719
1.729498977056755e+18,0.039705414324998856,0.027648406103253365,-9.703062057495117
1.729498977062755e+18,-0.09820166230201721,0.012256349436938763,-9.789438247680664
1.7294989770717553e+18,-0.003261934034526348,0.0005516131059266627,-9.748324394226074
1.7294989770807555e+18,-0.01072884164750576,-0.012652146629989147,-9.70254898071289
1.7294989770897556e+18,-0.05168640613555908,0.05054580792784691,-9.745570182800293
1.7294989770957558e+18,-0.005820568185299635,0.03660907596349716,-9.633971214294434
1.729498977104756e+18,-0.04587450996041298,-0.0275651253759861,-9.706581115722656
1.7294989771137562e+18,0.015166335739195347,0.019120212644338608,-9.70120906829834
1.7294989771197563e+18,0.03005692921578884,-0.05059394985437393,-9.677529335021973
1.7294989771287565e+18,0.0198233500123024,0.03430640324950218,-9.74564266204834
1.7294989771377567e+18,0.03283456340432167,0.011589353904128075,-9.734101295471191
1.7294989771467569e+18,-0.05603431165218353,-0.05298834666609764,-9.725769996643066
1.729498977155757e+18,0.015069060027599335,0.03101339563727379,-9.779656410217285
1.7294989771617572e+18,-0.011788509786128998,0.001403429196216166,-9.716903686523438
1.7294989771707574e+18,0.002727783750742674,0.008416643366217613,-9.68909740447998
1.7294989771767575e+18,-0.05968241021037102,-0.04223407432436943,-9.746065139770508
1.7294989771857577e+18,0.020962903276085854,0.010164886713027954,-9.741042137145996
1.729498977194758e+18,0.040316142141819,0.03784508258104324,-9.652060508728027
1.729498977203758e+18,-0.03374471142888069,0.02583533711731434,-9.765149116516113
1.7294989772097582e+18,-0.10553425550460815,0.017862798646092415,-9.716562271118164
1.7294989772187584e+18,0.05492241680622101,0.0023274500854313374,-9.688252449035645
1.7294989772277586e+18,-0.06684855371713638,-0.0431414358317852,-9.74454402923584
1.7294989772367588e+18,0.01305009052157402,-0.02149130031466484,-9.718587875366211
1.729498977242759e+18,-0.045727260410785675,-0.10296215862035751,-9.789345741271973
1.729498977251759e+18,-0.04477031156420708,0.059182122349739075,-9.71729564666748
1.7294989772607593e+18,0.08449991792440414,0.05514733865857124,-9.709084510803223
1.7294989772697595e+18,-0.08049327880144119,-0.1119866743683815,-9.684326171875
1.7294989772757596e+18,0.024205412715673447,-0.01363774947822094,-9.774230003356934
1.7294989772847598e+18,-0.040977150201797485,-0.04964281618595123,-9.715266227722168
1.72949897729376e+18,0.016168000176548958,0.010875778272747993,-9.723753929138184
1.72949897729976e+18,-0.031305521726608276,-0.01935539022088051,-9.695107460021973
1.7294989773087603e+18,-0.02077326364815235,-0.003676959313452244,-9.73878288269043
1.7294989773147604e+18,-0.05459246039390564,0.03809862583875656,-9.674457550048828
1.7294989773237606e+18,0.07640117406845093,0.009199818596243858,-9.809537887573242
1.7294989773327608e+18,0.026064613834023476,-0.037426091730594635,-9.764123916625977
1.729498977338761e+18,0.02358195371925831,-0.007019200827926397,-9.642942428588867
1.7294989773477612e+18,0.004743489436805248,0.05665132403373718,-9.724605560302734
1.7294989773567613e+18,-0.02326769009232521,0.010470001958310604,-9.791199684143066
1.7294989773657615e+18,-0.014032753184437752,0.022325843572616577,-9.724693298339844
1.7294989773777618e+18,0.07338754087686539,-0.005493557080626488,-9.670397758483887
1.729498977386762e+18,0.004047922790050507,0.0010359599255025387,-9.772344589233398
1.7294989773957622e+18,-0.006627760827541351,0.0535583421587944,-9.797689437866211
1.7294989774047624e+18,0.03187280148267746,0.032236553728580475,-9.773451805114746
1.7294989774107625e+18,0.043454304337501526,0.05938785895705223,-9.762222290039062
1.7294989774197627e+18,0.019022373482584953,0.005134614184498787,-9.783544540405273
1.729498977428763e+18,-0.052505623549222946,0.05054835230112076,-9.80012035369873
1.729498977437763e+18,-0.025898829102516174,-0.0173710398375988,-9.685415267944336
1.7294989774467633e+18,-0.04576105624437332,-0.043677568435668945,-9.775003433227539
1.7294989774557635e+18,0.008194045163691044,-0.00662483274936676,-9.773838996887207
1.7294989774647636e+18,0.026316029950976372,-0.04856594279408455,-9.778000831604004
1.7294989774737638e+18,0.04017234593629837,-0.02166219986975193,-9.757763862609863
1.729498977482764e+18,-0.04157799482345581,0.01142125017940998,-9.732794761657715
1.7294989774917642e+18,0.0835789367556572,-0.02631164714694023,-9.717926979064941
1.7294989775007644e+18,0.029681699350476265,-0.015510931611061096,-9.809781074523926
1.7294989775067645e+18,-0.011932412162423134,0.0010699164122343063,-9.78657341003418
1.7294989775157647e+18,-0.07720107585191727,-0.06709784269332886,-9.737818717956543
1.729498977524765e+18,0.01546061597764492,-0.04287080094218254,-9.724154472351074
1.729498977533765e+18,-0.02135062776505947,0.0325794480741024,-9.772196769714355
1.7294989775427653e+18,0.0011913231573998928,0.009805132634937763,-9.690688133239746
1.7294989775517655e+18,-0.025764524936676025,0.03619746118783951,-9.6729736328125
1.7294989775607657e+18,0.029525456950068474,-0.029513057321310043,-9.800951957702637
1.729498977569766e+18,-0.013513784855604172,-0.04096943885087967,-9.760398864746094
1.729498977578766e+18,0.021290792152285576,0.01938561163842678,-9.729023933410645
1.7294989775877663e+18,-0.030821552500128746,-0.06431900709867477,-9.748473167419434
1.7294989775997665e+18,-0.04428141564130783,-0.06982915848493576,-9.774166107177734
1.7294989776057667e+18,0.05757924169301987,0.08230539411306381,-9.728310585021973
1.7294989776147668e+18,-0.059702567756175995,-0.05823180451989174,-9.831096649169922
1.729498977623767e+18,-0.008205775171518326,-0.06467094272375107,-9.761125564575195
1.7294989776357673e+18,0.05882063880562782,0.019053321331739426,-9.707653999328613
1.7294989776447675e+18,0.019976114854216576,0.0013714665547013283,-9.773859024047852
1.7294989776537677e+18,0.040529679507017136,0.051889050751924515,-9.783883094787598
1.7294989776627679e+18,0.009488898329436779,0.0010741816367954016,-9.77449893951416
1.729498977671768e+18,-0.053713586181402206,0.015264175832271576,-9.791954040527344
1.7294989776807683e+18,-0.0381452701985836,0.050183385610580444,-9.750967979431152
1.7294989776867684e+18,0.015715105459094048,-0.03719738870859146,-9.688408851623535
1.7294989776987686e+18,0.032207194715738297,0.04016505181789398,-9.758776664733887
1.7294989777077688e+18,0.009016172960400581,-0.016578879207372665,-9.743839263916016
1.729498977713769e+18,-0.03893996775150299,-0.006320778280496597,-9.76859188079834
1.7294989777227692e+18,-0.01703268103301525,-0.039544135332107544,-9.772078514099121
1.7294989777317693e+18,-0.05225295573472977,0.027321241796016693,-9.727737426757812
1.7294989777377695e+18,-0.05617276579141617,0.002237567212432623,-9.806957244873047
1.7294989777467697e+18,-0.03480738773941994,-0.013224300928413868,-9.76607608795166
1.7294989777557699e+18,-0.027387626469135284,-0.03378654271364212,-9.78103256225586
1.72949897776477e+18,0.025383543223142624,-0.04145684465765953,-9.825638771057129
1.7294989777707702e+18,-0.046158306300640106,0.07638111710548401,-9.718964576721191
1.7294989777797704e+18,-0.005693056620657444,-0.03233828395605087,-9.773353576660156
1.7294989777857705e+18,0.01813121698796749,0.10689803212881088,-9.7874116897583
1.7294989777947707e+18,-0.012732235714793205,0.003049666527658701,-9.717269897460938
1.729498977803771e+18,0.02386622503399849,0.03954203426837921,-9.724464416503906
1.729498977812771e+18,-0.04876764118671417,-0.036591991782188416,-9.845708847045898
1.7294989778187712e+18,-0.04220546409487724,0.01838960498571396,-9.779948234558105
1.7294989778277714e+18,-0.017801741138100624,-0.02618333138525486,-9.731670379638672
1.7294989778367716e+18,0.04912351816892624,0.008540225215256214,-9.776595115661621
1.7294989778427717e+18,-0.021176505833864212,-0.010336198844015598,-9.803040504455566
1.729498977851772e+18,-0.039717014878988266,-0.05382421612739563,-9.734834671020508
1.729498977860772e+18,2.574117388576269e-05,-0.07221518456935883,-9.825966835021973
1.7294989778697723e+18,-0.038414712995290756,0.0169554203748703,-9.841111183166504
1.7294989778757724e+18,0.09248644858598709,0.017835665494203568,-9.828330039978027
1.7294989778847726e+18,-0.021779699251055717,0.014745475724339485,-9.760089874267578
1.7294989778937728e+18,-0.03508986905217171,0.08460597693920135,-9.75981616973877
1.729498977902773e+18,0.019434211775660515,0.06565496325492859,-9.742823600769043
1.7294989779117732e+18,0.0059904176741838455,0.016276143491268158,-9.80390453338623
1.7294989779207734e+18,-0.03630058094859123,0.0011470909230411053,-9.751455307006836
1.7294989779297736e+18,-0.02146255411207676,0.04508598521351814,-9.767799377441406
1.7294989779387738e+18,0.027116457000374794,-0.03488625958561897,-9.729580879211426
1.729498977944774e+18,-0.034919507801532745,-0.02733352594077587,-9.764138221740723
1.729498977953774e+18,-0.05525422468781471,-0.0329471156001091,-9.743249893188477
1.7294989779627743e+18,-0.01707141473889351,0.04298492893576622,-9.787323951721191
1.7294989779717745e+18,0.02704712562263012,0.052550315856933594,-9.793006896972656
1.7294989779807747e+18,-0.004105233587324619,-0.11064606159925461,-9.703770637512207
1.7294989779867748e+18,0.039422255009412766,0.023805689066648483,-9.768492698669434
1.729498977995775e+18,0.02027619071304798,-0.03552047535777092,-9.789690017700195
1.7294989780047752e+18,0.028365548700094223,-0.029816217720508575,-9.827834129333496
1.7294989780137754e+18,0.041946783661842346,0.05762810632586479,-9.780817031860352
1.7294989780197755e+18,0.06080841273069382,-0.021760646253824234,-9.744966506958008
1.7294989780287757e+18,-0.035758502781391144,-0.09948325157165527,-9.844103813171387
1.729498978037776e+18,0.08640112727880478,-0.014357144013047218,-9.735003471374512
1.729498978046776e+18,0.04077594727277756,-0.05281031131744385,-9.802523612976074
1.7294989780527762e+18,-0.04096280038356781,-0.04200226441025734,-9.732362747192383
1.7294989780617764e+18,-0.031118879094719887,-0.01300851907581091,-9.81937026977539
1.7294989780707766e+18,-0.05000090226531029,0.012283201329410076,-9.821775436401367
1.7294989780767767e+18,0.06993388384580612,0.030277283862233162,-9.756583213806152
1.729498978085777e+18,0.011692166328430176,0.020547857508063316,-9.790836334228516
1.729498978094777e+18,0.022884100675582886,-0.09574254602193832,-9.77448558807373
1.7294989781007772e+18,0.03121096082031727,0.09768147766590118,-9.712270736694336
1.7294989781097774e+18,-0.0007194572826847434,-0.004673460964113474,-9.7804536819458
1.7294989781187776e+18,0.02547338604927063,-0.0297590009868145,-9.754730224609375
1.7294989781247777e+18,-0.014283678494393826,-0.05587901920080185,-9.79105281829834
1.729498978133778e+18,-0.006816530134528875,0.014960010536015034,-9.776928901672363
1.729498978142778e+18,0.04847759008407593,-0.02350006066262722,-9.694256782531738
1.7294989781517783e+18,-0.04816214367747307,0.02888132445514202,-9.733070373535156
1.7294989781577784e+18,-0.025568822398781776,-0.015262415632605553,-9.837596893310547
1.7294989781667786e+18,0.07223042845726013,-0.00415240740403533,-9.736652374267578
1.7294989781757788e+18,0.01747027598321438,0.05300692468881607,-9.782872200012207
1.729498978184779e+18,0.0010165770072489977,0.013278502970933914,-9.796526908874512
1.7294989781937792e+18,-0.06189688667654991,0.007669811602681875,-9.733033180236816
1.7294989781997793e+18,-0.10966943949460983,-0.020666737109422684,-9.833428382873535
1.7294989782087795e+18,0.021924380213022232,-0.03608648478984833,-9.781193733215332
1.7294989782177797e+18,-0.08736419677734375,0.003997963387519121,-9.825827598571777
1.7294989782237798e+18,-0.05240904912352562,-0.019093409180641174,-9.704543113708496
1.72949897823278e+18,-0.024684522300958633,-0.006826487835496664,-9.760093688964844
1.7294989782417802e+18,0.07857160270214081,-0.0010756603442132473,-9.818476676940918
1.7294989782507804e+18,0.019140971824526787,0.049077268689870834,-9.825035095214844
1.7294989782567805e+18,0.03635736554861069,0.002908707596361637,-9.845237731933594
1.7294989782657807e+18,-0.021108444780111313,0.014274505898356438,-9.807464599609375
1.729498978274781e+18,0.05540994927287102,-0.006119609344750643,-9.797613143920898
1.729498978283781e+18,-0.04549270123243332,0.04334236681461334,-9.79781723022461
1.7294989782927813e+18,-0.012020797468721867,0.03666093200445175,-9.729815483093262
1.7294989783017815e+18,-0.05755530297756195,-0.046555060893297195,-9.774347305297852
1.7294989783107817e+18,0.00029881123919039965,0.04887654632329941,-9.758467674255371
1.729498978319782e+18,0.006975387688726187,0.055810265243053436,-9.733532905578613
1.729498978325782e+18,0.0602865070104599,0.03393520042300224,-9.751408576965332
1.7294989783347822e+18,0.07289152592420578,-0.02221388928592205,-9.749119758605957
1.7294989783437824e+18,-0.004131842404603958,-0.030665323138237,-9.857912063598633
1.7294989783497825e+18,0.027127277106046677,-0.07627956569194794,-9.81787109375
1.7294989783587827e+18,-0.04655202478170395,0.02373453415930271,-9.740111351013184
1.729498978367783e+18,-0.013394908979535103,0.0963660404086113,-9.802708625793457
1.729498978376783e+18,0.11392897367477417,-0.019716640934348106,-9.800747871398926
1.7294989783827832e+18,0.019641341641545296,0.007266568951308727,-9.716863632202148
1.7294989783917834e+18,-0.059369347989559174,-0.004224696662276983,-9.829814910888672
1.7294989783977836e+18,-0.027484724298119545,0.014096950180828571,-9.826562881469727
1.7294989784067837e+18,-0.00401617307215929,-0.05045786499977112,-9.826446533203125
1.729498978415784e+18,0.0760810449719429,0.08608277887105942,-9.79979133605957
1.729498978421784e+18,-0.018753578886389732,-0.00442579947412014,-9.765923500061035
1.7294989784307843e+18,0.02027166076004505,0.012522841803729534,-9.809210777282715
1.7294989784397844e+18,-0.04500255361199379,-0.011894895695149899,-9.821645736694336
1.7294989784487846e+18,-0.006816345266997814,0.018786568194627762,-9.750547409057617
1.7294989784577848e+18,0.07153159379959106,-0.022202596068382263,-9.8128080368042
1.729498978466785e+18,0.08987758308649063,0.00569814583286643,-9.805953979492188
1.7294989784757852e+18,-0.0010230583138763905,-0.010468645952641964,-9.778708457946777
1.7294989784847854e+18,0.017924077808856964,0.06403808295726776,-9.785496711730957
1.7294989784937856e+18,0.012334215454757214,-0.016640618443489075,-9.758763313293457
1.7294989784997857e+18,-0.024388303980231285,0.0411180704832077,-9.7345609664917
1.729498978508786e+18,0.009547648020088673,-0.0685814842581749,-9.713293075561523
1.729498978517786e+18,-0.013498534448444843,0.0001927619450725615,-9.755141258239746
1.7294989785267863e+18,-0.0812053382396698,-0.05036839842796326,-9.768086433410645
1.7294989785357865e+18,0.009326264262199402,0.04225924238562584,-9.821273803710938
1.7294989785447867e+18,0.012361124157905579,0.04838818684220314,-9.739893913269043
1.729498978553787e+18,-0.04724181815981865,0.01894940435886383,-9.796133995056152
1.729498978562787e+18,-0.011348637752234936,0.041068993508815765,-9.776739120483398
1.7294989785717873e+18,0.03820888698101044,-0.019444141536951065,-9.785721778869629
1.7294989785807875e+18,-0.0553935207426548,-0.038949400186538696,-9.755165100097656
1.7294989785867876e+18,-0.04469317942857742,0.015263225883245468,-9.850464820861816
1.7294989785957878e+18,-0.061233170330524445,0.03011522814631462,-9.867692947387695
1.729498978604788e+18,0.007741556502878666,-0.02687176503241062,-9.785970687866211
1.7294989786137882e+18,-0.008129937574267387,-0.011684023775160313,-9.767742156982422
1.7294989786227884e+18,0.07903987914323807,0.041435208171606064,-9.755022048950195
1.7294989786287885e+18,0.0217520073056221,0.0646950900554657,-9.739310264587402
1.7294989786377887e+18,-0.021802082657814026,0.06809403002262115,-9.748641967773438
1.7294989786467889e+18,0.016224542632699013,0.020606059581041336,-9.802592277526855
1.729498978655789e+18,-0.05077942833304405,-0.020528120920062065,-9.774115562438965
1.7294989786647892e+18,-0.02219708077609539,-0.003956279251724482,-9.835014343261719
1.7294989786737894e+18,0.015324905514717102,-0.03658220171928406,-9.899962425231934
1.7294989786827896e+18,0.11328797787427902,-0.02603605017066002,-9.802458763122559
1.7294989786917898e+18,-0.0033008751925081015,0.004638581071048975,-9.826350212097168
1.72949897869779e+18,-0.028157461434602737,-0.08780177682638168,-9.78743839263916
1.7294989787067901e+18,-0.027209272608160973,-0.006112745031714439,-9.809393882751465
1.7294989787157903e+18,-0.023022856563329697,-0.08621487766504288,-9.825398445129395
1.7294989787247905e+18,-0.046978943049907684,0.019757790490984917,-9.770095825195312
1.7294989787307907e+18,0.00804396066814661,0.019829735159873962,-9.826725959777832
1.7294989787397908e+18,0.03467985987663269,0.04199404641985893,-9.793525695800781
1.729498978748791e+18,-0.00635929498821497,0.043141357600688934,-9.676056861877441
1.7294989787577912e+18,-0.06117968261241913,-0.009805779904127121,-9.777703285217285
1.7294989787637914e+18,-0.024420475587248802,-0.019546320661902428,-9.749244689941406
1.7294989787727916e+18,-0.026129990816116333,-0.02166954055428505,-9.797175407409668
1.7294989787817917e+18,-0.014474950730800629,-0.029207495972514153,-9.736614227294922
1.729498978790792e+18,-0.008618079125881195,0.04218368977308273,-9.831621170043945
1.729498978796792e+18,-0.09902878105640411,0.0009314563940279186,-9.73933219909668
1.7294989788057923e+18,0.0022142711095511913,-0.002763704163953662,-9.769489288330078
1.7294989788147924e+18,0.11371011286973953,-0.022312473505735397,-9.797362327575684
1.7294989788237926e+18,-0.08066745847463608,-0.03218065947294235,-9.860071182250977
1.7294989788297928e+18,0.06543948501348495,0.008586814627051353,-9.726666450500488
1.729498978838793e+18,-0.021221542730927467,0.017783230170607567,-9.81959342956543
1.7294989788477932e+18,0.009419520385563374,-0.018337590619921684,-9.813398361206055
1.7294989788537933e+18,-0.015392489731311798,0.03039787895977497,-9.811322212219238
1.7294989788627935e+18,-0.009998016990721226,-0.03132367506623268,-9.79965877532959
1.7294989788717937e+18,-0.010063868016004562,0.004780040122568607,-9.77864933013916
1.7294989788807939e+18,0.010479499585926533,-0.06420149654150009,-9.826780319213867
1.729498978889794e+18,0.002247862285003066,0.06287439167499542,-9.78212833404541
1.7294989788987942e+18,0.03532875329256058,0.0681082159280777,-9.748666763305664
1.7294989789077944e+18,-0.08353903889656067,0.055767010897397995,-9.85639476776123
1.7294989789167946e+18,0.03156675025820732,0.059950683265924454,-9.70169734954834
1.7294989789257948e+18,-0.1091126948595047,0.030829641968011856,-9.791501998901367
1.729498978934795e+18,0.011720768176019192,0.00048465299187228084,-9.83957290649414
1.7294989789437952e+18,-0.08395981043577194,0.03674595430493355,-9.844122886657715
1.7294989789527954e+18,-0.02845625951886177,0.0441049262881279,-9.829976081848145
1.7294989789587955e+18,-0.004134536720812321,0.01256525982171297,-9.902722358703613
1.7294989789677957e+18,0.007964950054883957,-0.09980424493551254,-9.82446002960205
1.729498978976796e+18,-0.021534422412514687,0.04030045121908188,-9.784050941467285
1.729498978985796e+18,0.006847287993878126,0.004203969147056341,-9.745946884155273
1.7294989789947963e+18,0.03935377672314644,0.04112139716744423,-9.834203720092773
1.7294989790037965e+18,0.02087516523897648,-0.022860193625092506,-9.81482982635498
1.7294989790127967e+18,-0.01451392937451601,-0.02310723438858986,-9.865056037902832
1.7294989790217969e+18,0.04658031091094017,-0.044271670281887054,-9.756304740905762
1.729498979030797e+18,-0.004397168289870024,0.046695370227098465,-9.799566268920898
1.7294989790397972e+18,0.02102859690785408,-0.04543043673038483,-9.83488941192627
1.7294989790457974e+18,0.06785735487937927,0.11148142069578171,-9.847970962524414
1.7294989790547976e+18,-0.000322359410347417,0.06391233205795288,-9.752724647521973
1.7294989790637978e+18,0.002446910832077265,0.022419514134526253,-9.81887149810791
1.729498979072798e+18,-0.07303392887115479,0.07639426738023758,-9.786859512329102
1.7294989790817981e+18,-0.01048528216779232,-0.028529712930321693,-9.817256927490234
1.7294989790907983e+18,-0.008698882535099983,-0.03565901145339012,-9.863966941833496
1.7294989790997985e+18,0.02917180210351944,-0.018765516579151154,-9.751805305480957
1.7294989791057987e+18,-0.0024511730298399925,-0.06356411427259445,-9.838111877441406
1.7294989791147988e+18,-0.009170853532850742,-0.015474572777748108,-9.83420181274414
1.729498979123799e+18,-0.04729870334267616,0.0159547571092844,-9.803936958312988
1.7294989791327992e+18,-0.06549471616744995,0.10946321487426758,-9.759488105773926
1.7294989791387994e+18,0.0126693369820714,0.004880022723227739,-9.826508522033691
1.7294989791477996e+18,-0.01616986282169819,-0.0012317911023274064,-9.79564380645752
1.7294989791567997e+18,-0.06123318523168564,-0.013429936952888966,-9.80919361114502
1.7294989791658e+18,-0.05775633454322815,-0.019468920305371284,-9.737584114074707
1.7294989791718e+18,0.06594062596559525,0.038288768380880356,-9.837876319885254
1.7294989791808003e+18,-0.044984910637140274,-0.08863422274589539,-9.822444915771484
1.7294989791898004e+18,0.01974724419414997,-0.04027578979730606,-9.826339721679688
1.7294989791958006e+18,0.04128927364945412,-0.04772895947098732,-9.856870651245117
1.7294989792048008e+18,0.01709495112299919,-0.003975460305809975,-9.831663131713867
1.729498979213801e+18,0.07644008845090866,0.042970895767211914,-9.847846031188965
1.7294989792228012e+18,0.005130289122462273,0.04681437090039253,-9.808526992797852
1.7294989792288013e+18,-0.06470882147550583,-0.029852913692593575,-9.780981063842773
1.7294989792378015e+18,-0.024487700313329697,-0.018657494336366653,-9.771211624145508
1.7294989792468017e+18,-0.025589698925614357,0.03107263706624508,-9.810847282409668
1.7294989792528018e+18,-0.061718184500932693,-0.01262708194553852,-9.819777488708496
1.729498979261802e+18,0.09091345220804214,0.009306065738201141,-9.82406234741211
1.729498979267802e+18,0.06545691937208176,-0.009702179580926895,-9.881176948547363
1.7294989792768023e+18,-0.01740134321153164,0.08498135209083557,-9.806884765625
1.7294989792858025e+18,-0.003240227699279785,0.02287316508591175,-9.769991874694824
1.7294989792918026e+18,-0.11269894987344742,0.09798580408096313,-9.842421531677246
1.7294989793008028e+18,0.07420602440834045,-0.00728461891412735,-9.841450691223145
1.729498979309803e+18,-0.044977325946092606,-0.04256952181458473,-9.770964622497559
1.7294989793188032e+18,0.038076870143413544,0.03003651462495327,-9.823504447937012
1.7294989793248033e+18,0.016960211098194122,-0.053083229809999466,-9.772310256958008
1.7294989793338035e+18,0.04182819277048111,-0.042361170053482056,-9.805282592773438
1.7294989793398036e+18,-0.019953787326812744,-0.00017864385154098272,-9.85936164855957
1.7294989793488038e+18,0.009596508927643299,-0.031043116003274918,-9.836051940917969
1.729498979357804e+18,-0.07033851742744446,-0.00762275280430913,-9.815390586853027
1.7294989793668042e+18,0.026463806629180908,0.007605761289596558,-9.825484275817871
1.7294989793728044e+18,0.06758324056863785,-0.040440719574689865,-9.881599426269531
1.7294989793818045e+18,0.0741441547870636,0.015983257442712784,-9.817296028137207
1.7294989793908047e+18,-0.016751417890191078,0.029060782864689827,-9.779426574707031
1.729498979399805e+18,0.019149024039506912,-0.025805560871958733,-9.75609016418457
1.729498979405805e+18,-0.02450992539525032,0.05586344748735428,-9.824896812438965
1.7294989794148052e+18,-0.027118027210235596,-0.032939717173576355,-9.805985450744629
1.7294989794238054e+18,-0.0008804794633761048,-0.009027441032230854,-9.827407836914062
1.7294989794328056e+18,0.09305286407470703,-0.034093067049980164,-9.797913551330566
1.7294989794388058e+18,-0.010339953005313873,-0.05283498764038086,-9.80460262298584
1.729498979447806e+18,0.00029912410536780953,0.07759124040603638,-9.829232215881348
1.7294989794568061e+18,0.03689440339803696,-0.017068877816200256,-9.749154090881348
1.7294989794658063e+18,0.02903789095580578,0.007774836383759975,-9.848745346069336
1.7294989794718065e+18,0.05399607867002487,-0.0013401299947872758,-9.827994346618652
1.7294989794808067e+18,-0.0745556503534317,-0.009610525332391262,-8.625274658203125
1.7294989794898068e+18,0.03397626057267189,-0.015183752402663231,-8.166234016418457
1.729498979498807e+18,0.1016869843006134,-0.01425892487168312,-8.061182975769043
1.7294989795048072e+18,0.012397456914186478,0.013325894251465797,-8.693094253540039
1.7294989795138074e+18,0.017570611089468002,0.0897589921951294,-9.189733505249023
1.7294989795198075e+18,0.023609422147274017,0.015232007950544357,-9.118892669677734
1.7294989795288077e+18,0.031267985701560974,0.08842360973358154,-9.155946731567383
1.729498979537808e+18,0.03673284873366356,0.12772029638290405,-9.097349166870117
1.729498979546808e+18,0.0755506157875061,0.029527533799409866,-9.244682312011719
1.7294989795558083e+18,-0.015626363456249237,0.05424919351935387,-9.107889175415039
1.7294989795618084e+18,-0.004318743944168091,0.03295483440160751,-9.1161470413208
1.7294989795708086e+18,0.023961398750543594,0.007034648209810257,-8.985203742980957
1.7294989795798088e+18,0.03296583145856857,0.05988239496946335,-8.78125286102295
1.729498979585809e+18,0.07186958193778992,0.0024251416325569153,-8.61418628692627
1.729498979594809e+18,0.0774613618850708,0.02294447459280491,-8.654193878173828
1.7294989796008092e+18,0.0818198099732399,0.13973519206047058,-8.755267143249512
1.7294989796098094e+18,0.09426537156105042,0.03107462450861931,-8.716057777404785
1.7294989796188096e+18,0.042286112904548645,0.02879728004336357,-8.822300910949707
1.7294989796248097e+18,0.012630566954612732,0.04558775573968887,-8.59772777557373
1.72949897963381e+18,0.08357049524784088,-0.012955985963344574,-8.456908226013184
1.72949897964281e+18,0.07618293911218643,0.025879206135869026,-8.496362686157227
1.7294989796488102e+18,0.018038498237729073,-0.0972098857164383,-8.449788093566895
1.729498979687811e+18,-0.0011965371668338776,-0.05398405343294144,-8.127821922302246
1.7294989796968113e+18,0.059086401015520096,0.0764162689447403,-8.19601821899414
1.7294989797028114e+18,0.006188965402543545,-0.03139738366007805,-8.143665313720703
1.7294989797118116e+18,0.09371352940797806,0.02014392986893654,-8.213736534118652
1.7294989797208118e+18,-0.025894079357385635,0.021029891446232796,-8.214911460876465
1.729498979729812e+18,-0.02933795005083084,0.023530231788754463,-8.207076072692871
1.729498979735812e+18,0.03986896201968193,-0.042762719094753265,-8.12546157836914
1.7294989797448123e+18,0.009999061934649944,0.0019102641381323338,-8.100651741027832
1.7294989797538125e+18,-0.02453468181192875,0.012728000991046429,-8.053326606750488
1.7294989797598126e+18,-0.06498844921588898,-0.010923746041953564,-7.947164535522461
1.7294989797688128e+18,0.014927742071449757,0.015306957066059113,-8.014908790588379
1.729498979777813e+18,0.0275773573666811,0.004612684715539217,-8.080375671386719
1.7294989797868132e+18,-0.003247850574553013,0.008034218102693558,-8.08945083618164
1.7294989797958134e+18,-0.03598318621516228,0.04629920423030853,-8.128561019897461
1.7294989798048136e+18,0.011446615681052208,0.003863391000777483,-8.067188262939453
1.7294989798108137e+18,0.05608408525586128,0.0712076798081398,-8.133109092712402
1.729498979819814e+18,0.05676216259598732,-0.07196585834026337,-8.132878303527832
1.729498979828814e+18,-0.0014717462472617626,-0.040744997560977936,-8.246611595153809
1.7294989798378143e+18,0.04379173740744591,0.058999717235565186,-8.114354133605957
1.7294989798468145e+18,0.006922610104084015,-0.020520208403468132,-8.085113525390625
1.7294989798558147e+18,-0.0064345295540988445,-0.04176254943013191,-8.166485786437988
1.7294989798618148e+18,-0.0692691057920456,-0.026402119547128677,-8.100937843322754
1.729498979870815e+18,0.0019392892718315125,0.011528996750712395,-8.193580627441406
1.7294989798798152e+18,-0.04550329968333244,-0.03956465423107147,-8.282974243164062
1.7294989798888154e+18,-0.016906660050153732,-0.0030260919593274593,-8.277915954589844
1.7294989798948155e+18,-0.04499126225709915,-0.020232634618878365,-8.201016426086426
1.7294989799038157e+18,-0.014193994924426079,-0.004952091723680496,-8.261246681213379
1.7294989799128159e+18,-0.04186662286520004,0.017635274678468704,-8.27292251586914
1.729498979918816e+18,0.030767209827899933,-0.019833654165267944,-8.179024696350098
1.7294989799278162e+18,-0.05023322254419327,-0.08440060913562775,-8.250748634338379
1.7294989799338163e+18,0.03254823386669159,-0.04240519180893898,-8.267370223999023
1.7294989799428165e+18,-0.017967145889997482,0.011595319956541061,-8.303780555725098
1.7294989799518167e+18,-0.05010402575135231,0.02381759136915207,-8.376110076904297
1.7294989799578168e+18,0.009880563244223595,-0.05630752071738243,-8.36600112915039
1.729498979966817e+18,-0.012460512109100819,0.02595510706305504,-8.374079704284668
1.7294989799758172e+18,-0.028260620310902596,-0.05978631600737572,-8.378311157226562
1.7294989799848174e+18,-0.056381456553936005,0.026064906269311905,-8.468243598937988
1.7294989799908175e+18,-0.062251508235931396,0.007751839235424995,-8.32083797454834
1.7294989799998177e+18,-0.03347371518611908,-0.04876931011676788,-8.412781715393066
1.729498980008818e+18,0.020846523344516754,-0.0536404587328434,-8.459757804870605
1.729498980014818e+18,-0.048422977328300476,-0.02092527039349079,-8.48086929321289
1.7294989800238182e+18,-0.08103790879249573,-0.06228984147310257,-8.4910888671875
1.7294989800328184e+18,0.007012156769633293,0.008351236581802368,-8.539176940917969
1.7294989800418186e+18,0.013619573786854744,-0.03942061960697174,-8.616327285766602
1.7294989800508188e+18,0.0019154236651957035,-0.03608141094446182,-8.59193229675293
1.729498980056819e+18,-0.10752595961093903,-0.07316744327545166,-8.57174015045166
1.7294989800658191e+18,0.030066687613725662,0.019618719816207886,-8.577189445495605
1.7294989800748193e+18,-0.05602863058447838,-0.05607680231332779,-8.664413452148438
1.7294989800838195e+18,0.0703011080622673,-0.08793672174215317,-8.73090648651123
1.7294989800928197e+18,0.08081982284784317,0.007225139997899532,-8.580571174621582
1.72949898010182e+18,-0.026135209947824478,0.058167267590761185,-8.674931526184082
1.72949898011082e+18,-0.009080548770725727,0.07248419523239136,-8.732913970947266
1.7294989801198203e+18,0.03479742631316185,-0.016689930111169815,-8.667903900146484
1.7294989801288205e+18,-0.045014988631010056,-0.042502786964178085,-8.756829261779785
1.7294989801348206e+18,0.0300680510699749,-0.01661018654704094,-8.75040340423584
1.7294989801438208e+18,-0.013639247976243496,-0.06311370432376862,-8.780929565429688
1.729498980152821e+18,-0.04345497116446495,0.0010599051602184772,-8.79642391204834
1.729498980158821e+18,-0.017129454761743546,-0.06374965608119965,-8.873617172241211
1.7294989801678213e+18,-0.004362753592431545,0.013838449493050575,-8.894678115844727
1.7294989801768215e+18,-0.059663206338882446,0.00792541541159153,-8.813883781433105
1.7294989801858217e+18,-0.0011105849407613277,-0.07341746240854263,-8.934268951416016
1.7294989801918218e+18,-0.04080573096871376,-0.055298253893852234,-9.006035804748535
1.729498980200822e+18,0.013305924832820892,-0.055195052176713943,-8.9132080078125
1.7294989802098222e+18,0.04808730259537697,-0.02361767739057541,-9.020686149597168
1.7294989802158223e+18,0.10678526014089584,0.09386088699102402,-8.930474281311035
1.7294989802248225e+18,0.07875742018222809,-0.09024200588464737,-9.032828330993652
1.7294989802338227e+18,0.08903482556343079,0.06117071211338043,-8.987750053405762
1.729498980242823e+18,0.04330601170659065,-0.04936794564127922,-9.058675765991211
1.729498980248823e+18,-0.08155486732721329,-0.07980681955814362,-9.055597305297852
1.7294989802578232e+18,-0.0023848870769143105,-0.017832279205322266,-9.06924819946289
1.7294989802668234e+18,0.011237272061407566,0.05095507949590683,-9.01474666595459
1.7294989802728236e+18,-0.0064340028911828995,0.018544187769293785,-9.0149564743042
1.7294989802818237e+18,-0.03220720216631889,0.032085876911878586,-9.042740821838379
1.729498980290824e+18,0.06324868649244308,-0.04500993341207504,-9.087172508239746
1.729498980299824e+18,0.014846011996269226,0.07900186628103256,-9.123566627502441
1.7294989803058243e+18,0.10062512010335922,-0.004987217485904694,-9.164203643798828
1.7294989803148244e+18,0.056478433310985565,0.029224036261439323,-9.173433303833008
1.7294989803238246e+18,0.0509796179831028,-0.09348304569721222,-9.207469940185547
1.7294989803328248e+18,-0.0051592867821455,0.05954422801733017,-9.239762306213379
1.729498980341825e+18,0.04013684391975403,0.04657579958438873,-9.29703426361084
1.7294989803508252e+18,0.01997719705104828,-0.03381390869617462,-9.22465705871582
1.7294989803568253e+18,0.01317065954208374,-0.03886706009507179,-9.17056655883789
1.7294989803658255e+18,-0.00891227088868618,-0.01760331355035305,-9.256975173950195
1.7294989803748257e+18,0.0658922791481018,0.011973393149673939,-9.338443756103516
1.729498980383826e+18,0.031242646276950836,0.007230838760733604,-9.374476432800293
1.729498980389826e+18,0.06624437868595123,0.04970846325159073,-9.373109817504883
