timestamp,gyro_x,gyro_y,gyro_z
1.7294950391697485e+18,-3.3806627470767125e-05,0.0014986266614869237,-0.0017137411050498486
1.7294950391787487e+18,8.333225559908897e-05,0.0007662182906642556,-0.0026091327890753746
1.7294950391847488e+18,1.5135386092879344e-05,-4.40896037616767e-05,-0.0017851428128778934
1.729495039193749e+18,-0.0026069050654768944,0.0028498524334281683,0.0007889780681580305
1.7294950392027492e+18,0.00016651728947181255,0.0011423313990235329,-0.00047164413263089955
1.7294950392117494e+18,0.0005242277402430773,-0.0007702126749791205,-0.00044368684757500887
1.7294950392177495e+18,-0.0014089348260313272,0.0019285581074655056,-0.0012006491888314486
1.7294950392267497e+18,0.002810579724609852,-0.0011443531839177012,0.0019501588540151715
1.7294950392327498e+18,-0.0017383056692779064,-0.0009100288734771311,0.0019275231752544641
1.72949503924175e+18,0.00012418965343385935,-0.003304550424218178,6.067134017939679e-05
1.7294950392477501e+18,0.0002861559041775763,-0.00015967334911692888,-0.001468016766011715
1.7294950392567503e+18,0.0018983265617862344,-0.00035560227115638554,0.001360341440886259
1.7294950392657505e+18,0.0002469979808665812,-0.001253341557458043,0.00232656835578382
1.7294950392717507e+18,-0.0015428998740389943,-0.001670777564868331,-0.001989823766052723
1.7294950392807508e+18,-0.0024351130705326796,-0.00041092574247159064,0.0014171290677040815
1.729495039289751e+18,-0.003671178361400962,0.0021021233405917883,0.0013092996086925268
1.7294950392957512e+18,0.000917363737244159,0.000850928423460573,0.00036375527270138264
1.7294950393047514e+18,-0.0015649180859327316,0.0017664461629465222,0.0004992496687918901
1.7294950393137516e+18,0.0038324547931551933,-0.0015749683370813727,0.0017985260346904397
1.7294950393197517e+18,0.0015723193064332008,0.0018260066863149405,0.0021681643556803465
1.7294950393287519e+18,0.003253211732953787,0.0007937524351291358,0.00327990367077291
1.729495039337752e+18,0.004103839863091707,0.001981126144528389,0.001306310179643333
1.7294950393437522e+18,-0.0021710020955652,-0.001075976062566042,0.0012034217361360788
1.7294950393527524e+18,-0.002040748717263341,-0.004323698580265045,0.0013002970954403281
1.7294950393617526e+18,0.0021451013162732124,-0.00037096007145009935,-0.0007907639956101775
1.7294950393707528e+18,-0.0010240061674267054,-7.245611777761951e-05,0.0011917244410142303
1.729495039376753e+18,-0.00034731809864751995,0.0006000522407703102,-0.001673106919042766
1.729495039385753e+18,-0.0008689606911502779,0.0019175817724317312,-5.046687147114426e-05
1.7294950393917532e+18,-0.0004697163531091064,-0.0020865551196038723,0.0014736277516931295
1.7294950394007534e+18,-0.0014421641826629639,-0.0009424482705071568,0.0005692187114618719
1.7294950394097536e+18,-0.00031666396535001695,-0.0006758816307410598,-0.00022619534865953028
1.7294950394187538e+18,-0.0003221648803446442,-0.000786646967753768,0.0006079509621486068
1.729495039427754e+18,0.000290625641355291,-0.004016190301626921,-0.0007100296206772327
1.729495039433754e+18,-0.001539301360026002,-2.4441786081297323e-05,0.0019079364137724042
1.7294950394427543e+18,-0.0009470231016166508,-0.0007754720863886178,-0.0005262435297481716
1.7294950394517545e+18,0.0007661156705580652,0.0007107433630153537,-0.004643310327082872
1.7294950394607547e+18,-0.0010151681490242481,0.003664260497316718,-0.00231980555690825
1.7294950394667548e+18,-0.0006803722935728729,-0.0008416838245466352,0.00029207373154349625
1.729495039475755e+18,0.0024563423357903957,0.00016769515059422702,0.0018477528356015682
1.7294950394847552e+18,-0.0012757808435708284,-0.0014739694306626916,-0.003573744324967265
1.7294950394907553e+18,0.0010371172102168202,-0.0012848720652982593,0.000258600281085819
1.7294950394997555e+18,-0.0032121918629854918,-0.00033803953556343913,0.0024151625111699104
1.7294950395057556e+18,0.00036740669747814536,-0.0015803088899701834,-0.000703832134604454
1.7294950395147558e+18,0.000565724796615541,0.00013741423026658595,0.0006049635703675449
1.729495039523756e+18,0.00032393456785939634,0.00030362457619048655,-0.00033747617271728814
1.7294950395327562e+18,0.00032135937362909317,-0.002664790954440832,0.001300441799685359
1.7294950395417564e+18,0.0017013322794809937,-0.0020440907683223486,-0.0012207769323140383
1.7294950395477565e+18,0.0015254642348736525,0.0008332364377565682,-0.0011757927713915706
1.7294950395567567e+18,-0.0004987650318071246,-0.001171185402199626,-0.00022690050536766648
1.7294950395627569e+18,0.001130491029471159,0.0012085153721272945,0.0015378902899101377
1.729495039571757e+18,0.0014588622143492103,-0.0007602402474731207,0.0009675558540038764
1.7294950395807572e+18,-0.0014075255021452904,0.00369933876208961,0.00048453619820065796
1.7294950395867574e+18,-0.002452744636684656,0.00356288137845695,-0.002677355892956257
1.7294950395957576e+18,0.0021096868440508842,0.0005738094332627952,8.790902938926592e-05
1.7294950396047578e+18,0.0011305803200230002,-5.284212238620967e-05,0.002302206587046385
1.729495039613758e+18,-0.0021271577570587397,8.90870505827479e-05,0.001293763518333435
1.729495039619758e+18,0.0011780067579820752,-0.0007816682336851954,-0.002598776947706938
1.7294950396287583e+18,0.0024831402115523815,-0.002812178572639823,-0.0006702234968543053
1.7294950396377585e+18,-0.0006694335606880486,-0.0015590277034789324,0.000955503957811743
1.7294950396467587e+18,-0.0013761372538283467,0.0019915916491299868,0.003806502791121602
1.7294950396527588e+18,-0.0017861310625448823,0.0036936402320861816,0.0012378881219774485
1.729495039661759e+18,-0.003024981589987874,0.003087991615757346,-0.0027167205698788166
1.7294950396707592e+18,-0.00017502850096207112,-0.0006380584090948105,0.002353978343307972
1.7294950396767593e+18,-0.003293847432360053,-0.00019909309048671275,0.0016893896972760558
1.7294950396857595e+18,-0.00038649351336061954,0.0016864731442183256,-0.0012300352100282907
1.7294950396917596e+18,0.0006536176078952849,-0.0007288790075108409,0.0015879909042268991
1.7294950397007598e+18,-0.001503233565017581,-3.3630527468631044e-05,-0.0011167548364028335
1.72949503970976e+18,1.1370656466169748e-05,-0.0009214766905643046,5.873339978279546e-05
1.72949503971576e+18,-0.002056556288152933,0.0002676545118447393,-0.0015807750169187784
1.7294950397247603e+18,0.0014898416120558977,-0.0038362392224371433,-0.0008636260754428804
1.7294950397337605e+18,0.002697245217859745,-0.0010399427264928818,0.0009991509141400456
1.7294950397427607e+18,-0.0018716788617894053,0.0012733726762235165,-0.0015923497267067432
1.7294950397487608e+18,0.0015683150850236416,-0.002119831508025527,-9.183792280964553e-05
1.729495039757761e+18,0.00033472722861915827,-0.0015901654260233045,0.002135916380211711
1.7294950397637612e+18,-0.003898400580510497,0.00041982531547546387,0.0010930094867944717
1.7294950397727613e+18,0.00035486859269440174,0.001065063406713307,0.0018827460007742047
1.7294950397817615e+18,-0.00037470244569703937,0.0008324914961121976,-0.001296376809477806
1.7294950397877617e+18,0.001102366833947599,-0.0009700036607682705,-0.0022453460842370987
1.7294950397967619e+18,0.0027161017060279846,0.00032312990515492857,-0.0007565737469121814
1.729495039805762e+18,0.0031940459739416838,0.00020819656492676586,-0.0027914689853787422
1.7294950398147622e+18,-0.0016676192171871662,0.001205628039315343,0.0027862684801220894
1.7294950398207624e+18,-0.00015035805699881166,0.002754881279543042,0.0003569721011444926
1.7294950398297626e+18,0.002101615071296692,0.004270624835044146,-0.0030070384964346886
1.7294950398357627e+18,0.0026056428905576468,0.0010570113081485033,0.00020741301705129445
1.729495039844763e+18,0.0002774531894829124,-0.0015161922201514244,0.00196724571287632
1.729495039853763e+18,0.0006582036730833352,-0.00376750691793859,0.00020344047516118735
1.7294950398627633e+18,-0.004140447359532118,0.00020412301819305867,0.0008813493186607957
1.7294950398687634e+18,-0.0009414901724085212,-0.0010293654631823301,0.002179964678362012
1.7294950398777636e+18,0.0007346833008341491,0.0007257148390635848,0.0010034848237410188
1.7294950398837637e+18,-0.0006110849208198488,-0.0007153432816267014,-0.0008377248304896057
1.729495039895764e+18,-0.0008661503088660538,0.0004168945597484708,-0.0005742364446632564
1.7294950399047642e+18,-0.0034900293685495853,-0.0008603736059740186,0.00014474416093435138
1.7294950399107643e+18,0.0017203522147610784,-0.0016685022274032235,-0.0032757141161710024
1.7294950399197645e+18,-0.001429891912266612,-0.0023114255163818598,0.00027204674552194774
1.7294950399287647e+18,-0.00204545259475708,-0.0001980218949029222,-6.916267739143223e-05
1.7294950399347648e+18,0.0018590767867863178,-0.0016367913922294974,0.0003025892947334796
1.729495039943765e+18,0.0025909871328622103,0.0003714130725711584,0.0013368327636271715
1.7294950399527652e+18,-0.0002946227032225579,0.001846411731094122,0.0022829603403806686
1.7294950399587653e+18,-0.0024169294629245996,0.0003184335946571082,0.001438102568499744
1.7294950399677655e+18,0.00192982517182827,0.0021332053001970053,0.0010740837315097451
1.7294950399767657e+18,3.7332818465074524e-05,-0.0002523549774195999,0.0003587360552046448
1.7294950399827658e+18,0.000898167840205133,-0.0016505689127370715,0.0027441743295639753
1.729495039991766e+18,0.0002534364175517112,-0.0010046041570603848,0.002130869310349226
1.7294950400007662e+18,-0.0015986169455572963,0.0022410431411117315,-0.0008192092645913363
1.7294950400097664e+18,-0.03123539686203003,-0.04113957658410072,0.0012799561955034733
1.7294950400157665e+18,-0.07537626475095749,-0.09908647835254669,5.428717486211099e-05
1.7294950400247667e+18,-0.1347743421792984,-0.18561892211437225,0.0015187205281108618
1.729495040033767e+18,-0.1856624335050583,-0.25811290740966797,-0.0018703050445765257
1.729495040039767e+18,-0.20323370397090912,-0.28858256340026855,-0.0004787998623214662
1.7294950400487672e+18,-0.19544273614883423,-0.29366257786750793,-0.00044080844963900745
1.7294950400577674e+18,-0.1613287627696991,-0.272207647562027,0.000799141766037792
1.7294950400727677e+18,-0.12396359443664551,-0.23301805555820465,0.0011751404963433743
1.729495040081768e+18,-0.12449139356613159,-0.2329627275466919,-0.0006842403672635555
1.7294950400907681e+18,-0.14331841468811035,-0.24516713619232178,0.00019658319070003927
1.7294950400967683e+18,-0.16208399832248688,-0.25689584016799927,-0.0014092200435698032
1.7294950401057684e+18,-0.175700843334198,-0.26368847489356995,-0.0012071500532329082
1.7294950401147686e+18,-0.16508616507053375,-0.25662052631378174,-0.0022855554707348347
1.7294950401237688e+18,-0.14214812219142914,-0.23542630672454834,-0.001506504137068987
1.729495040129769e+18,-0.11798911541700363,-0.21441370248794556,0.0010570950107648969
1.7294950401387692e+18,-0.0813068225979805,-0.1873558759689331,-0.0007612917688675225
1.7294950401447693e+18,-0.07052908092737198,-0.16692113876342773,-2.4098611902445555e-05
1.7294950401537695e+18,-0.06416883319616318,-0.14895622432231903,0.0017298083985224366
1.7294950401627697e+18,-0.07259584963321686,-0.13946813344955444,-0.003765078028663993
1.7294950401717699e+18,-0.07756476104259491,-0.1288718730211258,-0.0014035878702998161
1.72949504017777e+18,-0.07832369208335876,-0.12473534047603607,0.0016602514078840613
1.7294950401867702e+18,-0.06888104230165482,-0.10736545920372009,-0.0025474121794104576
1.7294950401957704e+18,-0.04557226225733757,-0.08915246278047562,-0.0013564769178628922
1.7294950402047706e+18,-0.014354441314935684,-0.06583608686923981,-0.0015567373484373093
1.7294950402107707e+18,-0.002279469510540366,-0.05006923899054527,0.0017803986556828022
1.729495040219771e+18,0.013253350742161274,-0.028772756457328796,-0.0007988392026163638
1.729495040228771e+18,0.012673123739659786,-0.009487971663475037,-0.002500127535313368
1.7294950402347712e+18,0.006869211792945862,-0.0039296504110097885,-0.0013258091639727354
1.7294950402437714e+18,0.004595257807523012,0.0069679454900324345,-0.001020312774926424
1.7294950402527716e+18,0.0064650834538042545,0.014731820672750473,0.002942748600617051
1.7294950402617718e+18,0.017128853127360344,0.029432732611894608,0.0016250540502369404
1.729495040267772e+18,0.027301177382469177,0.037466298788785934,0.00170649285428226
1.729495040276772e+18,0.04375402256846428,0.05443868413567543,0.0004166958970017731
1.7294950402857723e+18,0.053920891135931015,0.06888574361801147,-0.0010908639524132013
1.7294950402947725e+18,0.05806444212794304,0.07880207151174545,-0.001358591951429844
1.7294950403007726e+18,0.05883200466632843,0.08427684754133224,-0.00012662986409850419
1.7294950403097728e+18,0.05241847783327103,0.08690881729125977,0.002691340632736683
1.729495040318773e+18,0.05001339688897133,0.09219477325677872,0.0011882932158187032
1.729495040324773e+18,0.04929275065660477,0.0950380489230156,-0.0002766071993391961
1.7294950403337733e+18,0.05439746007323265,0.10196416825056076,-0.0009644615929573774
1.7294950403427735e+18,0.06091700866818428,0.1112479642033577,-3.405273309908807e-05
1.7294950403487736e+18,0.06613753736019135,0.1131478026509285,-0.0012877020053565502
1.7294950403577738e+18,0.0703599750995636,0.11616568267345428,-0.0010953384917229414
1.729495040366774e+18,0.07214795798063278,0.11700223386287689,-0.001152996439486742
1.7294950403727741e+18,0.07010632008314133,0.11574576050043106,-8.512023487128317e-05
1.7294950403817743e+18,0.06532160192728043,0.11235804855823517,-0.00190321309491992
1.7294950403907745e+18,0.05898361653089523,0.12004809081554413,0.00040121818892657757
1.7294950403997747e+18,0.06271139532327652,0.11525224149227142,-0.0002722966019064188
1.7294950404057748e+18,0.06238225847482681,0.11765767633914948,-9.558565216138959e-05
1.729495040417775e+18,0.07226346433162689,0.11981108784675598,3.5049160942435265e-06
1.7294950404267753e+18,0.0746304988861084,0.12141760438680649,0.0010433862917125225
1.7294950404357755e+18,0.07527089864015579,0.11688107252120972,-0.0031343763694167137
1.7294950404447757e+18,0.06946210563182831,0.1161324754357338,0.0004004178917966783
1.7294950404507758e+18,0.06392604112625122,0.11462047696113586,0.00033073947997763753
1.729495040459776e+18,0.05665408447384834,0.10786252468824387,-0.0002643842017278075
1.729495040465776e+18,0.05961906164884567,0.11204798519611359,0.0017123670550063252
1.7294950404777764e+18,0.06096991151571274,0.10968946665525436,-0.003312991699203849
1.7294950404837765e+18,0.061132658272981644,0.10960133373737335,-1.7631857190281153e-05
1.7294950404927767e+18,0.06102677807211876,0.1067933738231659,0.002703617559745908
1.729495040501777e+18,0.06123518571257591,0.10556134581565857,-0.0011020576348528266
1.729495040507777e+18,0.060131050646305084,0.09858059138059616,-0.0003378738183528185
1.7294950405167772e+18,0.055542897433042526,0.09565289318561554,-0.0011596742551773787
1.7294950405257774e+18,0.048724424093961716,0.0905778557062149,-0.00270828977227211
1.7294950405347776e+18,0.045822545886039734,0.08725576102733612,-0.0042359731160104275
1.7294950405407777e+18,0.04815826937556267,0.08517912775278091,-0.0013034279691055417
1.729495040549778e+18,0.04651013761758804,0.08474558591842651,-0.003918580245226622
1.729495040558778e+18,0.04721274599432945,0.08343104273080826,-0.001277454080991447
1.7294950405677783e+18,0.04871859401464462,0.08374492079019547,-0.0007843933417461812
1.7294950405737784e+18,0.0499560683965683,0.08461445569992065,-0.0020499674137681723
1.7294950405827786e+18,0.04496455937623978,0.07917094230651855,-0.0009992204140871763
1.7294950405917788e+18,0.04137539118528366,0.0719791129231453,-0.003178682876750827
1.729495040597779e+18,0.040195729583501816,0.0733155831694603,-0.0012327500153332949
1.7294950406067791e+18,0.041432034224271774,0.07057103514671326,0.0008154414827004075
1.7294950406157793e+18,0.04023345559835434,0.0645618811249733,0.00041589781176298857
1.7294950406247795e+18,0.042562734335660934,0.06361416727304459,-0.0018325723940506577
1.7294950406307796e+18,0.04226401820778847,0.06135525181889534,-0.00014928611926734447
1.7294950406397798e+18,0.04365384578704834,0.06312162429094315,-0.0009180302149616182
1.72949504064878e+18,0.040521055459976196,0.05728684365749359,-0.0016787999775260687
1.7294950406547802e+18,0.03678004443645477,0.05761250853538513,0.0020571541972458363
1.7294950406637804e+18,0.031688790768384933,0.054683879017829895,-0.0017332538263872266
1.7294950406727805e+18,0.0307078268378973,0.05496162176132202,0.0019271783530712128
1.7294950406817807e+18,0.028767922893166542,0.052657198160886765,-0.0012248283019289374
1.729495040690781e+18,0.032337162643671036,0.05091394856572151,-0.0029885820113122463
1.729495040699781e+18,0.030608896166086197,0.04878154769539833,0.00025384873151779175
1.7294950407057812e+18,0.02986871637403965,0.04854792356491089,-0.0002455793437547982
1.7294950407147814e+18,0.02935088239610195,0.04475024715065956,0.0013423424679785967
1.7294950407237816e+18,0.029358331114053726,0.04353104904294014,0.0011928487801924348
1.7294950407327818e+18,0.023210756480693817,0.04479113966226578,-0.0019223266281187534
1.729495040741782e+18,0.023244960233569145,0.04493590071797371,-0.0023608128540217876
1.7294950407477821e+18,0.023951461538672447,0.04193698987364769,-0.003040516749024391
1.7294950407567823e+18,0.024256760254502296,0.04293925315141678,-0.00025357550475746393
1.7294950407657825e+18,0.024174386635422707,0.040164098143577576,-0.0009685056284070015
1.7294950407717827e+18,0.022644339129328728,0.039291802793741226,-0.0010754037648439407
1.7294950407807828e+18,0.021586308255791664,0.040408819913864136,-0.001578920753672719
1.729495040789783e+18,0.02165134809911251,0.039804644882678986,-0.001544872298836708
1.7294950407957832e+18,0.02214394509792328,0.03968239203095436,0.003257176373153925
1.7294950408047834e+18,0.02542274072766304,0.04068557173013687,-0.0002006705617532134
1.7294950408137836e+18,0.02479727938771248,0.03864115849137306,-0.0005911692278459668
1.7294950408227837e+18,0.026198100298643112,0.0380786769092083,0.00044448248809203506
1.729495040831784e+18,0.022846095263957977,0.03609567508101463,-0.004014979116618633
1.7294950408407841e+18,0.021016716957092285,0.035088494420051575,0.0015847876202315092
1.7294950408467843e+18,0.01973356492817402,0.036117807030677795,-0.001253626774996519
1.7294950408557844e+18,0.024591490626335144,0.0378120131790638,-0.0008391306037083268
1.7294950408647846e+18,0.019978152588009834,0.04208727180957794,-0.0017141320277005434
1.7294950408737848e+18,0.019712204113602638,0.0422525629401207,-0.0013885796070098877
1.729495040882785e+18,0.01997332088649273,0.043279167264699936,-0.001828402979299426
1.7294950408887852e+18,0.01816566102206707,0.03948701173067093,-6.764620775356889e-05
1.7294950408977853e+18,0.02063933201134205,0.03567538410425186,-0.0024591523688286543
1.7294950409067855e+18,0.020050520077347755,0.0358511321246624,0.001698335981927812
1.7294950409157857e+18,0.01941940188407898,0.034564003348350525,-0.0028467285446822643
1.7294950409217859e+18,0.019435247406363487,0.034712597727775574,-0.0012709327274933457
1.729495040930786e+18,0.018498068675398827,0.0333971232175827,-0.001097050029784441
1.7294950409397862e+18,0.02219478227198124,0.03190422058105469,-0.002189065795391798
1.7294950409457864e+18,0.021991752088069916,0.029934018850326538,-0.000757501577027142
1.7294950409547866e+18,0.022591482847929,0.035362597554922104,-0.0007691093487665057
1.7294950409607867e+18,0.020170453935861588,0.03215345740318298,-0.00021800014656037092
1.729495040969787e+18,0.022332508116960526,0.03289046511054039,0.0009350902400910854
1.729495040975787e+18,0.022912953048944473,0.031712405383586884,-0.003451591357588768
1.7294950409847872e+18,0.01641414314508438,0.03010532818734646,-0.0018287759739905596
1.7294950409937874e+18,0.018197540193796158,0.029532717540860176,-0.0020520417019724846
1.7294950410027876e+18,0.014670546166598797,0.027852794155478477,-0.0006604637601412833
1.7294950410087877e+18,0.019342971965670586,0.029056627303361893,-0.000552154378965497
1.729495041017788e+18,0.016371816396713257,0.026507582515478134,-0.0018212167778983712
1.729495041026788e+18,0.021746493875980377,0.03137499466538429,-0.0009600799530744553
1.7294950410357883e+18,0.020038262009620667,0.03322482481598854,-0.0036613792181015015
1.7294950410417884e+18,0.02082267589867115,0.03163251280784607,-0.00044990103924646974
1.7294950410507886e+18,0.018234174698591232,0.030939286574721336,-0.0013271165080368519
1.7294950410597888e+18,0.018621772527694702,0.024717072024941444,-0.0015199559275060892
1.729495041068789e+18,0.0193641297519207,0.02564852312207222,-0.002275756560266018
1.7294950410777892e+18,0.02118733525276184,0.022889863699674606,0.0006009273929521441
1.7294950410837893e+18,0.017998212948441505,0.023272186517715454,-0.000998835894279182
1.7294950410927895e+18,0.016716178506612778,0.026090912520885468,-0.000567091628909111
1.7294950411017897e+18,0.01715078577399254,0.026811903342604637,-0.0018722033128142357
1.7294950411077898e+18,0.0150969373062253,0.028645044192671776,0.0016776942647993565
1.72949504111679e+18,0.014428121037781239,0.02308029495179653,-0.0019354040268808603
1.7294950411257902e+18,0.01700044982135296,0.026297343894839287,-6.048218347132206e-05
1.7294950411347904e+18,0.012081412598490715,0.025356050580739975,0.00030747184064239264
1.7294950411437906e+18,0.013652569614350796,0.023342886939644814,-0.0012926325434818864
1.7294950411527908e+18,0.012489226646721363,0.026236020028591156,-0.0016954506281763315
1.729495041158791e+18,0.0160962101072073,0.022833893075585365,-0.0008367450209334493
1.729495041167791e+18,0.013405081816017628,0.023314176127314568,-0.0025917363818734884
1.7294950411767913e+18,0.013369043357670307,0.017922405153512955,-0.0020332331769168377
1.7294950411857915e+18,0.01570945791900158,0.024785742163658142,-0.003419120330363512
1.7294950411947917e+18,0.014186379499733448,0.021241681650280952,-0.0021425995510071516
1.7294950412007918e+18,0.015593171119689941,0.019947554916143417,-0.0026663262397050858
1.729495041212792e+18,0.007667334750294685,0.017411310225725174,9.629037231206894e-05
1.7294950412187922e+18,0.008336665108799934,0.015389452688395977,0.0008555493550375104
1.7294950412277924e+18,0.007885775528848171,0.011752924881875515,-0.003495526732876897
1.7294950412367926e+18,0.008116929791867733,0.009966869838535786,-0.001496162498369813
1.7294950412427927e+18,0.008239259012043476,0.012322770431637764,-0.0022380275186151266
1.729495041254793e+18,0.00878228060901165,0.010742784477770329,-0.00018359330715611577
1.729495041260793e+18,0.009306334890425205,0.013768911361694336,0.0007328870124183595
1.7294950412697933e+18,0.009209875948727131,0.014114250428974628,9.841768769547343e-05
1.7294950412787935e+18,0.009374188259243965,0.015341455116868019,0.00048018485540524125
1.7294950412877937e+18,0.007837852463126183,0.013179044239223003,0.00010384322376921773
1.7294950412967939e+18,0.0094371996819973,0.014447555877268314,-0.0021025817841291428
1.729495041305794e+18,0.007270244415849447,0.01209132932126522,-0.001752582611516118
1.7294950413117942e+18,0.007104452233761549,0.013824203982949257,-0.0010467942338436842
1.7294950413237944e+18,0.008735273033380508,0.013309168629348278,-0.003080422058701515
1.7294950413297946e+18,0.008504495956003666,0.01258053071796894,0.0005737321334891021
1.7294950413387948e+18,0.005511256866157055,0.0161098912358284,0.0014823899837210774
1.729495041347795e+18,0.00848414283245802,0.015872690826654434,-0.0001674611121416092
1.729495041353795e+18,0.009606946259737015,0.013154747895896435,-0.00015854660887271166
1.7294950413627953e+18,0.006365793291479349,0.014327489770948887,0.0014207775238901377
1.7294950413717955e+18,0.008660616353154182,0.01669991761445999,-0.0017693507252261043
1.7294950413777956e+18,0.00738955894485116,0.017044855281710625,2.0643463358283043e-05
1.7294950413867958e+18,0.007167533040046692,0.015806233510375023,-0.0017591207288205624
1.729495041395796e+18,0.0041691516526043415,0.0200642142444849,-0.001108477939851582
1.7294950414047962e+18,0.004159599542617798,0.01504928432404995,-0.0023251394741237164
1.7294950414137964e+18,0.004401987884193659,0.014725256711244583,-0.004222550895065069
1.7294950414197965e+18,0.006099684163928032,0.014998968690633774,0.0013030186528339982
1.7294950414287967e+18,0.006611977703869343,0.012317962944507599,-0.0006344480207189918
1.7294950414377969e+18,0.007871957495808601,0.016484996303915977,-0.0019988450221717358
1.729495041446797e+18,0.003549091750755906,0.011932848952710629,-0.002244915347546339
1.7294950414527972e+18,0.005316339433193207,0.015111008659005165,0.00026389374397695065
1.7294950414617974e+18,0.0031245301943272352,0.011169428937137127,0.0009249984286725521
1.7294950414707976e+18,-0.00025372899835929275,0.008606113493442535,-0.0020561886485666037
1.7294950414797978e+18,0.0010823243064805865,0.01083330251276493,-0.0014858661452308297
1.729495041488798e+18,-0.0013636044459417462,0.008100161328911781,-0.0015398311661556363
1.7294950415007982e+18,0.0019660871475934982,0.013459439389407635,0.00010680360719561577
1.7294950415067983e+18,0.0049888622015714645,0.009660966694355011,0.0007151956669986248
1.7294950415157985e+18,0.003911921288818121,0.007554424926638603,-0.0037976186722517014
1.7294950415247987e+18,0.0056970808655023575,0.010170147754251957,-0.003657260909676552
1.729495041533799e+18,-0.0020383340306580067,0.01018388569355011,0.00013589963782578707
1.729495041539799e+18,-0.0003902746248058975,0.0056149628944695,-0.0006290338933467865
1.7294950415487992e+18,-0.0011494572972878814,0.00827366765588522,-0.002581188455224037
1.7294950415577994e+18,-0.0008405135595239699,0.01128706056624651,-0.00217314250767231
1.7294950415637996e+18,-0.0017845715628936887,0.009042653255164623,-0.000578615756239742
1.7294950415727997e+18,0.0027244766242802143,0.009158721193671227,-0.0009424284799024463
1.7294950415818e+18,0.0029298269655555487,0.00890185497701168,-0.001392056467011571
1.7294950415878e+18,0.006837469059973955,0.007314165588468313,-0.0025799190625548363
1.7294950415968003e+18,0.009890447370707989,0.00651952438056469,-0.002239159308373928
1.7294950416028004e+18,0.0035023558884859085,0.008446834981441498,-0.0015780860558152199
1.7294950416118006e+18,0.002069617621600628,0.0086853988468647,-0.0005236928118392825
1.7294950416208008e+18,-0.000759189366362989,0.006235530599951744,0.0013675042428076267
1.729495041629801e+18,0.005696302279829979,-0.0017895704368129373,0.0012780684046447277
1.7294950416388012e+18,0.026085834950208664,-0.014916222542524338,0.003980454057455063
1.7294950416478013e+18,0.0442470945417881,-0.024782834574580193,0.005458710715174675
1.7294950416538015e+18,0.055355675518512726,-0.0323040634393692,0.0030914624221622944
1.7294950416658017e+18,0.06295383721590042,-0.03510909900069237,0.004092738498002291
1.729495041677802e+18,0.05297587439417839,-0.03177284076809883,0.002020312240347266
1.729495041683802e+18,0.049246497452259064,-0.03139863535761833,0.004720835946500301
1.7294950416928023e+18,0.04304002597928047,-0.028894565999507904,0.0016513781156390905
1.7294950417018025e+18,0.0428864061832428,-0.03028535656630993,0.0022238679230213165
1.7294950417108027e+18,0.05121496319770813,-0.033629365265369415,0.000560003099963069
1.7294950417168028e+18,0.056496456265449524,-0.03485969826579094,0.001124478061683476
1.729495041725803e+18,0.06269100308418274,-0.03799639269709587,0.004747056867927313
1.7294950417348032e+18,0.05760577693581581,-0.03884001076221466,0.0014810593565925956
1.7294950417408033e+18,0.05326027423143387,-0.03906893730163574,0.0020873844623565674
1.7294950417498035e+18,0.042046450078487396,-0.034633390605449677,0.005746565293520689
1.7294950417588037e+18,0.03491973131895065,-0.033795032650232315,0.0032801553606987
1.7294950417648038e+18,0.032432667911052704,-0.03140353411436081,0.0013260487467050552
1.729495041773804e+18,0.034800153225660324,-0.030623871833086014,0.0026551513001322746
1.7294950417828042e+18,0.03195565938949585,-0.02831682190299034,0.0037660649977624416
1.7294950417918044e+18,0.031074702739715576,-0.02871125191450119,0.0006026916671544313
1.7294950417978045e+18,0.02852030284702778,-0.029007626697421074,0.0035768572706729174
1.7294950418068047e+18,0.023518474772572517,-0.026405714452266693,0.004009535536170006
1.729495041815805e+18,0.020285531878471375,-0.023692507296800613,0.004455475136637688
1.729495041821805e+18,0.01746232435107231,-0.021617373451590538,0.003286009421572089
1.7294950418308052e+18,0.00667162612080574,-0.022326691076159477,0.007982086390256882
1.7294950418398054e+18,0.004210500046610832,-0.018689535558223724,0.0007800650782883167
1.7294950418458056e+18,-0.000962377991527319,-0.015456441789865494,0.002852948382496834
1.7294950418548058e+18,0.0016349779907613993,-0.014298788271844387,0.002228774130344391
1.729495041863806e+18,-0.0017017745412886143,-0.01145237497985363,0.0024014327209442854
1.7294950418728061e+18,-0.0022900248877704144,-0.008324293419718742,0.003252460155636072
1.7294950418818063e+18,-0.009921724908053875,-0.011371376924216747,0.0057764193043112755
1.7294950418878065e+18,-0.011447523720562458,-0.01029872428625822,0.00234727980569005
1.7294950418968067e+18,-0.01723460666835308,-0.00789281353354454,0.003620605915784836
1.7294950419058068e+18,-0.018990319222211838,-0.0053985933773219585,0.006756160408258438
1.729495041914807e+18,-0.02050400711596012,-0.0028415247797966003,0.003487017471343279
1.7294950419238072e+18,-0.01845121756196022,-0.0016829310916364193,0.0017884906847029924
1.7294950419328074e+18,-0.017459310591220856,0.0025296849198639393,0.00590435229241848
1.7294950419418076e+18,-0.022206630557775497,0.0021347233559936285,0.0035552980843931437
1.7294950419508078e+18,-0.024691009894013405,-0.0009440439753234386,0.002336280420422554
1.729495041959808e+18,-0.026919173076748848,0.0036598751321434975,0.0024866964668035507
1.7294950419688082e+18,-0.030110960826277733,0.0007245897431857884,0.0032634795643389225
1.7294950419748083e+18,-0.030827978625893593,-0.002254393184557557,0.003975957632064819
1.7294950419838085e+18,-0.03312959894537926,0.0016534366877749562,0.002888092305511236
1.7294950419928087e+18,-0.03009532392024994,0.003880669828504324,0.006422060541808605
1.729495042001809e+18,-0.03416064754128456,0.0031330683268606663,0.0032061459496617317
1.729495042010809e+18,-0.031769588589668274,0.001192143652588129,0.004188132472336292
1.7294950420198093e+18,-0.03286277875304222,0.0018367128213867545,0.005033040419220924
1.7294950420288095e+18,-0.03643382340669632,-0.0018873268272727728,0.00473806681111455
1.7294950420348096e+18,-0.035596322268247604,0.0003685120027512312,0.003961130976676941
1.7294950420438098e+18,-0.034163180738687515,0.003936127293854952,0.006048599258065224
1.72949504205281e+18,-0.03581981360912323,0.008098031394183636,0.005013360176235437
1.72949504205881e+18,-0.03609918802976608,0.005658301524817944,0.004887344781309366
1.7294950420678103e+18,-0.034684620797634125,0.005985833238810301,0.0042127338238060474
1.7294950420768105e+18,-0.03532431274652481,0.004169168882071972,0.0018119385931640863
1.7294950420828106e+18,-0.0360591821372509,0.002832134487107396,0.00466614356264472
1.7294950420918108e+18,-0.03711135312914848,0.0022769791539758444,0.0046985256485641
1.729495042100811e+18,-0.0381307378411293,0.0016524558886885643,0.0007198425009846687
1.7294950421068111e+18,-0.0372491329908371,0.002771137747913599,0.007030194625258446
1.7294950421158113e+18,-0.03805198520421982,0.0036862455308437347,0.006326818838715553
1.7294950421248115e+18,-0.036491673439741135,0.006692699156701565,0.005959526635706425
1.7294950421338117e+18,-0.03474721312522888,0.008926091715693474,0.0058753308840096
1.729495042142812e+18,-0.03510597348213196,0.0066178953275084496,0.0056319166906178
1.729495042148812e+18,-0.036338627338409424,0.004595646634697914,0.002926197135820985
1.7294950421578122e+18,-0.03637760132551193,0.0025697434321045876,0.0028236997313797474
1.7294950421668124e+18,-0.03856503218412399,0.0021371012553572655,0.006414451636373997
1.7294950421758126e+18,-0.03759866952896118,0.002677168231457472,0.005824589636176825
1.7294950421818127e+18,-0.039079613983631134,0.0005271162372082472,0.005222577601671219
1.729495042190813e+18,-0.0317344106733799,0.005318640731275082,0.006352744530886412
1.729495042199813e+18,-0.03673966974020004,0.004631722345948219,0.0063448622822761536
1.7294950422088133e+18,-0.033086758106946945,0.0009111772524192929,0.004109187517315149
1.7294950422148134e+18,-0.03475650027394295,-0.00017281342297792435,0.001546115381643176
1.7294950422268137e+18,-0.030907252803444862,-0.0012663929956033826,0.00760701484978199
1.7294950422328138e+18,-0.03266248479485512,-0.0030777319334447384,0.005637734197080135
1.729495042241814e+18,-0.03018963150680065,-0.004165048245340586,0.002560729393735528
1.7294950422508142e+18,-0.03353900834918022,-0.0029898989014327526,0.00405352795496583
1.7294950422598144e+18,-0.03128519281744957,-0.005313066300004721,0.0021273260936141014
1.7294950422688146e+18,-0.032037992030382156,-0.002869901480153203,0.005592145025730133
1.7294950422778148e+18,-0.027825649827718735,-7.079681381583214e-06,0.003737934399396181
1.729495042286815e+18,-0.02979181334376335,-0.002393073868006468,0.005812091752886772
1.7294950422958152e+18,-0.02753930725157261,-0.004115653224289417,0.005873310845345259
1.7294950423048154e+18,-0.02964322455227375,-0.006156768184155226,0.005492876283824444
1.7294950423108155e+18,-0.02587072178721428,-0.006019952706992626,0.002440237207338214
1.7294950423198157e+18,-0.030384166166186333,-0.004965153522789478,0.005631864070892334
1.7294950423288159e+18,-0.03040519915521145,-0.006921376101672649,0.0037422627210617065
1.729495042337816e+18,-0.03285219892859459,-0.007313759531825781,0.0034916545264422894
1.7294950423468163e+18,-0.030136873945593834,-0.012145547196269035,0.007501594256609678
1.7294950423558164e+18,-0.0287611186504364,-0.007421411108225584,0.004518537316471338
1.7294950423648166e+18,-0.027519190683960915,-0.010662642307579517,0.0071341488510370255
1.7294950423738168e+18,-0.027010995894670486,-0.012551292777061462,0.007499196566641331
1.729495042382817e+18,-0.029389409348368645,-0.011782079003751278,0.004267936106771231
1.7294950423918172e+18,-0.03647187352180481,-0.013855159282684326,0.0026804220397025347
1.7294950424008174e+18,-0.03429107740521431,-0.014441144652664661,0.005443560890853405
1.7294950424098176e+18,-0.03662814572453499,-0.014271202497184277,0.002545921830460429
1.7294950424188178e+18,-0.03104628436267376,-0.011235589161515236,0.0065479339100420475
1.729495042424818e+18,-0.027455046772956848,-0.013495591469109058,0.005466200411319733
1.729495042433818e+18,-0.029265617951750755,-0.010393936187028885,0.0022279529366642237
1.7294950424428183e+18,-0.024344516918063164,-0.009768015705049038,0.002614797791466117
1.7294950424518185e+18,-0.03096768818795681,-0.014020871371030807,0.004804450087249279
1.7294950424608187e+18,-0.03184351697564125,-0.013107310980558395,0.005026606377214193
1.729495042469819e+18,-0.03333670273423195,-0.014055284671485424,0.0055322470143437386
1.729495042478819e+18,-0.03251105919480324,-0.01689121685922146,0.005926216021180153
1.7294950424878193e+18,-0.029504086822271347,-0.013988601043820381,0.006248501595109701
1.7294950424968195e+18,-0.02931394800543785,-0.014748455956578255,0.006973917596042156
1.7294950425058196e+18,-0.030684899538755417,-0.017431385815143585,0.006914527155458927
1.7294950425148198e+18,-0.029935618862509727,-0.012918445281684399,0.001813995186239481
1.72949504252382e+18,-0.029526421800255775,-0.017450835555791855,0.005829279311001301
1.7294950425298202e+18,-0.031461216509342194,-0.017487578094005585,0.0030625914223492146
1.7294950425418204e+18,-0.028433727100491524,-0.013845332898199558,0.00537764560431242
1.7294950425478205e+18,-0.03081987053155899,-0.013832355849444866,0.005130632780492306
1.7294950425598208e+18,-0.029340963810682297,-0.015500184148550034,0.002280744258314371
1.729495042565821e+18,-0.02772349864244461,-0.016506541520357132,0.001633965177461505
1.729495042574821e+18,-0.027887659147381783,-0.01462144497781992,0.0034449263475835323
1.7294950425838213e+18,-0.025602716952562332,-0.015757497400045395,-0.0001462288200855255
1.7294950425928215e+18,-0.02680233307182789,-0.016699258238077164,0.004688640590757132
1.7294950426018217e+18,-0.029860209673643112,-0.014872034080326557,0.004050564952194691
1.729495042610822e+18,-0.025705434381961823,-0.020578067749738693,0.002597775775939226
1.729495042619822e+18,-0.025101592764258385,-0.016839811578392982,0.004712311085313559
1.7294950426288223e+18,-0.023675860837101936,-0.016812244430184364,0.003244218183681369
1.7294950426378225e+18,-0.024266935884952545,-0.01761545054614544,0.002921771490946412
1.7294950426438226e+18,-0.02122511714696884,-0.018692992627620697,0.0022170376032590866
1.7294950426528228e+18,-0.025003405287861824,-0.0212099626660347,0.0024496824480593204
1.729495042664823e+18,-0.03128589317202568,-0.023010743781924248,0.0042146360501646996
1.7294950426738232e+18,-0.028727903962135315,-0.019766364246606827,0.004140353295952082
1.7294950426828234e+18,-0.03024493344128132,-0.01709594950079918,0.004848291166126728
1.7294950426888236e+18,-0.02547307312488556,-0.014625162817537785,0.004511530045419931
1.7294950426978237e+18,-0.023945942521095276,-0.02014225721359253,0.003052429761737585
1.729495042706824e+18,-0.02534300833940506,-0.020728928968310356,0.00397900165989995
1.729495042715824e+18,-0.020728951320052147,-0.018861807882785797,0.0052154832519590855
1.7294950427248243e+18,-0.022038931027054787,-0.023608790710568428,0.0016449687536805868
1.7294950427338245e+18,-0.027019314467906952,-0.027157848700881004,0.005009165499359369
1.7294950427458248e+18,-0.026984483003616333,-0.025146719068288803,0.006310477387160063
1.729495042754825e+18,-0.027248822152614594,-0.02226090244948864,0.005109743215143681
1.7294950427638252e+18,-0.02166478894650936,-0.019453255459666252,0.0030748608987778425
1.7294950427698253e+18,-0.01835545524954796,-0.021490657702088356,0.003306889906525612
1.7294950427788255e+18,-0.01766124926507473,-0.02560155652463436,0.004577152896672487
1.7294950427878257e+18,-0.019601741805672646,-0.02341623604297638,0.004291206132620573
1.7294950427968259e+18,-0.024090049788355827,-0.027611298486590385,0.002891089068725705
1.729495042802826e+18,-0.023149173706769943,-0.0254387054592371,0.0029832986183464527
1.7294950428118262e+18,-0.026386860758066177,-0.024562401697039604,0.002006648574024439
1.7294950428208264e+18,-0.02154536545276642,-0.02311491034924984,0.0009859169367700815
1.7294950428298266e+18,-0.022435614839196205,-0.02117353305220604,0.0030537135899066925
1.7294950428388268e+18,-0.01311279647052288,-0.02306572161614895,0.00487983413040638
1.729495042844827e+18,-0.019556092098355293,-0.025128507986664772,0.0033861256670206785
1.729495042853827e+18,-0.019420122727751732,-0.02517729625105858,0.0032256317790597677
1.7294950428628273e+18,-0.021581023931503296,-0.025911657139658928,0.0038620103150606155
1.7294950428688274e+18,-0.024625755846500397,-0.029037002474069595,0.0026003664825111628
1.7294950428778276e+18,-0.022680558264255524,-0.02865566685795784,0.003895148867741227
1.7294950428868278e+18,-0.025004934519529343,-0.027788562700152397,0.0009093269472941756
1.729495042895828e+18,-0.023411480709910393,-0.025692934170365334,0.0022310190834105015
1.729495042901828e+18,-0.020471064373850822,-0.024425415322184563,-0.0002695696894079447
1.7294950429108283e+18,-0.017669647932052612,-0.02277044951915741,0.0016714666271582246
1.7294950429198285e+18,-0.017592139542102814,-0.023869995027780533,0.0004653583746403456
1.7294950429288287e+18,-0.015459288842976093,-0.02234480530023575,0.00041583250276744366
1.7294950429348288e+18,-0.01893043890595436,-0.023299841210246086,0.00029229396022856236
1.729495042943829e+18,-0.01943361386656761,-0.02648494765162468,-2.618483267724514e-05
1.729495042949829e+18,-0.020259369164705276,-0.024109406396746635,0.0012290629092603922
1.7294950429588293e+18,-0.021771913394331932,-0.026496591046452522,0.0037472122348845005
1.7294950429678295e+18,-0.018767984583973885,-0.02801584079861641,0.0038214237429201603
1.7294950429768297e+18,-0.01817268319427967,-0.027621794492006302,0.005323439836502075
1.72949504298583e+18,-0.017782868817448616,-0.025970103219151497,0.005798565223813057
1.72949504299183e+18,-0.017336981371045113,-0.025346960872411728,0.003693695180118084
1.7294950430008302e+18,-0.016614209860563278,-0.02532508596777916,-0.00010118610225617886
1.7294950430098304e+18,-0.017365654930472374,-0.02718188986182213,-0.0002329195849597454
1.7294950430158305e+18,-0.019209662452340126,-0.027537569403648376,0.004440258722752333
1.7294950430248307e+18,-0.01764194667339325,-0.028006501495838165,0.003418702632188797
1.729495043033831e+18,-0.014888986013829708,-0.028300201520323753,0.002905892441049218
1.729495043042831e+18,-0.013064216822385788,-0.02592042274773121,-0.00022799917496740818
1.7294950430518313e+18,-0.009591742418706417,-0.024402864277362823,0.001605103025212884
1.7294950430608315e+18,-0.012356037274003029,-0.02162186987698078,0.003895413363352418
1.7294950430698317e+18,-0.012991026975214481,-0.022609617561101913,0.0014925786526873708
1.7294950430788319e+18,-0.021073253825306892,-0.02276417426764965,0.0037821405567228794
1.729495043084832e+18,-0.019410718232393265,-0.025103475898504257,0.003199612256139517
1.7294950430938322e+18,-0.01645016297698021,-0.02896285057067871,0.0004691157955676317
1.7294950431028324e+18,-0.013937948271632195,-0.027410298585891724,0.0016469100955873728
1.7294950431118326e+18,-0.010777238756418228,-0.027340345084667206,0.004600982181727886
1.7294950431208328e+18,-0.010102284140884876,-0.025336096063256264,0.00033377809450030327
1.729495043126833e+18,-0.011125041171908379,-0.02304479107260704,0.004289115313440561
1.729495043135833e+18,-0.00912036094814539,-0.023744618520140648,0.002086475258693099
1.7294950431448333e+18,-0.015070682391524315,-0.01948150247335434,0.0017480376409366727
1.7294950431538335e+18,-0.01109805516898632,-0.022398579865694046,0.002608043607324362
1.7294950431628337e+18,-0.011002170853316784,-0.026510372757911682,-0.0005864729173481464
1.7294950431718339e+18,-0.012128603644669056,-0.02760475128889084,0.0028607165440917015
1.729495043177834e+18,-0.01047169417142868,-0.024831047281622887,0.0014414363540709019
1.7294950431868342e+18,-0.007770966738462448,-0.023587938398122787,0.000945765757933259
1.7294950431958344e+18,-0.006529269739985466,-0.022695204243063927,0.0023978406097739935
1.7294950432018345e+18,-0.0046976781450212,-0.02137034200131893,0.001118441578000784
1.7294950432108347e+18,-0.003071028972044587,-0.017514044418931007,0.0018178403843194246
1.729495043219835e+18,-0.005035971291363239,-0.02389870211482048,0.000318408478051424
1.729495043228835e+18,-0.01093811634927988,-0.023282498121261597,0.0013321791775524616
1.7294950432378353e+18,-0.009808610193431377,-0.026650018990039825,-0.0013387772487476468
1.7294950432468355e+18,-0.010998128913342953,-0.025388255715370178,0.006822079420089722
1.7294950432528356e+18,-0.007786898873746395,-0.027681324630975723,0.001714356942102313
1.7294950432618358e+18,-0.009236297570168972,-0.022874442860484123,0.0016603368567302823
1.729495043270836e+18,-0.0025269342586398125,-0.02546788565814495,-0.003030697349458933
1.7294950432798362e+18,-0.001928682904690504,-0.020479785278439522,0.0025670097675174475
1.7294950432888364e+18,-0.004666328430175781,-0.023017195984721184,0.0028065480291843414
1.7294950432978365e+18,-0.00618850439786911,-0.025012776255607605,0.0004995537456125021
1.7294950433068367e+18,-0.006813883315771818,-0.025584006682038307,0.0016351346857845783
1.729495043315837e+18,-0.008730386383831501,-0.024011721834540367,-0.0006399382837116718
1.729495043321837e+18,-0.006760374642908573,-0.023937679827213287,0.002617194317281246
1.7294950433308372e+18,-0.0032255344558507204,-0.019857630133628845,0.0011563955340534449
1.7294950433398374e+18,-0.00217280606739223,-0.016529057174921036,0.0012545028002932668
1.7294950433488376e+18,-0.0029309303499758244,-0.015066441148519516,0.0022685665171593428
1.7294950433578378e+18,-0.002965386025607586,-0.01636723056435585,0.002679792232811451
1.729495043366838e+18,-0.002913174917921424,-0.020076585933566093,0.003998068161308765
1.7294950433758382e+18,-0.0044922782108187675,-0.021219154819846153,0.0006241610390134156
1.7294950433848384e+18,-0.0038140835240483284,-0.02196526899933815,0.00408818107098341
1.7294950433938386e+18,-0.002100622747093439,-0.02161305770277977,0.0006370796472765505
1.7294950433998387e+18,-0.0014800725039094687,-0.022880414500832558,0.003343017306178808
1.729495043408839e+18,0.000657351512927562,-0.0158433485776186,0.003145241877064109
1.729495043417839e+18,-0.00029143202118575573,-0.016110949218273163,0.0013758520362898707
1.7294950434238392e+18,0.00048522755969315767,-0.014572883024811745,0.00040818715933710337
1.7294950434328394e+18,0.0014443180989474058,-0.016611212864518166,0.003383175004273653
1.7294950434418396e+18,-0.0005919212126173079,-0.017066940665245056,0.0010828367667272687
1.7294950434508398e+18,0.0035817346069961786,-0.017112957313656807,-7.943343371152878e-05
1.72949504345984e+18,-0.0023544447030872107,-0.020078429952263832,0.0020086339209228754
1.7294950434688402e+18,0.0006926176138222218,-0.018064873293042183,-0.00254489341750741
1.7294950434748403e+18,-0.00239764922298491,-0.01716909185051918,-0.003026355989277363
1.7294950434838405e+18,0.0016223123529925942,-0.01881699077785015,0.002210560953244567
1.7294950434928407e+18,0.004206020385026932,-0.016817204654216766,0.00028260110411792994
1.729495043501841e+18,0.003619485767558217,-0.018335988745093346,0.0008313371799886227
1.729495043510841e+18,0.00453833257779479,-0.018766190856695175,0.0011479111853986979
1.7294950435168412e+18,0.005502193700522184,-0.023537764325737953,0.0017215014668181539
1.7294950435258414e+18,0.005311025306582451,-0.020460059866309166,-0.0012808215105906129
1.7294950435348416e+18,-0.0008096697274595499,-0.02241143397986889,0.003295276779681444
1.7294950435408417e+18,0.002584651578217745,-0.019010568037629128,0.001072217128239572
1.729495043549842e+18,0.002485766774043441,-0.01572280004620552,0.0033354186452925205
1.729495043558842e+18,0.0022930381819605827,-0.013478787615895271,0.0004910017596557736
1.7294950435648422e+18,0.001771335257217288,-0.015107600018382072,0.0016576594207435846
1.7294950435738424e+18,0.004254022613167763,-0.01599590852856636,0.000260891392827034
1.7294950435828426e+18,0.005420089699327946,-0.01542829442769289,0.0029974677599966526
1.7294950435918428e+18,0.00770960096269846,-0.013553065247833729,0.0035776435397565365
1.729495043600843e+18,0.009122150018811226,-0.014275113120675087,0.004218099173158407
1.7294950436098432e+18,0.0059631867334246635,-0.013103601522743702,6.9248490035533905e-06
1.7294950436158433e+18,0.0062856427393853664,-0.011152941733598709,0.0011141187278553843
1.7294950436248435e+18,0.0048810685984790325,-0.010339271277189255,0.0021878571715205908
1.7294950436338437e+18,0.0038565562572330236,-0.013007044792175293,-0.0018531661480665207
1.729495043642844e+18,0.0063372342847287655,-0.013810241594910622,-0.00261132325977087
1.729495043651844e+18,0.006561294198036194,-0.013124454766511917,-0.0013310075737535954
1.7294950436578442e+18,0.007629522122442722,-0.010307760909199715,0.0028418651781976223
1.7294950436668444e+18,0.007281928323209286,-0.013567633926868439,0.002948249690234661
1.7294950436758446e+18,0.00784897431731224,-0.01348796859383583,0.0025098626501858234
1.7294950436848448e+18,0.007795996963977814,-0.013317635282874107,-1.1954805813729763e-05
1.729495043693845e+18,0.010051595978438854,-0.015271777287125587,-0.0011044302955269814
1.7294950437028452e+18,0.007528697140514851,-0.014780293218791485,0.0019251739140599966
1.7294950437088453e+18,0.008570214733481407,-0.01336745172739029,0.0016094367019832134
1.7294950437178455e+18,0.007369231898337603,-0.010708966292440891,0.0025458899326622486
1.7294950437268457e+18,0.007226799614727497,-0.009049375541508198,0.0036166736390441656
1.7294950437328458e+18,0.010195803828537464,-0.01164123136550188,0.0033837694209069014
1.729495043741846e+18,0.01303855236619711,-0.00863757636398077,0.0024147513322532177
1.7294950437508462e+18,0.01654084213078022,-0.010390953160822392,0.0029529554303735495
1.7294950437598464e+18,0.015835044905543327,-0.006154821254312992,0.0025160538498312235
1.7294950437688466e+18,0.017856456339359283,-0.004910525865852833,-0.0001849955297075212
1.7294950437778468e+18,0.01120667066425085,-0.010349794290959835,0.002816104795783758
1.729495043786847e+18,0.0076308948919177055,-0.010107817128300667,-0.00016026821685954928
1.729495043792847e+18,0.007855349220335484,-0.01129809208214283,0.0017400297801941633
1.7294950438018473e+18,0.008769955486059189,-0.011739618144929409,0.0006207417463883758
1.7294950438108475e+18,0.012090904638171196,-0.012768914923071861,0.0009033884853124619
1.7294950438198477e+18,0.01193932257592678,-0.007655699737370014,0.001195814460515976
1.7294950438258478e+18,0.01569182798266411,-0.01065395399928093,-0.0016073938459157944
1.729495043834848e+18,0.013178722932934761,-0.007524918764829636,0.00044347328366711736
1.7294950438438482e+18,0.01296604797244072,-0.011274229735136032,-0.000540848181117326
1.7294950438528484e+18,0.01072033029049635,-0.011567743495106697,0.0001841678749769926
1.7294950438588485e+18,0.00656908331438899,-0.014434204436838627,-0.0011933849891647696
1.7294950438678487e+18,0.003756036050617695,-0.017148464918136597,7.206102600321174e-05
1.729495043876849e+18,0.0055982680059969425,-0.01184444036334753,-0.0012052874080836773
1.729495043885849e+18,0.008217534981667995,-0.013390769250690937,0.00026185260503552854
1.7294950438948493e+18,0.013294469565153122,-0.00729806674644351,0.0012727658031508327
1.7294950439038495e+18,0.013454682193696499,-0.007552405819296837,-0.0005730075063183904
1.7294950439098496e+18,0.01426439918577671,-0.008388303220272064,0.001460739062167704
1.7294950439188498e+18,0.009455114603042603,-0.009341959841549397,0.0008890803437680006
1.72949504392785e+18,0.009789957664906979,-0.012292672879993916,0.0013906729873269796
1.7294950439368502e+18,0.003989890217781067,-0.014459511265158653,0.0003228977438993752
1.7294950439458504e+18,0.006790425628423691,-0.01018154714256525,0.0015937432181090117
1.7294950439548506e+18,0.010499976575374603,-0.008851137943565845,-0.0013257738901302218
1.7294950439608507e+18,0.00845443457365036,-0.007328376639634371,-0.0013451360864564776
1.729495043969851e+18,0.012946448288857937,-0.004156968090683222,-0.00120348681230098
1.729495043978851e+18,0.01505355816334486,-0.003198520513251424,0.0007019260665401816
1.7294950439878513e+18,0.006906506139785051,-0.004062460735440254,0.0011244108900427818
1.7294950439938514e+18,0.00340674608014524,-0.0013903486542403698,-9.52943810261786e-06
1.7294950440028516e+18,0.003145120572298765,-0.004831638652831316,0.0016973739257082343
1.7294950440118518e+18,0.00412376644089818,-0.004369763191789389,0.0003238800272811204
1.729495044020852e+18,0.008252047933638096,-0.00588477635756135,-0.0008139688288792968
1.729495044026852e+18,0.010952903889119625,-0.00024181697517633438,-0.00022143215755932033
1.7294950440358523e+18,0.013774031773209572,-0.0012628030963242054,0.0019832910038530827
1.7294950440448525e+18,0.014603524468839169,0.00046412405208684504,0.0021178319584578276
1.7294950440538527e+18,0.012808515690267086,0.0016009955434128642,0.00040488201193511486
1.729495044065853e+18,0.011307965964078903,0.0008151847869157791,0.000197053566807881
1.729495044074853e+18,0.00762505317106843,-0.0012690480798482895,-0.0006468459032475948
1.7294950440838533e+18,0.006874904967844486,0.0010781611781567335,-0.002435012487694621
1.7294950440928535e+18,0.015306411311030388,0.00030078436248004436,0.0026490266900509596
1.7294950441018537e+18,0.013477956876158714,0.000427913386374712,0.0004691274370998144
1.729495044110854e+18,0.01622133143246174,0.00303940218873322,-0.0026650470681488514
1.729495044119854e+18,0.013966423459351063,0.0037580851931124926,0.0003962619521189481
1.7294950441288543e+18,0.01623963564634323,0.004507784266024828,-0.00015559034363832325
1.7294950441348544e+18,0.01486262772232294,0.0037827114574611187,-0.0030552935786545277
1.7294950441438546e+18,0.012657728977501392,0.003200078383088112,-0.001029590843245387
1.7294950441528548e+18,0.013291389681398869,0.0030179698951542377,-0.0018386875744909048
1.729495044161855e+18,0.012909920886158943,0.003651790088042617,0.0013026893138885498
1.729495044167855e+18,0.015340414829552174,0.0008725861553102732,0.0020751950796693563
1.7294950441768553e+18,0.013854464516043663,0.005282986909151077,-0.001002011471427977
1.7294950441858555e+18,0.012404056265950203,0.005986651871353388,0.0014759956393390894
1.7294950441948557e+18,0.014788955450057983,0.005726180970668793,-0.000393109570723027
1.729495044203856e+18,0.014377783983945847,0.003950346261262894,0.00044639685074798763
1.729495044212856e+18,0.014583729207515717,0.005467154551297426,0.001582417287863791
1.7294950442218563e+18,0.01256007980555296,0.0018150699324905872,0.002134996233507991
1.7294950442308564e+18,0.014060117304325104,0.007064228877425194,-0.00211492576636374
1.7294950442368566e+18,0.0156836099922657,0.001367870718240738,-0.000326138106174767
1.7294950442458568e+18,0.01427958533167839,0.007022265810519457,0.0008204629993997514
1.729495044254857e+18,0.017812732607126236,0.008706212975084782,0.000576155143789947
1.7294950442638572e+18,0.012725080363452435,0.00996922142803669,-0.0008547903853468597
1.7294950442698573e+18,0.016299281269311905,0.0065417480655014515,0.002196519635617733
1.7294950442788575e+18,0.016269849613308907,0.005621594376862049,-0.0020964378491044044
1.7294950442878577e+18,0.012829266488552094,0.004755240399390459,-0.0012103765038773417
1.7294950442968579e+18,0.015356174670159817,-0.00027153000701218843,-0.0014158018166199327
1.729495044305858e+18,0.01798623986542225,0.0038143957499414682,-0.004171630833297968
1.7294950443118582e+18,0.014208300970494747,0.0032625547610223293,-0.0019430728862062097
1.7294950443208584e+18,0.015715744346380234,0.0042235758155584335,0.0004813834384549409
1.7294950443298586e+18,0.020353853702545166,0.0070277913473546505,-0.0016401951434090734
1.7294950443358587e+18,0.019634734839200974,0.008937881328165531,0.000818701577372849
1.729495044344859e+18,0.0200229212641716,0.011102098971605301,0.002756158821284771
1.729495044353859e+18,0.01333807036280632,0.00552885327488184,-0.00115764862857759
1.7294950443628593e+18,0.014437191188335419,0.003976010717451572,-0.0012938411673530936
1.7294950443718595e+18,0.015135175548493862,0.0010911411372944713,-0.001040408038534224
1.7294950443808596e+18,0.013351188972592354,0.0023951628245413303,0.0011493307538330555
1.7294950443898598e+18,0.014845765195786953,0.002982728648930788,-0.0004649877664633095
1.72949504439886e+18,0.01734466291964054,0.007376291789114475,0.00043513672426342964
1.7294950444048602e+18,0.016688980162143707,0.0030522753950208426,-0.0011535519734025002
1.7294950444138604e+18,0.016498064622282982,0.010607318952679634,-0.0007901426870375872
1.7294950444228605e+18,0.014319684356451035,0.0062812576070427895,-0.002425019396468997
1.7294950444288607e+18,0.014272993430495262,0.007666402962058783,-0.0005810734000988305
1.7294950444378609e+18,0.014513120986521244,0.007668104488402605,-0.0021973473485559225
1.729495044446861e+18,0.01081864070147276,0.00804954208433628,-0.0017549967160448432
1.7294950444558612e+18,0.011598676443099976,0.008018440566956997,0.0029805591329932213
1.7294950444648614e+18,0.011833783239126205,0.011498752981424332,0.0009322620462626219
1.7294950444708616e+18,0.013989194296300411,0.010619409382343292,0.0019911613781005144
1.7294950444798618e+18,0.014234058558940887,0.013547451235353947,-0.001072795712389052
1.729495044488862e+18,0.015869267284870148,0.009753969497978687,-3.3534946851432323e-05
1.729495044494862e+18,0.014553476125001907,0.005570012144744396,-0.0006928003276698291
1.7294950445038623e+18,0.016449810937047005,0.007044176571071148,-0.0003520724712871015
1.7294950445128625e+18,0.014699714258313179,0.007250901311635971,-0.0033853743225336075
1.7294950445218627e+18,0.010122762061655521,0.006559738423675299,-0.0003143962530884892
1.7294950445278628e+18,0.011980907060205936,0.007706002332270145,-0.0002862238616216928
1.729495044536863e+18,0.012753352522850037,0.008200721815228462,-0.0011358136544004083
1.7294950445458632e+18,0.010614452883601189,0.011360786855220795,-0.000696002971380949
1.7294950445518633e+18,0.012592269107699394,0.009526058100163937,0.0008639913867227733
1.7294950445608635e+18,0.013825072906911373,0.009617837145924568,0.003029336454346776
1.7294950445698637e+18,0.014429285190999508,0.010699591599404812,-0.0014604022726416588
1.7294950445788639e+18,0.015132077038288116,0.010468875989317894,0.0006312605692073703
1.729495044587864e+18,0.01922253705561161,0.012350720353424549,0.0021300152875483036
1.7294950445938642e+18,0.01022171601653099,0.012065360322594643,0.0013817395083606243
1.7294950446028644e+18,0.01087208092212677,0.012969188392162323,0.0012488092761486769
1.7294950446088645e+18,0.009689669124782085,0.012067439034581184,0.0005885249120183289
1.7294950446178647e+18,0.012588739395141602,0.011383784003555775,0.000854358309879899
1.729495044626865e+18,0.015038641169667244,0.010897530242800713,-0.00022418357548303902
1.729495044632865e+18,0.01739245466887951,0.013584267348051071,-0.00048152884119190276
1.7294950446418652e+18,0.015250287018716335,0.014699616469442844,-0.0020414746832102537
1.7294950446478653e+18,0.01819710247218609,0.011915767565369606,0.0013336234260350466
1.7294950446568655e+18,0.013531068339943886,0.014319309033453465,0.0017866301350295544
1.7294950446658657e+18,0.015226651914417744,0.015256939455866814,0.0010488071711733937
1.729495044674866e+18,0.011766724288463593,0.013114195317029953,-0.00280114752240479
1.729495044683866e+18,0.011557092890143394,0.01251212041825056,-0.001668896758928895
1.7294950446928663e+18,0.01318545825779438,0.01391705684363842,-0.0022346011828631163
1.7294950447018665e+18,0.016863452270627022,0.01601480320096016,-0.00023723047343082726
1.7294950447078666e+18,0.013544315472245216,0.016268594190478325,-0.0008940331754274666
1.7294950447168668e+18,0.010586295276880264,0.011795996688306332,-0.00010473630391061306
1.729495044725867e+18,0.011649949476122856,0.014159318059682846,0.0005405180854722857
1.7294950447318671e+18,0.010411335155367851,0.011706589721143246,-0.001993804005905986
1.7294950447408673e+18,0.008912073448300362,0.013642789795994759,-5.0965987611562014e-05
1.7294950447468675e+18,0.01180008053779602,0.012729363515973091,0.0010651322081685066
1.7294950447558676e+18,0.011908786371350288,0.01547287032008171,-0.00010725850006565452
1.7294950447648678e+18,0.015626240521669388,0.016612935811281204,0.000818004657048732
1.729495044770868e+18,0.012939191423356533,0.012926612049341202,0.0004460896016098559
1.7294950447798682e+18,0.013746973127126694,0.015622341074049473,-0.0021956362761557102
1.7294950447888684e+18,0.00960744172334671,0.013003712520003319,0.00039242400089278817
1.7294950447978685e+18,0.00547605799511075,0.014807750470936298,-0.0015393613139167428
1.7294950448068687e+18,0.008907615207135677,0.013203369453549385,0.003023638855665922
1.7294950448128689e+18,0.01146627962589264,0.016299039125442505,0.00042554427636787295
1.729495044821869e+18,0.014247093349695206,0.013271474279463291,-0.0006950437091290951
1.7294950448278692e+18,0.011991726234555244,0.013082193210721016,0.000645786349195987
1.7294950448368694e+18,0.013121583499014378,0.014026140794157982,-0.00045291020069271326
1.7294950448458696e+18,0.014262530952692032,0.015948789194226265,0.00045451289042830467
1.7294950448518697e+18,0.010095566511154175,0.017581377178430557,-0.0006762434495612979
1.72949504486087e+18,0.008990893140435219,0.013459294103085995,-0.0027076222468167543
1.72949504486987e+18,0.010204216465353966,0.016715949401259422,-0.0010538434144109488
1.7294950448788703e+18,0.010628554970026016,0.015604580752551556,-0.0026489063166081905
1.7294950448908705e+18,0.009058881551027298,0.015321165323257446,-9.265320841223001e-06
1.7294950448998707e+18,0.010945885442197323,0.016428237780928612,-0.0032808079849928617
1.7294950449058708e+18,0.01441368367522955,0.01925727352499962,0.00150969997048378
1.729495044914871e+18,0.013602803461253643,0.017878426238894463,-0.0034401898737996817
1.7294950449268713e+18,0.01344504114240408,0.01941891573369503,-0.0015236082253977656
1.7294950449358715e+18,0.013137472793459892,0.017606746405363083,-0.0008078652899712324
1.7294950449448717e+18,0.012164047919213772,0.016497494652867317,-0.004822471644729376
1.729495044953872e+18,0.009983096271753311,0.01588010974228382,-0.0027200402691960335
1.729495044965872e+18,0.00829348061233759,0.013136669062077999,-0.0040747676976025105
1.7294950449748723e+18,0.007645935285836458,0.013561483472585678,-0.0022712263744324446
1.7294950449838725e+18,0.007681357208639383,0.01770363748073578,0.00013809534721076488
1.7294950449958728e+18,0.012972366996109486,0.01708167791366577,-0.00032946892315521836
1.729495045004873e+18,0.013218981213867664,0.017183881253004074,0.0012071100063621998
1.7294950450138732e+18,0.01312996819615364,0.017741262912750244,-0.0019586000125855207
1.7294950450228733e+18,0.010325864888727665,0.014574305154383183,-0.003808994311839342
1.7294950450318735e+18,0.007503790315240622,0.011670304462313652,-0.00013810524251312017
1.7294950450408737e+18,0.004402564838528633,0.01206680666655302,0.001438898267224431
1.729495045049874e+18,0.009445039555430412,0.011633950285613537,0.0018353533232584596
1.729495045058874e+18,0.006612572818994522,0.013263591565191746,0.003126028925180435
1.7294950450678743e+18,0.01080354955047369,0.014842143282294273,-0.002724746009334922
1.7294950450768745e+18,0.012968032620847225,0.014569022692739964,-0.0013208671007305384
1.7294950450888748e+18,0.01251816377043724,0.016414716839790344,-0.0023278582375496626
1.729495045097875e+18,0.007223721593618393,0.017207426950335503,-0.0006446480401791632
1.7294950451068751e+18,0.008158639073371887,0.017483554780483246,0.00128488102927804
1.7294950451158753e+18,0.007469554431736469,0.012261851690709591,-0.0025161132216453552
1.7294950451218755e+18,0.009310583584010601,0.013776907697319984,-0.00012056241394020617
1.7294950451338757e+18,0.0105744618922472,0.011479299515485764,-0.0007663649739697576
1.729495045142876e+18,0.007605323567986488,0.011762798763811588,-0.0004968919092789292
1.729495045151876e+18,0.008384071290493011,0.01526668667793274,-0.0009421352879144251
1.7294950451608763e+18,0.009316097013652325,0.013794920407235622,-0.003938536159694195
1.7294950451698765e+18,0.005777130369096994,0.015975145623087883,-0.0016701743006706238
1.7294950451788767e+18,0.009006893262267113,0.015762655064463615,0.0022558080963790417
1.7294950451878769e+18,0.009285755455493927,0.012212838977575302,-0.0016657975502312183
1.729495045196877e+18,0.010283760726451874,0.012808174826204777,0.00173483625985682
1.7294950452058772e+18,0.010726711712777615,0.016375083476305008,-0.0023819373454898596
1.7294950452148774e+18,0.011700536124408245,0.011938806623220444,0.002221500501036644
1.7294950452238776e+18,0.011845627799630165,0.01757914572954178,0.0005601462908089161
1.7294950452328778e+18,0.005885059013962746,0.017007244750857353,-0.00036722273216582835
1.729495045241878e+18,0.009425354190170765,0.014978651888668537,0.0011208936339244246
1.7294950452508782e+18,0.00636524660512805,0.013994518667459488,-0.00020060231327079237
1.7294950452598784e+18,0.008854369632899761,0.012893885374069214,-0.0019384592305868864
1.7294950452688786e+18,0.006035482045263052,0.011818436905741692,0.0005231748218648136
1.7294950452778788e+18,0.004054915625602007,0.015845170244574547,-0.001476973993703723
1.729495045286879e+18,0.006436696741729975,0.014637975953519344,-0.0009686554549261928
1.7294950452958792e+18,0.0068219322711229324,0.01408818643540144,0.0012138714082539082
1.7294950453018793e+18,0.008747718296945095,0.01384770218282938,0.0016530215507373214
1.7294950453108795e+18,0.007963985204696655,0.01165761984884739,-0.002520042471587658
1.7294950453198797e+18,0.008689457550644875,0.01102185808122158,0.00238369544968009
1.7294950453288799e+18,0.0040463637560606,0.01376351062208414,-0.0006891243392601609
1.72949504533488e+18,0.005530247464776039,0.015567111782729626,0.0034107069950550795
1.7294950453438802e+18,0.003481888212263584,0.012685522437095642,0.0007628598250448704
1.7294950453528804e+18,0.001379983383230865,0.015310512855648994,0.00033246411476284266
1.7294950453588805e+18,0.005413778126239777,0.011171604506671429,-0.0010502380318939686
1.7294950453678807e+18,0.006010838784277439,0.012441343627870083,0.00015100836753845215
1.729495045376881e+18,0.0033294602762907743,0.013353091664612293,-0.002002722816541791
1.729495045382881e+18,0.007260091137140989,0.01448417641222477,0.0011501542758196592
1.7294950453918812e+18,0.008082709275186062,0.01352783478796482,-0.0017624259926378727
1.7294950454008814e+18,0.006202626973390579,0.013209898956120014,-0.0017159353010356426
1.7294950454098816e+18,0.005981369875371456,0.01475527137517929,-0.003072279505431652
1.7294950454158817e+18,0.006123739294707775,0.013013182207942009,-0.0005758596234954894
1.729495045424882e+18,0.006111436523497105,0.017725717276334763,0.00026707787765190005
1.729495045433882e+18,0.007220485247671604,0.015072213485836983,-0.0015822905115783215
1.7294950454398822e+18,0.00826394185423851,0.016810981556773186,-0.0032704630866646767
1.7294950454488824e+18,0.009180733934044838,0.02063516154885292,-0.0005682206829078496
1.7294950454578826e+18,0.003920616582036018,0.018418647348880768,7.980829104781151e-05
1.7294950454668828e+18,0.009254947304725647,0.017444411292672157,0.00103045254945755
1.729495045472883e+18,0.004883885383605957,0.017493465915322304,-0.0026413388550281525
1.7294950454818831e+18,0.004316686186939478,0.01418357715010643,0.00014944281429052353
1.7294950454908833e+18,0.004380602389574051,0.010802866891026497,-0.0018517146818339825
1.7294950454998835e+18,0.002451076405122876,0.01181921549141407,-0.00031747453613206744
1.7294950455088837e+18,0.005035430658608675,0.011564092710614204,0.003589543979614973
1.7294950455148838e+18,0.0037823482416570187,0.014112127013504505,0.002036509569734335
1.729495045523884e+18,0.006632054224610329,0.014586000703275204,-0.0009366077720187604
1.7294950455298842e+18,0.0011825785040855408,0.017032640054821968,0.0007482901564799249
1.7294950455388844e+18,0.000537599204108119,0.020489392802119255,-0.0019026095978915691
1.7294950455478845e+18,-0.0004706038162112236,0.017942262813448906,-0.0005971614154987037
1.7294950455568847e+18,0.002583976835012436,0.019839581102132797,0.0005512692732736468
1.729495045565885e+18,0.002236249390989542,0.020315328612923622,-0.0019519854104146361
1.729495045574885e+18,0.005749709904193878,0.01389799453318119,-0.0015815217047929764
1.7294950455838853e+18,0.004112847615033388,0.014946076087653637,0.0017694132402539253
1.7294950455928855e+18,0.00472070649266243,0.009630831889808178,-0.00020185334142297506
1.7294950456048858e+18,-0.002301940228790045,0.011796330101788044,0.0012420130660757422
1.729495045613886e+18,0.00032144051510840654,0.01328466646373272,-0.0003987485251855105
1.7294950456228861e+18,-0.0019434795249253511,0.0152785275131464,-0.001235306728631258
1.7294950456318863e+18,-0.0014605477917939425,0.01761000044643879,0.001541873556561768
1.7294950456408865e+18,0.0006305048591457307,0.018608449026942253,-0.0005708999233320355
1.7294950456498867e+18,0.0019804248586297035,0.016579007729887962,-0.0013274045195430517
1.729495045658887e+18,0.0015196400927379727,0.018018938601017,0.00062614178750664
1.729495045667887e+18,0.0033817877992987633,0.01561036054044962,-0.00011296931188553572
1.7294950456768873e+18,0.0016420480096712708,0.018648682162165642,0.00011405005352571607
1.7294950456858875e+18,-0.0016002327902242541,0.013766266405582428,0.00015520007582381368
1.7294950456948877e+18,-0.00099818198941648,0.015511327423155308,-0.0012957388535141945
1.729495045703888e+18,0.0006266690324991941,0.01214196253567934,-0.0007283674785867333
1.729495045712888e+18,-0.004571982659399509,0.01247786171734333,-0.0017332276329398155
1.7294950457218883e+18,-0.0011923646088689566,0.013415745459496975,0.0009494258556514978
1.7294950457308884e+18,-0.004334377124905586,0.01348449382930994,-0.0028622173704206944
1.7294950457398886e+18,-0.0029268162325024605,0.01591338776051998,-0.002089296467602253
1.7294950457488888e+18,-0.0010186659637838602,0.013926183804869652,-0.0003930440580006689
1.729495045757889e+18,0.0035448239650577307,0.011390591971576214,0.0008686350774951279
1.7294950457668892e+18,0.0016382085159420967,0.01194768026471138,-0.0003221557999495417
1.7294950457758894e+18,-0.0018953772960230708,0.0127774802967906,0.00042862416012212634
1.7294950457848896e+18,-0.000673041446134448,0.00971485860645771,0.00017671834211796522
1.7294950457938898e+18,-0.003299262374639511,0.011720644310116768,-0.002115684561431408
1.72949504580289e+18,-0.003186888061463833,0.008163884282112122,-0.0008215070702135563
1.7294950458118902e+18,-0.0015508232172578573,0.012043756432831287,-0.0010003105271607637
1.7294950458208904e+18,0.0020294412970542908,0.00851595588028431,-0.0006077636498957872
1.7294950458298906e+18,-0.0004277972038835287,0.007733461447060108,-0.001873464323580265
1.7294950458388908e+18,-0.003522162325680256,0.0062723238952457905,-0.0013187879230827093
1.729495045844891e+18,-0.0005346981342881918,0.006867986638098955,-0.0018665594980120659
1.729495045853891e+18,-0.0033615976572036743,0.011019125580787659,-8.445448474958539e-05
1.7294950458628913e+18,-0.005645697936415672,0.011903599835932255,0.0016634862404316664
1.7294950458718915e+18,-0.004237924702465534,0.009603457525372505,-0.000945290201343596
1.7294950458808916e+18,-0.0023346533998847008,0.007786499336361885,-0.00020291245891712606
1.7294950458898918e+18,0.0013949958374723792,0.009398550726473331,-0.00010506156831979752
1.729495045895892e+18,2.0221341401338577e-06,0.007892943918704987,-0.0006136861047707498
1.7294950459048922e+18,-0.0016814959235489368,0.005835989490151405,0.00011720118345692754
1.7294950459138924e+18,-0.003219900419935584,0.008570544421672821,0.0006862090667709708
1.7294950459198925e+18,-0.005552109330892563,0.011442748829722404,0.0006104406202211976
1.7294950459288927e+18,-0.0058297086507081985,0.010516856797039509,0.0007986844284459949
1.7294950459378929e+18,-0.004206265788525343,0.012640251778066158,-0.001497437246143818
1.729495045943893e+18,-0.008442728780210018,0.010745398700237274,-0.0002543607261031866
1.7294950459528932e+18,-0.002209319965913892,0.009398582391440868,-0.00018950525554828346
1.7294950459588933e+18,-0.004821555223315954,0.00617554597556591,-0.0011376077309250832
1.7294950459678935e+18,-0.006682281382381916,0.007911138236522675,-0.0009722048416733742
1.7294950459738936e+18,-0.005755582358688116,0.003923713695257902,-0.0002750441781245172
1.7294950459828938e+18,-0.009206941351294518,0.00598117196932435,-0.0017047204310074449
1.729495045988894e+18,-0.00849721860140562,0.007088599260896444,0.0009351598564535379
1.7294950459978941e+18,-0.008349557407200336,0.005511258728802204,-0.0015543897170573473
1.7294950460038943e+18,-0.004922562278807163,0.005910499021410942,0.001503754872828722
1.7294950460128945e+18,-0.006151559762656689,0.006427234970033169,-0.00010663355351425707
1.7294950460218947e+18,-0.0069435713812708855,0.004166030324995518,0.0006862179143354297
1.7294950460278948e+18,-0.006148173473775387,0.005600211210548878,0.0012012736406177282
1.729495046036895e+18,-0.00545442383736372,0.005190657451748848,0.0002066125744022429
1.729495046042895e+18,-0.003819325938820839,0.0071324738673865795,-0.0003811913775280118
1.7294950460518953e+18,0.0001313935499638319,0.005032563582062721,-0.0004210344632156193
1.7294950460608955e+18,-0.0009791589109227061,0.00676311319693923,0.0006667603156529367
1.7294950460668956e+18,-0.003197252983227372,0.005164587404578924,-0.0034707370214164257
1.7294950460758958e+18,-0.005784777924418449,0.008776087313890457,0.0026653530076146126
1.729495046081896e+18,-0.0038022149819880724,0.009205266833305359,-0.0011515426449477673
1.7294950460938962e+18,-0.004078749567270279,0.007123191840946674,-0.0009531203540973365
1.7294950461058964e+18,-0.0061753676272928715,0.004407100845128298,-0.0010216394439339638
1.7294950461118966e+18,-0.006322276312857866,0.0071506500244140625,0.00026399234775453806
1.7294950461208968e+18,-0.005493125878274441,0.005095335654914379,-0.0009430220234207809
1.729495046129897e+18,-0.005145636387169361,0.009656302630901337,0.0019989260472357273
1.7294950461388972e+18,-0.007962091825902462,0.009755147621035576,0.0037437486462295055
1.7294950461448973e+18,-0.008440782316029072,0.0073174042627215385,0.0013127387501299381
1.7294950461538975e+18,-0.008850181475281715,0.011175389401614666,0.0002844435512088239
1.7294950461628977e+18,-0.011217169463634491,0.006613800302147865,-0.001173469703644514
1.729495046174898e+18,-0.005798707250505686,0.0024720379151403904,-0.0014003757387399673
1.729495046183898e+18,-0.006972573697566986,0.0027255485765635967,-0.0014970642514526844
1.7294950461898982e+18,-0.006340601947158575,0.007967639714479446,0.001002520672045648
1.7294950461988984e+18,-0.006776855327188969,0.005072733387351036,0.0012397225946187973
1.7294950462078986e+18,-0.005232733208686113,0.004408900626003742,-5.301792407408357e-05
1.7294950462138988e+18,-0.006210985127836466,0.0014133616350591183,0.00038467778358608484
1.729495046222899e+18,-0.0082896389067173,0.002142789075151086,-0.0027646110393106937
1.7294950462318991e+18,-0.009916660375893116,0.0027019584085792303,-0.00027131300885230303
1.7294950462378993e+18,-0.007503875996917486,0.004946551751345396,-0.0016027205856516957
1.7294950462468995e+18,-0.009889589622616768,0.001808066270314157,0.0005797335761599243
1.7294950462528996e+18,-0.005129138007760048,0.003277817275375128,-0.003727496135979891
1.7294950462618998e+18,-0.004385693930089474,0.002147804945707321,-0.0018982134060934186
1.7294950462679e+18,-0.005755504593253136,0.006506383419036865,0.0012762974947690964
1.7294950462769e+18,-0.0030688659753650427,0.005110049154609442,0.0020233234390616417
1.7294950462859003e+18,-0.005965994670987129,0.0071610212326049805,0.0011568146292120218
1.7294950462919004e+18,-0.006478144787251949,0.007953782565891743,-0.0009164136135950685
1.7294950463009006e+18,-0.007480398751795292,0.005305377300828695,0.0012339884415268898
1.7294950463099008e+18,-0.006545108277350664,0.0021192943677306175,0.0012597771128639579
1.729495046318901e+18,-0.005438271909952164,0.00028501381166279316,-0.0006601341883651912
1.729495046324901e+18,-0.002757549751549959,0.0034958007745444775,-0.0022720929700881243
1.7294950463339013e+18,0.0005216985009610653,0.0018455642275512218,-0.0015724307158961892
1.7294950463429015e+18,-0.0035321940667927265,0.007396758068352938,-0.0004227386671118438
1.7294950463489016e+18,-0.007920853793621063,0.005971132777631283,-0.0012981463223695755
1.7294950463579018e+18,-0.01062032300978899,0.00568213127553463,-0.004455771762877703
1.729495046366902e+18,-0.011342374607920647,0.0064534274861216545,-0.0009844487067312002
1.7294950463729021e+18,-0.007393367122858763,0.005548177752643824,-0.0018235311144962907
1.7294950463819023e+18,-0.007858972065150738,0.004997366573661566,-0.004238255321979523
1.7294950463909025e+18,-0.005899244453758001,0.0038094224873930216,-0.0008183436002582312
1.7294950463999027e+18,-0.006054683122783899,0.001448130584321916,-0.0006099960301071405
1.7294950464059028e+18,-0.00449729897081852,-0.00037782243452966213,0.00032260213629342616
1.729495046414903e+18,-0.005424255970865488,0.0036303545348346233,-0.004313651937991381
1.7294950464239032e+18,-0.007127153687179089,-0.0007703822338953614,-0.001288667437620461
1.7294950464329034e+18,-0.007012317422777414,0.0011518211103975773,-0.0021404786966741085
1.7294950464389036e+18,-0.006847618147730827,-0.0010348055511713028,0.0008538694819435477
1.7294950464479037e+18,-0.00507199764251709,-0.0018065562471747398,-0.0010922163492068648
1.729495046456904e+18,-0.0038504265248775482,-0.000774795189499855,-0.0006386090535670519
1.729495046462904e+18,-0.00776491966098547,-0.0019315980607643723,-0.00041407160460948944
1.7294950464719043e+18,-0.003682505339384079,0.002036104677245021,-0.001049920218065381
1.7294950464809044e+18,-0.0045951479114592075,0.002305785194039345,-0.0021096905693411827
1.7294950464869046e+18,-0.006891015917062759,0.001029138918966055,0.0009333300404250622
1.7294950464959048e+18,-0.008039778098464012,-0.0018088745418936014,0.0012497559655457735
1.729495046504905e+18,-0.01058928295969963,1.8350081518292427e-05,0.00032695982372388244
1.7294950465139052e+18,-0.012488389387726784,-0.001782190054655075,0.0003840294375550002
1.7294950465199053e+18,-0.006776399444788694,-0.005294432397931814,0.0008528875187039375
1.7294950465289055e+18,-0.005567263811826706,0.00042992812814190984,-0.00021025651949457824
1.7294950465379057e+18,-0.006374427117407322,-0.002813618863001466,3.7606689147651196e-05
1.7294950465439058e+18,-0.007701691705733538,0.0005833457107655704,0.0006745625869370997
1.729495046552906e+18,-0.008330002427101135,0.001975408522412181,-0.00047208715113811195
1.729495046558906e+18,-0.012026089243590832,-0.001762760803103447,-0.0008286671945825219
1.7294950465649062e+18,-0.009388724341988564,-0.0008826511912047863,-0.0015100474702194333
1.7294950465739064e+18,-0.012359586544334888,-0.003331249114125967,0.0013348156353458762
1.7294950465829066e+18,-0.010781761258840561,0.00021829851903021336,0.0015264189569279552
1.7294950465889068e+18,-0.009404463693499565,-0.0025121294893324375,0.0017543593421578407
1.729495046597907e+18,-0.007672034669667482,-0.004039593506604433,0.0005721375346183777
1.729495046603907e+18,-0.0064559378661215305,-0.004956216085702181,-0.0006212726002559066
1.7294950466129073e+18,-0.0067358119413256645,-0.0058704279363155365,0.0029598509427160025
1.7294950466189074e+18,-0.008553056046366692,-0.004404137842357159,-0.001408874406479299
1.7294950466279076e+18,-0.00905157346278429,-0.0005567073822021484,-0.0012935604900121689
1.7294950466369078e+18,-0.012620832771062851,-0.0043190778233110905,-0.0011193626560270786
1.729495046642908e+18,-0.011867063120007515,-0.0026061718817800283,-0.000281317625194788
1.729495046651908e+18,-0.00781320407986641,-0.004898657090961933,0.0005059107206761837
1.7294950466609083e+18,-0.004777422174811363,-0.005632020533084869,-0.0018461638828739524
1.7294950466669084e+18,-0.00466925697401166,-0.006313304416835308,0.0022484310902655125
1.7294950466759086e+18,-0.007197319529950619,-0.0040001170709729195,-0.000710401451215148
1.7294950466849088e+18,-0.006916786544024944,-0.006999076809734106,-8.136809628922492e-05
1.729495046693909e+18,-0.00983857549726963,-0.004590970929712057,-0.002950965194031596
1.7294950467029092e+18,-0.010325870476663113,-0.006258524022996426,0.001336853252723813
1.7294950467089093e+18,-0.009116707369685173,-0.0038232686929404736,0.0008960911072790623
1.7294950467209096e+18,-0.00615708390250802,-0.0047511444427073,-0.0005509320762939751
1.7294950467299098e+18,-0.006991430185735226,-0.00645043421536684,-0.00027150262030772865
1.72949504673891e+18,-0.006614937447011471,-0.004020771477371454,0.0006953775882720947
1.7294950467479101e+18,-0.007907569408416748,-0.0063054319471120834,-0.0009556704899296165
1.7294950467569103e+18,-0.008164849132299423,-0.008172467350959778,-0.0022258982062339783
1.7294950467659105e+18,-0.008878683671355247,-0.003795359982177615,0.0005358246271498501
1.7294950467749107e+18,-0.006170731037855148,-0.007324709091335535,0.0013733500381931663
1.7294950467809108e+18,-0.005701750051230192,-0.007314292248338461,0.0003532011469360441
1.729495046789911e+18,-0.007484677713364363,-0.0030510518699884415,-0.002561942907050252
1.7294950467989112e+18,-0.006667417008429766,-0.007152121048420668,0.0018588593229651451
1.7294950468079114e+18,-0.00672517716884613,-0.0044722408056259155,-0.002851409139111638
1.7294950468169116e+18,-0.006438180338591337,-0.0051931519992649555,0.0027907469775527716
1.7294950468259118e+18,-0.005797496531158686,-0.005477032158523798,-6.905436748638749e-05
1.729495046834912e+18,-0.007479031104594469,-0.004102190490812063,-0.0026726762298494577
1.7294950468439122e+18,-0.007320881355553865,-0.004841631278395653,0.0012653798330575228
1.7294950468529124e+18,-0.005824321415275335,-0.0038996634539216757,-2.8094375011278316e-05
1.7294950468619126e+18,-0.007857541553676128,-0.003952198661863804,0.0008455441566184163
1.7294950468709128e+18,-0.008359096944332123,-0.005484019871801138,0.0015031677903607488
1.729495046879913e+18,-0.007487851195037365,-0.007060295902192593,0.0007758217980153859
1.7294950468889132e+18,-0.006015689577907324,-0.011667488142848015,0.0011682137846946716
1.7294950468979133e+18,-0.0064825997687876225,-0.006725063547492027,-7.579412340419367e-05
1.7294950469039135e+18,-0.0035315926652401686,-0.010753987357020378,0.00035903858952224255
1.7294950469129137e+18,-0.0026400061324238777,-0.007071297615766525,-0.0019573040772229433
1.7294950469219139e+18,-0.0010909477714449167,-0.008592012338340282,-0.0014540008269250393
1.729495046930914e+18,-0.0025392905808985233,-0.00476289726793766,-0.0005829163128510118
1.7294950469399142e+18,-0.3670828640460968,-0.324781596660614,-0.0021864762529730797
1.7294950469459144e+18,-0.7797263264656067,-0.6936639547348022,-0.005577616859227419
1.7294950469549146e+18,-1.4626882076263428,-1.2797051668167114,-0.01189112477004528
1.7294950469639148e+18,-2.2321956157684326,-1.7933506965637207,-0.019913244992494583
1.729495046972915e+18,-2.859811782836914,-2.043428897857666,-0.0272519513964653
1.729495046978915e+18,-3.0982840061187744,-2.056990623474121,-0.03631976246833801
1.7294950469879153e+18,-3.2028727531433105,-1.9286706447601318,-0.04705958440899849
1.7294950469969155e+18,-3.0969367027282715,-1.744180679321289,-0.05521257221698761
1.7294950470029156e+18,-2.99102520942688,-1.6571205854415894,-0.06163035333156586
1.7294950470119158e+18,-2.9002768993377686,-1.6517030000686646,-0.07075449079275131
1.729495047020916e+18,-2.9602370262145996,-1.7461857795715332,-0.07969040423631668
1.7294950470299162e+18,-3.1109559535980225,-1.8618683815002441,-0.08626969158649445
1.7294950470359163e+18,-3.212352991104126,-1.9050503969192505,-0.08992201089859009
1.7294950470449165e+18,-3.2873337268829346,-1.8926273584365845,-0.10140223801136017
1.7294950470539167e+18,-3.175286293029785,-1.7640560865402222,-0.10624834150075912
1.7294950470629169e+18,-2.9093055725097656,-1.5760338306427002,-0.11443393677473068
1.729495047068917e+18,-2.6903793811798096,-1.4596689939498901,-0.11485801637172699
1.7294950470779172e+18,-2.3884787559509277,-1.3155524730682373,-0.12247437983751297
1.7294950470869174e+18,-2.1799535751342773,-1.2272945642471313,-0.12793904542922974
1.7294950470959176e+18,-2.0805912017822266,-1.1840482950210571,-0.13143685460090637
1.7294950471019177e+18,-2.06176495552063,-1.1608058214187622,-0.13385485112667084
1.729495047110918e+18,-2.029829502105713,-1.1029025316238403,-0.13537749648094177
1.729495047119918e+18,-1.9180439710617065,-0.9970000982284546,-0.13944995403289795
1.7294950471289183e+18,-1.7106351852416992,-0.865835964679718,-0.14096903800964355
1.7294950471379185e+18,-1.446515440940857,-0.735020637512207,-0.13958677649497986
1.7294950471469187e+18,-1.1718693971633911,-0.6110449433326721,-0.13796480000019073
1.7294950471529188e+18,-1.0314196348190308,-0.5486704707145691,-0.13661570847034454
1.729495047161919e+18,-0.8846480846405029,-0.4751884639263153,-0.13836044073104858
1.7294950471709192e+18,-0.8210186958312988,-0.41852715611457825,-0.13891440629959106
1.7294950471799194e+18,-0.7861982583999634,-0.35935312509536743,-0.1375918686389923
1.7294950471889196e+18,-0.7162553071975708,-0.29704856872558594,-0.1358785629272461
1.7294950471979197e+18,-0.5992146134376526,-0.22078987956047058,-0.13452468812465668
1.72949504720692e+18,-0.42640960216522217,-0.14429686963558197,-0.13332565128803253
1.72949504721592e+18,-0.2511148750782013,-0.07256089895963669,-0.13219289481639862
1.7294950472219203e+18,-0.15272286534309387,-0.033451251685619354,-0.13071678578853607
1.7294950472309204e+18,-0.05868798866868019,0.01207104790955782,-0.12316078692674637
1.7294950472399206e+18,-0.01933233253657818,0.045914772897958755,-0.12531906366348267
1.7294950472489208e+18,-0.01332738995552063,0.07527390867471695,-0.12362188845872879
1.729495047257921e+18,0.0025254301726818085,0.10682585835456848,-0.11853226274251938
1.7294950472669212e+18,0.05240253731608391,0.14105647802352905,-0.11079692095518112
1.7294950472729213e+18,0.10477617383003235,0.16353699564933777,-0.1155988946557045
1.7294950472819215e+18,0.20661285519599915,0.19769856333732605,-0.11019881069660187
1.7294950472909217e+18,0.29160264134407043,0.22047485411167145,-0.10669447481632233
1.729495047299922e+18,0.34258705377578735,0.24012607336044312,-0.10264774411916733
1.729495047308922e+18,0.3567696213722229,0.25638648867607117,-0.10120663791894913
1.7294950473179223e+18,0.3408164381980896,0.26779821515083313,-0.09716641157865524
1.7294950473239224e+18,0.33375024795532227,0.27619171142578125,-0.0977705791592598
1.7294950473329226e+18,0.33842578530311584,0.28826314210891724,-0.08990579843521118
1.7294950473419228e+18,0.36207228899002075,0.2959880828857422,-0.08803786337375641
1.729495047347923e+18,0.39351117610931396,0.3027367889881134,-0.08639393001794815
1.7294950473569231e+18,0.43837735056877136,0.30978649854660034,-0.08155176043510437
1.7294950473659233e+18,0.46946194767951965,0.30971992015838623,-0.07550421357154846
1.7294950473749235e+18,0.4831829071044922,0.3131728768348694,-0.07227250933647156
1.7294950473839237e+18,0.4627860486507416,0.31166520714759827,-0.07035406678915024
1.729495047392924e+18,0.4403042197227478,0.3110654950141907,-0.06670105457305908
1.729495047401924e+18,0.42173299193382263,0.3122539818286896,-0.06269048899412155
1.7294950474109243e+18,0.42334336042404175,0.3082229793071747,-0.05709747597575188
1.7294950474199245e+18,0.43717020750045776,0.3055803179740906,-0.05197471007704735
1.7294950474259246e+18,0.4547179341316223,0.3032604455947876,-0.04903912916779518
1.7294950474349248e+18,0.47391173243522644,0.3003692328929901,-0.04720326140522957
1.729495047443925e+18,0.4788186848163605,0.297183632850647,-0.043181806802749634
1.7294950474529252e+18,0.47213220596313477,0.2964850068092346,-0.03668389096856117
1.7294950474589253e+18,0.4571220278739929,0.2953815758228302,-0.03610900416970253
1.7294950474679255e+18,0.4348888099193573,0.287885457277298,-0.030530285090208054
1.7294950474769257e+18,0.4222452938556671,0.28807783126831055,-0.027230946347117424
1.729495047485926e+18,0.42244312167167664,0.28052645921707153,-0.02194056659936905
1.729495047494926e+18,0.43309706449508667,0.2767925560474396,-0.0193149596452713
1.7294950475039263e+18,0.44472289085388184,0.26986756920814514,-0.01300085335969925
1.7294950475129265e+18,0.4511486291885376,0.2681196331977844,-0.007928076200187206
1.7294950475219267e+18,0.44607308506965637,0.2623145878314972,-0.0068130092695355415
1.7294950475309268e+18,0.42998185753822327,0.26177796721458435,-0.0008448090520687401
1.729495047539927e+18,0.41597074270248413,0.2563117444515228,0.002012017648667097
1.7294950475489272e+18,0.3996407091617584,0.24917171895503998,0.005723620764911175
1.7294950475549274e+18,0.3954818844795227,0.2478407621383667,0.010837536305189133
1.7294950475669276e+18,0.40019482374191284,0.2469615489244461,0.016467368230223656
1.7294950475759278e+18,0.4038054347038269,0.2624925971031189,0.01943565346300602
1.729495047581928e+18,0.3775283694267273,0.2986909747123718,0.022984130308032036
1.7294950475909281e+18,0.32817354798316956,0.3643951416015625,0.02677598036825657
1.7294950475999283e+18,0.2735401391983032,0.4264492690563202,0.031627025455236435
1.7294950476059284e+18,0.23947612941265106,0.4564720392227173,0.03870126232504845
1.7294950476149286e+18,0.22704054415225983,0.47919926047325134,0.041397906839847565
1.7294950476239288e+18,0.2550479471683502,0.4774564206600189,0.04920736700296402
1.729495047632929e+18,0.2996191382408142,0.46856164932250977,0.05001640319824219
1.7294950476419292e+18,0.35151568055152893,0.46145302057266235,0.055398378521203995
1.7294950476509294e+18,0.3773542046546936,0.47554364800453186,0.06388912349939346
1.7294950476569295e+18,0.3798365294933319,0.4872042238712311,0.06388670206069946
1.7294950476659297e+18,0.3707825541496277,0.5115561485290527,0.07091309875249863
1.72949504767493e+18,0.3628444969654083,0.5300479531288147,0.07691638171672821
1.72949504768093e+18,0.36135876178741455,0.5343709588050842,0.07987198233604431
1.7294950476899302e+18,0.37433987855911255,0.5279533267021179,0.08401146531105042
1.7294950476989304e+18,0.3980647027492523,0.5082592368125916,0.0869772806763649
1.7294950477049306e+18,0.4204298257827759,0.49737024307250977,0.09305904805660248
1.7294950477139308e+18,0.44380828738212585,0.4794110059738159,0.09397062659263611
1.729495047722931e+18,0.46458685398101807,0.46679380536079407,0.09898661822080612
1.7294950477319311e+18,0.4605119824409485,0.4623435437679291,0.1002400740981102
1.7294950477409313e+18,0.44778528809547424,0.45516538619995117,0.10912317782640457
1.7294950477499315e+18,0.4329717755317688,0.4390518367290497,0.11092349886894226
1.7294950477589317e+18,0.43458420038223267,0.42393919825553894,0.11503942310810089
1.7294950477649318e+18,0.4391484558582306,0.4099039137363434,0.12158740311861038
1.729495047773932e+18,0.451332151889801,0.3923414349555969,0.11966223269701004
1.7294950477829322e+18,0.4665410816669464,0.37030312418937683,0.12446609884500504
1.7294950477889324e+18,0.47085413336753845,0.3570733964443207,0.12828078866004944
1.7294950477979325e+18,0.4576527774333954,0.3391970694065094,0.12873096764087677
1.7294950478069327e+18,0.43534183502197266,0.31832653284072876,0.13428393006324768
1.7294950478129329e+18,0.4234822988510132,0.3044082820415497,0.13758686184883118
1.729495047821933e+18,0.40965592861175537,0.29411008954048157,0.144297257065773
1.7294950478279332e+18,0.40518495440483093,0.28404515981674194,0.1402023732662201
1.7294950478369334e+18,0.40493568778038025,0.2659169137477875,0.1448938399553299
1.7294950478459336e+18,0.41291144490242004,0.25122979283332825,0.14860858023166656
1.7294950478519337e+18,0.42136210203170776,0.2427106350660324,0.15014906227588654
1.729495047860934e+18,0.41629332304000854,0.22798402607440948,0.1519428938627243
1.729495047866934e+18,0.4097157418727875,0.22070297598838806,0.1515415608882904
1.7294950478759342e+18,0.3932649791240692,0.2037583440542221,0.15467789769172668
1.7294950478849344e+18,0.3723517954349518,0.1913575977087021,0.15516851842403412
1.7294950478939346e+18,0.35590484738349915,0.1764812469482422,0.1616719514131546
1.7294950478999347e+18,0.3514255881309509,0.17144262790679932,0.1618330180644989
1.729495047908935e+18,0.3493368625640869,0.16214406490325928,0.16286499798297882
1.729495047917935e+18,0.35574233531951904,0.15106116235256195,0.16386903822422028
1.7294950479239352e+18,0.3569846749305725,0.147727832198143,0.16495802998542786
1.7294950479329354e+18,0.3551243543624878,0.14225752651691437,0.16804279386997223
1.7294950479389356e+18,0.3527677059173584,0.13192537426948547,0.16760404407978058
1.7294950479479357e+18,0.339508593082428,0.1261664628982544,0.17005030810832977
1.729495047953936e+18,0.33078962564468384,0.12321213632822037,0.1704423874616623
1.729495047962936e+18,0.31283292174339294,0.113982655107975,0.1730176955461502
1.7294950479719363e+18,0.30884426832199097,0.11275927722454071,0.17237313091754913
1.7294950479809364e+18,0.31361743807792664,0.10887535661458969,0.17333705723285675
1.7294950479899366e+18,0.31514862179756165,0.10478700697422028,0.17519177496433258
1.7294950479989368e+18,0.32046589255332947,0.09958550333976746,0.1763574182987213
1.729495048007937e+18,0.3164202868938446,0.09772073477506638,0.17551152408123016
1.7294950480169372e+18,0.30703577399253845,0.09445109963417053,0.17712821066379547
1.7294950480259374e+18,0.29865437746047974,0.0909058004617691,0.1781221479177475
1.7294950480349376e+18,0.28505226969718933,0.09194764494895935,0.17729409039020538
1.7294950480439378e+18,0.27951258420944214,0.08842968195676804,0.18007509410381317
1.729495048052938e+18,0.2838496267795563,0.08773259818553925,0.17923884093761444
1.7294950480619382e+18,0.28777170181274414,0.08689672499895096,0.1819731891155243
1.7294950480679383e+18,0.2877081036567688,0.08708670735359192,0.1789357215166092
1.7294950480769385e+18,0.28789129853248596,0.08467118442058563,0.17952001094818115
1.7294950480859387e+18,0.2854372560977936,0.08352702111005783,0.17706391215324402
1.729495048094939e+18,0.27393415570259094,0.08321889489889145,0.1811291128396988
1.7294950481069391e+18,0.2627764940261841,0.08098340034484863,0.177958145737648
1.7294950481129393e+18,0.2576815187931061,0.07997701317071915,0.17539583146572113
1.7294950481219395e+18,0.2580864429473877,0.0763435959815979,0.17605459690093994
1.7294950481309396e+18,0.26069965958595276,0.076289102435112,0.176847442984581
1.7294950481399398e+18,0.2654455006122589,0.0761619433760643,0.176740363240242
1.72949504814894e+18,0.2701631784439087,0.07282117009162903,0.17377808690071106
1.7294950481579402e+18,0.26760435104370117,0.07272519916296005,0.17281188070774078
1.7294950481639404e+18,0.2659926414489746,0.0770236998796463,0.17210012674331665
1.7294950481729405e+18,0.25405994057655334,0.07735733687877655,0.17358317971229553
1.7294950481819407e+18,0.25330600142478943,0.07985834032297134,0.17153216898441315
1.729495048190941e+18,0.253079891204834,0.07642656564712524,0.17145687341690063
1.729495048199941e+18,0.25067684054374695,0.07975757867097855,0.16663621366024017
1.7294950482089413e+18,0.2551920711994171,0.07549069821834564,0.16876950860023499
1.7294950482149414e+18,0.25369739532470703,0.07768312096595764,0.16638968884944916
1.7294950482239416e+18,0.2532494366168976,0.07608255743980408,0.1675531566143036
1.7294950482329418e+18,0.25070515275001526,0.07675584405660629,0.16438661515712738
1.729495048241942e+18,0.2490767389535904,0.07964978367090225,0.16419675946235657
1.7294950482509422e+18,0.24535056948661804,0.08321427553892136,0.1609112173318863
1.7294950482599424e+18,0.24259115755558014,0.08327207714319229,0.1603759378194809
1.7294950482689426e+18,0.23964151740074158,0.07953531295061111,0.15912115573883057
1.7294950482779428e+18,0.24026666581630707,0.07817128300666809,0.15534736216068268
1.729495048286943e+18,0.24415405094623566,0.08067411929368973,0.1538415551185608
1.7294950482959432e+18,0.24283014237880707,0.07666440308094025,0.15128211677074432
1.7294950483049434e+18,0.24412769079208374,0.07625394314527512,0.1499122530221939
1.7294950483139436e+18,0.2440357357263565,0.07726927101612091,0.14681610465049744
1.7294950483229437e+18,0.24065935611724854,0.07555392384529114,0.14788243174552917
1.729495048331944e+18,0.23963147401809692,0.07284513860940933,0.14412325620651245
1.7294950483409441e+18,0.24086502194404602,0.07036009430885315,0.14157691597938538
1.7294950483469443e+18,0.23770493268966675,0.07260168343782425,0.13950717449188232
1.7294950483589445e+18,0.23723211884498596,0.06828226149082184,0.13617028295993805
1.7294950483679447e+18,0.23261758685112,0.0668250024318695,0.13478632271289825
1.7294950483739448e+18,0.2329375296831131,0.0641246810555458,0.13384079933166504
1.729495048382945e+18,0.23021039366722107,0.06527593731880188,0.13005702197551727
1.7294950483919452e+18,0.23041723668575287,0.06498026102781296,0.12807302176952362
1.7294950484009454e+18,0.23419857025146484,0.06355607509613037,0.12672708928585052
1.7294950484069455e+18,0.23089343309402466,0.06446879357099533,0.12465663999319077
1.7294950484159457e+18,0.2318667471408844,0.0628366768360138,0.11982438713312149
1.7294950484219459e+18,0.2316180020570755,0.06474979966878891,0.1193941980600357
1.729495048430946e+18,0.22618776559829712,0.06416652351617813,0.11819885671138763
1.7294950484399462e+18,0.2251652181148529,0.06323033571243286,0.11570341885089874
1.7294950484459464e+18,0.22465011477470398,0.061952780932188034,0.11490117013454437
1.7294950484549466e+18,0.21670517325401306,0.059970490634441376,0.11227311193943024
1.7294950484639468e+18,0.2127918303012848,0.052580174058675766,0.11025089025497437
1.729495048469947e+18,0.2087806612253189,0.05241602659225464,0.10760902613401413
1.729495048478947e+18,0.20639576017856598,0.0530739352107048,0.10379105806350708
1.7294950484879473e+18,0.21188634634017944,0.05627274140715599,0.10271042585372925
1.7294950484939474e+18,0.21547190845012665,0.053616806864738464,0.09795061498880386
1.7294950485029476e+18,0.21652112901210785,0.05496747046709061,0.09561719745397568
1.7294950485089477e+18,0.21636195480823517,0.0575760155916214,0.09324198216199875
1.729495048517948e+18,0.21066565811634064,0.05569982901215553,0.09356600791215897
1.729495048523948e+18,0.20536239445209503,0.05433189868927002,0.0901985839009285
1.7294950485329482e+18,0.2004653811454773,0.05035533010959625,0.08829274773597717
1.7294950485419484e+18,0.1980699896812439,0.05199397727847099,0.08464834839105606
1.7294950485479485e+18,0.198418527841568,0.04919615387916565,0.08276861160993576
1.7294950485569487e+18,0.19943329691886902,0.05001794174313545,0.08064039051532745
1.7294950485629489e+18,0.20301330089569092,0.04822291061282158,0.08018516004085541
1.729495048571949e+18,0.20543651282787323,0.051928576081991196,0.07868507504463196
1.7294950485809492e+18,0.20390163362026215,0.04920708388090134,0.0752827376127243
1.7294950485869494e+18,0.2020837515592575,0.044042445719242096,0.07305794954299927
1.7294950485959496e+18,0.19621223211288452,0.04685215279459953,0.07204911857843399
1.7294950486049498e+18,0.19100910425186157,0.04711645469069481,0.06756412982940674
1.72949504861095e+18,0.1860043853521347,0.04485669732093811,0.0641157254576683
1.72949504861995e+18,0.1852680742740631,0.043355077505111694,0.06287840753793716
1.7294950486289503e+18,0.18512272834777832,0.04001066833734512,0.059635672718286514
1.7294950486349504e+18,0.18569627404212952,0.04042286425828934,0.05797777324914932
1.7294950486439506e+18,0.1841796189546585,0.03990509733557701,0.05303194746375084
1.7294950486529508e+18,0.18681764602661133,0.04341650381684303,0.05566665902733803
1.729495048661951e+18,0.1812293827533722,0.04084153100848198,0.04959699138998985
1.729495048667951e+18,0.17841757833957672,0.038853999227285385,0.04926940053701401
1.7294950486769513e+18,0.1771448254585266,0.0377875380218029,0.04537775367498398
1.7294950486859515e+18,0.17016330361366272,0.03651375323534012,0.04563866928219795
1.7294950486919516e+18,0.17527297139167786,0.037142086774110794,0.04226769879460335
1.7294950487009518e+18,0.17543955147266388,0.03820705786347389,0.03840092942118645
1.729495048706952e+18,0.1735185831785202,0.03989847004413605,0.036650050431489944
1.729495048715952e+18,0.1737406700849533,0.03854721784591675,0.03653086721897125
1.7294950487249523e+18,0.174229696393013,0.04222162812948227,0.03276049718260765
1.7294950487339525e+18,0.16913843154907227,0.03760711848735809,0.030666915699839592
1.7294950487429527e+18,0.16625778377056122,0.0378694012761116,0.031166890636086464
1.729495048751953e+18,0.16326798498630524,0.035073455423116684,0.029795736074447632
1.729495048757953e+18,0.16171906888484955,0.036067139357328415,0.024392839521169662
1.7294950487699533e+18,0.15956981480121613,0.03857993707060814,0.02619314193725586
1.7294950487759534e+18,0.1651342660188675,0.039953943341970444,0.015369467437267303
1.7294950487849536e+18,0.16304868459701538,0.039527975022792816,0.01879405789077282
1.7294950487939538e+18,0.16369853913784027,0.03852793946862221,0.016489297151565552
1.729495048802954e+18,0.15988247096538544,0.03886958956718445,0.011409090831875801
1.7294950488119542e+18,0.15615230798721313,0.03646961599588394,0.013633019290864468
1.7294950488209544e+18,0.15183916687965393,0.03402269259095192,0.010013697668910027
1.7294950488299546e+18,0.14734189212322235,0.03512294590473175,0.007852389477193356
1.7294950488359547e+18,0.14720353484153748,0.03536701202392578,0.008092068135738373
1.729495048844955e+18,0.14748312532901764,0.03652116656303406,0.006276398431509733
1.729495048853955e+18,0.1477936953306198,0.03673912212252617,-0.0016149228904396296
1.7294950488629553e+18,0.14964111149311066,0.03613879904150963,0.0021695634350180626
1.7294950488719555e+18,0.15057292580604553,0.04024756699800491,-0.0038496998604387045
1.7294950488779556e+18,0.1465858817100525,0.036613788455724716,-0.002650544513016939
1.7294950488869558e+18,0.14478661119937897,0.0349874384701252,-0.0035486307460814714
1.729495048895956e+18,0.1365329474210739,0.029197704046964645,-0.008200211450457573
1.7294950489049562e+18,0.13380609452724457,0.030640341341495514,-0.007341973949223757
1.7294950489139564e+18,0.13442564010620117,0.030824676156044006,-0.01068602129817009
1.7294950489229565e+18,0.13447849452495575,0.028398636728525162,-0.012859111651778221
1.7294950489349568e+18,0.13830463588237762,0.03596178814768791,-0.010966652072966099
1.729495048943957e+18,0.13685795664787292,0.03388456255197525,-0.012623731046915054
1.729495048949957e+18,0.1338927298784256,0.03525107726454735,-0.013796379789710045
1.7294950489589573e+18,0.13039258122444153,0.03377065062522888,-0.01860162615776062
1.7294950489679575e+18,0.12184952944517136,0.03277215361595154,-0.018857087939977646
1.7294950489769577e+18,0.12177985161542892,0.03133372962474823,-0.020884528756141663
1.7294950489829578e+18,0.12099644541740417,0.030315469950437546,-0.021244695410132408
1.729495048991958e+18,0.12247613817453384,0.029822159558534622,-0.0260113924741745
1.7294950490009582e+18,0.11971764266490936,0.03102601133286953,-0.024993259459733963
1.7294950490099584e+18,0.11965382099151611,0.03228938579559326,-0.024607103317975998
1.7294950490189586e+18,0.12055477499961853,0.03162841498851776,-0.024707401171326637
1.7294950490279588e+18,0.11841318756341934,0.03504013270139694,-0.025604745373129845
1.729495049036959e+18,0.11235083639621735,0.034347377717494965,-0.028820252045989037
1.7294950490489592e+18,0.11322434991598129,0.03459496423602104,-0.031750474125146866
1.7294950490579594e+18,0.11425752192735672,0.03149160370230675,-0.028942951932549477
1.7294950490669596e+18,0.11549220979213715,0.03135548532009125,-0.03324907273054123
1.7294950490759598e+18,0.11528342962265015,0.028339508920907974,-0.03194974362850189
1.72949504908496e+18,0.11837280541658401,0.029538633301854134,-0.033127788454294205
1.7294950490939602e+18,0.11698826402425766,0.027829427272081375,-0.03408947214484215
1.7294950491059604e+18,0.1125209853053093,0.031869903206825256,-0.036147382110357285
1.7294950491149606e+18,0.11030693352222443,0.03356758877635002,-0.033960696309804916
1.7294950491239608e+18,0.10921359807252884,0.030049527063965797,-0.03779658302664757
1.729495049132961e+18,0.11029898375272751,0.028323594480752945,-0.041242584586143494
1.7294950491419612e+18,0.10861122608184814,0.030365511775016785,-0.03852182999253273
1.7294950491509614e+18,0.10685394704341888,0.029742488637566566,-0.04165342450141907
1.7294950491569615e+18,0.10611556470394135,0.03133540600538254,-0.04320094361901283
1.7294950491659617e+18,0.10006079077720642,0.029318906366825104,-0.04216901585459709
1.729495049174962e+18,0.0990239679813385,0.027311017736792564,-0.03790416568517685
1.729495049183962e+18,0.09913327544927597,0.029413757845759392,-0.04195715859532356
1.7294950491929623e+18,0.0961766242980957,0.02490617148578167,-0.04054839536547661
1.7294950492019625e+18,0.09368374943733215,0.025754811242222786,-0.04227512702345848
1.7294950492109627e+18,0.09250731766223907,0.024474838748574257,-0.04306386038661003
1.729495049219963e+18,0.09473866969347,0.024818385019898415,-0.04242603853344917
1.729495049225963e+18,0.0941108986735344,0.027341732755303383,-0.04375677928328514
1.7294950492349632e+18,0.09047596901655197,0.028476253151893616,-0.043994929641485214
1.7294950492439634e+18,0.09139339625835419,0.027441225945949554,-0.046799127012491226
1.7294950492529636e+18,0.08405176550149918,0.028443295508623123,-0.04383878782391548
1.7294950492619638e+18,0.0874611884355545,0.024127811193466187,-0.043386060744524
1.729495049270964e+18,0.08160164952278137,0.027100520208477974,-0.047579076141119
1.729495049276964e+18,0.08447309583425522,0.026865722611546516,-0.043901123106479645
1.7294950492859643e+18,0.08578964322805405,0.02660294994711876,-0.044230710715055466
1.7294950492949645e+18,0.08460550755262375,0.027418607845902443,-0.04580181837081909
1.7294950493039647e+18,0.08456949889659882,0.027787653729319572,-0.04555602744221687
1.7294950493099648e+18,0.0812157690525055,0.026447676122188568,-0.044633232057094574
1.729495049318965e+18,0.07854583859443665,0.02899230271577835,-0.04438997805118561
1.7294950493279652e+18,0.07613733410835266,0.022341975942254066,-0.04611986130475998
1.7294950493369654e+18,0.0743195191025734,0.022837230935692787,-0.04588795080780983
1.7294950493459656e+18,0.0761750116944313,0.0224144347012043,-0.04690101370215416
1.7294950493549658e+18,0.073341004550457,0.02253945916891098,-0.04668930917978287
1.729495049363966e+18,0.07841331511735916,0.023412778973579407,-0.04871083050966263
1.7294950493729661e+18,0.07878967374563217,0.023099152371287346,-0.047416891902685165
1.7294950493819663e+18,0.07683880627155304,0.027571655809879303,-0.04532894119620323
1.7294950493909665e+18,0.07549271732568741,0.026002824306488037,-0.0449863076210022
1.7294950493999667e+18,0.06700608134269714,0.020272504538297653,-0.04777022823691368
1.729495049408967e+18,0.06744168698787689,0.022856149822473526,-0.04732963442802429
1.729495049417967e+18,0.06769370287656784,0.02478753961622715,-0.04585770145058632
1.7294950494269673e+18,0.07041759788990021,0.02150016464293003,-0.04468447342514992
1.7294950494359675e+18,0.07648630440235138,0.026681866496801376,-0.04079181328415871
1.7294950494449677e+18,0.07844464480876923,0.02385685220360756,-0.04325360804796219
1.729495049456968e+18,0.07642596960067749,0.023906512185931206,-0.041455745697021484
1.729495049465968e+18,0.06805292516946793,0.024118097499012947,-0.04260896146297455
1.7294950494749683e+18,0.06339564919471741,0.02385202795267105,-0.03878331184387207
1.7294950494869686e+18,0.06525961309671402,0.022806065157055855,-0.03749646991491318
1.7294950494959688e+18,0.06429076939821243,0.019364476203918457,-0.040009938180446625
1.729495049504969e+18,0.06861667335033417,0.02044922113418579,-0.03925725817680359
1.7294950495139692e+18,0.06595483422279358,0.022421715781092644,-0.03975779563188553
1.7294950495229693e+18,0.06495466083288193,0.02304144948720932,-0.039512306451797485
1.7294950495319695e+18,0.06105046719312668,0.02211814746260643,-0.03768079727888107
1.7294950495409697e+18,0.057248588651418686,0.020542167127132416,-0.03806076943874359
1.72949504954997e+18,0.055082570761442184,0.0222951527684927,-0.03677675873041153
1.7294950495619702e+18,0.0564664825797081,0.022479809820652008,-0.03599875420331955
1.7294950495709704e+18,0.05782430246472359,0.024121860042214394,-0.038511212915182114
1.7294950495799706e+18,0.0599508136510849,0.018766317516565323,-0.036803219467401505
1.7294950495889708e+18,0.057332225143909454,0.018758010119199753,-0.036053020507097244
1.729495049597971e+18,0.05602351203560829,0.019325146451592445,-0.03480403497815132
1.7294950496069711e+18,0.052704643458127975,0.020047275349497795,-0.03470705822110176
1.7294950496159713e+18,0.04709503799676895,0.021702513098716736,-0.03410504758358002
1.7294950496249715e+18,0.0455099493265152,0.021806783974170685,-0.03694426640868187
1.7294950496369718e+18,0.045063648372888565,0.024123871698975563,-0.033135414123535156
1.729495049645972e+18,0.04843902215361595,0.021826280280947685,-0.032280344516038895
1.7294950496549722e+18,0.05113961175084114,0.020500464364886284,-0.030758434906601906
1.7294950496639724e+18,0.05106521397829056,0.01913546770811081,-0.02724016085267067
1.7294950496729725e+18,0.04930448159575462,0.017330631613731384,-0.029568379744887352
1.7294950496819727e+18,0.04540538042783737,0.014431972056627274,-0.02816508710384369
1.729495049690973e+18,0.04071829840540886,0.01877216435968876,-0.029328245669603348
1.729495049699973e+18,0.04275035858154297,0.022542841732501984,-0.028462277725338936
1.7294950497089733e+18,0.04636398330330849,0.024728240445256233,-0.026930684223771095
1.7294950497179735e+18,0.0486641451716423,0.025318540632724762,-0.027059504762291908
1.7294950497269737e+18,0.04883941635489464,0.02249964326620102,-0.024454817175865173
1.729495049738974e+18,0.051247190684080124,0.021628471091389656,-0.02701903134584427
1.7294950497479741e+18,0.04282993823289871,0.01928054727613926,-0.025320954620838165
1.7294950497569743e+18,0.039298683404922485,0.018892858177423477,-0.020046135410666466
1.7294950497659745e+18,0.03436306491494179,0.02203667163848877,-0.02424517087638378
1.7294950497749747e+18,0.0406813845038414,0.02045489102602005,-0.020778164267539978
1.7294950497809748e+18,0.045910537242889404,0.018192172050476074,-0.021042080596089363
1.729495049789975e+18,0.04825012385845184,0.01853805221617222,-0.02089686132967472
1.7294950498019753e+18,0.046997662633657455,0.017632808536291122,-0.01918976940214634
1.7294950498109755e+18,0.043266575783491135,0.015540406107902527,-0.01643921434879303
1.7294950498199757e+18,0.04012719541788101,0.015222045592963696,-0.018363766372203827
1.7294950498289759e+18,0.035184986889362335,0.014877421781420708,-0.020447570830583572
1.729495049837976e+18,0.034755125641822815,0.0151713527739048,-0.019126346334815025
1.7294950498469763e+18,0.03171788156032562,0.015212716534733772,-0.016673337668180466
1.7294950498559764e+18,0.036869458854198456,0.014353727921843529,-0.01764077879488468
1.7294950498649766e+18,0.03404225409030914,0.016416724771261215,-0.014137125574052334
1.7294950498739768e+18,0.026751581579446793,0.013257801532745361,-0.013200034387409687
1.729495049885977e+18,0.034523770213127136,0.013233847916126251,-0.012835037894546986
1.7294950498919772e+18,0.022867850959300995,0.031751446425914764,-0.013723972253501415
1.7294950499009774e+18,-0.06324805319309235,0.24605576694011688,-0.013160266913473606
1.7294950499099776e+18,-0.17887435853481293,0.5237405896186829,-0.011692647822201252
1.7294950499189778e+18,-0.2871119976043701,0.7987021207809448,-0.012517614290118217
1.729495049927978e+18,-0.3467238247394562,0.9775286912918091,-0.008799608796834946
1.7294950499369782e+18,-0.34307074546813965,1.0320919752120972,-0.011612700298428535
1.7294950499459784e+18,-0.2997010052204132,0.9856334328651428,-0.007201885338872671
1.7294950499549786e+18,-0.24586078524589539,0.911503791809082,-0.006145409774035215
1.7294950499639788e+18,-0.2223028540611267,0.8764375448226929,-0.004094863310456276
1.729495049972979e+18,-0.24076050519943237,0.8993431925773621,-0.004072798881679773
1.7294950499819791e+18,-0.28228333592414856,0.9643590450286865,-0.005493710748851299
1.7294950499909793e+18,-0.3243913948535919,1.0349528789520264,-0.004228857345879078
1.7294950499999795e+18,-0.339813768863678,1.0670093297958374,-0.002362238010391593
1.7294950500119798e+18,-0.2974289655685425,1.0124320983886719,-0.0006092233816161752
1.72949505002098e+18,-0.2392067164182663,0.926027774810791,0.0028314332012087107
1.7294950500299802e+18,-0.18901586532592773,0.8395102620124817,0.00021545012714341283
1.7294950500389804e+18,-0.16434596478939056,0.7812647223472595,0.0019406065111979842
1.7294950500479805e+18,-0.17434945702552795,0.7604365348815918,0.0017747536767274141
1.7294950500569807e+18,-0.19238066673278809,0.7478665113449097,0.004575881641358137
1.729495050065981e+18,-0.2049022763967514,0.7379620671272278,0.002211233600974083
1.729495050074981e+18,-0.19196484982967377,0.6940667629241943,0.005177861079573631
1.7294950500839813e+18,-0.15272100269794464,0.6317117810249329,0.008316658437252045
1.7294950500929815e+18,-0.1062638908624649,0.555334746837616,0.006077614147216082
1.7294950501019817e+18,-0.06482798606157303,0.49156415462493896,0.00504833459854126
1.729495050110982e+18,-0.05495927855372429,0.4368458390235901,0.006810490973293781
1.729495050119982e+18,-0.054561734199523926,0.3914455771446228,0.006789560429751873
1.7294950501289823e+18,-0.06558741629123688,0.357244074344635,0.009831068105995655
1.7294950501349824e+18,-0.06729166954755783,0.33702903985977173,0.009084554389119148
1.7294950501469827e+18,-0.05449867993593216,0.28856974840164185,0.008952325209975243
1.7294950501529828e+18,-0.039007555693387985,0.2640908658504486,0.008346975781023502
1.729495050161983e+18,-0.011310788802802563,0.2303566187620163,0.009771250188350677
1.7294950501709832e+18,0.013389313593506813,0.19058537483215332,0.008655109442770481
1.7294950501769833e+18,0.024404380470514297,0.169142946600914,0.01202062051743269
1.7294950501859835e+18,0.032582640647888184,0.1325346976518631,0.009053903631865978
1.7294950501949837e+18,0.026751767843961716,0.1072089821100235,0.010366027243435383
1.729495050203984e+18,0.016389457508921623,0.08373794704675674,0.011870171874761581
1.729495050212984e+18,0.010909500531852245,0.06814174354076385,0.010544290766119957
1.7294950502219843e+18,0.016787193715572357,0.05342290177941322,0.01068559754639864
1.7294950502309844e+18,0.030880998820066452,0.03843000903725624,0.013339760713279247
1.7294950502399846e+18,0.048602063208818436,0.012980910018086433,0.009726597927510738
1.7294950502459848e+18,0.05541307479143143,-0.003703970927745104,0.013354542665183544
1.729495050254985e+18,0.06486330181360245,-0.02727258764207363,0.01352840568870306
1.7294950502639852e+18,0.06632337719202042,-0.04600691795349121,0.011174939572811127
1.7294950502729853e+18,0.058710988610982895,-0.056613314896821976,0.011475132778286934
1.7294950502819855e+18,0.05280710756778717,-0.05506881698966026,0.014290685765445232
1.7294950502879857e+18,0.05179372429847717,-0.05597241595387459,0.011202371679246426
1.7294950502969859e+18,0.0564337857067585,-0.0559711679816246,0.010408349335193634
1.729495050305986e+18,0.06123736873269081,-0.06602688133716583,0.011167982593178749
1.7294950503149862e+18,0.06792222708463669,-0.08119048178195953,0.010844533331692219
1.7294950503239864e+18,0.07227867841720581,-0.09535611420869827,0.012847771868109703
1.7294950503329866e+18,0.07176163047552109,-0.10191406309604645,0.012193754315376282
1.7294950503419868e+18,0.06635652482509613,-0.10399843752384186,0.01309210155159235
1.729495050350987e+18,0.06268425285816193,-0.10448937118053436,0.014315725304186344
1.7294950503599872e+18,0.058150723576545715,-0.10444167256355286,0.0169359277933836
1.7294950503689874e+18,0.05694057047367096,-0.1025068610906601,0.012093162164092064
1.7294950503779876e+18,0.058011483401060104,-0.10696755349636078,0.013464748859405518
1.7294950503839877e+18,0.06288725137710571,-0.10406152904033661,0.01502565573900938
1.729495050392988e+18,0.0639006718993187,-0.10411675274372101,0.011255945079028606
1.729495050401988e+18,0.0631418451666832,-0.10612852871417999,0.014336244203150272
1.7294950504079882e+18,0.062010373920202255,-0.10328154265880585,0.01447652094066143
1.7294950504169884e+18,0.058413632214069366,-0.10854977369308472,0.012094107456505299
1.7294950504259886e+18,0.0506533607840538,-0.10583479702472687,0.014029169455170631
1.7294950504349888e+18,0.044525131583213806,-0.1033058762550354,0.01500208955258131
1.729495050440989e+18,0.044903773814439774,-0.10321638733148575,0.010819844901561737
1.729495050449989e+18,0.05235181376338005,-0.09619895368814468,0.013614745810627937
1.7294950504589893e+18,0.05564397573471069,-0.08742611110210419,0.012448377907276154
1.7294950504679895e+18,0.051692284643650055,-0.0861467570066452,0.014933791011571884
1.7294950504769897e+18,0.05112077668309212,-0.08483925461769104,0.017662830650806427
1.72949505048599e+18,0.050173308700323105,-0.08987193554639816,0.012929301708936691
1.72949505049499e+18,0.041564229875802994,-0.08932025730609894,0.01278811413794756
1.7294950505039903e+18,0.035456325858831406,-0.09114383161067963,0.013917835429310799
1.7294950505099904e+18,0.03307376429438591,-0.09198618680238724,0.015189417637884617
1.7294950505189906e+18,0.03539317846298218,-0.09250494837760925,0.017068445682525635
1.7294950505279908e+18,0.037946026772260666,-0.09447507560253143,0.010828123427927494
1.729495050536991e+18,0.04115689918398857,-0.09533245861530304,0.011130721308290958
1.7294950505459912e+18,0.03976791724562645,-0.09385306388139725,0.014123109169304371
1.7294950505549914e+18,0.036030519753694534,-0.08402910083532333,0.013410038314759731
1.7294950505639916e+18,0.032203253358602524,-0.08066236227750778,0.015010609291493893
1.7294950505729917e+18,0.026658203452825546,-0.07783780992031097,0.012352156452834606
1.729495050581992e+18,0.026357876136898994,-0.08055240660905838,0.010291896760463715
1.7294950505909921e+18,0.03089509904384613,-0.08813203126192093,0.013250487856566906
1.7294950505999923e+18,0.03260902315378189,-0.09399538487195969,0.013909686356782913
1.7294950506089925e+18,0.034990344196558,-0.09237687289714813,0.010891924612224102
1.7294950506179927e+18,0.033345893025398254,-0.08824371546506882,0.013072267174720764
1.729495050626993e+18,0.030536748468875885,-0.08652511984109879,0.014110111631453037
1.729495050635993e+18,0.028319204226136208,-0.0815921276807785,0.011098957620561123
1.7294950506449933e+18,0.029292212799191475,-0.07801396399736404,0.01209118403494358
1.7294950506539935e+18,0.028220903128385544,-0.08159644901752472,0.012958361767232418
1.7294950506629937e+18,0.03052719309926033,-0.08666517585515976,0.008688953705132008
1.7294950506719939e+18,0.032654762268066406,-0.09251850843429565,0.012026768177747726
1.729495050680994e+18,0.03350888565182686,-0.09485502541065216,0.009338736534118652
1.7294950506899942e+18,0.03173694759607315,-0.09602532535791397,0.011279345490038395
1.7294950506989944e+18,0.025611121207475662,-0.0997680127620697,0.011233710683882236
1.7294950507079946e+18,0.022331735119223595,-0.09695860743522644,0.010578272864222527
1.7294950507169948e+18,0.022124340757727623,-0.09568797796964645,0.010219634510576725
1.729495050725995e+18,0.02124014124274254,-0.09447254985570908,0.010321512818336487
1.7294950507349952e+18,0.029639622196555138,-0.09746608138084412,0.010177568532526493
1.7294950507439954e+18,0.03085966780781746,-0.10031554847955704,0.011184405535459518
1.7294950507529956e+18,0.029417358338832855,-0.10910951346158981,0.012541279196739197
1.7294950507619958e+18,0.02588534727692604,-0.10720475018024445,0.010080520994961262
1.729495050770996e+18,0.024837251752614975,-0.10780228674411774,0.008345391601324081
1.7294950507799962e+18,0.02259860187768936,-0.11000660806894302,0.012584606185555458
1.7294950507889964e+18,0.022084267809987068,-0.10641025751829147,0.010744850151240826
1.7294950507979965e+18,0.023841824382543564,-0.10742955654859543,0.011269462294876575
1.7294950508069967e+18,0.022522319108247757,-0.11528028547763824,0.012954860925674438
1.7294950508129969e+18,0.025012804195284843,-0.11077854782342911,0.005893785040825605
1.729495050824997e+18,0.022982385009527206,-0.11553798615932465,0.011405734345316887
1.7294950508309972e+18,0.022646421566605568,-0.11485012620687485,0.008613110519945621
1.7294950508399974e+18,0.025248564779758453,-0.11788254231214523,0.0077189006842672825
1.7294950508489976e+18,0.023875877261161804,-0.11733245849609375,0.007840253412723541
1.7294950508579978e+18,0.021120499819517136,-0.11986646801233292,0.005490805022418499
1.729495050866998e+18,0.02156474068760872,-0.11941363662481308,0.008405018597841263
1.7294950508759982e+18,0.02178494818508625,-0.12034254521131516,0.009883150458335876
1.7294950508819983e+18,0.02022036910057068,-0.12305666506290436,0.006873821374028921
1.7294950508939986e+18,0.02413381263613701,-0.12216989696025848,0.006553306244313717
1.7294950509029988e+18,0.02294960431754589,-0.11923625320196152,0.009451234713196754
1.729495050911999e+18,0.022998381406068802,-0.12389767169952393,0.009123186580836773
1.7294950509209992e+18,0.023029707372188568,-0.12509943544864655,0.008161372505128384
1.7294950509299994e+18,0.0214109867811203,-0.1274307370185852,0.006170406471937895
1.7294950509419996e+18,0.019531548023223877,-0.13243979215621948,0.006477546412497759
