timestamp,gyro_x,gyro_y,gyro_z
1.7294240205852772e+18,0.0002709940308704972,-0.0012208466650918126,-0.001144908368587494
1.7294240205912773e+18,-0.00042485198355279863,0.002262615133076906,0.0006954152486287057
1.7294240205972774e+18,-0.0026337329763919115,-0.0020695982966572046,-0.0005661043687723577
1.7294240206032776e+18,0.0003956977743655443,-1.940959236890194e-06,0.000427096412749961
1.7294240206092777e+18,-0.0016834208508953452,-0.0007644883007742465,-0.0006872181547805667
1.7294240206122778e+18,0.00019914899894502014,0.0002720583288464695,0.001830453285947442
1.729424020618278e+18,0.00022036195150576532,0.0002465665165800601,-0.002098292112350464
1.729424020624278e+18,0.00544420862570405,0.0014436561614274979,-0.00012747195432893932
1.729424020627278e+18,-0.0022964728996157646,-0.001475558034144342,-0.0011771749705076218
1.7294240206332782e+18,0.0005359787028282881,0.0012792281340807676,-0.0003069960803259164
1.7294240206392783e+18,-0.00127501436509192,-0.002310397569090128,0.00016373174730688334
1.7294240206422784e+18,-0.0013279670383781195,0.001975108403712511,-0.002399893244728446
1.7294240206482785e+18,-1.4199336874298751e-05,0.0013968524290248752,-0.0009643745142966509
1.7294240206542787e+18,0.0021091806702315807,0.0018793451599776745,0.0010150333400815725
1.7294240206602788e+18,0.0003941269824281335,0.0008614066755399108,-0.0023489638697355986
1.7294240206632788e+18,-0.0007873910362832248,-0.0005445329588837922,0.0014084108406677842
1.729424020669279e+18,-0.0018376418156549335,-0.00040071806870400906,0.0018462750595062971
1.729424020675279e+18,-0.002873638877645135,-0.0013409112580120564,0.0006772373453713953
1.7294240206812792e+18,-0.0016352713573724031,0.00134951900690794,-0.0014696652069687843
1.7294240206842793e+18,-0.00016337117995135486,-0.0035260659642517567,0.0006649679853580892
1.7294240206902794e+18,-0.0019867916125804186,0.00102699245326221,-0.002723612589761615
1.7294240206962796e+18,-0.00114734738599509,-0.001248258980922401,0.0005205183988437057
1.7294240207022797e+18,0.0007762265740893781,0.0041713290847837925,0.0007653057109564543
1.7294240207052797e+18,0.0010626026196405292,-0.0008880902314558625,-0.0013213687343522906
1.7294240207112799e+18,0.0015247123083099723,-0.000876101665198803,-0.0024807939771562815
1.72942402071728e+18,-0.001596294459886849,-6.577481315162004e-08,-0.0007716562831774354
1.7294240207232801e+18,0.0007416693260893226,-9.793496246857103e-06,-0.00033218099270015955
1.7294240207262802e+18,-0.0012601215858012438,0.0013735227985307574,-0.0032700402662158012
1.7294240207322803e+18,0.001684896880760789,0.0011746909003704786,0.0002457440132275224
1.7294240207382804e+18,0.0015774688217788935,-0.001112549565732479,-0.0007816700381226838
1.7294240207442806e+18,0.004638381768018007,0.0008635044214315712,0.0009457383421249688
1.7294240207472806e+18,0.000659119279589504,-0.0020448113791644573,0.00133751321118325
1.7294240207532808e+18,0.00020242387836333364,0.0024218379985541105,0.001702411798760295
1.729424020759281e+18,0.0008414583862759173,0.0007619471871294081,0.0011721516493707895
1.729424020765281e+18,0.0001918128546094522,-0.000405090453568846,-0.002063864842057228
1.729424020768281e+18,-0.0013705982128158212,0.0008798807975836098,0.0008765478269197047
1.7294240207742812e+18,0.0015155451837927103,-0.0022128955461084843,-0.0015453066444024444
1.7294240207802813e+18,0.0030176679138094187,-0.0005161172593943775,-0.0010676768142729998
1.7294240207862815e+18,-0.0012481855228543282,0.0008600565488450229,-0.0005400367081165314
1.7294240207892815e+18,-0.0016481446800753474,0.0008028560550883412,0.002308925148099661
1.7294240207952817e+18,-0.000531798112206161,-0.0012420972343534231,0.0008294910076074302
1.7294240208012818e+18,-0.00034426304046064615,-0.0007548953290097415,0.005018490832298994
1.729424020807282e+18,-0.0022485002409666777,-0.0017193065723404288,-0.004745941609144211
1.729424020810282e+18,-0.0010655764490365982,-0.0014628628268837929,0.0012440318241715431
1.729424020816282e+18,-0.00206584669649601,0.0014872013125568628,1.1883063962159213e-05
1.7294240208222822e+18,0.0011175593826919794,-0.0002833619073498994,-0.00216114753857255
1.7294240208282824e+18,-0.001214458025060594,0.001239278120920062,-0.0003112693957518786
1.7294240208312824e+18,0.0029961022082716227,0.0021401969715952873,-0.0024743620306253433
1.7294240208372826e+18,0.0015309376176446676,0.000622550374828279,-0.0022975525353103876
1.7294240208432827e+18,0.0014987908070906997,0.0012093399418517947,0.0016286008758470416
1.7294240208492828e+18,-0.0013415113789960742,-0.00045628429506905377,-0.0008121916907839477
1.729424020852283e+18,0.0009911243105307221,-0.00013101240620017052,3.9021695556584746e-05
1.729424020858283e+18,-0.0014366074465215206,-0.0004413911374285817,-0.0024743911344558
1.7294240208642831e+18,-0.0015680900542065501,-0.00038689590292051435,0.0010823240736499429
1.7294240208702833e+18,0.0008308818796649575,-0.0016127642011269927,0.0033366477582603693
1.7294240208732833e+18,-0.0015467579942196608,0.002228980418294668,-0.001663851784542203
1.7294240208792835e+18,-0.001007190439850092,0.000333602714817971,-0.0020008422434329987
1.7294240208852836e+18,0.0007612399640493095,-6.165083050291287e-06,0.002986235311254859
1.7294240208882836e+18,-7.456456660293043e-05,0.0010649563046172261,0.001104820636101067
1.7294240208942838e+18,0.0028857518918812275,-0.0023320133332163095,-0.002188446931540966
1.729424020900284e+18,-0.0004735086695291102,0.0008044088026508689,0.0013914217706769705
1.729424020906284e+18,-0.0006931985262781382,-0.00011325219384161755,0.0009980469476431608
1.7294240209122842e+18,-0.0016645017312839627,-0.0025247803423553705,-0.001992148580029607
1.7294240209182843e+18,-0.0016624708659946918,-0.00018616212764754891,-0.0013770635705441236
1.7294240209212844e+18,-0.0018248914275318384,-0.0008512615459039807,0.002101537538692355
1.7294240209272845e+18,-0.0022483845241367817,0.002270324155688286,0.0022021059412509203
1.7294240209332846e+18,-0.0012545024510473013,-0.0005148172494955361,0.0013877114979550242
1.7294240209392847e+18,-0.000479447771795094,0.0008881330140866339,0.00046907589421607554
1.7294240209422848e+18,4.871561759500764e-05,0.0033395334612578154,-0.0007015449809841812
1.729424020948285e+18,-0.0005688221426680684,0.0001741609157761559,0.0011139888083562255
1.729424020954285e+18,0.0007863588980399072,-0.0028373582754284143,-0.00032464973628520966
1.729424020957285e+18,-0.0005371324368752539,-0.0015232919249683619,-0.00011999420530628413
1.7294240209632852e+18,-0.0015565264038741589,-0.001782011240720749,0.0009053174871951342
1.7294240209692854e+18,0.003124110633507371,0.0006906799389980733,0.002263141330331564
1.7294240209752855e+18,0.0022878157906234264,0.00110154808498919,0.0007277768454514444
1.7294240209782856e+18,-0.0013638506643474102,-0.0019282202702015638,-0.0007101058145053685
1.7294240209842857e+18,-0.0004105936095584184,-0.001218060264363885,0.0012931362725794315
1.7294240209902858e+18,0.0037069865502417088,0.0011261251056566834,0.001484316773712635
1.729424020993286e+18,0.0020395468454807997,-0.0010217719245702028,0.00028777000261470675
1.729424020999286e+18,0.0013389821397140622,-5.83456530875992e-05,-0.002558461157605052
1.7294240210052861e+18,-0.0043821982108056545,-0.0018845244776457548,-0.0028766526374965906
1.7294240210112863e+18,-0.002334357239305973,3.616991307353601e-05,-0.001972437836229801
1.7294240210142863e+18,0.0017075331415981054,-0.00032178303808905184,-0.0011848899303004146
1.7294240210202865e+18,0.0013143884716555476,-0.002863260917365551,-0.0030491361394524574
1.7294240210262866e+18,-0.0015604447107762098,0.003008750732988119,-0.0005434061167761683
1.7294240210322867e+18,0.003273292211815715,-5.16137843078468e-05,0.0009397168178111315
1.7294240210352868e+18,-0.0013647305313497782,-0.0009379299590364099,0.0005253643612377346
1.729424021041287e+18,0.0010636792285367846,0.0003856093098875135,0.001586125697940588
1.729424021047287e+18,-7.403661584248766e-05,-0.0007279975689016283,-0.004587679635733366
1.7294240210532872e+18,-0.0025748584885150194,-0.000910513277631253,-0.0009487007046118379
1.7294240210562872e+18,-0.0010734006064012647,-0.00041524862172082067,-0.0006350511685013771
1.7294240210622874e+18,0.0001484040403738618,-0.0034555611200630665,-0.0010582496179267764
1.7294240210682875e+18,0.0012624080991372466,-0.004454357549548149,0.0017973746871575713
1.7294240210712876e+18,-0.0028568992856889963,0.0001360756141366437,-0.0004596007929649204
1.7294240210772877e+18,5.183707980904728e-05,-0.000341252947691828,0.003605320118367672
1.7294240210832878e+18,0.0006946120993234217,0.0002295453305123374,-0.0020361002534627914
1.729424021086288e+18,0.002520194509997964,0.00013662078708875924,-0.0014661602908745408
1.729424021092288e+18,0.002470926847308874,-0.0003773449279833585,0.0006061610765755177
1.729424021098288e+18,0.0005581300356425345,0.0006308280862867832,0.0009639381314627826
1.7294240211042883e+18,-0.0016951569123193622,0.0004256893298588693,0.0029418531339615583
1.7294240211072883e+18,-0.0007430521072819829,0.001431131735444069,-0.000302508648019284
1.7294240211132884e+18,-0.001876819645985961,-0.0012944702757522464,-0.001165504101663828
1.7294240211192886e+18,0.002332643372938037,-0.0018571019172668457,0.0020385298412293196
1.7294240211222886e+18,-0.0003293340851087123,0.002358819358050823,-0.001325975637882948
1.7294240211282888e+18,0.001060351962223649,-0.0004754984693136066,0.0003456645063124597
1.729424021134289e+18,-0.0003019323630724102,0.0004394550924189389,0.0004137569630984217
1.729424021140289e+18,-0.0003153962315991521,0.0007281789439730346,0.0021447709295898676
1.729424021143289e+18,-0.0009385627927258611,0.0026483770925551653,0.002439990872517228
1.7294240211492892e+18,-0.0010130576556548476,-0.000629460730124265,-7.78532848926261e-05
1.7294240211552893e+18,0.0019463205244392157,0.0005903897108510137,0.0011103928554803133
1.7294240211612895e+18,0.0007434471044689417,-0.0010005724616348743,0.001126322546042502
1.7294240211642895e+18,0.0002920868864748627,-0.0001047272453433834,-0.0011751308338716626
1.7294240211702897e+18,0.0005316172610037029,0.0009864188032224774,0.00023008616699371487
1.7294240211762898e+18,-0.0011698795715346932,-0.0006880065775476396,-0.002386972075328231
1.7294240211792899e+18,-0.002700068522244692,0.001633728970773518,0.0010846746154129505
1.72942402118529e+18,0.002620322396978736,-0.0018929850775748491,0.0012979020830243826
1.72942402119129e+18,-0.0002632764808367938,-0.0020122395362704992,-0.00041034858440980315
1.7294240211942902e+18,-0.0018106161151081324,0.0015352584887295961,0.0007967840065248311
1.7294240212002903e+18,-0.0016216994263231754,-0.0004144091799389571,0.0019795710686594248
1.7294240212062904e+18,-0.0014322736533358693,0.0009300530073232949,0.0003403847513254732
1.7294240212122906e+18,0.0007731386576779187,0.002526821568608284,-0.000555371108930558
1.7294240212152906e+18,0.0014955915976315737,0.00347954872995615,0.0016743573360145092
1.7294240212212908e+18,0.000322280713589862,-0.0009317813091911376,-0.0032758160959929228
1.729424021227291e+18,0.0014660407323390245,-0.0005848017754033208,-0.0009468331700190902
1.729424021233291e+18,-0.0009446584153920412,0.0015957398572936654,-0.00021985272178426385
1.7294240212392911e+18,0.0007126276032067835,0.00013785633200313896,0.0014916689833626151
1.7294240212422912e+18,-0.00010374450357630849,0.0015923352912068367,-0.000379959266865626
1.7294240212482913e+18,0.00017547672905493528,0.0013404414057731628,0.0036519521381706
1.7294240212542915e+18,-0.0002527273027226329,0.0028048043604940176,-0.0006157386815175414
1.7294240212602916e+18,-0.0028620788361877203,-0.0016737289261072874,0.00039615953573957086
1.7294240212632916e+18,0.0025760869029909372,0.0012520503951236606,0.0017087224405258894
1.7294240212692918e+18,0.001501077669672668,0.0031771233770996332,0.0011626731138676405
1.729424021275292e+18,0.0018452994991093874,0.0006519476883113384,-0.00017243828915525228
1.729424021278292e+18,0.0003181877254974097,0.00075928756268695,-0.00023051389143802226
1.729424021284292e+18,0.00010991005547111854,0.000496786436997354,-0.0021891111973673105
1.7294240212902922e+18,0.0011123925214633346,0.0005819498910568655,0.002230754354968667
1.7294240212962924e+18,5.811744631500915e-05,-0.0007490420830436051,-5.422511458164081e-05
1.7294240213022925e+18,-0.0027954978868365288,0.0006638739141635597,-0.00013163551921024919
1.7294240213052925e+18,0.001789154834114015,0.0013719183625653386,-3.023331555596087e-05
1.7294240213112927e+18,0.00035684325848706067,0.00039405145798809826,0.002346205059438944
1.7294240213172928e+18,0.0009087733342312276,-0.0014263817574828863,-0.0024320108350366354
1.7294240213202929e+18,0.0023070327006280422,-0.002648967085406184,-0.0001077135166269727
1.729424021326293e+18,0.0011820199433714151,0.0035566710866987705,0.0032416803296655416
1.729424021332293e+18,-0.00025069928960874677,0.0007868751417845488,0.002058770041912794
1.7294240213382932e+18,0.0005070887273177505,0.0021468361373990774,-0.0009150108089670539
1.7294240213442934e+18,-0.0005557455006055534,-0.0013118359493091702,0.0005701052723452449
1.7294240213472934e+18,-0.0008129062480293214,-0.0008824353571981192,-0.0002993554517161101
1.7294240213532936e+18,-0.0013090918073430657,0.0010499272029846907,-0.000642862229142338
1.7294240213592937e+18,-0.0034143500961363316,0.0015487933997064829,3.655681211967021e-05
1.7294240213622938e+18,-0.0024043323937803507,-0.0007547223940491676,-0.00034403521567583084
1.729424021368294e+18,-0.0018449071794748306,-0.00024261382350232452,0.0007751523517072201
1.729424021374294e+18,0.0004709035565610975,-0.0001066334662027657,0.0039605507627129555
1.7294240213802941e+18,-3.7025569326942787e-05,0.0016122295055538416,-0.004063007887452841
1.7294240213832942e+18,-0.0009225201210938394,-0.002242770278826356,-0.0004400824545882642
1.7294240213892943e+18,-0.0007722958689555526,-0.0030656319577246904,0.0016764249885454774
1.7294240213952945e+18,0.0007449531694874167,0.004374705255031586,-0.004926337394863367
1.7294240213982945e+18,0.0019165528938174248,0.0006709661101922393,-0.0008902814006432891
1.7294240214042947e+18,0.0010127010755240917,-0.0007755158585496247,0.0012758406810462475
1.7294240214102948e+18,0.00011117179383290932,-6.91797467879951e-05,-0.002863044384866953
1.729424021416295e+18,0.0034315544180572033,0.0007330499938689172,-0.0007018407923169434
1.729424021419295e+18,-0.0011714251013472676,-0.0015931441448628902,-0.001635651453398168
1.729424021425295e+18,0.001395701547153294,0.0012865624157711864,0.0020686020143330097
1.7294240214312952e+18,0.0008152230293489993,-0.0014356431784108281,-0.0014853678876534104
1.7294240214372954e+18,0.0018534210976213217,-0.002406679093837738,0.00014118454419076443
1.7294240214402954e+18,-0.0002754699089564383,0.0019433597335591912,0.000839045038446784
1.7294240214462956e+18,-0.00014114283840171993,-0.0022489558905363083,0.00028966908575966954
1.7294240214522957e+18,9.771064651431516e-05,-0.0007610764005221426,0.0002724282385315746
1.7294240214552957e+18,0.0004948090063408017,0.0007764522451907396,0.0014025317505002022
1.7294240214612959e+18,0.0009067792561836541,-0.0002824906259775162,0.0001039351336658001
1.729424021467296e+18,8.175356197170913e-05,-0.0015755599597468972,0.000497957575134933
1.729424021470296e+18,-0.001327185658738017,0.001994730904698372,-0.00024699815548956394
1.7294240214762962e+18,0.0005811314913444221,-0.0005353515734896064,0.0003422743466217071
1.7294240214822963e+18,0.0006765373982489109,0.0014003670075908303,0.0007371307583525777
1.7294240214882964e+18,8.022818656172603e-05,0.002217676257714629,0.0013911115238443017
1.7294240214912965e+18,-0.0009444557363167405,-0.0005058582755737007,-0.0005285880761221051
1.7294240214972966e+18,0.0013837835285812616,0.0018999372841790318,-0.0011756470194086432
1.7294240215032968e+18,0.00016987968410830945,0.0010246806778013706,-0.0005597608396783471
1.729424021509297e+18,0.0015065408078953624,-0.0022145516704767942,0.0011931235203519464
1.729424021512297e+18,-0.0016177475918084383,-0.0019298676634207368,0.0017685614293441176
1.729424021518297e+18,3.953300983994268e-05,-0.00029374068253673613,0.0015891208313405514
1.7294240215242972e+18,0.0009096639114432037,0.0005343422526493669,-0.0021126619540154934
1.7294240215272973e+18,-0.00033510802313685417,0.0032000539358705282,-0.0017137506511062384
1.7294240215332974e+18,0.0009666804689913988,0.0009965894278138876,0.0007196980877779424
1.7294240215392975e+18,0.0015364920254796743,-0.0010666041634976864,0.0015202462673187256
1.7294240215452977e+18,-0.0012422417057678103,-0.0005497869569808245,-0.0015632830327376723
1.7294240215482977e+18,0.0022886116057634354,-0.0007244028383865952,-0.001575971837155521
1.729424021557298e+18,-0.00033351939055137336,-0.00032348852255381644,0.0024157727602869272
1.729424021560298e+18,0.0014769721310585737,0.002426081569865346,-0.0023379125632345676
1.729424021566298e+18,0.0006650593713857234,0.0036648267414420843,0.0007857133750803769
1.7294240215722982e+18,-0.001372507424093783,-0.0026994976215064526,-0.0008731563575565815
1.7294240215752983e+18,0.0015220155473798513,0.0010860944166779518,0.0020415978506207466
1.7294240215812984e+18,-0.0007162000983953476,-0.0004127707506995648,-0.001547059160657227
1.7294240215872986e+18,9.55871946644038e-05,0.000763407617341727,-0.00027603510534390807
1.7294240215932987e+18,-0.0009791936026886106,0.0009853263618424535,-0.00027275088359601796
1.7294240215962988e+18,0.002539098495617509,-0.0014308025129139423,0.0005912783090025187
1.729424021602299e+18,-0.001316195703111589,-0.0007306681363843381,-0.000854307843837887
1.729424021608299e+18,-0.0015562779735773802,-0.0015473337844014168,0.0022057753521949053
1.7294240216142991e+18,0.0021101091988384724,0.002049832371994853,0.0027435594238340855
1.7294240216172992e+18,0.0007399149471893907,-0.0008227939833886921,0.001629103790037334
1.7294240216262994e+18,0.0002452995104249567,-0.0008770804852247238,-0.00024085775658022612
1.7294240216292995e+18,-0.00023476422938983887,0.0007653810316696763,0.00034817663254216313
1.7294240216352996e+18,-0.00012533011613413692,0.0003202536317985505,0.0008361769141629338
1.7294240216412997e+18,-0.0019916347227990627,0.002929545706138015,0.0010893195867538452
1.7294240216442998e+18,-0.0003421591827645898,-0.0007780285668559372,-0.0005404858966358006
1.7294240216503e+18,-0.00012343931302893907,-0.0017914727795869112,0.0005968234036117792
1.7294240216563e+18,-0.0015491772210225463,0.0028405545745044947,-0.0008524665609002113
1.7294240216623002e+18,-0.0014175793621689081,0.0019462037598714232,0.00025789145729504526
1.7294240216653002e+18,0.0016910562990233302,0.0005748450057581067,-0.00012616580352187157
1.7294240216713004e+18,-0.0008141156286001205,-0.0030854614451527596,0.00013932367437519133
1.7294240216773005e+18,0.0016069445991888642,4.783605254488066e-05,0.000302742759231478
1.7294240216803005e+18,0.0009829626651480794,0.000549359421711415,-0.0022140166256576777
1.7294240216863007e+18,0.002264149487018585,0.0007029551197774708,0.00230975728482008
1.7294240216923008e+18,0.0004785315541084856,-0.000300185929518193,-0.0012029226636514068
1.729424021698301e+18,0.0022685038857162,0.0006403389852494001,-0.002482297830283642
1.729424021701301e+18,0.0001549167645862326,-0.0005368581041693687,-0.00019110301218461245
1.729424021707301e+18,-0.001067634904757142,-0.0013834798010066152,-0.0012135509168729186
1.7294240217133012e+18,-0.002476875437423587,0.0003880078438669443,0.0018904921598732471
1.7294240217193014e+18,-0.0005232198745943606,0.0025649648159742355,-0.0006956521538086236
1.7294240217253015e+18,0.0001422299537807703,-0.0014469161396846175,0.0011162208393216133
1.7294240217283016e+18,9.12439645617269e-05,-0.0008308383403345942,1.3229413525550626e-05
1.7294240217343017e+18,0.0010711674112826586,-0.00042472174391150475,0.00032140419352799654
1.7294240217403018e+18,0.000657196098472923,-0.0007232393836602569,-0.0009865089086815715
1.729424021746302e+18,0.0002305892703589052,-0.0011481714900583029,0.002364558167755604
1.729424021749302e+18,-0.000583035231102258,0.00150673883035779,-0.0002122933219652623
1.7294240217553021e+18,-0.0028763567097485065,0.0027557865250855684,0.0003226029803045094
1.7294240217613023e+18,0.0014004743425175548,0.00022635696223005652,0.001289267442189157
1.7294240217673024e+18,-0.0006902229506522417,0.0006186570390127599,-0.0011869879672303796
1.7294240217733025e+18,-1.975644045160152e-05,0.0025756345130503178,0.0006019826978445053
1.7294240217763026e+18,0.001476949080824852,0.002461989177390933,-0.0011763002257794142
1.7294240217823027e+18,-0.0012059295549988747,0.0014692936092615128,0.00139362714253366
1.7294240217883028e+18,-0.000609875307418406,0.0009579891921021044,0.00042379507794976234
1.729424021794303e+18,-0.0008822098025120795,-0.00016791665984783322,0.002303023124113679
1.729424021797303e+18,-0.004191312473267317,-0.0005677934968844056,-0.0026902006939053535
1.7294240218033032e+18,0.001817898591980338,8.000472007552162e-05,-0.0004591138567775488
1.7294240218093033e+18,-0.0032772617414593697,0.0007880144403316081,-0.0025124221574515104
1.7294240218123034e+18,-0.00018988491501659155,0.0016274588415399194,-0.001525568193756044
1.7294240218183035e+18,-0.0005675007705576718,-0.0011194382095709443,-0.001384366536512971
1.7294240218243036e+18,-0.0019566200207918882,0.0003753540222533047,-0.002855171449482441
1.7294240218273037e+18,0.0009614917798899114,-0.0005596036207862198,0.0011113743530586362
1.7294240218333038e+18,0.0006181478383950889,0.00021463028679136187,-0.002611822448670864
1.729424021839304e+18,-0.0015184002695605159,0.0014362446963787079,-0.00102580850943923
1.729424021845304e+18,0.00011352337605785578,0.0019211603794246912,-0.00027168498490937054
1.729424021848304e+18,0.000865410955157131,-0.001980189234018326,0.0015047906199470162
1.7294240218543043e+18,0.0012762456899508834,0.00027092869277112186,-0.00025842926697805524
1.7294240218603044e+18,-0.003820521757006645,-0.0016169986920431256,-0.0022601927630603313
1.7294240218663045e+18,0.0006479801377281547,-0.002339351689442992,-0.0014003413962200284
1.7294240218693046e+18,0.0018001423450186849,-0.0008108351030386984,-0.0009318568627350032
1.7294240218753047e+18,-0.00025628693401813507,-0.00030083669116720557,-0.00045078256516717374
1.7294240218813048e+18,0.0006984251667745411,-0.0011331638088449836,-0.0006937432917766273
1.729424021884305e+18,-0.0026234202086925507,0.0010519321076571941,-0.000343909312505275
1.729424021890305e+18,-0.0031360466964542866,-0.0003682860406115651,-0.002079015364870429
1.7294240218963052e+18,0.002834885846823454,0.002715139649808407,-0.002545316005125642
1.7294240218993052e+18,-0.0024359470698982477,-0.0007148780860006809,0.0024676311295479536
1.7294240219053053e+18,0.0013402148615568876,0.000961854646448046,0.0001842633937485516
1.7294240219113055e+18,0.0022608910221606493,-0.001486809691414237,0.0009837772231549025
1.7294240219173056e+18,-0.0035352346021682024,0.0008048362797126174,0.002734472043812275
1.7294240219203057e+18,1.031822193908738e-06,-0.00016916170716285706,0.00035454623866826296
1.7294240219263058e+18,8.867554424796253e-05,-0.001438733539544046,0.000532636244315654
1.729424021932306e+18,-0.001440288033336401,0.0017183093586936593,0.001466439920477569
1.729424021935306e+18,-0.0004207235178910196,-0.0018747816793620586,0.00015320713282562792
1.729424021941306e+18,-0.0015266528353095055,-0.0005129983765073121,-0.000888843962457031
1.7294240219473062e+18,-9.33657938730903e-05,-0.003466577734798193,-0.0008138969424180686
1.7294240219503063e+18,-0.0012935386039316654,-0.002391283167526126,-0.0002834083279594779
1.7294240219563064e+18,0.0006025303155183792,0.0009391614003106952,-0.00020027326536364853
1.7294240219623066e+18,-0.0011281186016276479,0.0005346614052541554,0.0024498049169778824
1.7294240219653066e+18,-0.00026404790696687996,-6.665237833658466e-06,0.001026120618917048
1.7294240219713068e+18,-0.002384429331868887,0.0007056009490042925,-0.0018760671373456717
1.729424021977307e+18,0.002492786617949605,-0.0007252370123751462,-0.00278892507776618
1.729424021983307e+18,-0.0018138238228857517,0.0004214314976707101,-0.00039975455729290843
1.7294240219893071e+18,0.0019875180441886187,-0.004906369373202324,-5.9060392231913283e-05
1.7294240219923072e+18,-0.00041115342173725367,-0.0008471041801385581,0.002030670642852783
1.7294240219983073e+18,0.00016715290257707238,-0.0013817951548844576,0.0014287165831774473
1.7294240220043075e+18,0.00010664469300536439,0.0027690802235156298,-0.0009248317801393569
1.7294240220103076e+18,-1.2807442544726655e-05,-0.0011472488986328244,-0.002178622642531991
1.7294240220133076e+18,0.0007144976407289505,0.0008221074240282178,-0.0007592309266328812
1.7294240220193078e+18,0.0001908295671455562,-0.003297047456726432,-0.0016222732374444604
1.729424022025308e+18,0.00138718297239393,0.002344214590266347,0.0005559534183703363
1.729424022031308e+18,0.001314911525696516,0.0015493363607674837,0.0004200059629511088
1.729424022034308e+18,-0.00043002760503441095,0.0009982021292671561,0.002735857153311372
1.7294240220403082e+18,0.0014340027701109648,-0.0006790212355554104,-0.0013549227733165026
1.7294240220463084e+18,0.002008099341765046,-0.001071841106750071,-0.0006388878682628274
1.7294240220523085e+18,0.0016096915351226926,-4.48648352175951e-05,0.0012440562713891268
1.7294240220553085e+18,0.0016629771562293172,-0.0009184147929772735,-0.00027985378983430564
1.7294240220613087e+18,-0.002474165288731456,0.00012204337690491229,-0.002103332197293639
1.7294240220673088e+18,0.0007084633689373732,-0.002683712402358651,-0.0037803908344358206
1.7294240220703089e+18,-0.0018851605709642172,0.0007536594057455659,-0.00170887669082731
1.729424022076309e+18,-0.0028120032511651516,0.0003495295241009444,0.0011032074689865112
1.729424022082309e+18,-0.00017628430214244872,0.0013938064221292734,0.002668350236490369
1.7294240220853092e+18,3.548771928763017e-05,-0.0011664086487144232,-0.0010377163998782635
1.7294240220913093e+18,0.0005160467117093503,-3.758252569241449e-05,-6.551040132762864e-05
1.7294240220973094e+18,0.000877759070135653,-0.0026659811846911907,-0.0013389820232987404
1.7294240221033096e+18,0.0008521699346601963,-0.00012957348371855915,-0.0004847400414291769
1.7294240221063096e+18,-0.0016943328082561493,-0.0018493140814825892,-0.00041495024925097823
1.7294240221123098e+18,-0.0015188760589808226,-0.002034439705312252,0.000343476451234892
1.72942402211831e+18,0.0005954897496849298,-0.0007788966759108007,-0.0025122694205492735
1.72942402212431e+18,0.0018753382610157132,0.0018132035620510578,-0.00014700433530379087
1.7294240221303101e+18,0.0018974667182192206,-0.0008859921363182366,0.003509169677272439
1.7294240221333102e+18,-0.00020125953597016633,0.00042927905451506376,-0.00010500071221031249
1.7294240221393103e+18,-0.0005399641231633723,-0.0014313552528619766,-0.0019195106578990817
1.7294240221453105e+18,-0.0024853225331753492,-0.00019015716679859906,0.00031859628506936133
1.7294240221483105e+18,-0.0013334383256733418,-0.002877556486055255,-0.0003515937423799187
1.7294240221543107e+18,-0.001499946229159832,-0.002828077645972371,-0.0008598510175943375
1.7294240221603108e+18,0.0007379183080047369,-0.0023816656321287155,-0.0014180224388837814
1.729424022166311e+18,0.00014453683979809284,0.001269986853003502,-0.004378709942102432
1.729424022169311e+18,-0.0018029012717306614,0.0016019931063055992,0.0011816484620794654
1.729424022175311e+18,0.002683227648958564,0.0005289160762913525,0.001333835069090128
1.7294240221813112e+18,0.0010298395063728094,-0.0008265016949735582,0.003240759950131178
1.7294240221843113e+18,0.0018600657349452376,-0.0012522342149168253,8.658674778416753e-05
1.7294240221903114e+18,0.002764991717413068,-0.0011565001914277673,-0.00057660520542413
1.7294240221963116e+18,-0.0015516099520027637,-0.0023854521568864584,-0.0011387025006115437
1.7294240222023117e+18,0.0002608956128824502,-0.002709759399294853,0.0013805072521790862
1.7294240222053117e+18,0.0016341994050890207,0.0017906691646203399,0.0013417024165391922
1.7294240222113119e+18,-0.0006033138488419354,0.0021541102323681116,-0.001399894361384213
1.729424022217312e+18,-0.0016734111122786999,0.00039011484477669,0.001112649799324572
1.7294240222233121e+18,-0.0030255448073148727,-0.0005173755926080048,-0.00031957292230799794
1.7294240222263122e+18,-0.0013169434387236834,0.005112214479595423,-5.1399547373875976e-05
1.7294240222323123e+18,0.004364679101854563,-0.0018343935953453183,0.0016970905708149076
1.7294240222383124e+18,-0.001987084513530135,0.0024962997995316982,7.28675804566592e-05
1.7294240222443126e+18,0.0013978180941194296,0.0012640790082514286,-9.473412501392886e-05
1.7294240222473126e+18,0.0007227404857985675,-0.0004185123834758997,-0.0015935935080051422
1.7294240222533128e+18,-8.680969767738134e-05,-0.0027116548735648394,0.0017385791288688779
1.729424022259313e+18,0.001221002428792417,-0.0001965437113540247,0.0016146376729011536
1.729424022265313e+18,-0.00020835532632190734,0.000820884364657104,0.0007928723352961242
1.7294240222713132e+18,-0.0017618450801819563,0.0010329759679734707,0.0003085028438363224
1.7294240222743132e+18,0.001436243881471455,0.0007591826724819839,0.0018277005292475224
1.7294240222803133e+18,-0.0016388570656999946,-0.0015696119517087936,0.001699152053333819
1.7294240222863135e+18,0.002302458742633462,-0.00017230557568836957,-0.0006124543724581599
1.7294240222923136e+18,0.0033250057604163885,0.0012594860745593905,0.0028779893182218075
1.7294240222953137e+18,-0.0004944565589539707,0.000806557887699455,-0.00014622305752709508
1.7294240223013138e+18,-0.0009159765322692692,-2.5971830837079324e-05,-0.0011608420172706246
1.729424022307314e+18,0.0009179118787869811,-0.0018555056303739548,0.0003871449443977326
1.729424022313314e+18,-0.0007245902088470757,0.0010381501633673906,-0.0006368978647515178
1.729424022316314e+18,-0.001264550955966115,0.0009002775768749416,0.0012669850839301944
1.7294240223223142e+18,0.0008873746264725924,-0.0004948205896653235,-0.00020970599143765867
1.7294240223283144e+18,0.00016856730508152395,0.00011736051237676293,-0.0002461145049892366
1.7294240223313144e+18,0.0005425765994004905,-0.0009055817499756813,-5.8974765124730766e-05
1.7294240223373146e+18,-0.0011574451345950365,-0.0009114029235206544,0.001102119218558073
1.7294240223433147e+18,0.0007337651331909001,0.0007000565528869629,-0.00020767255045939237
1.7294240223493148e+18,0.0005962866125628352,0.002469806931912899,0.0009834468364715576
1.729424022352315e+18,0.002779843518510461,-0.0017629630165174603,0.001463095541112125
1.729424022358315e+18,0.0008627925417385995,-0.0004609000461641699,-0.0029052868485450745
1.7294240223643151e+18,0.0003639034694060683,0.0005607758648693562,8.780286589171737e-05
1.7294240223673152e+18,0.00016967050032690167,0.003289094427600503,-0.003133323509246111
1.7294240223733153e+18,0.0018605802906677127,0.0010736886179074645,0.000250451936153695
1.7294240223793155e+18,0.002091647358611226,-0.0010148747824132442,0.0010652291821315885
1.7294240223853156e+18,-0.0018835245864465833,0.00048194281407631934,6.857289554318413e-05
1.7294240223883156e+18,-0.000967361789662391,-0.0024956257548183203,0.0013119016075506806
1.7294240223943158e+18,-0.005532287061214447,0.0027542791794985533,0.0007839407189749181
1.729424022400316e+18,-0.00025528704281896353,0.0010291117941960692,0.000973969348706305
1.729424022406316e+18,0.0026962989941239357,-0.0012416662648320198,-0.00019343860913068056
1.729424022409316e+18,-0.0009849874768406153,0.0005961499409750104,0.0025102293584495783
1.7294240224153162e+18,-0.0024035468231886625,-0.0014500143006443977,-0.0032255679834634066
1.7294240224213164e+18,0.0003976746229454875,0.0001480915816500783,-0.0035253760870546103
1.7294240224243164e+18,-0.0002081251295749098,0.0003695819468703121,-0.0010187345324084163
1.7294240224303165e+18,-0.0017515873769298196,-0.0007556129130534828,6.0976883105468005e-05
1.7294240224363167e+18,-0.003409232711419463,-0.002595076570287347,0.003110553603619337
1.7294240224423168e+18,-0.001191267860122025,-0.0017583641456440091,-0.0017500771209597588
1.7294240224453169e+18,-0.0019799608271569014,0.0006340593099594116,-0.0017289905808866024
1.729424022451317e+18,-0.0023359376937150955,5.992646038066596e-05,0.0011473566992208362
1.729424022457317e+18,-0.0015154993161559105,-0.0016052954597398639,-0.0020565898157656193
1.7294240224603172e+18,0.0015960821183398366,0.0006542291375808418,0.002529567340388894
1.7294240224663173e+18,-0.0005337533075362444,-0.00025006066425703466,-0.0017410890432074666
1.7294240224723174e+18,0.0024037163238972425,0.0036343149840831757,-0.00012586907541844994
1.7294240224783176e+18,0.0006713925977237523,0.00021118648874107748,0.000746093166526407
1.7294240224843177e+18,-0.00017274402489420027,-0.0011579792480915785,-0.0021357594523578882
1.7294240224903178e+18,0.0016215532086789608,0.0005452175973914564,-0.001873278757557273
1.729424022493318e+18,0.0018903349991887808,0.0037208038847893476,0.0003218702331651002
1.729424022499318e+18,0.0011417845962569118,-0.0032901261001825333,0.00024653441505506635
1.7294240225053181e+18,-0.00011669370724121109,0.0017387712141498923,0.0008286352967843413
1.7294240225113183e+18,0.0026313508860766888,0.0022901578340679407,0.0009719307417981327
1.7294240225173184e+18,0.0007194764912128448,0.00033285963581874967,0.002708021318539977
1.7294240225233185e+18,-0.0005882798577658832,-0.00025840121088549495,0.0004534166073426604
1.7294240225293187e+18,-0.00038868869887664914,-8.011630416149274e-05,0.00029239378636702895
1.7294240225353188e+18,-0.002032702323049307,0.00042922672582790256,-0.002551536774262786
1.7294240225383188e+18,0.002981472061946988,0.0034617481287568808,-0.0032424500677734613
1.729424022544319e+18,-0.0016374713741242886,-0.0004862278583459556,-0.0014071660116314888
1.729424022550319e+18,0.0003735549689736217,-0.0013448544777929783,0.0014302755007520318
1.7294240225563192e+18,0.002771544037386775,-8.566130418330431e-05,-0.0018030406208708882
1.7294240225623194e+18,-0.0009010947542265058,4.9205704272026196e-05,0.00040168140549212694
1.7294240225683195e+18,-0.0018221298232674599,-0.0017363678198307753,-0.00028633075999096036
1.7294240225743196e+18,0.0018151617841795087,-0.0010919396299868822,-0.0010226144222542644
1.7294240225803197e+18,-0.0014370802091434598,0.00035284613841213286,-0.0019552225712686777
1.72942402258632e+18,0.0007998146465979517,0.0008494469802826643,0.001338673522695899
1.72942402259232e+18,0.0006372309289872646,-0.0012390363262966275,0.002202332252636552
1.72942402259832e+18,0.0020370581187307835,0.0009813484502956271,0.0012059970758855343
1.7294240226013202e+18,0.0010189583990722895,-0.0017879684455692768,-0.0011878451332449913
1.7294240226073203e+18,0.0006328391027636826,-0.001476059085689485,-0.003703307593241334
1.7294240226133204e+18,0.0007884453516453505,-0.0014485057909041643,-0.0034358217380940914
1.7294240226193206e+18,0.000608716974966228,0.002682564314454794,0.0003455991391092539
1.7294240226223206e+18,0.003055855631828308,-0.0014971476048231125,0.00025224327691830695
1.7294240226283208e+18,-6.432313966797665e-05,0.0022030749823898077,0.002379724755883217
1.729424022634321e+18,0.00039343987009488046,-0.0002114683884428814,-0.00034830477670766413
1.729424022640321e+18,0.0009317506919614971,-0.0007542302482761443,0.00040677355718798935
1.7294240226463212e+18,0.0019138272618874907,-0.0021601649932563305,0.0012903744354844093
1.7294240226493212e+18,-0.0027622669003903866,-0.0019795307889580727,-0.00027118553407490253
1.7294240226553213e+18,0.0017578712431713939,-0.001468935632146895,-0.0008403814863413572
1.7294240226613215e+18,-3.284630656708032e-05,0.001779343350790441,0.0030077355913817883
1.7294240226673216e+18,-0.001601257361471653,0.00022001404431648552,3.3291806175839156e-05
1.7294240226733217e+18,-0.0025362910237163305,-0.0010080710053443909,-0.0010952588636428118
1.7294240226793219e+18,7.89208133937791e-05,-0.0019968594424426556,-0.000787053257226944
1.729424022685322e+18,0.0006283069378696382,-0.0011621576268225908,0.0005347863188944757
1.729424022691322e+18,-0.001655225525610149,-0.0010654710931703448,-0.001947977812960744
1.7294240226973222e+18,-0.0012081668246537447,0.002159637399017811,-0.0002124717429978773
1.7294240227033224e+18,0.0018113834084942937,0.0009047406492754817,-0.0010432690614834428
1.7294240227063224e+18,0.0012587652308866382,-0.0022314894013106823,0.0016287969192489982
1.7294240227123226e+18,-0.001815403113141656,0.00017922061670105904,-0.0022396324202418327
1.7294240227183227e+18,0.0007358320872299373,0.0012246984988451004,0.0031998453196138144
1.7294240227243228e+18,-0.0018939014989882708,0.0005210372037254274,0.0008223974145948887
1.729424022730323e+18,-0.0023349567782133818,0.0011031751055270433,0.00025158203789032996
1.729424022733323e+18,0.0019331357907503843,-0.0019571457523852587,0.0005190550000406802
1.7294240227393231e+18,0.0013553485041484237,-0.00015375562361441553,0.0021213677246123552
1.7294240227453233e+18,-0.0011321711353957653,0.0014852054882794619,0.0007045960519462824
1.7294240227513234e+18,0.003105920273810625,-0.0010060310596600175,0.0011720730690285563
1.7294240227573235e+18,0.0017579960403963923,0.0006812416831962764,-0.0028717471286654472
1.7294240227633236e+18,-0.001580956974066794,-0.00192246213555336,-0.0006956119323149323
1.7294240227693238e+18,0.0014493392081931233,-0.00012508363579399884,0.000277824787190184
1.7294240227723238e+18,0.00025927621754817665,0.0029338335152715445,0.00017093408678192645
1.729424022778324e+18,-7.782103057252243e-05,-0.0014969472540542483,-0.0014708195813000202
1.729424022784324e+18,0.0007351772510446608,-6.644439417868853e-05,-0.0011169438948854804
1.7294240227903242e+18,0.0010987852001562715,0.002506813732907176,0.0008004360715858638
1.7294240227963244e+18,-0.002944699488580227,0.002477798145264387,-0.0010881454218178988
1.7294240227993244e+18,0.00038139254320412874,-0.0005951361963525414,-0.0022487968672066927
1.7294240228053245e+18,-0.0012578568421304226,-0.0003625195531640202,0.0034033346455544233
1.7294240228113247e+18,0.0008918425301089883,-0.0012641303474083543,-0.0013607366709038615
1.7294240228173248e+18,0.001363990711979568,-0.00011011093738488853,0.0032210920471698046
1.7294240228203249e+18,0.0010549401631578803,-0.000546841009054333,-0.000492836581543088
1.729424022826325e+18,0.001659482717514038,-0.000253748323302716,-0.0010151542956009507
1.729424022832325e+18,-0.0019474937580525875,-0.0005093222134746611,0.0005474388599395752
1.7294240228353252e+18,0.0010013919090852141,0.0004890600102953613,0.00019303000590298325
1.7294240228413253e+18,-8.007697033463046e-05,0.0004837174783460796,0.0003302717814221978
1.7294240228473254e+18,-0.0011772288708016276,0.0011462277034297585,-0.0013887474779039621
1.7294240228533256e+18,-0.002453771186992526,-0.00196802313439548,0.001209123176522553
1.7294240228563256e+18,-0.0011405510595068336,0.0014390471624210477,0.0008327063405886292
1.7294240228623258e+18,0.0008303414797410369,0.00022712914505973458,0.0006167705869302154
1.729424022868326e+18,0.0004750928783323616,-9.253128519048914e-05,0.0014355273451656103
1.729424022874326e+18,-0.00019242230337113142,-0.0020701447501778603,-0.0016647550510242581
1.729424022877326e+18,-0.0023432308807969093,-0.0012759577948600054,0.0012890648795291781
1.7294240228833262e+18,-0.002305364003404975,0.00038530430174432695,0.0024465497117489576
1.7294240228893263e+18,-0.0011620742734521627,-0.0015724333934485912,-0.001462528365664184
1.7294240228953265e+18,-0.0009460869478061795,0.0010596065549179912,-0.0010850504040718079
1.7294240228983265e+18,0.0016659896355122328,-0.0030026824679225683,0.001612710882909596
1.7294240229043267e+18,0.000694979855325073,-0.0011715233558788896,-0.0012883415911346674
1.7294240229103268e+18,-0.001137391896918416,-0.0004733242094516754,0.0009718239889480174
1.729424022916327e+18,-0.0004002512141596526,0.000796851993072778,0.00039982463931664824
1.729424022922327e+18,0.0008542963769286871,-0.0013689904008060694,-0.0006056638085283339
1.7294240229283272e+18,0.0002938965626526624,0.0012847676407545805,0.0010232055792585015
1.7294240229313272e+18,-0.001320953480899334,0.0006463390891440213,0.00042551790829747915
1.7294240229373274e+18,0.0005296922754496336,-0.0017330567352473736,0.0001924425014294684
1.7294240229433275e+18,-0.0004199461545795202,0.0014327344251796603,-0.0032401487696915865
1.7294240229493276e+18,0.0019105710089206696,0.0006619817577302456,0.002245701616629958
1.7294240229553277e+18,0.00178149261046201,-0.0013240460539236665,0.00035832246067002416
1.7294240229583278e+18,-0.0037462585605680943,-0.0007409956306219101,-0.0006371462950482965
1.729424022964328e+18,-0.0019102046499028802,-0.0004564087139442563,0.0005098455585539341
1.729424022970328e+18,0.0012965130154043436,0.001341936644166708,-0.0013730726204812527
1.7294240229733281e+18,0.0021364083513617516,0.0013134225737303495,0.0010850137332454324
1.7294240229793283e+18,-0.001247119507752359,-0.0016772011294960976,0.0030321439262479544
1.7294240229853284e+18,-7.443330105161294e-05,0.00024627704988233745,-0.0005789700080640614
1.7294240229913285e+18,-0.0030673996079713106,-0.0015311113093048334,0.0012054635444656014
1.7294240229973286e+18,-0.008715597912669182,0.007162175141274929,-0.001106301904655993
1.7294240230033288e+18,-0.04470444843173027,0.038554079830646515,-0.0011481104884296656
1.7294240230063288e+18,-0.06499691307544708,0.05386703833937645,-0.001302447635680437
1.729424023012329e+18,-0.10444221645593643,0.0870482474565506,-0.002433955669403076
1.729424023018329e+18,-0.1368165910243988,0.11628860235214233,-0.0023501908872276545
1.7294240230243292e+18,-0.16168713569641113,0.1426490694284439,-0.001757382764481008
1.7294240230303293e+18,-0.1778520792722702,0.15475110709667206,-0.003355612512677908
1.7294240230333294e+18,-0.17344358563423157,0.15943822264671326,-0.0024819921236485243
1.7294240230393295e+18,-0.16693858802318573,0.1552249640226364,-0.0029236236587166786
1.7294240230453297e+18,-0.14788612723350525,0.15116624534130096,-0.0024168649688363075
1.7294240230483297e+18,-0.13755346834659576,0.14270009100437164,-0.0041759563609957695
1.7294240230543299e+18,-0.1207132339477539,0.1357281357049942,-0.0007168394513428211
1.72942402306033e+18,-0.10921023041009903,0.12681126594543457,-0.0032277132850140333
1.72942402306633e+18,-0.10181733220815659,0.12574413418769836,-0.0033163842745125294
1.7294240230693302e+18,-0.1029042899608612,0.12463396787643433,-0.003806568216532469
1.7294240230753303e+18,-0.1106877475976944,0.12779688835144043,-0.0031528810504823923
1.7294240230813304e+18,-0.12526680529117584,0.13288290798664093,-0.0041674720123410225
1.7294240230873306e+18,-0.13963469862937927,0.135984867811203,-0.008196518756449223
1.7294240230903306e+18,-0.1449708491563797,0.13991841673851013,-0.00452469801530242
1.7294240230963308e+18,-0.1474931687116623,0.13848020136356354,-0.006433441769331694
1.729424023102331e+18,-0.14088602364063263,0.13952046632766724,-0.005823373328894377
1.729424023105331e+18,-0.13901746273040771,0.13535067439079285,-0.006098188925534487
1.729424023111331e+18,-0.12100231647491455,0.1240830197930336,-0.00888417661190033
1.7294240231173312e+18,-0.09910328686237335,0.115998275578022,-0.006722106598317623
1.7294240231203313e+18,-0.088340625166893,0.10826371610164642,-0.00510361697524786
1.7294240231263314e+18,-0.07395480573177338,0.0990578904747963,-0.008272137492895126
1.7294240231323315e+18,-0.05905430018901825,0.09016010165214539,-0.009133787825703621
1.7294240231383316e+18,-0.05311684310436249,0.08371986448764801,-0.008268482983112335
1.7294240231443318e+18,-0.056291453540325165,0.07834926247596741,-0.006699955090880394
1.7294240231473318e+18,-0.05602174252271652,0.07334219664335251,-0.008047059178352356
1.729424023153332e+18,-0.06018582731485367,0.07261479645967484,-0.0069050658494234085
1.729424023159332e+18,-0.06633949279785156,0.06956253200769424,-0.011320503428578377
1.7294240231623322e+18,-0.06787709891796112,0.06515894085168839,-0.010257266461849213
1.7294240231683323e+18,-0.06398551911115646,0.06212090700864792,-0.008479084819555283
1.7294240231743324e+18,-0.05837703496217728,0.05362560227513313,-0.010835141874849796
1.7294240231803325e+18,-0.043668027967214584,0.044693946838378906,-0.008470646105706692
1.7294240231863327e+18,-0.028008917346596718,0.03605323284864426,-0.00929582305252552
1.7294240231893327e+18,-0.022254515439271927,0.030758004635572433,-0.00532975047826767
1.7294240231953329e+18,-0.00664050318300724,0.020338380709290504,-0.005355206783860922
1.729424023201333e+18,0.004598557483404875,0.014858883805572987,-0.0063118417747318745
1.729424023204333e+18,0.008202048018574715,0.01379276905208826,-0.006610899697989225
1.7294240232103332e+18,0.011504080146551132,0.007585998624563217,-0.006162623874843121
1.7294240232163333e+18,0.012243031524121761,0.0010711860377341509,-0.005542536731809378
1.7294240232223334e+18,0.007070960942655802,-0.0005963928997516632,-0.00699646957218647
1.7294240232253335e+18,0.00836968794465065,-0.002513191429898143,-0.003912380896508694
1.7294240232313336e+18,0.002957010641694069,-0.006083416286855936,-0.002551108133047819
1.7294240232373338e+18,0.005473797209560871,-0.010824525728821754,-0.007183556444942951
1.729424023243334e+18,0.013566374778747559,-0.0208332110196352,-0.002283868147060275
1.729424023246334e+18,0.013325604610145092,-0.019157499074935913,-0.002075282158330083
1.729424023252334e+18,0.024420222267508507,-0.025881020352244377,-0.0034687407314777374
1.7294240232583342e+18,0.030997272580862045,-0.029505394399166107,-0.0006881607696413994
1.7294240232643343e+18,0.03947452828288078,-0.033674221485853195,-0.005573048256337643
1.7294240232703345e+18,0.044936537742614746,-0.04093589633703232,-0.0020042790565639734
1.7294240232733345e+18,0.04676679149270058,-0.04358411580324173,-0.0041245343163609505
1.7294240232793347e+18,0.050216495990753174,-0.04676055535674095,-0.004216112662106752
1.7294240232853348e+18,0.05051179230213165,-0.046715691685676575,-0.00408050324767828
1.729424023291335e+18,0.04718394577503204,-0.04824374243617058,-0.004463709890842438
1.729424023297335e+18,0.04577287286520004,-0.05276358127593994,-0.002716489601880312
1.729424023300335e+18,0.04566902294754982,-0.05311785638332367,-0.004421390127390623
1.7294240233063352e+18,0.04330875724554062,-0.054557476192712784,-0.007635279092937708
1.7294240233123354e+18,0.04516245052218437,-0.056610122323036194,-0.006017627194523811
1.7294240233183355e+18,0.0496688149869442,-0.058069147169589996,-0.004678217228502035
1.7294240233213356e+18,0.05054483190178871,-0.06192970275878906,-0.006729750894010067
1.7294240233273357e+18,0.05268366262316704,-0.05955122038722038,-0.00738152489066124
1.7294240233333358e+18,0.05841556191444397,-0.06580589711666107,-0.00468019675463438
1.729424023339336e+18,0.06131116300821304,-0.06824828684329987,-0.008427252992987633
1.729424023342336e+18,0.06163761764764786,-0.0683254525065422,-0.0057890573516488075
1.729424023348336e+18,0.06527027487754822,-0.06943989545106888,-0.00623494666069746
1.7294240233543363e+18,0.06674779951572418,-0.07021904736757278,-0.003507229732349515
1.7294240233573363e+18,0.06457331031560898,-0.06842361390590668,-0.003881954587996006
1.7294240233633364e+18,0.061358653008937836,-0.06776364892721176,-0.005808726418763399
1.7294240233693366e+18,0.05946129560470581,-0.06775861978530884,-0.005777390208095312
1.7294240233753367e+18,0.05358419567346573,-0.0649004876613617,-0.006927375681698322
1.7294240233813368e+18,0.0585610531270504,-0.06184791773557663,-0.007491776719689369
1.729424023384337e+18,0.05763576924800873,-0.06538865715265274,-0.004622211214154959
1.729424023390337e+18,0.0563121922314167,-0.06212163716554642,-0.004589869640767574
1.7294240233963372e+18,0.06121920794248581,-0.06582174450159073,-0.0065829697996377945
1.7294240234023373e+18,0.05827329307794571,-0.06957271695137024,-0.005883257370442152
1.7294240234053373e+18,0.05998844653367996,-0.06933953613042831,-0.007698178756982088
1.7294240234113375e+18,0.06209734082221985,-0.06948841363191605,-0.007896658964455128
1.7294240234173376e+18,0.06030941382050514,-0.07164798676967621,-0.0030054948292672634
1.7294240234203377e+18,0.05898517370223999,-0.06653773784637451,-0.0050826650112867355
1.7294240234263378e+18,0.055474892258644104,-0.06601761281490326,-0.0061536491848528385
1.729424023432338e+18,0.0547298938035965,-0.06589817255735397,-0.0057409703731536865
1.729424023438338e+18,0.05265446752309799,-0.06519252806901932,-0.0061787813901901245
1.729424023441338e+18,0.05096698924899101,-0.0628286600112915,-0.004510045982897282
1.7294240234473382e+18,0.04860791563987732,-0.05861517786979675,-0.004196099936962128
1.7294240234533384e+18,0.048506081104278564,-0.06075054034590721,-0.005559499841183424
1.7294240234593385e+18,0.05070246383547783,-0.056778229773044586,-0.006232723128050566
1.7294240234623386e+18,0.04994023218750954,-0.055755969136953354,-0.005731828976422548
1.7294240234683387e+18,0.0522320382297039,-0.054859455674886703,-0.00710163451731205
1.7294240234743388e+18,0.05092981830239296,-0.05679742991924286,-0.008179938420653343
1.729424023480339e+18,0.05522279068827629,-0.05933920666575432,-0.004157424438744783
1.729424023483339e+18,0.052577581256628036,-0.05327734723687172,-0.0059409374371171
1.7294240234893391e+18,0.053956303745508194,-0.051861684769392014,-0.004328169859945774
1.7294240234953393e+18,0.050083037465810776,-0.05385205149650574,-0.007085163611918688
1.7294240235013394e+18,0.048684362322092056,-0.052130624651908875,-0.005122327245771885
1.7294240235043395e+18,0.04596838355064392,-0.04939119145274162,-0.008288934826850891
1.7294240235103396e+18,0.042299941182136536,-0.05023304000496864,-0.007189586758613586
1.7294240235163397e+18,0.04158403351902962,-0.04499704763293266,-0.0066397045738995075
1.7294240235223398e+18,0.04150751233100891,-0.04490024968981743,-0.009021451696753502
1.72942402352534e+18,0.040278758853673935,-0.044641152024269104,-0.007587880361825228
1.72942402353134e+18,0.03809002786874771,-0.04173200577497482,-0.0068153152242302895
1.7294240235373402e+18,0.04210319742560387,-0.043239619582891464,-0.005743547808378935
1.7294240235403402e+18,0.04380521923303604,-0.03933866322040558,-0.00820031389594078
1.7294240235463404e+18,0.043394073843955994,-0.042162731289863586,-0.003982895985245705
1.7294240235523405e+18,0.04312778636813164,-0.041172660887241364,-0.005063279997557402
1.7294240235583406e+18,0.03948521614074707,-0.03938397020101547,-0.003867505118250847
1.7294240235613407e+18,0.04013967514038086,-0.040897008031606674,-0.005559859331697226
1.7294240235673408e+18,0.038472048938274384,-0.037698209285736084,-0.009160644374787807
1.729424023573341e+18,0.03512680158019066,-0.03546130657196045,-0.0021966309286653996
1.729424023579341e+18,0.030757764354348183,-0.0327683687210083,-0.005785365588963032
1.729424023582341e+18,0.03173748031258583,-0.035233255475759506,-0.005792116746306419
1.7294240235883412e+18,0.031182773411273956,-0.03398168459534645,-0.005116723477840424
1.7294240235943414e+18,0.02789929136633873,-0.03183354064822197,-0.0019035481382161379
1.7294240236003415e+18,0.026811514049768448,-0.032373230904340744,-0.006856042891740799
1.7294240236033416e+18,0.030674394220113754,-0.02986603043973446,-0.0038386215455830097
1.7294240236093417e+18,0.030690545216202736,-0.0299165491014719,-0.004610197152942419
1.7294240236153418e+18,0.027375448495149612,-0.02709171362221241,-0.003608733182772994
1.729424023621342e+18,0.027810581028461456,-0.02311820536851883,-0.00500084413215518
1.729424023627342e+18,0.028688179329037666,-0.02761680819094181,-0.0036604097113013268
1.7294240236303421e+18,0.026724472641944885,-0.02421281300485134,-0.004608579911291599
1.7294240236363423e+18,0.02438284084200859,-0.024674225598573685,-0.00529423076659441
1.7294240236423424e+18,0.025727292522788048,-0.022114263847470284,-0.004379270598292351
1.7294240236483425e+18,0.02598588727414608,-0.023734936490654945,-0.005153686739504337
1.7294240236513426e+18,0.028889799490571022,-0.024162083864212036,-0.00587444519624114
1.7294240236573427e+18,0.025515615940093994,-0.024012194946408272,-0.00547409662976861
1.7294240236633428e+18,0.025701092556118965,-0.021546507254242897,-0.0045764511451125145
1.729424023666343e+18,0.029121823608875275,-0.021287992596626282,-0.0052419607527554035
1.729424023672343e+18,0.02678103558719158,-0.021989936009049416,-0.004830023739486933
1.7294240236783432e+18,0.027865037322044373,-0.021412592381238937,-0.004108017310500145
1.7294240236813432e+18,0.02788698673248291,-0.0219191312789917,-0.004113208036869764
1.7294240236873434e+18,0.023623371496796608,-0.022058146074414253,-0.0030721090734004974
1.7294240236933435e+18,0.023396465927362442,-0.020738080143928528,-0.005612664856016636
1.7294240236993436e+18,0.021861782297492027,-0.01944900117814541,-0.0035422202199697495
1.7294240237053437e+18,0.020419009029865265,-0.020404387265443802,-0.006029944866895676
1.7294240237083438e+18,0.02000112645328045,-0.02114632911980152,-0.0062629361636936665
1.729424023714344e+18,0.019497541710734367,-0.020406631752848625,-0.005985062103718519
1.729424023720344e+18,0.016922328621149063,-0.017192397266626358,-0.00576802110299468
1.7294240237263442e+18,0.019548965618014336,-0.017130877822637558,-0.00760828610509634
1.7294240237293443e+18,0.020424196496605873,-0.01651347242295742,-0.00418639974668622
1.7294240237353444e+18,0.018688159063458443,-0.019416898488998413,-0.005949994549155235
1.7294240237413445e+18,0.01932736672461033,-0.019767245277762413,-0.007393314503133297
1.7294240237443446e+18,0.02201451174914837,-0.020178433507680893,-0.002765458542853594
1.7294240237503447e+18,0.016214244067668915,-0.018779786303639412,-0.002884570974856615
1.7294240237563448e+18,0.019455961883068085,-0.021296000108122826,-0.003257408970966935
1.729424023762345e+18,0.01530077401548624,-0.018576394766569138,-0.007338937371969223
1.729424023768345e+18,0.01724514737725258,-0.018310198560357094,-0.0021285023540258408
1.7294240237743452e+18,0.011080430820584297,-0.01694626174867153,-0.006769892759621143
1.7294240237773453e+18,0.01715097576379776,-0.017125600948929787,-0.004679055884480476
1.7294240237833454e+18,0.01293465867638588,-0.02111624926328659,-0.005239939317107201
1.7294240237893455e+18,0.016815517097711563,-0.014506329782307148,-0.005738158244639635
1.7294240237953457e+18,0.013510439544916153,-0.016059620305895805,-0.0033887005411088467
1.7294240237983457e+18,0.014617502689361572,-0.016670232638716698,-0.0006073401309549809
1.7294240238043459e+18,0.019482966512441635,-0.016619443893432617,-0.0038402043282985687
1.729424023810346e+18,0.015945373103022575,-0.017816033214330673,-0.005332006141543388
1.729424023813346e+18,0.014352708123624325,-0.013989021070301533,-0.0057213460095226765
1.7294240238193462e+18,0.016903603449463844,-0.01897072233259678,-0.00355704128742218
1.7294240238253463e+18,0.015153061598539352,-0.018560100346803665,-0.0033632752019912004
1.7294240238313464e+18,0.016528882086277008,-0.019391493871808052,-0.004101956263184547
1.7294240238343465e+18,0.01428038440644741,-0.01715337298810482,-0.0008302233181893826
1.7294240238403466e+18,0.016124187037348747,-0.02072121948003769,-0.0054123252630233765
1.7294240238463468e+18,0.0138121098279953,-0.01772502437233925,-0.004375440999865532
1.7294240238493468e+18,0.013034616596996784,-0.01855604350566864,-0.004277151543647051
1.729424023855347e+18,0.01744898408651352,-0.013347898609936237,-0.0038244505412876606
1.729424023861347e+18,0.017014963552355766,-0.015991779044270515,-0.00395694375038147
1.7294240238643471e+18,0.018017999827861786,-0.011999079957604408,-0.003523818217217922
1.7294240238703473e+18,0.015434646047651768,-0.01486489363014698,-0.002272227080538869
1.7294240238763474e+18,0.014521187171339989,-0.010461742989718914,-0.0031339512206614017
1.7294240238823475e+18,0.01380895171314478,-0.015610875561833382,-0.004303923808038235
1.7294240238853476e+18,0.013741289265453815,-0.01571786031126976,-8.912081830203533e-05
1.7294240238913477e+18,0.012777200900018215,-0.018228407949209213,-0.0026344191282987595
1.7294240238973478e+18,0.014491075649857521,-0.0176851786673069,-0.00293845240958035
1.729424023900348e+18,0.013334227725863457,-0.01671108417212963,-0.00458616204559803
1.729424023906348e+18,0.017620503902435303,-0.020429667085409164,-0.0003893342800438404
1.7294240239123482e+18,0.014757003635168076,-0.016338691115379333,-0.0004967139102518559
1.7294240239183483e+18,0.0131873469799757,-0.018786128610372543,-0.0032206920441240072
1.7294240239213484e+18,0.012976220808923244,-0.018066048622131348,-0.0015191894490271807
1.7294240239273485e+18,0.012195478193461895,-0.018488632515072823,-0.0018341802060604095
1.7294240239333486e+18,0.009639174677431583,-0.01574491336941719,-0.0030630729161202908
1.7294240239393487e+18,0.01096787303686142,-0.015809567645192146,-0.0010447539389133453
1.7294240239423488e+18,0.012397393584251404,-0.014382884837687016,-0.00491389911621809
1.729424023948349e+18,0.013393164612352848,-0.017001649364829063,-0.00268786633387208
1.729424023954349e+18,0.013028009794652462,-0.016659528017044067,-0.003017822513356805
1.729424023957349e+18,0.013399412855505943,-0.013474778272211552,-0.0022268970496952534
1.7294240239633492e+18,0.012258690781891346,-0.013494239188730717,-0.004361170809715986
1.7294240239693494e+18,0.012779364362359047,-0.01563403569161892,2.5820685550570488e-05
1.7294240239753495e+18,0.013943124562501907,-0.014492484740912914,0.0007269508205354214
1.7294240239783496e+18,0.016457542777061462,-0.012877199798822403,-0.0024139946326613426
1.7294240239843497e+18,0.012042042799293995,-0.014387981966137886,8.561601862311363e-05
1.7294240239903498e+18,0.00964654702693224,-0.014170191250741482,-0.0011351157445460558
1.72942402399335e+18,0.011931155808269978,-0.015166961587965488,-0.00409415690228343
1.72942402399935e+18,0.009495402686297894,-0.009580498561263084,-0.0006343109998852015
1.7294240240053501e+18,0.008468921296298504,-0.009337152354419231,-0.0003474520053714514
1.7294240240113503e+18,0.00957834254950285,-0.011058489792048931,-0.0031699216924607754
1.7294240240173504e+18,0.006377839017659426,-0.0071465554647147655,-0.0017750844126567245
1.7294240240233505e+18,0.01025600079447031,-0.007047862745821476,8.043530397117138e-05
1.7294240240263506e+18,0.006628559902310371,-0.010970892384648323,-0.001361496513709426
1.7294240240323507e+18,0.010372783988714218,-0.01193731278181076,0.0008692130213603377
1.7294240240383508e+18,0.010429348796606064,-0.01337728276848793,0.00027351779863238335
1.729424024044351e+18,0.009050182066857815,-0.016030235216021538,-0.002796898130327463
1.729424024050351e+18,0.009838396683335304,-0.010157739743590355,-0.00021968211513012648
1.7294240240533512e+18,0.008753589354455471,-0.013885604217648506,-0.0018003240693360567
1.7294240240593513e+18,0.009678156115114689,-0.011905930936336517,2.4019740521907806e-05
1.7294240240653514e+18,0.010283391922712326,-0.008234381675720215,-0.0017023319378495216
1.7294240240713516e+18,0.005016460083425045,-0.008735119365155697,-0.0024076243862509727
1.7294240240743516e+18,0.007010392379015684,-0.006712261587381363,-0.0042006345465779305
1.7294240240803517e+18,0.006990012712776661,-0.007828735746443272,-0.0017330092377960682
1.729424024086352e+18,0.006520530208945274,-0.00806995015591383,0.0005253747804090381
1.729424024089352e+18,0.003981384914368391,-0.00820023100823164,-0.0019139435607939959
1.729424024095352e+18,0.005904909688979387,-0.007602654863148928,-0.0006499282317236066
1.7294240241013522e+18,0.007073770742863417,-0.008516807109117508,-0.004727572202682495
1.7294240241073523e+18,0.0073090302757918835,-0.010940791107714176,-0.0008559338748455048
1.7294240241133524e+18,0.006177305243909359,-0.011349909007549286,-0.0026425691321492195
1.7294240241163525e+18,0.005891462322324514,-0.008791312575340271,-0.0008435138734057546
1.7294240241223526e+18,0.0066522518172860146,-0.010506696999073029,-0.0015988551313057542
1.7294240241283528e+18,0.006193247158080339,-0.006868849974125624,0.00019199785310775042
1.729424024134353e+18,0.007951061241328716,-0.0039003652054816484,-0.00019635650096461177
1.729424024137353e+18,0.004660857375711203,-0.005384121555835009,-0.001619979040697217
1.729424024143353e+18,0.005246406886726618,-0.006742079742252827,-0.0013692238135263324
1.7294240241493532e+18,0.005129617638885975,-0.0073683192022144794,0.0004695467068813741
1.7294240241553533e+18,0.008512372151017189,-0.004030254669487476,-0.003003110643476248
1.7294240241613535e+18,0.004713163711130619,-0.005906234495341778,-0.0019514219602569938
1.7294240241643535e+18,0.007846066728234291,-0.00519223976880312,-0.0003739117528311908
1.7294240241703537e+18,0.004197336733341217,-0.004789780359715223,0.001172599382698536
1.7294240241763538e+18,0.007165795192122459,-0.007410858292132616,-0.0008180637960322201
1.729424024182354e+18,0.006570475175976753,-0.005160468630492687,-0.0004947979468852282
1.729424024185354e+18,0.004150711465626955,-0.0054339258931577206,4.081017686985433e-05
1.729424024191354e+18,0.005398727022111416,-0.007429671008139849,0.0017807745607569814
1.7294240241973542e+18,0.0046178242191672325,-0.0035328706726431847,0.0014658855507150292
1.7294240242033544e+18,0.006886536255478859,-0.0058298176154494286,0.0016785600455477834
1.7294240242093545e+18,0.010145560838282108,-0.0019131540320813656,0.0004691097419708967
1.7294240242123546e+18,0.005371385253965855,-0.007188250310719013,-0.002427320461720228
1.7294240242183547e+18,0.008009448647499084,-0.0067126392386853695,0.0004297345585655421
1.7294240242243548e+18,0.007408096455037594,-0.005100320093333721,-0.0005189015646465123
1.729424024227355e+18,0.007489683572202921,-0.005133401602506638,0.0011412984458729625
1.729424024233355e+18,0.006718757562339306,-0.006021113600581884,-0.00034112107823602855
1.7294240242393551e+18,0.0051269931718707085,-0.006593948230147362,0.0009863837622106075
1.7294240242423552e+18,0.006270579062402248,-0.0071564954705536366,0.0019450876861810684
1.7294240242483553e+18,0.007693990133702755,-0.008769451640546322,0.0003479127772152424
1.7294240242543555e+18,0.002043060725554824,-0.007441497407853603,-0.0008199877920560539
1.7294240242603556e+18,0.005177734419703484,-0.011253741569817066,0.004481955897063017
1.7294240242663557e+18,0.005606619641184807,-0.011376560665667057,0.0012323573464527726
1.7294240242693558e+18,0.004389193840324879,-0.006137843243777752,0.0001613105123396963
1.729424024275356e+18,0.0034076254814863205,-0.0062187183648347855,0.0020886752754449844
1.729424024281356e+18,0.0050340499728918076,-0.006356180179864168,-0.0004227719036862254
1.7294240242873562e+18,0.00939813069999218,-0.005397191271185875,0.0015096436254680157
1.7294240242933563e+18,0.0048971702344715595,-0.0028921414632350206,-0.0011938305106014013
1.7294240242993564e+18,0.004145802929997444,-0.004297562874853611,-0.00046284368727356195
1.7294240243053565e+18,0.0025098712649196386,-0.00805983692407608,0.003268367378041148
1.7294240243083566e+18,0.0021911512594670057,-0.006832961458712816,-0.0005455656792037189
1.7294240243143567e+18,0.0008859899826347828,-0.01249883696436882,-0.0016637735534459352
1.7294240243203569e+18,0.0023684289772063494,-0.008193720132112503,0.0016405775677412748
1.729424024323357e+18,0.004150787368416786,-0.008346280083060265,0.001553440117277205
1.729424024329357e+18,0.0029025934636592865,-0.008402621373534203,0.000740318966563791
1.7294240243353572e+18,0.004038921091705561,-0.008517522364854813,0.0016609127633273602
1.7294240243413573e+18,0.0007875780574977398,-0.007008377928286791,-0.0013024966465309262
1.7294240243443574e+18,0.006704014725983143,-0.0039103045128285885,0.0011567027540877461
1.7294240243503575e+18,0.007127669639885426,-0.004161418415606022,-0.001275247079320252
1.7294240243563576e+18,0.00614509591832757,-0.0026311692781746387,0.0005462040426209569
1.7294240243623578e+18,0.004610853269696236,-0.0013065089005976915,0.0016293310327455401
1.7294240243653578e+18,0.004611218348145485,-0.0009322472033090889,-0.0011742995120584965
1.729424024371358e+18,0.00448098499327898,-0.001857012859545648,0.0015785469440743327
1.729424024377358e+18,0.0014334736624732614,-0.003349343780428171,0.0007660805713385344
1.7294240243833582e+18,-0.0005010116146877408,-0.0016946389805525541,0.0015099027659744024
1.7294240243863583e+18,-0.0004190851468592882,-0.005583645310252905,0.001149581978097558
1.7294240243923584e+18,0.002084067091345787,-0.004844576120376587,0.0023448001593351364
1.7294240243983585e+18,-0.0005050523905083537,-0.0006733103655278683,0.0037478082813322544
1.7294240244043587e+18,0.003229999914765358,-0.002068635541945696,0.0008195045520551503
1.7294240244073587e+18,0.00392737053334713,-0.0022063355427235365,0.0008259445312432945
1.7294240244133588e+18,0.005556659772992134,-0.0020710539538413286,0.002415432594716549
1.729424024419359e+18,0.005586330313235521,-0.0008486725855618715,0.0021942139137536287
1.729424024425359e+18,0.007005196064710617,0.0005470435717143118,0.004486128222197294
1.7294240244283592e+18,0.00798408966511488,-0.0011965165613219142,0.00245570857077837
1.7294240244343593e+18,0.00597802922129631,-0.0010300365975126624,0.003848677035421133
1.7294240244403594e+18,0.006447909399867058,-0.0008694537682458758,0.0023109810426831245
1.7294240244433595e+18,0.004163848236203194,-0.002869358751922846,0.0027723563835024834
1.7294240244493596e+18,0.003567197360098362,0.0012167604872956872,0.001229836605489254
1.7294240244553597e+18,0.0011799393687397242,-0.0010134312324225903,0.002015709178522229
1.7294240244583598e+18,-3.171735443174839e-05,-0.0010245033772662282,0.002760473173111677
1.72942402446436e+18,0.0007479370688088238,0.0003578515606932342,0.003014751709997654
1.72942402447036e+18,-0.002144536003470421,-0.0014101113192737103,0.004308114759624004
1.7294240244763602e+18,0.002734516281634569,-0.002187523292377591,0.001223476603627205
1.7294240244823603e+18,0.0010124167893081903,-0.0021707098931074142,0.0016220329562202096
1.7294240244853604e+18,0.0004510212747845799,-0.00012065470218658447,-0.0017308362293988466
1.7294240244913605e+18,-0.0011670710518956184,5.242234328761697e-05,0.001843481557443738
1.7294240244973606e+18,0.0003336615627631545,-0.0005981615395285189,0.0014494718052446842
1.7294240245033608e+18,-0.0014628749340772629,4.931419971399009e-05,0.0023323672357946634
1.7294240245063608e+18,0.00014185681357048452,-0.0035542186815291643,0.0015590069815516472
1.729424024512361e+18,-0.004013733007013798,0.0007824401254765689,0.0005635116249322891
1.729424024518361e+18,0.0008397750789299607,-0.0008173871319741011,0.0015023938613012433
1.7294240245243612e+18,-0.0005765561363659799,-0.0012462418526411057,0.0009463082533329725
1.7294240245273613e+18,-0.0020013933535665274,0.0016768497880548239,0.002589937997981906
1.7294240245333614e+18,0.001307064900174737,0.0009037106647156179,0.0027721791993826628
1.7294240245393615e+18,-0.0002096535754390061,0.0019080580677837133,0.004595954902470112
1.7294240245453617e+18,-0.0004844329960178584,0.0025914038997143507,0.004558885470032692
1.7294240245483617e+18,-0.0004521941300481558,-0.0014981497079133987,0.001959501998499036
1.7294240245543619e+18,0.0016816467978060246,-0.0015658062184229493,0.0008303612703457475
1.729424024560362e+18,0.0008516574162058532,-0.0003493569092825055,0.004076979588717222
1.729424024566362e+18,-0.000379971694201231,-0.0025364842731505632,0.001673505874350667
1.7294240245693622e+18,-0.000428779108915478,3.361562266945839e-05,0.00348857743665576
1.7294240245753623e+18,-0.003463156521320343,-0.003156285500153899,0.0007483698427677155
1.7294240245813624e+18,-0.0037776525132358074,0.001137798884883523,0.0021072966046631336
1.7294240245873626e+18,-0.0007910820422694087,-0.00046395594836212695,0.0044393036514520645
1.7294240245903626e+18,5.617272108793259e-06,-0.002082998864352703,0.003915394656360149
1.7294240245963628e+18,-0.001629389589652419,0.00017927587032318115,0.004928105510771275
1.729424024602363e+18,-0.0001804823405109346,0.0022597666829824448,0.004603131208568811
1.729424024605363e+18,-0.003531474620103836,0.000454222084954381,0.003438496496528387
1.729424024611363e+18,0.0013505411334335804,0.001337559660896659,0.00261788466013968
1.7294240246173632e+18,0.0009952789405360818,0.0014553157379850745,0.0030930759385228157
1.7294240246233633e+18,0.0017680313903838396,0.0003295581554993987,0.0008465489372611046
1.7294240246263634e+18,0.0034795785322785378,0.0017618644051253796,0.0025272152852267027
1.7294240246323635e+18,-0.0007511493167839944,-0.00081661157310009,0.0020564207807183266
1.7294240246383636e+18,-0.0006845085881650448,0.0015725982375442982,0.002876577666029334
1.7294240246443638e+18,0.0007329712389037013,0.003559206146746874,0.003754411358386278
1.7294240246473638e+18,0.0008339870837517083,0.0010772371897473931,0.003362707095220685
1.729424024653364e+18,0.0014353779843077064,0.000476861372590065,0.004133149050176144
1.729424024659364e+18,-0.002442883560433984,0.003864416852593422,0.0023569841869175434
1.7294240246653642e+18,-0.0004665759624913335,-0.00012613600119948387,0.0038031081203371286
1.7294240246683643e+18,-0.00027013258659280837,0.0035864326637238264,0.002081309212371707
1.7294240246743644e+18,-0.0009135495056398213,0.0033684871159493923,0.003358841873705387
1.7294240246803645e+18,0.0023256870917975903,0.003460260108113289,0.003052933607250452
1.7294240246863647e+18,-0.0029600984416902065,0.005012952722609043,0.005818397272378206
1.7294240246923648e+18,-0.00040724032442085445,0.0038800621405243874,0.0037219575606286526
1.7294240246953649e+18,-0.00045710604172199965,0.0027521871961653233,0.0037004307378083467
1.729424024701365e+18,-0.0011979129631072283,0.0028337319381535053,0.005356741137802601
1.729424024707365e+18,-0.0018011338543146849,0.002753765555098653,0.001963725546374917
1.7294240247103652e+18,-0.0014585411408916116,0.0009543071500957012,0.003756195306777954
1.7294240247163653e+18,-0.000852785597089678,0.001654725056141615,-0.0010465604718774557
1.7294240247223654e+18,-0.005184769630432129,0.003985526971518993,0.00380670721642673
1.7294240247253655e+18,0.00063923723064363,0.0021508026402443647,0.005176564212888479
1.7294240247313656e+18,-0.002978916745632887,0.0019882668275386095,-0.0003062048926949501
1.7294240247373658e+18,-0.004802246578037739,0.002922819461673498,0.005097070708870888
1.729424024743366e+18,-0.004514157306402922,0.003972184844315052,0.0033933480735868216
1.729424024749366e+18,-0.0032703739125281572,0.0022613797336816788,0.001911986619234085
1.729424024752366e+18,-0.004619513638317585,0.004504970274865627,0.005981274414807558
1.7294240247583662e+18,-0.00505955470725894,0.003016239497810602,0.0032491106539964676
1.7294240247643663e+18,-0.0019172518514096737,0.0018515574047341943,0.002504033735021949
1.7294240247703665e+18,-0.0008672428084537387,0.004683193750679493,0.0055999536998569965
1.7294240247733665e+18,-0.002903919667005539,0.0024587560910731554,0.001691359095275402
1.7294240247793667e+18,0.0006084460765123367,0.0012752857292070985,0.002640373073518276
1.7294240247853668e+18,-0.0020326327066868544,0.001096848864108324,-0.0036892415955662727
1.729424024791367e+18,-0.0011205647606402636,-0.001021750969812274,0.0019345828332006931
1.729424024797367e+18,-0.00011932430788874626,0.0006284554838202894,0.0017315037548542023
1.729424024800367e+18,-0.000768580473959446,0.001832769368775189,0.0073456414975225925
1.7294240248063672e+18,-0.0015195482410490513,0.003448832081630826,0.005477790720760822
1.7294240248123674e+18,-0.006268805358558893,0.002192201791331172,0.0026687467470765114
1.7294240248183675e+18,-0.007042908109724522,0.0022814488038420677,0.0016407271614298224
1.7294240248213676e+18,-0.005018820054829121,0.0023691593669354916,6.865151226520538e-05
1.7294240248273677e+18,-0.004207792226225138,0.0072130681946873665,0.004497941583395004
1.7294240248333678e+18,-0.004832514561712742,0.0033863598946481943,0.002398622687906027
1.729424024839368e+18,-0.0021380221005529165,0.004585373681038618,0.0034661295358091593
1.729424024842368e+18,-0.008235003799200058,0.005255538504570723,0.0032970914617180824
1.729424024848368e+18,-0.0037117793690413237,0.006920890882611275,0.0019977169577032328
1.7294240248543683e+18,-0.004536293912678957,0.005446636117994785,0.003711096942424774
1.7294240248603684e+18,-0.002622775500640273,0.002876924118027091,0.0007081073708832264
1.7294240248663685e+18,-0.006893896032124758,0.007002474740147591,0.0005621158052235842
1.7294240248693686e+18,-0.004627763293683529,0.006431350484490395,0.0029165467713028193
1.7294240248753687e+18,-0.0002995734103024006,0.003630181308835745,0.0012122816406190395
1.7294240248813688e+18,-0.0037347590550780296,0.0021590034011751413,0.002489592880010605
1.729424024887369e+18,-0.008024155162274837,0.006364765577018261,0.0014748179819434881
1.729424024890369e+18,-0.0030810742173343897,0.003573167836293578,-0.002387101063504815
1.7294240248963692e+18,-0.0058382973074913025,0.00013833260163664818,0.0005767699331045151
1.7294240249023693e+18,-0.006381019949913025,0.004197866655886173,0.003758250968530774
1.7294240249053693e+18,-0.004319906234741211,0.004219469614326954,0.0031215972267091274
1.7294240249113695e+18,-0.005832095630466938,0.010444983839988708,0.0016052694991230965
1.7294240249173696e+18,-0.004210555925965309,0.007159910164773464,0.0030432124622166157
1.7294240249233697e+18,-0.003487031441181898,0.00830778293311596,0.0006832759827375412
1.7294240249263698e+18,-0.0030606668442487717,0.005597082898020744,0.0020470372401177883
1.72942402493237e+18,-0.0018295994959771633,0.004887654911726713,-0.0013541143853217363
1.72942402493837e+18,-0.00263001536950469,0.0030606091022491455,0.002284603426232934
1.7294240249443702e+18,-0.003747022245079279,0.00148954545147717,0.004103559534996748
1.7294240249503703e+18,-0.0030219475738704205,0.002967644250020385,0.0014047170989215374
1.7294240249533704e+18,-0.003848688444122672,0.005504116415977478,-0.0006702978862449527
1.7294240249593705e+18,-0.00832346174865961,0.004155416041612625,-0.00029222911689430475
1.7294240249653706e+18,-0.0070239827036857605,0.0043398006819188595,-0.0027381181716918945
1.7294240249713708e+18,-0.007863843813538551,0.00563365314155817,0.002546356525272131
1.7294240249743708e+18,-0.007556316442787647,0.008929993957281113,0.0006658094935119152
1.729424024980371e+18,-0.007131960242986679,0.008764171972870827,0.0009829557966440916
1.729424024986371e+18,-0.006517936009913683,0.011093810200691223,0.0010463325306773186
1.7294240249923712e+18,-0.007142003625631332,0.009122265502810478,0.00026430853176862
1.7294240249953713e+18,-0.008054276928305626,0.0055438922718167305,0.0027041747234761715
1.7294240250013714e+18,-0.005454311612993479,0.007993374951183796,0.004068597219884396
1.7294240250073715e+18,-0.003999208100140095,0.006388783920556307,0.002452029613777995
1.7294240250133716e+18,-0.005850517190992832,0.006373400799930096,0.0018842050340026617
1.7294240250163717e+18,-0.009426204487681389,0.0055359117686748505,0.0006553513812832534
1.7294240250223718e+18,-0.008181118406355381,0.0022989860735833645,0.0009526259382255375
1.729424025028372e+18,-0.007893509231507778,0.0016226405277848244,0.0012643649242818356
1.729424025031372e+18,-0.007103320211172104,0.0014138722326606512,0.0022549733985215425
1.7294240250373722e+18,-0.00789177231490612,0.004643941298127174,0.004472322296351194
1.7294240250433723e+18,-0.00973878800868988,0.0050847651436924934,0.0013161598471924663
1.7294240250463724e+18,-0.006128294393420219,0.0029710661619901657,-0.00037761020939797163
1.7294240250523725e+18,-0.007616213522851467,0.004699596669524908,-5.392730236053467e-05
1.7294240250583726e+18,-0.006579762790352106,0.0059701865538954735,0.0009861269500106573
1.7294240250613727e+18,-0.00828337948769331,0.005993729457259178,0.0008437953074462712
1.7294240250673728e+18,-0.008122860454022884,0.0060024745762348175,0.004572045058012009
1.729424025073373e+18,-0.005429317243397236,0.009629551321268082,0.0012254229513928294
1.729424025079373e+18,-0.00615439098328352,0.008947985246777534,0.0028290990740060806
1.729424025082373e+18,-0.008211065083742142,0.007527862209826708,0.001698178588412702
1.7294240250883732e+18,-0.0049121687188744545,0.005998111795634031,0.0024114553816616535
1.7294240250943734e+18,-0.0037341960705816746,0.0005875069182366133,1.7035636119544506e-06
1.7294240251003735e+18,-0.006176719907671213,0.002677371958270669,-0.0020333384163677692
1.7294240251033736e+18,-0.008315875194966793,0.0011609760113060474,0.004514744505286217
1.7294240251093737e+18,-0.0063276938162744045,0.0008517865207977593,0.0013822115724906325
1.7294240251153738e+18,-0.009114474058151245,0.002586403861641884,0.003064607037231326
1.729424025121374e+18,-0.007971053943037987,0.0011653676629066467,0.00017152453074231744
1.729424025124374e+18,-0.005586373619735241,0.004048560280352831,-0.0010193425696343184
1.7294240251303741e+18,-0.007689336314797401,0.0026656549889594316,-0.0010587217984721065
1.7294240251363743e+18,-0.008906861767172813,0.0064734225161373615,0.0011989702470600605
1.7294240251423744e+18,-0.006286397576332092,0.006009546108543873,0.0006308683659881353
1.7294240251453745e+18,-0.00805525854229927,0.006460819859057665,-7.479443593183532e-05
1.7294240251513746e+18,-0.006295149680227041,0.006468672305345535,0.0017577371327206492
1.7294240251573747e+18,-0.006635004188865423,0.0045350538566708565,0.0010458662873134017
1.7294240251603748e+18,-0.004050900228321552,0.005299229174852371,-0.001562139019370079
1.729424025166375e+18,-0.0020843097008764744,0.004389486741274595,0.0008495634538121521
1.729424025172375e+18,-0.00494428863748908,0.005926665384322405,0.0015826420858502388
1.729424025175375e+18,-0.0026083718985319138,0.005540458485484123,-0.00010421093611512333
1.7294240251813752e+18,-0.008171175606548786,0.005047665908932686,0.00032929901499301195
1.7294240251873754e+18,-0.00720325019210577,0.0074450066313147545,-0.0003633834421634674
1.7294240251933755e+18,-0.0034661339595913887,0.009279375895857811,-0.000484001386212185
1.7294240251963756e+18,-0.00547477463260293,0.004824310075491667,0.0003020188887603581
1.7294240252023757e+18,-0.005568689666688442,0.007025608327239752,-0.0009076507994905114
1.7294240252083758e+18,-0.005261073354631662,0.00892341323196888,-0.00041143811540678144
1.7294240252113759e+18,-0.006690105423331261,0.010985269211232662,-0.00019120117940474302
1.729424025217376e+18,-0.0037650817539542913,0.0071405754424631596,0.0013525154208764434
1.7294240252233761e+18,-0.0017928744200617075,0.008530838415026665,-0.0038490192964673042
1.7294240252293763e+18,-0.0006705233827233315,0.008629275485873222,-0.0003557251184247434
1.7294240252353764e+18,-0.003373678307980299,0.006604225840419531,-0.0022990270517766476
1.7294240252383764e+18,-0.0019186290446668863,0.005850677378475666,-0.0011520902626216412
1.7294240252443766e+18,-0.0017250953242182732,0.009878762997686863,0.0005339697818271816
1.7294240252503767e+18,-0.003774964716285467,0.006370387505739927,-0.0015013646334409714
1.7294240252563768e+18,-0.004973462782800198,0.006094708107411861,-9.982669143937528e-05
1.729424025262377e+18,-0.006052020937204361,0.009336342103779316,0.00025344506138935685
1.729424025265377e+18,-0.006956672295928001,0.006613424513489008,-5.661830073222518e-05
1.7294240252713772e+18,-0.00722785759717226,0.006650357507169247,3.5602133721113205e-06
1.7294240252773773e+18,-0.00438569113612175,0.009391073137521744,-0.0014443851541727781
1.7294240252833774e+18,-0.004035444930195808,0.006335353944450617,-0.0003827742475550622
1.7294240252863775e+18,-0.002034770790487528,0.006425477098673582,-0.00031065731309354305
1.7294240252923776e+18,-0.003969145938754082,0.009334418922662735,-0.0007461304776370525
1.7294240252983777e+18,-0.005593739449977875,0.007797956466674805,0.00015037087723612785
1.7294240253043779e+18,-0.0035832959692925215,0.006982606370002031,-0.002384469611570239
1.729424025310378e+18,-0.001651380443945527,0.00784600991755724,-0.001891349209472537
1.729424025316378e+18,-0.002068162662908435,0.008350200951099396,-0.00022481224732473493
1.7294240253193782e+18,-0.0031363079324364662,0.010559801943600178,-0.002298971638083458
1.7294240253253783e+18,-0.0031745953019708395,0.008975322358310223,0.0006103803170844913
1.7294240253313784e+18,-0.004836230538785458,0.008618175983428955,0.0008482415578328073
1.7294240253373786e+18,-0.006080775987356901,0.010215179063379765,0.0006545430514961481
1.7294240253403786e+18,-0.008886848576366901,0.008902541361749172,-0.002532508922740817
1.7294240253463788e+18,-0.004345433786511421,0.007974496111273766,-0.001945581752806902
1.729424025352379e+18,-0.005065533332526684,0.007957306690514088,-0.0018766012508422136
1.729424025355379e+18,-0.004147406201809645,0.0053492276929318905,0.001078840927220881
1.729424025361379e+18,-0.004842772614210844,0.005203617736697197,-0.0016282564029097557
1.7294240253673792e+18,-0.004905791953206062,0.00646831002086401,-0.0014413136523216963
1.7294240253733793e+18,-0.004197136498987675,0.008185419254004955,-0.00159741030074656
1.7294240253793795e+18,-0.002780784387141466,0.006676690187305212,-0.0028298762626945972
1.7294240253823795e+18,-0.002870298223569989,0.007303045596927404,-0.00020738242892548442
1.7294240253883796e+18,-0.005702413618564606,0.007682738360017538,-0.0007623063283972442
1.7294240253943798e+18,-0.004066362511366606,0.007369436789304018,-0.005192888900637627
1.72942402540038e+18,-0.006937672384083271,0.008927268907427788,-0.0019284090958535671
1.72942402540338e+18,-0.005568262655287981,0.006041773594915867,0.0005927444435656071
1.72942402540938e+18,-0.0071748849004507065,0.007248970679938793,-0.003680913709104061
1.7294240254153802e+18,-0.003944668918848038,0.008372492156922817,-0.0020855360198765993
1.7294240254183803e+18,-0.007153766229748726,0.006970648653805256,-0.0011739670298993587
1.7294240254243804e+18,-0.0025901589542627335,0.007667373400181532,-0.003089501988142729
1.7294240254303805e+18,-0.003880905918776989,0.006696127820760012,0.0010634093778207898
1.7294240254363807e+18,-0.001136409817263484,0.007276871241629124,0.0027462108992040157
1.7294240254393807e+18,-0.00232382258400321,0.005544045474380255,0.0017207926139235497
1.7294240254453809e+18,-0.006253356114029884,0.0025684686843305826,-0.009804459288716316
1.729424025451381e+18,-0.009655184112489223,-0.0027306999545544386,-0.020286990329623222
1.729424025457381e+18,-0.012394987978041172,-0.0017058256780728698,-0.034824810922145844
1.7294240254603812e+18,-0.014406432397663593,-0.0013616508804261684,-0.03631572797894478
1.7294240254663813e+18,-0.01789911650121212,-0.003208484500646591,-0.04571305215358734
1.7294240254723814e+18,-0.018995780497789383,-0.005606952589005232,-0.049402520060539246
1.7294240254783816e+18,-0.017283456400036812,-0.005673228297382593,-0.0511888712644577
1.7294240254813816e+18,-0.012619489803910255,-0.0023242365568876266,-0.049362827092409134
1.7294240254873818e+18,-0.012840052135288715,-0.0026445561088621616,-0.05172131955623627
1.729424025493382e+18,-0.009627815335988998,-0.0014491690089926124,-0.04886773228645325
1.729424025499382e+18,-0.009409096091985703,-0.0014736349694430828,-0.052011992782354355
1.729424025502382e+18,-0.008201157674193382,0.001509122084826231,-0.04936567693948746
1.7294240255083822e+18,-0.006837851367890835,-0.0005764696397818625,-0.050959985703229904
1.7294240255143823e+18,-0.004443463869392872,0.0031011831015348434,-0.04830547422170639
1.7294240255173824e+18,-0.004808969795703888,0.00103714969009161,-0.048816606402397156
1.7294240255233825e+18,-0.010719112120568752,-0.0025582846719771624,-0.05013773962855339
1.7294240255293827e+18,-0.01100374199450016,-0.0030977639835327864,-0.04899091646075249
1.7294240255353828e+18,-0.01352105475962162,-0.0028972746804356575,-0.04801616445183754
1.729424025541383e+18,-0.01281535904854536,-0.0023529049940407276,-0.04655098542571068
1.729424025547383e+18,-0.012292728759348392,0.00032770191319286823,-0.04329764097929001
1.7294240255533832e+18,-0.009319287724792957,-0.0003285242710262537,-0.04258463904261589
1.7294240255563832e+18,-0.010841677896678448,0.0015336453216150403,-0.04249311611056328
1.7294240255623834e+18,-0.010867254808545113,0.001955998595803976,-0.04320903122425079
1.7294240255683835e+18,-0.008510621264576912,0.000994538189843297,-0.04189085587859154
1.7294240255743836e+18,-0.005005899351090193,0.005148270633071661,-0.038374219089746475
1.7294240255773837e+18,-0.007840542122721672,0.006915248930454254,-0.04022756963968277
1.7294240255833838e+18,-0.007474057842046022,0.005068891681730747,-0.03450196608901024
1.729424025589384e+18,-0.01006684172898531,0.00814539473503828,-0.03682025521993637
1.729424025595384e+18,-0.009348626248538494,0.004668998531997204,-0.03729373961687088
1.729424025598384e+18,-0.012054270133376122,0.0061093964613974094,-0.03496112301945686
1.7294240256043843e+18,-0.010304557159543037,0.004669799003750086,-0.034886013716459274
1.7294240256103844e+18,-0.009243139065802097,0.0065175737254321575,-0.0324912890791893
1.7294240256163845e+18,-0.006274649873375893,0.005707218777388334,-0.0293770469725132
1.7294240256193846e+18,-0.0045019187964499,0.006092957220971584,-0.02605435438454151
1.7294240256253847e+18,-0.005255102179944515,0.01125267706811428,-0.024404330179095268
1.7294240256313848e+18,-0.0032971659675240517,0.006203247234225273,-0.022447319701313972
1.729424025637385e+18,-0.004732932895421982,0.009970791637897491,-0.022743934765458107
1.729424025640385e+18,-0.003197755664587021,0.009501060470938683,-0.02634137123823166
1.7294240256463852e+18,-0.004575571045279503,0.010409061796963215,-0.018594499677419662
1.7294240256523853e+18,0.00023869809228926897,0.01338730938732624,-0.01613745093345642
1.7294240256583854e+18,0.0014476117212325335,0.013846536166965961,-0.012895144522190094
1.7294240256613855e+18,-0.0021123886108398438,0.013344978913664818,-0.013361598365008831
1.7294240256673856e+18,-0.0007016423624008894,0.012082875706255436,-0.01300516165792942
1.7294240256733857e+18,0.0014455767814069986,0.01642138510942459,-0.007095123641192913
1.7294240256763858e+18,0.0013493160950019956,0.01570022851228714,-0.0055966563522815704
1.729424025682386e+18,-0.0018779602833092213,0.011309520341455936,-0.005804705899208784
1.729424025688386e+18,-0.004290265496820211,0.01601310819387436,-0.0018847619649022818
1.729424025691386e+18,-0.0030298244673758745,0.015613608062267303,0.0011353932786732912
1.7294240256973862e+18,-0.002275224542245269,0.014314216561615467,0.00028241710970178246
1.7294240257033864e+18,-0.0031473415438085794,0.010940009728074074,0.0035706055350601673
1.7294240257093865e+18,-0.0051473998464643955,0.011093378998339176,0.0070949941873550415
1.7294240257153866e+18,-0.001857503317296505,0.012017336674034595,0.011080404743552208
1.7294240257183867e+18,-0.0007550802547484636,0.014199499972164631,0.011609353125095367
1.7294240257243868e+18,-0.0008482027915306389,0.013339705765247345,0.012597528286278248
1.729424025730387e+18,-0.0005338000482879579,0.01003633625805378,0.014280149713158607
1.729424025736387e+18,0.0007979917572811246,0.0094582699239254,0.0181185994297266
1.7294240257393871e+18,-0.0005837150383740664,0.014814081601798534,0.020039096474647522
1.7294240257453873e+18,0.00014032662147656083,0.010905538685619831,0.024466553702950478
1.7294240257513874e+18,-0.0012901851441711187,0.014668790623545647,0.025141751393675804
1.7294240257543875e+18,-0.0033795812632888556,0.014982798136770725,0.028097789734601974
1.7294240257603876e+18,-0.002390786539763212,0.01241026259958744,0.032921202480793
1.7294240257663877e+18,-0.004882805049419403,0.012820005416870117,0.03488553687930107
1.7294240257723878e+18,-0.00602201372385025,0.01489240862429142,0.03440054878592491
1.729424025775388e+18,-0.002505722688511014,0.01529297512024641,0.03760993853211403
1.729424025781388e+18,-0.003999704960733652,0.014788104221224785,0.04108196124434471
1.7294240257873882e+18,-0.004278026521205902,0.013533140532672405,0.043155934661626816
1.7294240257933883e+18,0.00018274097237735987,0.013716822490096092,0.047815319150686264
1.7294240257963884e+18,-0.004695446230471134,0.012972412630915642,0.04792886599898338
1.7294240258023885e+18,-0.00013397872680798173,0.012376045808196068,0.05214608088135719
1.7294240258083886e+18,-0.0019450498512014747,0.013447505421936512,0.05261697620153427
1.7294240258143887e+18,0.0007077141781337559,0.011623101308941841,0.054538968950510025
1.7294240258173888e+18,-0.002396849449723959,0.012972467578947544,0.05848858132958412
1.729424025823389e+18,-0.0004140520468354225,0.011916188523173332,0.061975009739398956
1.729424025829389e+18,0.0008750207489356399,0.013423062860965729,0.06472308933734894
1.7294240258353892e+18,-0.0033999767620116472,0.01270733680576086,0.06761303544044495
1.7294240258413893e+18,-0.0019369618967175484,0.01524217426776886,0.06731922924518585
1.7294240258473894e+18,-0.005144956987351179,0.011361573822796345,0.07244957238435745
1.7294240258533896e+18,-0.006089699454605579,0.012269938364624977,0.0735546350479126
1.7294240258563896e+18,-0.005809522233903408,0.014066427014768124,0.07589499652385712
1.7294240258623898e+18,-0.0052033280953764915,0.013305955566465855,0.07721972465515137
1.72942402586839e+18,-0.004223784431815147,0.013536513783037663,0.08011049777269363
1.72942402587139e+18,-0.0010657166130840778,0.009273223578929901,0.08047978579998016
1.72942402587739e+18,-0.0036041145212948322,0.011111992411315441,0.08196982741355896
1.7294240258833902e+18,0.0023450269363820553,0.011271510273218155,0.08641623705625534
1.7294240258893903e+18,-0.001263223821297288,0.01190602220594883,0.08923140168190002
1.7294240258923904e+18,-0.001878743409179151,0.00920196995139122,0.09270849823951721
1.7294240258983905e+18,-0.0015656733885407448,0.012551646679639816,0.09295889735221863
1.7294240259043907e+18,-0.0006330849719233811,0.012612373568117619,0.09386546164751053
1.7294240259073907e+18,-0.002633606316521764,0.010431712493300438,0.09653869271278381
1.7294240259133908e+18,-0.00227641430683434,0.01243868563324213,0.09685629606246948
1.729424025919391e+18,-0.004418191500008106,0.013504356145858765,0.10231379419565201
1.729424025925391e+18,-0.0039398884400725365,0.011832527816295624,0.10107368230819702
1.7294240259283912e+18,-0.004068996757268906,0.012563059106469154,0.10184399038553238
1.7294240259343913e+18,-0.0007052649743855,0.013202017173171043,0.10611999034881592
1.7294240259403914e+18,-0.004005282185971737,0.009948629885911942,0.10737501829862595
1.7294240259463916e+18,-0.0012685571564361453,0.00944796483963728,0.10847314447164536
1.7294240259493916e+18,-0.00245285639539361,0.009568599984049797,0.11121708154678345
1.7294240259553917e+18,-0.003033330198377371,0.007497303653508425,0.1095360815525055
1.7294240259613919e+18,-0.003306236583739519,0.009733211249113083,0.11248455941677094
1.729424025967392e+18,-0.0016078350599855185,0.011075524613261223,0.11429817229509354
1.729424025970392e+18,6.378302350640297e-05,0.008960600942373276,0.11512652039527893
1.7294240259763922e+18,-0.0020770300179719925,0.003842315636575222,0.12122228741645813
1.7294240259823923e+18,-0.005069016478955746,0.006212810054421425,0.11974339932203293
1.7294240259853924e+18,-0.003903870703652501,0.009052828885614872,0.11909221112728119
1.7294240259913925e+18,-0.003041318152099848,0.006369974929839373,0.12133236974477768
1.7294240259973926e+18,0.0005613963585346937,0.006368560250848532,0.12298375368118286
1.7294240260033928e+18,-0.002501493087038398,0.0073363217525184155,0.12483642250299454
1.729424026009393e+18,-0.00045151496306061745,0.00700090266764164,0.12494021654129028
1.729424026012393e+18,-0.0030030030757188797,0.006927818059921265,0.12725232541561127
1.729424026018393e+18,-0.00019528728444129229,0.009400133974850178,0.12457051128149033
1.7294240260243932e+18,-0.0027337248902767897,0.007956776767969131,0.13418594002723694
1.7294240260303933e+18,0.0014424349647015333,0.009432241320610046,0.12967252731323242
1.7294240260333934e+18,-0.002094607800245285,0.00820932723581791,0.1274256557226181
1.7294240260393935e+18,-0.007974340580403805,0.007185670547187328,0.1315375119447708
1.7294240260453937e+18,-0.005228132009506226,0.008084069937467575,0.13512775301933289
1.7294240260513938e+18,-0.0016978487838059664,0.004329101648181677,0.1342768520116806
1.729424026057394e+18,-0.0028741490095853806,0.006895748898386955,0.1368403434753418
1.729424026060394e+18,-0.0033400075044482946,0.008189648389816284,0.13509921729564667
1.729424026066394e+18,-0.0047155460342764854,0.003996896557509899,0.1414221078157425
1.7294240260723942e+18,-0.002245523501187563,0.006375279277563095,0.13578422367572784
1.7294240260753943e+18,-0.0030833568889647722,0.0050851646810770035,0.13899412751197815
1.7294240260813944e+18,-0.0012304475530982018,0.0069735972210764885,0.13689514994621277
1.7294240260873946e+18,-0.0028760230634361506,0.008721299469470978,0.13735051453113556
1.7294240260933947e+18,-0.0029766415245831013,0.005626353435218334,0.1395452320575714
1.7294240260993948e+18,-0.0071289027109742165,0.007199388463050127,0.1436740607023239
1.729424026105395e+18,-0.005231484305113554,0.005026245955377817,0.14022667706012726
1.729424026108395e+18,-0.006560540292412043,0.008417326956987381,0.14159585535526276
1.7294240261143951e+18,-0.00597554724663496,0.006283616181463003,0.14677317440509796
1.7294240261203953e+18,-0.007003646343946457,0.003302390221506357,0.14471733570098877
1.7294240261263954e+18,-0.005010348279029131,0.0039101275615394115,0.14426308870315552
1.7294240261293955e+18,-0.006803923286497593,0.007659712340682745,0.14486314356327057
1.7294240261353956e+18,-0.0038690133951604366,0.006194890011101961,0.14382658898830414
1.7294240261413957e+18,-0.004366585053503513,0.006419201847165823,0.14351032674312592
1.7294240261443958e+18,-0.004842487629503012,0.006941317114979029,0.14509904384613037
1.729424026150396e+18,-0.004932872019708157,0.004394972696900368,0.1444663256406784
1.729424026156396e+18,-0.003908159676939249,0.00723961042240262,0.1442272961139679
1.729424026159396e+18,-0.0020613656379282475,0.005492513068020344,0.14498169720172882
1.7294240261653962e+18,-0.0035297402646392584,0.007716844789683819,0.1438572257757187
1.7294240261713964e+18,-0.0028964036609977484,0.0048415823839604855,0.14549025893211365
1.7294240261773965e+18,-0.0034353656228631735,0.005224026273936033,0.1422753781080246
1.7294240261803965e+18,-0.003444275353103876,0.005072474014014006,0.14214546978473663
1.7294240261863967e+18,-0.004710971377789974,0.0023604659363627434,0.14605459570884705
1.7294240261923968e+18,-0.0019706059247255325,0.007595764007419348,0.14312812685966492
1.729424026198397e+18,0.0004337725695222616,0.0031753545626997948,0.1449856460094452
1.729424026204397e+18,0.0006099988822825253,0.006084064487367868,0.14408741891384125
1.729424026207397e+18,0.001995226601138711,0.005677870940417051,0.1443561613559723
1.7294240262133972e+18,-0.0005662471521645784,0.0050009810365736485,0.1445111781358719
1.7294240262193974e+18,-0.003751983167603612,0.005198991391807795,0.14442890882492065
1.7294240262253975e+18,-0.008557945489883423,0.00552174961194396,0.14188700914382935
1.7294240262283976e+18,-0.00596598768606782,0.0063951872289180756,0.14429514110088348
1.7294240262343977e+18,-0.008441091515123844,0.006905028130859137,0.14438208937644958
1.7294240262403978e+18,-0.008051257580518723,0.007874342612922192,0.14174233376979828
1.729424026246398e+18,-0.0076622129417955875,0.0073911575600504875,0.14084893465042114
1.729424026249398e+18,-0.00635017454624176,0.004888337105512619,0.13903076946735382
1.7294240262553981e+18,-0.004759084898978472,0.009933949448168278,0.1403934806585312
1.7294240262613983e+18,-0.00442482391372323,0.007890893146395683,0.14120717346668243
1.7294240262673984e+18,-0.0020334646105766296,0.008520304225385189,0.141739621758461
1.7294240262703985e+18,-0.0007194741629064083,0.009464873000979424,0.1403103917837143
1.7294240262763986e+18,6.498358561657369e-05,0.006115760654211044,0.1397264003753662
1.7294240262823987e+18,-0.003229457186535001,0.008869541808962822,0.14126601815223694
1.7294240262883988e+18,-0.0009282029932364821,0.00925321877002716,0.13784128427505493
1.729424026291399e+18,-0.0021716926712542772,0.0071004778146743774,0.13736195862293243
1.729424026297399e+18,-0.002847879659384489,0.006317369639873505,0.13843968510627747
1.7294240263033992e+18,-0.003978480584919453,0.007025692146271467,0.13209187984466553
1.7294240263093993e+18,-0.004765425808727741,0.0047556450590491295,0.13780294358730316
1.7294240263123994e+18,-0.0032905391417443752,0.005665614269673824,0.13648509979248047
1.7294240263183995e+18,-0.0030349846929311752,0.00621839938685298,0.13645008206367493
1.7294240263243996e+18,-0.0056244442239403725,0.003306950908154249,0.13358859717845917
1.7294240263273997e+18,-0.004641524516046047,0.0018649110570549965,0.1324862688779831
1.7294240263333998e+18,-0.0004937214544042945,0.006330551579594612,0.13248813152313232
1.7294240263394e+18,-0.000644467887468636,0.004827925004065037,0.1284872591495514
1.7294240263454e+18,-0.0032239570282399654,0.008777374401688576,0.12967100739479065
1.7294240263514002e+18,-0.0033298686612397432,0.005967606324702501,0.12902548909187317
1.7294240263544003e+18,-0.004945920780301094,0.00866367481648922,0.12795580923557281
1.7294240263604004e+18,-0.004987761843949556,0.007393505424261093,0.13157403469085693
1.7294240263664005e+18,-0.0077034421265125275,0.008515645749866962,0.12948447465896606
1.7294240263694006e+18,-0.008517960086464882,0.006906191818416119,0.1269296109676361
1.7294240263754007e+18,-0.005953486077487469,0.004040679428726435,0.12420861423015594
1.7294240263814008e+18,-0.0032479080837219954,0.003434889018535614,0.12491721659898758
1.729424026387401e+18,-0.006128713488578796,0.0037987607065588236,0.12424426525831223
1.729424026393401e+18,-0.004990827292203903,0.0022817235440015793,0.12240803986787796
1.7294240263964012e+18,-0.0037673641927540302,0.0036357888020575047,0.12048261612653732
1.7294240264024013e+18,-0.0012481319718062878,0.004420348908752203,0.11923415958881378
1.7294240264084014e+18,0.0014623149763792753,0.00652138190343976,0.11923307925462723
1.7294240264144015e+18,0.0025822932366281748,0.008104801177978516,0.1196456328034401
1.7294240264174016e+18,-0.00021176727022975683,0.004696393385529518,0.11361716687679291
1.7294240264234017e+18,-0.00498599000275135,0.005688091740012169,0.1174963042140007
1.7294240264294019e+18,-0.004853661172091961,0.00494044553488493,0.11426828056573868
1.729424026432402e+18,-0.0050345961935818195,0.006720967590808868,0.1138516217470169
1.729424026438402e+18,-0.008076298050582409,0.0046106441877782345,0.11343574523925781
1.7294240264444022e+18,-0.008159936405718327,0.005712710786610842,0.11388246715068817
1.7294240264474022e+18,-0.0047098184004426,0.003156527876853943,0.11261086165904999
1.7294240264534024e+18,-0.004970069974660873,0.0028785844333469868,0.10811645537614822
1.7294240264594025e+18,-0.004546076525002718,0.004121426958590746,0.10677646845579147
1.7294240264654026e+18,-0.007669499609619379,0.006666795816272497,0.1061013862490654
1.7294240264684027e+18,-0.0029302206821739674,0.006476001814007759,0.1076287180185318
1.7294240264744028e+18,-0.0034233536571264267,0.0015688019338995218,0.10690351575613022
1.729424026480403e+18,-0.0017574089579284191,0.007226103451102972,0.10485666245222092
1.729424026486403e+18,-0.0014819600619375706,0.00793542806059122,0.10238903015851974
1.7294240264894031e+18,-0.003272043541073799,0.002370628295466304,0.09990996867418289
1.7294240264954033e+18,-0.005837268196046352,0.00424913689494133,0.10068052262067795
1.7294240265014034e+18,-0.007201238069683313,0.008425457403063774,0.09738588333129883
1.7294240265074035e+18,-0.010004009120166302,0.009266608394682407,0.0968722403049469
1.7294240265104036e+18,-0.006525080651044846,0.005538662895560265,0.09761277586221695
1.7294240265164037e+18,-0.011501017957925797,0.0068387314677238464,0.09472433477640152
1.7294240265224038e+18,-0.011119584552943707,0.006453636102378368,0.09322095662355423
1.729424026528404e+18,-0.00955766811966896,0.004961890168488026,0.09105169773101807
1.729424026531404e+18,-0.004841146990656853,0.008113433606922626,0.09039927273988724
1.7294240265374042e+18,-0.0074181570671498775,0.007201796863228083,0.09341572225093842
1.7294240265434043e+18,-0.004854561295360327,0.007184330839663744,0.08830545842647552
1.7294240265494044e+18,-0.005560686811804771,0.009005139581859112,0.08375844359397888
1.7294240265524045e+18,-0.004396230913698673,0.005028273910284042,0.08587212860584259
1.7294240265584046e+18,-0.0013186298310756683,0.007002611644566059,0.08511894196271896
1.7294240265644047e+18,-0.002085641026496887,0.008456114679574966,0.08435770869255066
1.7294240265674048e+18,-0.005165413022041321,0.00618392089381814,0.08085446059703827
1.729424026573405e+18,-0.00957360491156578,0.010174031369388103,0.08182784169912338
1.729424026579405e+18,-0.016023218631744385,0.010194145143032074,0.08243366330862045
1.7294240265854052e+18,-0.020685777068138123,0.016246164217591286,0.08058314025402069
1.7294240265884052e+18,-0.02334514446556568,0.013555768877267838,0.07907092571258545
1.7294240265944054e+18,-0.03272577002644539,0.01932843215763569,0.07681100070476532
1.7294240266004055e+18,-0.033364277333021164,0.01868194341659546,0.0779939740896225
1.7294240266064056e+18,-0.03226770460605621,0.018772725015878677,0.07855924963951111
1.7294240266094057e+18,-0.032011281698942184,0.01723427139222622,0.0746459811925888
1.7294240266154058e+18,-0.023479746654629707,0.019002508372068405,0.07350842654705048
1.729424026621406e+18,-0.024635249748826027,0.022034233435988426,0.0716625452041626
1.729424026627406e+18,-0.023595191538333893,0.020942840725183487,0.07132696360349655
1.7294240266304061e+18,-0.022315416485071182,0.020188476890325546,0.0729532539844513
1.7294240266364063e+18,-0.021090589463710785,0.02227994240820408,0.07200782746076584
1.7294240266424064e+18,-0.025907892733812332,0.0202688779681921,0.06667708605527878
1.7294240266484065e+18,-0.026459168642759323,0.02037195861339569,0.06938436627388
1.7294240266544067e+18,-0.028382595628499985,0.019819986075162888,0.06765300780534744
1.7294240266604068e+18,-0.030849847942590714,0.01969597302377224,0.06484431028366089
1.7294240266634068e+18,-0.029519077390432358,0.02147640660405159,0.06520399451255798
1.729424026669407e+18,-0.033120110630989075,0.023054901510477066,0.06336293369531631
1.729424026675407e+18,-0.030303701758384705,0.020689940080046654,0.06246594339609146
1.7294240266814072e+18,-0.026172801852226257,0.020879633724689484,0.06621343642473221
1.7294240266874074e+18,-0.02846297062933445,0.02302176132798195,0.06180877238512039
1.7294240266934075e+18,-0.02215055748820305,0.02184431627392769,0.0607314258813858
1.7294240266964076e+18,-0.020830251276493073,0.020408233627676964,0.06092783436179161
1.7294240267024077e+18,-0.022027190774679184,0.024212466552853584,0.05777584761381149
1.7294240267084078e+18,-0.019962305203080177,0.02041926234960556,0.059190329164266586
1.729424026714408e+18,-0.022834213450551033,0.02073247916996479,0.06330456584692001
1.729424026717408e+18,-0.021172448992729187,0.02355377748608589,0.05681039020419121
1.7294240267234081e+18,-0.019780604168772697,0.018878143280744553,0.05423432216048241
1.7294240267294083e+18,-0.020509006455540657,0.015650540590286255,0.05736662819981575
1.7294240267354084e+18,-0.020305734127759933,0.019212927669286728,0.05278255045413971
1.7294240267414085e+18,-0.019651465117931366,0.01680045574903488,0.052559901028871536
1.7294240267474086e+18,-0.02276177704334259,0.017137950286269188,0.053690697997808456
1.7294240267534088e+18,-0.020870070904493332,0.016954028978943825,0.05109685659408569
1.729424026759409e+18,-0.015852496027946472,0.01727922074496746,0.05189996212720871
1.729424026765409e+18,-0.01570870913565159,0.01890745759010315,0.04981854185461998
1.729424026768409e+18,-0.014904161915183067,0.015137839131057262,0.051253870129585266
1.7294240267744092e+18,-0.010582366958260536,0.01586444117128849,0.050450101494789124
1.7294240267804093e+18,-0.007471286691725254,0.012136655859649181,0.04918428137898445
1.7294240267864095e+18,-0.0068831373937428,0.012861966155469418,0.04723897948861122
1.7294240267924096e+18,-0.00672670966014266,0.013059787452220917,0.04775582626461983
1.7294240267984097e+18,-0.00659532193094492,0.010450107976794243,0.044989217072725296
1.7294240268044099e+18,-0.006249690428376198,0.011055795475840569,0.04698891192674637
1.72942402680741e+18,-0.008681866340339184,0.007969861850142479,0.04479100927710533
1.72942402681341e+18,-0.013779782690107822,0.008321906439960003,0.04512883350253105
1.7294240268194102e+18,-0.007750088348984718,0.007736559957265854,0.04440533369779587
1.7294240268254103e+18,-0.010581785812973976,0.009383680298924446,0.044416170567274094
1.7294240268314104e+18,-0.0057030925527215,0.009140231646597385,0.0423472560942173
1.7294240268344105e+18,-0.006272745318710804,0.009909495711326599,0.0402408242225647
1.7294240268404106e+18,-0.00027812132611870766,0.013386829756200314,0.03894096985459328
1.7294240268464108e+18,-0.0003457473940216005,0.010181838646531105,0.038797035813331604
1.729424026852411e+18,0.00066051643807441,0.010172388516366482,0.04017200693488121
1.729424026858411e+18,0.004087135661393404,0.00912128109484911,0.04008796066045761
1.7294240268644111e+18,0.0007400150643661618,0.004398888908326626,0.0401458740234375
1.7294240268674112e+18,0.0002483183052390814,0.0012857606634497643,0.04076448082923889
1.7294240268734113e+18,-7.270340574905276e-05,0.005264765582978725,0.03456869721412659
1.7294240268794115e+18,-0.0032447120174765587,0.00394271407276392,0.03852275386452675
1.7294240268854116e+18,-0.002745137084275484,0.0038048166316002607,0.03832559287548065
1.7294240268914117e+18,-0.0032199835404753685,0.003181972773745656,0.03605877235531807
1.7294240268974118e+18,-0.0009802888380363584,0.007910111919045448,0.03643668070435524
1.729424026900412e+18,-0.001436776015907526,0.0036355569027364254,0.03373412787914276
1.729424026906412e+18,0.0025570958387106657,0.004960216116160154,0.036571189761161804
1.7294240269154122e+18,0.001919446629472077,0.004244865849614143,0.034089747816324234
1.7294240269184123e+18,0.0011986265890300274,0.004101724363863468,0.0355568490922451
1.7294240269244124e+18,0.003897452261298895,0.002024242887273431,0.031680479645729065
1.7294240269304125e+18,0.0012090830132365227,0.002797634107992053,0.032267168164253235
1.7294240269364127e+18,0.003240568097680807,6.796733941882849e-05,0.030461687594652176
1.7294240269424128e+18,8.995027747005224e-05,0.0007761003798805177,0.0290693212300539
1.729424026948413e+18,-0.0004352116957306862,0.0032689557410776615,0.02923491783440113
1.729424026951413e+18,9.17467987164855e-05,0.0004095651675015688,0.03056848980486393
1.729424026957413e+18,0.0011439525987952948,0.0015393231296911836,0.02979504130780697
1.7294240269634132e+18,0.002493595704436302,0.0023503033444285393,0.029627397656440735
1.7294240269694134e+18,0.0005789885763078928,0.00021785707212984562,0.027145039290189743
1.7294240269754135e+18,0.003496577963232994,0.0009250318398699164,0.029107430949807167
1.7294240269784136e+18,0.0034166057594120502,0.0007422029739245772,0.02848067320883274
1.7294240269844137e+18,0.003652731189504266,0.004937771707773209,0.024861924350261688
1.7294240269904138e+18,0.007881352677941322,0.002118802396580577,0.02661946229636669
1.729424026996414e+18,0.0031456316355615854,0.005101493559777737,0.027605170384049416
1.729424026999414e+18,0.0012629092670977116,0.0032262722961604595,0.026919104158878326
1.7294240270054141e+18,0.0026090380270034075,0.0031308503821492195,0.027562376111745834
1.7294240270114143e+18,0.00037099397741258144,0.0005283797509036958,0.025370124727487564
1.7294240270174144e+18,-0.002175383735448122,0.0020299802999943495,0.026870111003518105
1.7294240270204145e+18,0.00027029775083065033,-0.001433252589777112,0.023973645642399788
1.7294240270264146e+18,0.0031036974396556616,-0.001752653974108398,0.023330207914114
1.7294240270324147e+18,0.004463473334908485,-0.0008452783222310245,0.020706890150904655
1.7294240270384148e+18,0.0028039775788784027,-0.001305638113990426,0.021786047145724297
1.729424027044415e+18,0.004557596519589424,-0.003275836119428277,0.022303903475403786
1.729424027050415e+18,0.005203446373343468,-0.0005013485788367689,0.019718734547495842
1.7294240270534152e+18,0.004291393794119358,-0.001782599138095975,0.021616211161017418
1.7294240270594153e+18,0.0033723742235451937,-0.0028729031328111887,0.02241688221693039
1.7294240270654154e+18,0.002292937831953168,0.0019872647244483232,0.020766956731677055
1.7294240270684155e+18,0.0007246354361996055,0.000815651670563966,0.020963480696082115
1.7294240270744156e+18,0.0017711938126012683,0.00493179215118289,0.020106332376599312
1.7294240270804157e+18,0.0012696702033281326,0.0015863223234191537,0.01868690364062786
1.729424027086416e+18,0.000256623316090554,-0.0004780244780704379,0.019839175045490265
1.729424027092416e+18,-6.576965097337961e-05,0.001881014322862029,0.017341438680887222
1.729424027095416e+18,0.000909537891857326,-0.000696554547175765,0.02041446417570114
1.7294240271014162e+18,0.003992842510342598,-0.0019296989776194096,0.020457904785871506
1.7294240271074163e+18,0.0022810676600784063,-0.00015818525571376085,0.021201221272349358
1.7294240271134164e+18,0.0009554765420034528,-0.0028007403016090393,0.01801728643476963
1.7294240271164165e+18,0.004344532266259193,-0.002208658494055271,0.020548008382320404
1.7294240271224166e+18,0.0017892414471134543,-0.003288667881861329,0.018660692498087883
1.7294240271284168e+18,-0.0018094426486641169,-0.002828716766089201,0.019144568592309952
1.7294240271314168e+18,0.00033874972723424435,-0.0019609942100942135,0.0168985016644001
1.729424027137417e+18,-0.0012726649874821305,-0.0014831348089501262,0.016144802793860435
1.729424027143417e+18,-0.002717430703341961,-0.004623579792678356,0.015836361795663834
1.7294240271494172e+18,-0.0004889937117695808,0.0015089488588273525,0.012897243723273277
1.7294240271554173e+18,-0.0010232683271169662,0.0015239936765283346,0.014583849348127842
1.7294240271584174e+18,-0.0019041995983570814,0.0006866067415103316,0.013637345284223557
1.7294240271644175e+18,0.0057338871993124485,0.0009060236625373363,0.01641135849058628
1.7294240271704177e+18,0.003122510854154825,0.0013481980422511697,0.015529001131653786
1.7294240271764178e+18,0.00399454589933157,-0.0004910259740427136,0.01733882538974285
1.7294240271794179e+18,0.00784732960164547,-0.002700432436540723,0.014250073581933975
1.729424027185418e+18,0.0059584020636975765,-0.003967322409152985,0.01396468747407198
1.729424027191418e+18,0.004935583099722862,-0.006692409049719572,0.013572240248322487
1.7294240271974182e+18,0.002115125535055995,-0.006728507578372955,0.014612272381782532
1.7294240272004183e+18,0.002252744510769844,-0.010076443664729595,0.016753604635596275
1.7294240272064184e+18,0.0017490680329501629,-0.00806801300495863,0.012402407824993134
1.7294240272124186e+18,-0.0022661867551505566,-0.008001245558261871,0.011817900463938713
1.7294240272184187e+18,-0.0007335284608416259,-0.00750228576362133,0.011854635551571846
1.7294240272244188e+18,-0.0025818226858973503,-0.0061537520959973335,0.014554448425769806
1.729424027227419e+18,0.0018433715449646115,-0.004121050238609314,0.012754224240779877
1.729424027233419e+18,0.00071033148560673,-0.006329307332634926,0.011339305900037289
1.7294240272394191e+18,0.002390191424638033,-0.002891961019486189,0.010327272117137909
1.7294240272454193e+18,0.0018229105044156313,-0.003782332642003894,0.010950084775686264
1.7294240272484193e+18,0.0035319277085363865,-0.006676023360341787,0.009273826144635677
1.7294240272544195e+18,0.0016961805522441864,-0.003601553849875927,0.009799444116652012
1.7294240272604196e+18,0.0020941561087965965,-0.005509627051651478,0.012282205745577812
1.7294240272664197e+18,0.0016893671127036214,-0.007584403734654188,0.009088890627026558
1.7294240272724198e+18,-0.0010655757505446672,-0.005985307041555643,0.010927417315542698
1.72942402727542e+18,0.003024894278496504,-0.006290275603532791,0.01004061195999384
1.72942402728142e+18,0.00305732898414135,-0.0065492684952914715,0.009642922319471836
1.7294240272874202e+18,0.004287017975002527,-0.00852048397064209,0.007051380351185799
1.7294240272934203e+18,0.003709101350978017,-0.0051368772983551025,0.009830417111515999
1.7294240272994204e+18,0.0035041728988289833,-0.007584248203784227,0.008132058195769787
1.7294240273054205e+18,0.003779687685891986,-0.012277573347091675,0.010148795321583748
1.7294240273114207e+18,0.004512473940849304,-0.006171906366944313,0.0088485237210989
1.7294240273144207e+18,0.0026753880083560944,-0.007459177635610104,0.009219558909535408
1.7294240273204209e+18,0.003541314508765936,-0.007474691141396761,0.006992398761212826
1.729424027326421e+18,0.0010540727525949478,-0.006921219173818827,0.009358794428408146
1.729424027332421e+18,0.0056110164150595665,-0.011284426786005497,0.00841040350496769
1.7294240273384212e+18,0.000563517794944346,-0.00997869111597538,0.007527997717261314
1.7294240273444214e+18,-0.001265710685402155,-0.008504321798682213,0.008067158982157707
1.7294240273474214e+18,0.003480792511254549,-0.008638996630907059,0.0061065200716257095
1.7294240273534216e+18,0.0006571803241968155,-0.008150825276970863,0.008369924500584602
1.7294240273594217e+18,0.003993579652160406,-0.012796555645763874,0.008211171254515648
1.7294240273654218e+18,-7.794122211635113e-05,-0.00786806270480156,0.007738785818219185
1.729424027371422e+18,0.006611251272261143,-0.008686549961566925,0.006248622201383114
1.729424027374422e+18,0.004214691463857889,-0.00953218899667263,0.0039038341492414474
1.7294240273804221e+18,0.0041710007935762405,-0.010774386115372181,0.003981179557740688
1.7294240273864223e+18,0.005207990761846304,-0.005509993992745876,0.00914568081498146
1.7294240273924224e+18,0.0039485967718064785,-0.00731663778424263,0.006225007586181164
1.7294240273954225e+18,0.0020925747230648994,-0.010521273128688335,0.005022641737014055
1.7294240274014226e+18,0.002499098889529705,-0.004800204653292894,0.005512953735888004
1.7294240274074227e+18,0.0014778639888390899,-0.002993139438331127,0.002219660673290491
1.7294240274134228e+18,0.004063663072884083,-0.007012935355305672,0.0066324383951723576
1.729424027416423e+18,-0.003052275627851486,-0.004231840372085571,0.004950116854161024
1.729424027422423e+18,0.004032427910715342,-0.008961638435721397,0.004706760868430138
1.7294240274284232e+18,0.0036323457024991512,-0.008468963205814362,0.0047339037992060184
1.7294240274344233e+18,0.004632217343896627,-0.004908464848995209,0.005564132239669561
1.7294240274404234e+18,0.006189439445734024,-0.008800835348665714,0.00427558459341526
1.7294240274434235e+18,0.00920182652771473,-0.006559125613421202,0.004328844603151083
1.7294240274494236e+18,0.00577462837100029,-0.007019862532615662,0.005671151448041201
1.7294240274554237e+18,0.00521733146160841,-0.0058664679527282715,0.003817371791228652
1.7294240274614239e+18,0.00781537126749754,-0.010448887944221497,0.004966627340763807
1.729424027464424e+18,0.0036898148246109486,-0.008390515111386776,0.0012484421022236347
1.729424027470424e+18,0.0036336046177893877,-0.008581874892115593,0.0007034866139292717
1.7294240274764242e+18,0.004193543456494808,-0.012111951597034931,0.003844582475721836
1.7294240274824243e+18,0.0011568497866392136,-0.008445271290838718,0.0037798157427459955
1.7294240274884244e+18,0.0032834368757903576,-0.009641802869737148,0.0020315158180892467
1.7294240274914245e+18,0.0032385478261858225,-0.012960762716829777,0.0025437730364501476
1.7294240274974246e+18,0.0048238118179142475,-0.007676568813621998,0.004881333094090223
1.7294240275034248e+18,0.004630245268344879,-0.008176382631063461,0.005315511487424374
1.729424027509425e+18,0.004754762165248394,-0.010853096842765808,0.0011052514892071486
1.729424027512425e+18,0.007714489474892616,-0.011822855100035667,0.0015248270938172936
1.729424027518425e+18,0.00375848775729537,-0.011332778260111809,0.0010868323734030128
1.7294240275244252e+18,0.002910011447966099,-0.010489818640053272,0.0021972490940243006
1.7294240275304253e+18,0.002143830293789506,-0.0101917814463377,0.003869483480229974
1.7294240275364255e+18,0.0024145953357219696,-0.010310814715921879,0.003020971082150936
1.7294240275394255e+18,0.0010300860740244389,-0.012268943712115288,0.003839059267193079
1.7294240275454257e+18,-0.0009400986600667238,-0.012989765964448452,0.00037732080090790987
1.7294240275514258e+18,0.0033461791463196278,-0.011676403693854809,0.002362382598221302
1.7294240275544259e+18,0.004125539213418961,-0.011478702537715435,8.296733722090721e-05
1.729424027560426e+18,0.005924847908318043,-0.012740330770611763,0.001112575177103281
1.729424027566426e+18,0.003920344170182943,-0.011484936811029911,0.001384066534228623
1.7294240275724262e+18,0.008076435886323452,-0.012185944244265556,0.0028131199069321156
1.7294240275784264e+18,0.01034940779209137,-0.014085670933127403,-1.1318945325911045e-05
1.7294240275814264e+18,0.009303532540798187,-0.014544104225933552,0.0020119664259254932
1.7294240275874266e+18,0.007148551754653454,-0.010895540937781334,0.0037739372346550226
1.7294240275934267e+18,0.00673478189855814,-0.011567281559109688,-0.0016814419068396091
1.7294240275994268e+18,0.0050001903437078,-0.01356528140604496,-0.002846000250428915
1.729424027605427e+18,0.004353025462478399,-0.012753484770655632,-0.000905242282897234
1.729424027608427e+18,0.003827567445114255,-0.011548977345228195,0.0003042809257749468
1.7294240276144271e+18,0.0021137550938874483,-0.012643293477594852,0.0001638428948353976
1.7294240276204273e+18,0.0007423307979479432,-0.012497984804213047,0.00043616510811261833
1.7294240276264274e+18,0.004976034630089998,-0.011958958581089973,0.0017010507872328162
1.7294240276324275e+18,0.002917653415352106,-0.015904100611805916,-0.0011096097296103835
1.7294240276354276e+18,0.0026499759405851364,-0.014782428741455078,-0.002543994691222906
1.7294240276414277e+18,0.006737799383699894,-0.013746678829193115,-0.0003225243417546153
1.7294240276474278e+18,0.0085346894338727,-0.010180732235312462,-0.0007590494933538139
1.729424027653428e+18,0.013840336352586746,-0.012827238999307156,0.0014726772205904126
1.729424027659428e+18,0.011496679857373238,-0.013852125033736229,0.00033156340941786766
1.7294240276624282e+18,0.0123274065554142,-0.013304799795150757,-0.0009016627445816994
1.7294240276684283e+18,0.012054558843374252,-0.009405218064785004,-0.0014441986568272114
1.7294240276744284e+18,0.010974237695336342,-0.007319633848965168,-7.650066982023418e-05
1.7294240276804285e+18,0.005531680770218372,-0.010873055085539818,-0.0027512030210345984
1.7294240276834286e+18,0.006256879307329655,-0.01008953619748354,0.0012884601019322872
1.7294240276894287e+18,0.0026207377668470144,-0.009424463845789433,8.770840940997005e-05
1.7294240276954289e+18,0.002979815239086747,-0.007327653467655182,0.0004448799300007522
1.729424027701429e+18,0.0034657889045774937,-0.010033813305199146,-0.002974485279992223
1.729424027707429e+18,0.002147017978131771,-0.00823676772415638,-0.0036658316385000944
1.7294240277134292e+18,0.004926721565425396,-0.008804554119706154,-0.0016877851448953152
1.7294240277164293e+18,0.004903909284621477,-0.007105723023414612,-0.0032129520550370216
1.7294240277224294e+18,0.007131597492843866,-0.006690078880637884,-0.0024917959235608578
1.7294240277284296e+18,0.009381527081131935,-0.008791167289018631,0.000777898938395083
1.7294240277344297e+18,0.007614194415509701,-0.007576595991849899,-0.0016086272662505507
1.7294240277404298e+18,0.008198299445211887,-0.006171617656946182,-0.0030092920642346144
1.72942402774643e+18,0.006439329590648413,-0.005455845035612583,0.00034545641392469406
1.72942402774943e+18,0.007319487631320953,-0.007543659768998623,-1.438066828995943e-05
1.7294240277554301e+18,0.0010019782930612564,-0.006174738053232431,0.00034910230897367
1.7294240277614303e+18,0.0011822861852124333,-0.005996507126837969,-0.003198006423190236
1.7294240277674304e+18,0.0008772332221269608,-0.010752884671092033,-0.0009155348525382578
