timestamp,gyro_x,gyro_y,gyro_z
1.7294991218428436e+18,-0.0017806742107495666,-0.0018507011700421572,-0.0018153648125007749
1.7294991218518438e+18,-0.0020460670348256826,-0.002649111207574606,0.00017217562708538026
1.729499121860844e+18,3.866301631205715e-05,0.002491762163117528,-0.0030651853885501623
1.7294991218698442e+18,0.0020757911261171103,-0.0012259860523045063,0.0010718964040279388
1.7294991218758444e+18,0.0024046411272138357,-0.001526007428765297,-0.00235111266374588
1.7294991218848445e+18,0.0029991748742759228,0.0010801745811477304,0.003103441558778286
1.7294991218938447e+18,0.0017102882266044617,-0.002768279518932104,0.0017057565273717046
1.729499121902845e+18,-0.0012505651684477925,-0.0017874885816127062,0.001895529800094664
1.729499121911845e+18,-0.0028149846475571394,0.00114970572758466,9.99603871605359e-05
1.7294991219178452e+18,-0.00027733060414902866,-0.0023174933157861233,-0.0024539269506931305
1.7294991219268454e+18,0.003317587310448289,-0.0003608822589740157,0.0006142709171399474
1.7294991219358456e+18,0.0028191558085381985,0.0011558533878996968,-0.0037075639702379704
1.7294991219418458e+18,-0.0047423397190868855,0.0012608791003003716,0.002239031018689275
1.729499121950846e+18,0.0005016040522605181,0.000855631660670042,0.0015749005833640695
1.7294991219598461e+18,-0.0018958990694954991,0.0023715130519121885,0.0001104588300222531
1.7294991219688463e+18,0.0022588586434721947,0.0030391663312911987,-0.000393849506508559
1.7294991219748465e+18,-0.00043204441317357123,-0.0006898493156768382,0.0024394094944000244
1.7294991219838467e+18,-0.0014991216594353318,-0.001551012508571148,0.0014214275870472193
1.7294991219928468e+18,-0.0025540890637785196,0.0007649642648175359,0.0009835511445999146
1.729499122001847e+18,0.0024038602132350206,0.0011826067930087447,-0.0008598574786446989
1.7294991220108472e+18,0.00044622187851928174,0.00021210759587120265,0.0005328987608663738
1.7294991220168474e+18,0.00015945147606544197,-0.0005128904595039785,0.0019555753096938133
1.7294991220258476e+18,0.002229563193395734,0.0007891340646892786,0.0004894111771136522
1.7294991220348477e+18,0.002339474856853485,-0.002108176937326789,-8.131746653816663e-06
1.729499122043848e+18,-0.0006120328325778246,0.0035594645887613297,0.0016206963919103146
1.729499122052848e+18,-0.0016910105478018522,-0.0019816081039607525,0.001562784076668322
1.7294991220618483e+18,0.0001785667845979333,-0.0015624009538441896,0.0012722114333882928
1.7294991220678484e+18,7.60088732931763e-05,2.2000604076310992e-05,0.002379442797973752
1.7294991220768486e+18,-0.0024191441480070353,-0.0010651306947693229,-4.318359060562216e-05
1.7294991220858488e+18,-0.0010529139544814825,0.0025237153749912977,0.001631392864510417
1.729499122091849e+18,-0.0004187157319393009,-0.002257940825074911,0.00024932457017712295
1.7294991221008492e+18,-0.0005057179369032383,-0.0006123578059487045,-0.0018190254922956228
1.7294991221098493e+18,-0.0008800119394436479,-0.0013934853486716747,-0.0014593283412978053
1.7294991221188495e+18,-5.186098860576749e-05,0.0008352251606993377,0.0007152754697017372
1.7294991221278497e+18,-0.00033812428591772914,-0.0009050982189364731,-0.0007704856107011437
1.72949912213685e+18,0.0014790655113756657,-0.0006267240969464183,0.0007093664607964456
1.72949912214585e+18,0.0008590252255089581,-0.0010011671110987663,-0.00022758328123018146
1.7294991221548503e+18,-0.001063535106368363,8.48066047183238e-05,0.00028763391310349107
1.7294991221638505e+18,0.0012679228093475103,-0.002530929632484913,-0.00467992527410388
1.7294991221728507e+18,-0.005531845148652792,-0.00019245612202212214,-0.0005318379262462258
1.7294991221788508e+18,2.8794436730095185e-05,-0.00029457369237206876,0.0007932224543765187
1.729499122187851e+18,0.000456260604551062,0.000781028822530061,0.0036021394189447165
1.7294991221938511e+18,-0.0011912902118638158,-0.0001658977271290496,-0.0008952749776653945
1.7294991222028513e+18,0.0006464796024374664,-0.0007679382688365877,0.001536511816084385
1.7294991222118515e+18,-0.00211167405359447,0.00010693450167309493,-0.001507491571828723
1.7294991222178516e+18,-0.0033904388546943665,-0.0010901171481236815,-0.0030454506631940603
1.7294991222268518e+18,0.002379250479862094,0.0012229825370013714,0.000314927427098155
1.729499122232852e+18,-0.003991853911429644,0.0005401224480010569,0.0022685909643769264
1.7294991222418522e+18,0.0011335104936733842,-0.0017005156259983778,0.0005423566908575594
1.7294991222478523e+18,-0.0017569587798789144,0.0010222053388133645,0.002632754622027278
1.7294991222568525e+18,0.0011179588036611676,0.0022982938680797815,-4.3926302168983966e-05
1.7294991222628526e+18,0.0005364204407669604,-0.0009564931970089674,-0.00015479858848266304
1.7294991222718528e+18,-0.0007200450636446476,-0.0005835642223246396,0.00037118783802725375
1.729499122280853e+18,-0.0008419736404903233,0.0011015348136425018,-0.0021472005173563957
1.729499122286853e+18,-1.3060029232292436e-05,0.0004063678497914225,-2.7774574846262112e-05
1.7294991222958533e+18,0.0006059918669052422,-0.0005330233252607286,0.00020837456395383924
1.7294991223048535e+18,-3.5910445149056613e-05,0.0016256914241239429,0.0001519314682809636
1.7294991223108536e+18,0.001197117380797863,0.0008036153740249574,-0.0006210791761986911
1.7294991223198538e+18,0.0012919933069497347,0.0035019987262785435,-0.0008650103700347245
1.729499122328854e+18,-0.00199754792265594,-0.0016673350473865867,0.000538986234460026
1.7294991223348541e+18,0.00027133538969792426,0.0014490201137959957,0.0001287107588723302
1.7294991223438543e+18,-0.0004268465272616595,-0.00030850968323647976,-0.0005277431337162852
1.7294991223498545e+18,0.000543470960110426,-0.0017443042015656829,0.00029215466929599643
1.7294991223588547e+18,-0.0011891527101397514,0.0005408069700933993,-0.0023483450058847666
1.7294991223678548e+18,-0.0023436052724719048,0.001903175376355648,-0.00019885244546458125
1.729499122373855e+18,0.000738831702619791,0.002415238879621029,0.002256345236673951
1.7294991223828552e+18,0.0011456523789092898,0.0006199870258569717,1.0516338079469278e-05
1.7294991223888553e+18,-0.0005250820540823042,3.877617928083055e-05,-0.0018789424793794751
1.7294991223978555e+18,-0.0006124348728917539,0.0010643582791090012,-0.0016161487437784672
1.7294991224068557e+18,-0.0015185041120275855,-0.0014503117417916656,-0.0029671485535800457
1.7294991224128558e+18,1.2149056601629127e-05,-0.0017741791671141982,0.0004819935711566359
1.729499122421856e+18,0.0009256800985895097,0.0012597197201102972,0.002250203862786293
1.7294991224278561e+18,-0.0003914990811608732,0.0014491272158920765,-0.001352021936327219
1.7294991224368563e+18,-0.002697350224480033,0.003380590584129095,0.0011732053244486451
1.7294991224458565e+18,-0.002368504647165537,-0.0011806987458840013,-0.0026224206667393446
1.7294991224518566e+18,0.00014097694656811655,0.0012558185262605548,-0.0005987270269542933
1.7294991224608568e+18,0.0016243482241407037,0.0006685155676677823,0.001938572502695024
1.729499122469857e+18,0.002343239728361368,-0.0026381032075732946,0.0005677468725480139
1.7294991224788572e+18,0.0028392793610692024,-0.002689894288778305,0.0004894204903393984
1.7294991224878574e+18,0.0015664875973016024,-0.0009626940009184182,-0.0033190487883985043
1.7294991224938575e+18,-0.0008280709735117853,0.001179539947770536,-0.000817358901258558
1.7294991225028577e+18,-0.002294663805514574,0.0005357259651646018,-0.0005114049417898059
1.729499122511858e+18,-0.0010862750932574272,0.0017193203093484044,0.002688554348424077
1.729499122517858e+18,0.0005126262549310923,0.001609179307706654,0.0014986959286034107
1.7294991225268582e+18,0.000414435809943825,-0.001794471056200564,-0.0009805827867239714
1.7294991225328584e+18,0.0013763391179963946,-0.0013680467382073402,-0.0006101697799749672
1.7294991225418586e+18,-0.0013956611510366201,0.0011028784792870283,-0.0028595570474863052
1.7294991225508588e+18,-0.0032624206505715847,-0.002571382327005267,0.0016627678414806724
1.729499122556859e+18,0.0013271346688270569,0.0010021829511970282,0.0016245943261310458
1.729499122565859e+18,-0.0011006738059222698,0.0012988277012482285,-0.0017113193171098828
1.7294991225748593e+18,-6.291616045928095e-07,0.001500688144005835,-0.0022814879193902016
1.7294991225808594e+18,-0.0017942485865205526,-0.0001561671815579757,0.0014911930775269866
1.7294991225898596e+18,0.0012698597274720669,0.0007383633637800813,-0.0021624036598950624
1.7294991225958597e+18,0.0021636642049998045,0.00032016815384849906,-0.00035039070644415915
1.72949912260486e+18,-0.0021094903349876404,-0.0028109976556152105,0.0002681695332285017
1.72949912261386e+18,-0.00040817155968397856,-0.0007582570542581379,0.0018501862650737166
1.7294991226198602e+18,0.0038503482937812805,-0.001263351645320654,-0.0006002523005008698
1.7294991226288604e+18,0.000838840554933995,0.0012606469681486487,-0.0014275484718382359
1.7294991226348605e+18,-0.0008270990219898522,0.0010217467788606882,-0.0012163028586655855
1.7294991226438607e+18,-0.0008735735318623483,0.0007995041087269783,2.446978942316491e-05
1.729499122652861e+18,-0.0014758878387510777,0.0005895083886571229,0.0033674363512545824
1.729499122658861e+18,-0.001116571482270956,-0.001692508114501834,-0.0012892020167782903
1.7294991226678612e+18,0.0016913334839046001,0.0012094718404114246,-0.002602927153930068
1.7294991226738614e+18,0.0029571037739515305,-8.439927478320897e-05,0.0010629743337631226
1.7294991226828616e+18,0.0016333743697032332,-0.001060531591065228,0.0018666785908862948
1.7294991226918618e+18,0.0002303234941791743,-0.0019058157922700047,-0.0007635572692379355
1.729499122697862e+18,-0.00218419567681849,0.002969245193526149,0.003391774371266365
1.729499122706862e+18,-0.00249875127337873,-5.465652429847978e-05,-0.0008717196178622544
1.7294991227128622e+18,-0.0028070013504475355,-0.002800876507535577,0.0019423471530899405
1.7294991227218624e+18,0.0020073107443749905,0.000425490754423663,0.0024574033450335264
1.7294991227308626e+18,-0.002829127013683319,0.0024721992667764425,0.0007837922312319279
1.7294991227368627e+18,-0.0006025829934515059,-0.0012602258939296007,-0.003253814997151494
1.729499122745863e+18,-0.00018465665925759822,-0.001093858852982521,0.0019957267213612795
1.729499122751863e+18,0.0008258430170826614,0.0002975538372993469,-0.0018922671442851424
1.7294991227608632e+18,-0.0012699364451691508,0.001689658616669476,-0.0009540275204926729
1.7294991227698634e+18,-0.0034320971462875605,-0.0010285277385264635,0.0009894779650494456
1.7294991227758636e+18,-0.00029494662885554135,0.0024620916228741407,-0.0008778836927376688
1.7294991227848637e+18,3.434764585108496e-05,0.0018199542537331581,-0.0029660826548933983
1.729499122790864e+18,-0.0003705716226249933,0.0013255835510790348,-0.0004600644751917571
1.729499122799864e+18,-0.0030655835289508104,-0.0017261140746995807,-0.00030688897822983563
1.7294991228088643e+18,-0.0008560462738387287,0.0006762840785086155,-0.0017253124387934804
1.7294991228148644e+18,0.0007735950057394803,0.0016192100010812283,0.001057434594258666
1.7294991228238646e+18,-0.001481598592363298,0.0012644454836845398,-0.00020231722737662494
1.7294991228328648e+18,0.0015873322263360023,-3.242416642024182e-05,-0.0018349391175433993
1.729499122841865e+18,-0.0012198032345622778,-0.0009730519377626479,-0.00011982365685980767
1.7294991228508652e+18,0.0010606393916532397,0.0006952132098376751,0.00039908316102810204
1.7294991228598653e+18,-0.0012322544353082776,-0.001399671658873558,-0.0007299762219190598
1.7294991228688655e+18,0.0011395306792110205,-0.0019153837347403169,-0.00030056550167500973
1.7294991228748657e+18,-0.0018163117347285151,-0.0005763554945588112,0.0014264814089983702
1.7294991228838659e+18,-0.002494633896276355,-0.0002604536130093038,0.002974252449348569
1.729499122892866e+18,0.001986557384952903,0.0001676602551015094,0.0015056687407195568
1.7294991228988662e+18,-0.0015503024915233254,0.0009041502489708364,-0.002064530039206147
1.7294991229078664e+18,0.0008528740727342665,0.00181025848723948,0.002726677805185318
1.7294991229168666e+18,0.0003662261296994984,-0.0011133671505376697,0.0017267658840864897
1.7294991229228667e+18,-0.0013341831509023905,0.00033907449687831104,-0.0010867539094761014
1.729499122931867e+18,-0.0008768403204157948,0.00023744028294458985,-0.0003538781893439591
1.729499122937867e+18,-0.0040598646737635136,0.0024395796936005354,0.0007402146584354341
1.7294991229468672e+18,9.742833208292723e-05,-0.0008562314324080944,0.00030355891794897616
1.7294991229558674e+18,0.001934304484166205,0.001125573879107833,-0.0007441593334078789
1.7294991229618675e+18,0.001817012787796557,-0.000822624599095434,0.00022092375729698688
1.7294991229708677e+18,-0.0008109026239253581,-0.000611347088124603,-0.0005006225546821952
1.7294991229768678e+18,-0.00024684256641194224,-0.0008699700119905174,-0.0021791718900203705
1.729499122985868e+18,-0.0003875147376675159,0.0016506013926118612,3.7785184758831747e-06
1.7294991229918682e+18,0.0008709569810889661,0.00020534824579954147,-0.00027642297209240496
1.7294991230008684e+18,0.00023509474704042077,0.0015478681307286024,0.0002399359073024243
1.7294991230098685e+18,0.0007423093775287271,-0.001026264508254826,0.003109556855633855
1.7294991230158687e+18,-0.0024410809855908155,-0.0025731446221470833,0.002840176923200488
1.7294991230248689e+18,-0.0019750490318983793,0.004905458074063063,0.000276783510344103
1.729499123033869e+18,0.0004303219902794808,-0.0011226254282519221,0.0013634097995236516
1.7294991230398692e+18,-0.003054992761462927,-0.0007000576588325202,-0.0006291682366281748
1.7294991230488694e+18,0.0023906028363853693,0.00047354839625768363,0.0005379641661420465
1.7294991230578696e+18,-0.003670393256470561,0.0008540131966583431,-0.0005487993475981057
1.7294991230638697e+18,0.0002190430386690423,0.0012449308997020125,0.00148227799218148
1.72949912307287e+18,-0.0016337577253580093,0.001622763811610639,-0.0005710326950065792
1.72949912307887e+18,-0.00026211541262455285,0.002245610812678933,-0.0010751552181318402
1.7294991230878702e+18,0.003598076058551669,0.0007390296668745577,-0.001996898790821433
1.7294991230968704e+18,-0.00081512366887182,0.00015267111302819103,-0.0005158152780495584
1.7294991231028705e+18,-2.8585167456185445e-05,-0.0015120708849281073,-1.6573463653912768e-05
1.7294991231118707e+18,-0.0009300076635554433,-0.0009332307381555438,-0.0009635740425437689
1.7294991231178708e+18,-0.0004782451142091304,-0.00040850750519894063,-0.0024186428636312485
1.729499123126871e+18,0.0012412252835929394,-0.00048051890917122364,0.0005109970225021243
1.7294991231358712e+18,0.001456389669328928,-0.0003902845492120832,-0.0023302952758967876
1.7294991231418714e+18,0.002029918832704425,-0.0006112206028774381,-0.0007265150197781622
1.7294991231508716e+18,-0.00031538348412141204,-0.0010757343843579292,-0.00023657738347537816
1.7294991231598717e+18,-0.00043964077485725284,0.0007631326443515718,-0.00021299558284226805
1.7294991231658719e+18,-0.000983722391538322,-0.0006401221617124975,0.0027538270223885775
1.729499123174872e+18,-0.001255822367966175,-0.0018049462232738733,-0.00018653724691830575
1.7294991231808722e+18,-9.583185601513833e-05,-0.00011616357369348407,-0.0008410564041696489
1.7294991231898724e+18,-0.000291923905024305,0.0019018817692995071,-0.0014129581395536661
1.7294991231988726e+18,0.0018727171700447798,0.00048690143739804626,0.0010968074202537537
1.7294991232048727e+18,-0.0012780646793544292,0.001169558265246451,-0.0001690386125119403
1.729499123213873e+18,-0.0022779658902436495,0.0008548982441425323,-0.0020405820105224848
1.729499123219873e+18,-0.0005999421118758619,0.0018516392447054386,0.000380527664674446
1.7294991232288732e+18,0.002849467331543565,-0.001423426205292344,0.001331822364591062
1.7294991232378734e+18,0.00142125494312495,0.0026096063666045666,0.0012066710041835904
1.7294991232438735e+18,0.0015387756284326315,-0.00024258274061139673,-0.000891867617610842
1.7294991232528737e+18,-0.002167928498238325,0.0019154460169374943,-0.0008488034945912659
1.7294991232588739e+18,-0.0015535908751189709,-0.0013585439883172512,0.0006049286457709968
1.729499123267874e+18,0.0004039004852529615,-9.537510777590796e-05,0.001828210661187768
1.7294991232738742e+18,0.0540846511721611,-0.042143650352954865,0.007863209582865238
1.7294991232828744e+18,0.15999306738376617,-0.1274014711380005,0.01498362421989441
1.7294991232918746e+18,0.2646975815296173,-0.21188612282276154,0.023729898035526276
1.7294991232978747e+18,0.31369712948799133,-0.25830361247062683,0.030504224821925163
1.729499123306875e+18,0.34013494849205017,-0.2913389205932617,0.040291737765073776
1.729499123315875e+18,0.30758246779441833,-0.2831166982650757,0.04816913232207298
1.7294991233218752e+18,0.27186319231987,-0.26286780834198,0.05266597121953964
1.7294991233308754e+18,0.21556584537029266,-0.23451125621795654,0.06262071430683136
1.7294991233398756e+18,0.18922708928585052,-0.22171151638031006,0.06811800599098206
1.7294991233458757e+18,0.1996014416217804,-0.21750138700008392,0.07637574523687363
1.729499123354876e+18,0.23691055178642273,-0.23288841545581818,0.08537322282791138
1.729499123363876e+18,0.2712920308113098,-0.2438954859972,0.09227024763822556
1.7294991233698762e+18,0.2912326455116272,-0.2500251531600952,0.09667127579450607
1.7294991233788764e+18,0.2742863595485687,-0.24502481520175934,0.10496839135885239
1.7294991233878766e+18,0.22569714486598969,-0.21983355283737183,0.1099102646112442
1.7294991233938767e+18,0.1846398264169693,-0.19976206123828888,0.1137625053524971
1.729499123402877e+18,0.13002516329288483,-0.17148451507091522,0.12324696034193039
1.729499123411877e+18,0.10093728452920914,-0.1430480033159256,0.12028916925191879
1.7294991234178772e+18,0.09876767545938492,-0.13804428279399872,0.11379975825548172
1.7294991234268774e+18,0.107557512819767,-0.12631134688854218,0.10205456614494324
1.7294991234328776e+18,0.11868841201066971,-0.12113720178604126,0.10166497528553009
1.7294991234418778e+18,0.12975966930389404,-0.1132669672369957,0.10536672919988632
1.729499123450878e+18,0.1137983575463295,-0.09440302103757858,0.10981158912181854
1.729499123456878e+18,0.0883241593837738,-0.0788135901093483,0.11530890315771103
1.7294991234658783e+18,0.04820389300584793,-0.05602581053972244,0.12108726054430008
1.7294991234718784e+18,0.01911439746618271,-0.03986642137169838,0.12181602418422699
1.7294991234808786e+18,-0.0135820172727108,-0.013289440423250198,0.1281210035085678
1.7294991234868787e+18,-0.019177893176674843,-0.005223331972956657,0.1311454027891159
1.729499123495879e+18,-0.021357337012887,0.006470382213592529,0.13434065878391266
1.729499123504879e+18,-0.008743414655327797,0.015812473371624947,0.141001358628273
1.7294991235108792e+18,-0.004233475774526596,0.022956199944019318,0.14293217658996582
1.7294991235198794e+18,-0.007029326632618904,0.03782455995678902,0.1486184298992157
1.7294991235288796e+18,-0.029898792505264282,0.04611961171030998,0.15265263617038727
1.7294991235378798e+18,-0.055219024419784546,0.056820131838321686,0.15517529845237732
1.72949912354388e+18,-0.07632988691329956,0.06627747416496277,0.16001655161380768
1.72949912355288e+18,-0.09217388182878494,0.07559160143136978,0.1603425294160843
1.7294991235618803e+18,-0.09407678246498108,0.08279437571763992,0.16184233129024506
1.7294991235678804e+18,-0.08768073469400406,0.08832622319459915,0.16761308908462524
1.7294991235768806e+18,-0.07566756010055542,0.09145887196063995,0.16949214041233063
1.7294991235858808e+18,-0.07009856402873993,0.0942603126168251,0.17172855138778687
1.729499123591881e+18,-0.07110023498535156,0.0967811718583107,0.17187808454036713
1.7294991236008812e+18,-0.08177566528320312,0.10058867931365967,0.17655520141124725
1.7294991236068813e+18,-0.09392063319683075,0.10593856126070023,0.177090123295784
1.7294991236158815e+18,-0.10711158066987991,0.10769668966531754,0.17848354578018188
1.7294991236248817e+18,-0.11580374091863632,0.11074398458003998,0.181607186794281
1.7294991236308818e+18,-0.11182080954313278,0.11313686519861221,0.18284039199352264
1.729499123639882e+18,-0.10474913567304611,0.11617806553840637,0.18388298153877258
1.729499123645882e+18,-0.09772934019565582,0.1156735047698021,0.18455345928668976
1.7294991236548823e+18,-0.09388769418001175,0.11525911092758179,0.18774941563606262
1.7294991236638825e+18,-0.08715812861919403,0.1120600476861,0.18617355823516846
1.7294991236698826e+18,-0.09304039180278778,0.11241630464792252,0.18767715990543365
1.7294991236788828e+18,-0.09907566010951996,0.11329702287912369,0.19150497019290924
1.729499123684883e+18,-0.10265994071960449,0.11129850149154663,0.18924319744110107
1.7294991236938831e+18,-0.10743071138858795,0.11204501241445541,0.19121283292770386
1.7294991237028833e+18,-0.10499460995197296,0.10742898285388947,0.19280144572257996
1.7294991237088835e+18,-0.09909533709287643,0.10830338299274445,0.19123761355876923
1.7294991237178836e+18,-0.09025142341852188,0.10228950530290604,0.19131627678871155
1.7294991237268838e+18,-0.08452515304088593,0.09937077760696411,0.1933469921350479
1.729499123732884e+18,-0.0799713134765625,0.09943851828575134,0.19187764823436737
1.7294991237418842e+18,-0.08249793201684952,0.09906043857336044,0.19354091584682465
1.7294991237508844e+18,-0.08572094142436981,0.0982145220041275,0.19598302245140076
1.7294991237568845e+18,-0.08508492261171341,0.09594608098268509,0.19437846541404724
1.7294991237658847e+18,-0.08688853681087494,0.09265434741973877,0.1928127110004425
1.7294991237748849e+18,-0.0846981480717659,0.09179838001728058,0.19235163927078247
1.729499123783885e+18,-0.07747745513916016,0.08780308812856674,0.19029469788074493
1.7294991237898852e+18,-0.07274401932954788,0.08299034088850021,0.19340679049491882
1.7294991237988854e+18,-0.06651691347360611,0.07863013446331024,0.19112686812877655
1.7294991238048855e+18,-0.06910036504268646,0.07597361505031586,0.19203443825244904
1.7294991238138857e+18,-0.06598824262619019,0.07870020717382431,0.18848253786563873
1.729499123822886e+18,-0.07223523408174515,0.07804590463638306,0.1870069056749344
1.729499123828886e+18,-0.07010489702224731,0.07738681882619858,0.18399599194526672
1.7294991238378862e+18,-0.07166995853185654,0.07443977892398834,0.18652600049972534
1.7294991238468864e+18,-0.06857135891914368,0.07086281478404999,0.18602420389652252
1.7294991238558866e+18,-0.05914660543203354,0.0674382895231247,0.18470823764801025
1.7294991238618867e+18,-0.05640621483325958,0.06379880756139755,0.18282601237297058
1.729499123870887e+18,-0.05120711773633957,0.06052074953913689,0.18207208812236786
1.729499123876887e+18,-0.052111897617578506,0.0561903640627861,0.18027402460575104
1.7294991238858872e+18,-0.053625017404556274,0.05812772363424301,0.1809292733669281
1.7294991238948874e+18,-0.053327225148677826,0.05436967313289642,0.17873156070709229
1.7294991239038876e+18,-0.055676158517599106,0.05659409984946251,0.17476367950439453
1.7294991239098877e+18,-0.05649609491229057,0.05648539215326309,0.17214249074459076
1.729499123918888e+18,-0.05520373955368996,0.04864221438765526,0.1727054864168167
1.7294991239278881e+18,-0.05135498195886612,0.0497160479426384,0.16918198764324188
1.7294991239368883e+18,-0.04600459709763527,0.0421205498278141,0.16905823349952698
1.7294991239458885e+18,-0.03806953877210617,0.04338442161679268,0.16518235206604004
1.7294991239518886e+18,-0.044411495327949524,0.04606148600578308,0.1646171659231186
1.7294991239608888e+18,-0.04365295544266701,0.04311440512537956,0.16185808181762695
1.729499123966889e+18,-0.04190981388092041,0.04528830572962761,0.16217443346977234
1.7294991239758892e+18,-0.046996988356113434,0.04628217592835426,0.15632829070091248
1.7294991239848893e+18,-0.04248278960585594,0.0416351743042469,0.15654192864894867
1.7294991239908895e+18,-0.04333280026912689,0.0381675623357296,0.15257322788238525
1.7294991239998897e+18,-0.040431272238492966,0.035691920667886734,0.1468905359506607
1.7294991240088899e+18,-0.03433651104569435,0.03712710738182068,0.14535240828990936
1.72949912401489e+18,-0.03649146109819412,0.03542834147810936,0.14368721842765808
1.7294991240238902e+18,-0.03795011714100838,0.03797627612948418,0.14466124773025513
1.7294991240328904e+18,-0.034542638808488846,0.03403410688042641,0.14186541736125946
1.7294991240388905e+18,-0.03704669699072838,0.039774637669324875,0.13836891949176788
1.7294991240478907e+18,-0.04144391044974327,0.03648634999990463,0.1365775614976883
1.729499124056891e+18,-0.03607862442731857,0.03525445610284805,0.13232985138893127
1.729499124065891e+18,-0.03581232577562332,0.03611442819237709,0.1300099641084671
1.7294991240718912e+18,-0.030869778245687485,0.03397294878959656,0.12609325349330902
1.7294991240808914e+18,-0.033291276544332504,0.030820438638329506,0.12428566068410873
1.7294991240898916e+18,-0.030919330194592476,0.030756846070289612,0.12006408721208572
1.7294991240958917e+18,-0.03220531716942787,0.03238682821393013,0.12165940552949905
1.729499124104892e+18,-0.035804633051157,0.03470858186483383,0.11659213900566101
1.729499124113892e+18,-0.03729724511504173,0.03279076889157295,0.11436135321855545
1.7294991241228923e+18,-0.036229558289051056,0.03430672362446785,0.10989247262477875
1.7294991241288924e+18,-0.03456789627671242,0.03138360008597374,0.10635607689619064
1.7294991241378926e+18,-0.032199837267398834,0.03223320096731186,0.10695464164018631
1.7294991241468928e+18,-0.02855280414223671,0.029396342113614082,0.10065118223428726
1.729499124152893e+18,-0.026993902400135994,0.0291283056139946,0.09753772616386414
1.729499124161893e+18,-0.028628548607230186,0.029520737007260323,0.09523752331733704
1.7294991241708933e+18,-0.030863381922245026,0.030807575210928917,0.09215302020311356
1.7294991241768934e+18,-0.028693649917840958,0.027713600546121597,0.09034079313278198
1.7294991241858936e+18,-0.03277524933218956,0.026208441704511642,0.08844783902168274
1.7294991241918938e+18,-0.03438135236501694,0.028006434440612793,0.08546537160873413
1.729499124200894e+18,-0.028335608541965485,0.030612943693995476,0.08347813785076141
1.7294991242098941e+18,-0.02556394599378109,0.025923144072294235,0.07718917727470398
1.7294991242158943e+18,-0.024950183928012848,0.026600833982229233,0.07442337274551392
1.7294991242248945e+18,-0.02302851527929306,0.02595321647822857,0.074837327003479
1.7294991242338947e+18,-0.025441017001867294,0.026030223816633224,0.06971850991249084
1.7294991242428948e+18,-0.025662098079919815,0.024160556495189667,0.06470709294080734
1.729499124248895e+18,-0.02823416143655777,0.02799014374613762,0.0630195289850235
1.7294991242578952e+18,-0.026334447786211967,0.025125017389655113,0.06041213870048523
1.7294991242668954e+18,-0.029381081461906433,0.02546248398721218,0.056211914867162704
1.7294991242728955e+18,-0.02717738039791584,0.02343701757490635,0.056570619344711304
1.7294991242818957e+18,-0.027025412768125534,0.025001293048262596,0.05200781673192978
1.729499124290896e+18,-0.021986098960042,0.02530456893146038,0.04963638633489609
1.729499124296896e+18,-0.020007986575365067,0.022899402305483818,0.04539614915847778
1.7294991243058962e+18,-0.01910530775785446,0.02173551172018051,0.04449706897139549
1.7294991243148964e+18,-0.022180305793881416,0.020808076485991478,0.0400565005838871
1.7294991243238966e+18,-0.021979644894599915,0.021478703245520592,0.03763164207339287
1.7294991243298967e+18,-0.02193109132349491,0.022790616378188133,0.03254801779985428
1.729499124338897e+18,-0.025082752108573914,0.02456883154809475,0.028604580089449883
1.729499124347897e+18,-0.025127004832029343,0.021882353350520134,0.028058577328920364
1.7294991243568973e+18,-0.024132894352078438,0.024102838709950447,0.02481510490179062
1.7294991243628974e+18,-0.02259417437016964,0.022564709186553955,0.023389488458633423
1.7294991243718976e+18,-0.021485935896635056,0.018583612516522408,0.019308386370539665
1.7294991243778977e+18,-0.01855556108057499,0.02126549743115902,0.01808827742934227
1.729499124386898e+18,-0.019165443256497383,0.01919277384877205,0.014920053072273731
1.729499124392898e+18,-0.019217994064092636,0.021016035228967667,0.014190662652254105
1.7294991244018982e+18,-0.019591210409998894,0.01849707029759884,0.009868879802525043
1.7294991244108984e+18,-0.0213447455316782,0.020321253687143326,0.006849507335573435
1.7294991244198986e+18,-0.022388804703950882,0.019954120740294456,0.005665634758770466
1.7294991244258988e+18,-0.0221523717045784,0.01980854757130146,0.005218636244535446
1.729499124434899e+18,-0.01926482655107975,0.020550865679979324,-0.0010833310661837459
1.7294991244438991e+18,-0.01809091307222843,0.0166859682649374,-0.005838608834892511
1.7294991244528993e+18,-0.015573890879750252,0.018780220299959183,-0.005505102686583996
1.7294991244618995e+18,-0.018911564722657204,0.019396601244807243,-0.0071317413821816444
1.7294991244678996e+18,-0.022097518667578697,0.020180054008960724,-0.00981901865452528
1.7294991244768998e+18,-0.02185673639178276,0.016982974484562874,-0.013835754245519638
1.7294991244859e+18,-0.022627945989370346,0.015600243583321571,-0.014288953505456448
1.7294991244949002e+18,-0.02366076037287712,0.016588076949119568,-0.015955651178956032
1.7294991245039004e+18,-0.021532518789172173,0.018113210797309875,-0.019834471866488457
1.7294991245129006e+18,-0.017070231959223747,0.016538657248020172,-0.023254556581377983
1.7294991245219008e+18,-0.011430011130869389,0.019845031201839447,-0.027306117117404938
1.729499124527901e+18,-0.015803765505552292,0.01384646538645029,-0.028864825144410133
1.729499124536901e+18,-0.017801962792873383,0.014097961597144604,-0.029361655935645103
1.7294991245459013e+18,-0.01836528070271015,0.015488313511013985,-0.03214123472571373
1.7294991245519014e+18,-0.021213077008724213,0.011307375505566597,-0.03172376751899719
1.7294991245609016e+18,-0.017786452546715736,0.0116218077018857,-0.03502172231674194
1.7294991245699018e+18,-0.017237380146980286,0.010972960852086544,-0.03679952770471573
1.729499124575902e+18,-0.01570158451795578,0.012040787376463413,-0.03794119134545326
1.7294991245849021e+18,-0.015335281379520893,0.012212587520480156,-0.042432691901922226
1.7294991245939023e+18,-0.012903050519526005,0.013365047052502632,-0.04360656812787056
1.7294991246029025e+18,-0.013652417808771133,0.013091415166854858,-0.044344719499349594
1.7294991246089027e+18,-0.01384784560650587,0.00803543720394373,-0.04481218382716179
1.7294991246179028e+18,-0.018531499430537224,0.0064921327866613865,-0.048146869987249374
1.729499124623903e+18,-0.018168529495596886,0.00740683963522315,-0.04553404822945595
1.7294991246329032e+18,-0.016497686505317688,0.008311416953802109,-0.05089155584573746
1.7294991246419034e+18,-0.014971157535910606,0.010595682077109814,-0.05374344438314438
1.7294991246509036e+18,-0.013319216668605804,0.008629083633422852,-0.054334767162799835
1.7294991246569037e+18,-0.012983742170035839,0.00709087960422039,-0.054816242307424545
1.7294991246659039e+18,-0.015171060338616371,0.008162913843989372,-0.05855347216129303
1.729499124674904e+18,-0.013786762952804565,0.00797524955123663,-0.06004062667489052
1.7294991246809042e+18,-0.010779363103210926,0.011495810933411121,-0.0604136623442173
1.7294991246899044e+18,-0.013812662102282047,0.010115968063473701,-0.06197607144713402
1.7294991246959045e+18,-0.013283402658998966,0.007696923334151506,-0.06079611927270889
1.7294991247049047e+18,-0.009137089364230633,0.009728457778692245,-0.06098746135830879
1.729499124713905e+18,-0.011390713974833488,0.00982452929019928,-0.062983937561512
1.729499124719905e+18,-0.008226622827351093,0.008327457122504711,-0.06703097373247147
1.7294991247289052e+18,-0.007935168221592903,0.00965504813939333,-0.06375066190958023
1.7294991247379054e+18,-0.008189596235752106,0.00850678887218237,-0.06459879130125046
1.7294991247439055e+18,-0.0025464920327067375,0.011657452210783958,-0.06753981113433838
1.7294991247529057e+18,-0.0033141453750431538,0.007913579232990742,-0.07222555577754974
1.729499124761906e+18,-0.005068934988230467,0.008851151913404465,-0.06945347040891647
1.729499124770906e+18,-0.003284541657194495,0.005502380430698395,-0.07101713120937347
1.7294991247769062e+18,-0.005062042269855738,0.010146825574338436,-0.0700719878077507
1.7294991247859064e+18,-0.00480224285274744,0.006632068194448948,-0.07285705953836441
1.7294991247949066e+18,-0.003371885046362877,0.008865544572472572,-0.07443297654390335
1.7294991248009068e+18,-0.004700788296759129,0.007102572359144688,-0.07190442085266113
1.729499124809907e+18,-0.0052712457254529,0.006752097513526678,-0.07652028650045395
1.7294991248189071e+18,-0.004066437482833862,0.004687858745455742,-0.0764194130897522
1.7294991248249073e+18,-0.004116624593734741,0.0029978444799780846,-0.07857299596071243
1.7294991248339075e+18,-0.0021137045696377754,0.005426313262432814,-0.0743200033903122
1.7294991248429076e+18,-0.002085699699819088,0.007493217475712299,-0.0736270621418953
1.7294991248489078e+18,-0.002219673478975892,0.004482707474380732,-0.07948223501443863
1.729499124857908e+18,0.002181094605475664,0.004343666136264801,-0.07579122483730316
1.7294991248669082e+18,0.0008536374662071466,0.002605454996228218,-0.07601963728666306
1.7294991248729083e+18,-0.0039949845522642136,0.0005239460151642561,-0.07967688888311386
1.7294991248819085e+18,-0.003711187280714512,0.004587611183524132,-0.07614317536354065
1.7294991248909087e+18,-0.003492788877338171,0.004397456534206867,-0.07851935923099518
1.7294991248969088e+18,-0.0006003911839798093,0.005265098065137863,-0.0784650444984436
1.729499124905909e+18,0.0007919715135358274,0.0020822128280997276,-0.07899875938892365
1.7294991249149092e+18,0.0012674571480602026,0.0037673069164156914,-0.07779296487569809
1.7294991249239094e+18,0.0011215870035812259,0.004080467391759157,-0.07910244911909103
1.7294991249299095e+18,0.0012123346095904708,0.0019284910522401333,-0.08160973340272903
1.7294991249419098e+18,0.000385533319786191,0.0072637153789401054,-0.0808163657784462
1.72949912494791e+18,-0.0018194824224337935,0.002642918610945344,-0.07936741411685944
1.72949912495691e+18,0.0021849412005394697,0.0005079274997115135,-0.07771860063076019
1.7294991249629102e+18,0.0034768222831189632,0.002966278698295355,-0.0784233957529068
1.7294991249719104e+18,0.002214394975453615,-0.001480248523876071,-0.08003634214401245
1.7294991249809106e+18,0.003502056235447526,-0.003579627489671111,-0.07800820469856262
1.7294991249899108e+18,0.0019333497621119022,0.0017940254183486104,-0.07851395756006241
1.729499124995911e+18,0.005577817093580961,-0.0003793825744651258,-0.08006417751312256
1.729499125004911e+18,0.0021892443764954805,0.0020369375124573708,-0.07925298810005188
1.7294991250139113e+18,0.0007681895513087511,0.0010690628550946712,-0.07904444634914398
1.7294991250199114e+18,0.002502297982573509,-0.0001344981137663126,-0.07711184769868851
1.7294991250289116e+18,0.0028452689293771982,-0.0027819157112389803,-0.07802876830101013
1.7294991250379118e+18,0.0047868541441857815,-0.003022308461368084,-0.07689958065748215
1.729499125046912e+18,0.005133026745170355,-0.00375435221940279,-0.0756566971540451
1.7294991250559122e+18,0.005233298987150192,-0.004259783774614334,-0.07663095742464066
1.7294991250649124e+18,0.004356651101261377,-0.005127889569848776,-0.07715504616498947
1.7294991250739126e+18,0.0014728724490851164,0.000481518916785717,-0.0779164656996727
1.7294991250799127e+18,0.000990355503745377,-0.0017417350318282843,-0.07720808684825897
1.729499125088913e+18,0.004685809835791588,-0.0025892932899296284,-0.07443099468946457
1.729499125097913e+18,0.0018625842640176415,-0.0014678798615932465,-0.07274603843688965
1.7294991251039132e+18,0.002907032147049904,0.002158390823751688,-0.0740915834903717
1.7294991251129134e+18,0.005003079771995544,0.0009614372975192964,-0.0713590532541275
1.7294991251219136e+18,0.005891440901905298,-0.0005249108071438968,-0.07112712413072586
1.7294991251309138e+18,0.005161694251000881,-0.0027761405799537897,-0.07031566649675369
1.729499125139914e+18,0.006943854968994856,-0.001513731200248003,-0.06667155772447586
1.729499125145914e+18,0.0066531868651509285,0.0006693712784908712,-0.06913616508245468
1.7294991251549143e+18,0.005787875968962908,-0.0005661280010826886,-0.06778743118047714
1.7294991251639145e+18,0.011105705052614212,0.00019040258484892547,-0.06475744396448135
1.7294991251729147e+18,0.009479286149144173,-0.0015973784029483795,-0.06546612083911896
1.729499125184915e+18,0.011784307658672333,-0.0010552509920671582,-0.0647708922624588
1.729499125190915e+18,0.009387768805027008,-0.003151021897792816,-0.06248832494020462
1.7294991251999153e+18,0.011407671496272087,-0.0025627994909882545,-0.06526056677103043
1.7294991252089155e+18,0.012449068948626518,0.0011099660769104958,-0.06579447537660599
1.7294991252179156e+18,0.012273947708308697,-0.004440510179847479,-0.06318260729312897
1.7294991252239158e+18,0.01382394041866064,-0.0017383134691044688,-0.05978638678789139
1.729499125232916e+18,0.01594824716448784,-0.002392692258581519,-0.06050567328929901
1.7294991252419162e+18,0.014869697391986847,-0.0039055345114320517,-0.059326376765966415
1.7294991252479163e+18,0.01601140946149826,-0.0014374657766893506,-0.05757821723818779
1.7294991252569165e+18,0.017537496984004974,-0.0003076831344515085,-0.055153198540210724
1.7294991252659167e+18,0.01430128701031208,-0.002478894079104066,-0.05736492574214935
1.7294991252749169e+18,0.014522557146847248,-0.005751808173954487,-0.054497674107551575
1.729499125283917e+18,0.016218457370996475,-0.006557880900800228,-0.054903771728277206
1.7294991252929172e+18,0.013769740238785744,-0.00583924725651741,-0.052183181047439575
1.7294991253019174e+18,0.013173045590519905,-0.007095511071383953,-0.052615709602832794
1.7294991253079176e+18,0.014792170375585556,-0.0025210881140083075,-0.04861001297831535
1.7294991253169178e+18,0.015591627918183804,-0.002838294953107834,-0.05326329916715622
1.729499125322918e+18,0.015944069251418114,-0.007831428200006485,-0.047992683947086334
1.729499125331918e+18,0.014065848663449287,-0.005020256619900465,-0.04858393967151642
1.7294991253409183e+18,0.013183224946260452,-0.008076918311417103,-0.04881647974252701
1.7294991253499185e+18,0.014617393724620342,-0.0070890579372644424,-0.04880344122648239
1.7294991253559186e+18,0.01342816837131977,-0.00692010298371315,-0.043754272162914276
1.7294991253649188e+18,0.009985771030187607,-0.00526815140619874,-0.043339673429727554
1.729499125370919e+18,0.012432456016540527,-0.0038601490668952465,-0.04568732529878616
1.729499125379919e+18,0.013158924877643585,-0.00857230369001627,-0.04102829471230507
1.7294991253889193e+18,0.013450407423079014,-0.005920914467424154,-0.039948318153619766
1.7294991253949194e+18,0.012762973085045815,-0.007686634548008442,-0.0409325510263443
1.7294991254039196e+18,0.010834709741175175,-0.007879027165472507,-0.03794902563095093
1.7294991254129198e+18,0.011439724825322628,-0.00982426293194294,-0.036751095205545425
1.72949912542492e+18,0.012397193349897861,-0.008466415107250214,-0.03667139634490013
1.7294991254309202e+18,0.011253897100687027,-0.007155265659093857,-0.034865960478782654
1.7294991254399204e+18,0.012250827625393867,-0.007537439465522766,-0.03429289907217026
1.7294991254489206e+18,0.013531835749745369,-0.009182972833514214,-0.03393525257706642
1.7294991254579208e+18,0.012403775006532669,-0.00799390859901905,-0.03127400577068329
1.729499125463921e+18,0.01149856299161911,-0.0068683624267578125,-0.029357722029089928
1.729499125472921e+18,0.010446594096720219,-0.006000875029712915,-0.029077963903546333
1.7294991254819213e+18,0.01257435604929924,-0.0065726288594305515,-0.031789179891347885
1.7294991254909215e+18,0.008782614953815937,-0.004740842152386904,-0.028190745040774345
1.7294991254969216e+18,0.011947584338486195,-0.006461434531956911,-0.028838185593485832
1.7294991255059218e+18,0.01096505019813776,-0.004899289458990097,-0.02618260495364666
1.729499125514922e+18,0.013760542497038841,-0.005591916851699352,-0.02668970264494419
1.7294991255239222e+18,0.012393563985824585,-0.005892215762287378,-0.02135048434138298
1.7294991255329224e+18,0.013950562104582787,-0.007422588765621185,-0.02133401855826378
1.7294991255419226e+18,0.01486627385020256,-0.008260703645646572,-0.019318899139761925
1.7294991255479227e+18,0.013323615305125713,-0.007496909238398075,-0.02262658067047596
1.729499125556923e+18,0.014462413266301155,-0.006255068816244602,-0.01803409494459629
1.729499125565923e+18,0.012314469553530216,-0.007329602725803852,-0.021045126020908356
1.7294991255749233e+18,0.014062296599149704,-0.00866678450256586,-0.01929897628724575
1.7294991255839235e+18,0.011722533032298088,-0.011148182675242424,-0.015443824231624603
1.7294991255929236e+18,0.019598327577114105,-0.007934262976050377,-0.016641173511743546
1.7294991255989238e+18,0.025820666924118996,-0.0021460573188960552,-0.02625090442597866
1.729499125607924e+18,0.03619670867919922,0.010422768071293831,-0.039652567356824875
1.7294991256199242e+18,0.04182770103216171,0.011938910000026226,-0.04616154357790947
1.7294991256259244e+18,0.03566974774003029,0.011822645552456379,-0.050729282200336456
1.7294991256349245e+18,0.027580277994275093,0.002763096010312438,-0.0487152524292469
1.7294991256439247e+18,0.021674230694770813,-0.0011195465922355652,-0.0438886322081089
1.729499125652925e+18,0.021214570850133896,-0.005150240380316973,-0.045218873769044876
1.729499125661925e+18,0.02072231099009514,-0.005135884042829275,-0.040093857795000076
1.7294991256679252e+18,0.022137006744742393,-0.004223588854074478,-0.044420771300792694
1.7294991256769254e+18,0.02730689011514187,-0.0013496739557012916,-0.03981524705886841
1.7294991256859256e+18,0.028729313984513283,-0.00019764574244618416,-0.03961922973394394
1.7294991256949258e+18,0.025581324473023415,-0.001291066175326705,-0.03915676847100258
1.729499125703926e+18,0.023139016702771187,-0.005995447281748056,-0.03864523768424988
1.7294991257129262e+18,0.019439641386270523,-0.007157096639275551,-0.03392350673675537
1.7294991257219264e+18,0.012386142276227474,-0.009501907974481583,-0.036309171468019485
1.7294991257309266e+18,0.01600121334195137,-0.010529696010053158,-0.0320100374519825
1.7294991257399268e+18,0.014209987595677376,-0.011244158260524273,-0.030645281076431274
1.729499125745927e+18,0.015177462249994278,-0.01053954754024744,-0.029358917847275734
1.729499125754927e+18,0.019946200773119926,-0.013379968702793121,-0.03069833293557167
1.7294991257639273e+18,0.01859709806740284,-0.011056987568736076,-0.02813008613884449
1.7294991257729275e+18,0.0149299968034029,-0.011037977412343025,-0.027261577546596527
1.7294991257789276e+18,0.012347424402832985,-0.015393378213047981,-0.027825525030493736
1.7294991257879278e+18,0.011803211644291878,-0.012697490863502026,-0.022485051304101944
1.729499125796928e+18,0.006650764495134354,-0.011755397543311119,-0.021860260516405106
1.7294991258059282e+18,0.012003116309642792,-0.017690623179078102,-0.0207405686378479
1.7294991258149284e+18,0.016752926632761955,-0.01425474975258112,-0.0158588495105505
1.7294991258209285e+18,0.015418214723467827,-0.01597827672958374,-0.017937516793608665
1.7294991258299287e+18,0.018668031319975853,-0.010558802634477615,-0.017219750210642815
1.729499125838929e+18,0.01689988002181053,-0.012705139815807343,-0.013629247434437275
1.729499125847929e+18,0.014764185063540936,-0.011142585426568985,-0.016909455880522728
1.7294991258569293e+18,0.010724444873631,-0.011667683720588684,-0.009713968262076378
1.7294991258659295e+18,0.010095440782606602,-0.012203257530927658,-0.013295345939695835
1.7294991258719296e+18,0.01069081574678421,-0.010415170341730118,-0.01181945763528347
1.7294991258809298e+18,0.011869320645928383,-0.012893028557300568,-0.010304237715899944
1.72949912588993e+18,0.013363571837544441,-0.012079905718564987,-0.006450095679610968
1.7294991258989302e+18,0.01630154624581337,-0.01319928839802742,-0.005401277914643288
1.7294991259049303e+18,0.013107922859489918,-0.010792745277285576,-0.004615483805537224
1.7294991259139305e+18,0.00991395115852356,-0.009655465371906757,-0.004462434444576502
1.7294991259229307e+18,0.012842535972595215,-0.013852838426828384,-0.0042896331287920475
1.729499125931931e+18,0.010108712129294872,-0.013515402562916279,-0.0032578189857304096
1.729499125940931e+18,0.012531797401607037,-0.013135520741343498,-0.0017649313667789102
1.7294991259499313e+18,0.013597237877547741,-0.014840826392173767,-0.0022213561460375786
1.7294991259559314e+18,0.015522757545113564,-0.014352326281368732,0.00012329552555456758
1.7294991259649316e+18,0.013552982360124588,-0.013355922885239124,-0.0026333394926041365
1.7294991259709317e+18,0.01445702277123928,-0.016103297472000122,-0.0012203861260786653
1.729499125979932e+18,0.015133538283407688,-0.01732960343360901,4.5016524381935596e-05
1.729499125988932e+18,0.015429522842168808,-0.016546601429581642,0.0015606057131662965
1.7294991259979323e+18,0.01376692671328783,-0.01925242505967617,0.00421753479167819
1.7294991260039324e+18,0.013996895402669907,-0.015708748251199722,0.0016752879600971937
1.7294991260129326e+18,0.014652993530035019,-0.015882501378655434,0.0062790499068796635
1.7294991260189327e+18,0.014034655876457691,-0.014062553644180298,0.005740719381719828
1.729499126027933e+18,0.014954646117985249,-0.012205819599330425,0.004844242241233587
1.729499126036933e+18,0.014762415550649166,-0.012856146320700645,0.010087689384818077
1.7294991260459333e+18,0.01382118184119463,-0.01312038954347372,0.006450927350670099
1.7294991260549335e+18,0.01948283240199089,-0.013574454933404922,0.005907584447413683
1.7294991260639337e+18,0.015883874148130417,-0.016128890216350555,0.0067373826168477535
1.729499126072934e+18,0.016562459990382195,-0.016400640830397606,0.007734587416052818
1.729499126078934e+18,0.015371312387287617,-0.01691165752708912,0.011528979986906052
1.7294991260879342e+18,0.011817852035164833,-0.01396704837679863,0.009503004141151905
1.7294991260969344e+18,0.016444116830825806,-0.016522882506251335,0.013802368193864822
1.7294991261029345e+18,0.014419816434383392,-0.014761309139430523,0.009925482794642448
1.7294991261149348e+18,0.01493025291711092,-0.0160488560795784,0.012284837663173676
1.729499126123935e+18,0.015280881896615028,-0.014426988549530506,0.008465533144772053
1.729499126129935e+18,0.017255200073122978,-0.012320907786488533,0.007882706820964813
1.7294991261389353e+18,0.015844149515032768,-0.018170800060033798,0.013006750494241714
1.7294991261479355e+18,0.013984134420752525,-0.013654785230755806,0.01264945324510336
1.7294991261569357e+18,0.014304159209132195,-0.013868961483240128,0.012187772430479527
1.7294991261629358e+18,0.012938148342072964,-0.01479405164718628,0.01251232996582985
1.729499126171936e+18,0.017148036509752274,-0.016238607466220856,0.01035386510193348
1.7294991261809362e+18,0.018034882843494415,-0.01522691547870636,0.01222927588969469
1.7294991261899364e+18,0.018469126895070076,-0.014028099365532398,0.014401372522115707
1.7294991261989366e+18,0.015386507846415043,-0.015044634230434895,0.012205848470330238
1.7294991262079368e+18,0.013791121542453766,-0.012447550892829895,0.011471787467598915
1.729499126213937e+18,0.014376865699887276,-0.012714285403490067,0.01330803893506527
1.729499126222937e+18,0.01441841572523117,-0.013115067966282368,0.01631554402410984
1.7294991262319373e+18,0.011503603309392929,-0.015086504630744457,0.01564159244298935
1.7294991262409375e+18,0.015222912654280663,-0.010133905336260796,0.013730112463235855
1.7294991262469376e+18,0.012812179513275623,-0.01261698454618454,0.013141809962689877
1.7294991262559378e+18,0.017984261736273766,-0.013021224178373814,0.0162359569221735
1.729499126264938e+18,0.014749587513506413,-0.016769427806138992,0.01541136484593153
1.7294991262739382e+18,0.01044227834790945,-0.011603699065744877,0.016021884977817535
1.7294991262829384e+18,0.004831213038414717,-0.01392104011029005,0.015077381394803524
1.7294991262889385e+18,0.006705463398247957,-0.011443245224654675,0.010782978497445583
1.7294991262979387e+18,0.005384698510169983,-0.0125796590000391,0.017561007291078568
1.729499126309939e+18,0.010662563145160675,-0.012878631241619587,0.01421100739389658
1.7294991263189391e+18,0.014381017535924911,-0.014601364731788635,0.012796000577509403
1.7294991263279393e+18,0.013039330020546913,-0.015617124736309052,0.013664619997143745
1.7294991263339395e+18,0.01678292267024517,-0.013811190612614155,0.012435353361070156
1.7294991263429396e+18,0.01026142854243517,-0.016636615619063377,0.015904778614640236
1.7294991263519398e+18,0.008670239709317684,-0.016781199723482132,0.01616416685283184
1.72949912636094e+18,0.00548099260777235,-0.015377549454569817,0.013425641693174839
1.7294991263699402e+18,0.0037294430658221245,-0.015796344727277756,0.013300487771630287
1.7294991263759404e+18,0.00247614155523479,-0.018138745799660683,0.014194303192198277
1.7294991263849405e+18,0.00913604162633419,-0.016519799828529358,0.015336159616708755
1.7294991263939407e+18,0.007363961078226566,-0.019065380096435547,0.0122267110273242
1.7294991263999409e+18,0.015781298279762268,-0.019021762534976006,0.013571950607001781
1.729499126408941e+18,0.010316446423530579,-0.018117619678378105,0.014557451009750366
1.7294991264179412e+18,0.0083539467304945,-0.017787117511034012,0.015620951540768147
1.7294991264269414e+18,0.005655625835061073,-0.013491014949977398,0.01266968809068203
1.7294991264359416e+18,0.0026598633266985416,-0.01807236671447754,0.013973361812531948
1.7294991264419418e+18,0.0003843570011667907,-0.01882401667535305,0.012282894924283028
1.729499126450942e+18,0.0008451389148831367,-0.018524210900068283,0.014582161791622639
1.7294991264599421e+18,0.007123591378331184,-0.01622352935373783,0.011908170767128468
1.7294991264689423e+18,0.012044187635183334,-0.017331281676888466,0.011351379565894604
1.7294991264779425e+18,0.011678440496325493,-0.015524748712778091,0.013753877021372318
1.7294991264869427e+18,0.013853369280695915,-0.013999637216329575,0.015828745439648628
1.729499126495943e+18,0.008064896799623966,-0.01675870642066002,0.01136913150548935
1.729499126501943e+18,0.007654557004570961,-0.016483929008245468,0.012847306206822395
1.7294991265109432e+18,0.0017754717264324427,-0.014586711302399635,0.013277704827487469
1.7294991265199434e+18,0.0030249133706092834,-0.016322297975420952,0.014838257804512978
1.7294991265259436e+18,0.0055806296877563,-0.011043228209018707,0.013654617592692375
1.7294991265349437e+18,0.00746240746229887,-0.014135601930320263,0.013758931308984756
1.729499126543944e+18,0.013332867063581944,-0.016100555658340454,0.011998466216027737
1.729499126549944e+18,0.011799481697380543,-0.013203570619225502,0.012517033144831657
1.7294991265589443e+18,0.010014507919549942,-0.016514332965016365,0.014630828984081745
1.7294991265649444e+18,0.009265569038689137,-0.015397736802697182,0.013308626599609852
1.7294991265739446e+18,0.00716757494956255,-0.01428280957043171,0.011149170808494091
1.7294991265799447e+18,0.004579584114253521,-0.014520848169922829,0.013301178812980652
1.729499126588945e+18,0.007344814017415047,-0.012083283625543118,0.012353383004665375
1.729499126597945e+18,0.009512601420283318,-0.01254502683877945,0.013871216215193272
1.7294991266069453e+18,0.01283891499042511,-0.014950014650821686,0.01190248318016529
1.7294991266129454e+18,0.008527714759111404,-0.009877757169306278,0.01294794399291277
1.7294991266219456e+18,0.0075789447873830795,-0.00962494220584631,0.012983838096261024
1.7294991266309458e+18,0.006639331113547087,-0.00913628563284874,0.01144162006676197
1.729499126636946e+18,0.007536824326962233,-0.010194012895226479,0.014442416839301586
1.729499126645946e+18,0.006042515859007835,-0.013142919167876244,0.013523180037736893
1.7294991266549463e+18,0.0040758815594017506,-0.011014222167432308,0.01337258517742157
1.7294991266609464e+18,0.008569179102778435,-0.010138903744518757,0.011543228290975094
1.7294991266699466e+18,0.009181599132716656,-0.013589806854724884,0.012576705776154995
1.7294991266789468e+18,0.006058458238840103,-0.011452478356659412,0.016769777983427048
1.729499126687947e+18,0.005216498859226704,-0.010243666358292103,0.016012031584978104
1.7294991266939471e+18,0.006139697972685099,-0.006328633986413479,0.01693815551698208
1.7294991267029473e+18,0.00732848746702075,-0.009996293112635612,0.018047241494059563
1.7294991267119475e+18,0.004309925716370344,-0.009248104877769947,0.01734207756817341
1.7294991267179476e+18,0.006674228236079216,-0.009851318784058094,0.015862243250012398
1.7294991267269478e+18,0.007579040247946978,-0.006608849857002497,0.01862006075680256
1.729499126735948e+18,0.009204674512147903,-0.010509409941732883,0.01795421913266182
1.7294991267419482e+18,0.005686890799552202,-0.008218377828598022,0.019519682973623276
1.7294991267509484e+18,0.006308403797447681,-0.010650482028722763,0.019962642341852188
1.7294991267599485e+18,0.0046318694949150085,-0.012070517987012863,0.020298855379223824
1.7294991267689487e+18,0.006263951770961285,-0.010368483141064644,0.02407442033290863
1.7294991267749489e+18,0.004352250136435032,-0.010712658055126667,0.021011872217059135
1.729499126783949e+18,0.0033300050999969244,-0.01038267556577921,0.02078530564904213
1.7294991267929492e+18,0.003832633839920163,-0.011100418865680695,0.0199932511895895
1.7294991267989494e+18,0.008387449197471142,-0.011857000179588795,0.026233773678541183
1.7294991268079496e+18,0.011392297223210335,-0.011761683039367199,0.02197551541030407
1.7294991268169498e+18,0.008478071540594101,-0.011456817388534546,0.022405225783586502
1.72949912682295e+18,0.011171870864927769,-0.016856316477060318,0.0255551990121603
1.72949912683195e+18,0.021021166816353798,-0.03800457343459129,0.022611692547798157
1.7294991268409503e+18,0.03322751820087433,-0.0577399916946888,0.026927746832370758
1.7294991268469504e+18,0.0403384305536747,-0.07370570302009583,0.0251235943287611
1.7294991268559506e+18,0.04851113632321358,-0.08334897458553314,0.020253010094165802
1.7294991268649508e+18,0.04827878996729851,-0.08762963116168976,0.02540869452059269
1.729499126873951e+18,0.04544505476951599,-0.0808691680431366,0.023454762995243073
1.7294991268829512e+18,0.04727912321686745,-0.07995133846998215,0.02662479132413864
1.7294991268889513e+18,0.045123204588890076,-0.08166388422250748,0.026036785915493965
1.7294991268979515e+18,0.04708186164498329,-0.08484800159931183,0.027724429965019226
1.7294991269069517e+18,0.0517573282122612,-0.09169212728738785,0.02524324506521225
1.7294991269159519e+18,0.05383460596203804,-0.09713859856128693,0.02565884031355381
1.729499126924952e+18,0.05482003092765808,-0.10128714144229889,0.025390159338712692
1.7294991269339523e+18,0.0562150813639164,-0.09835544973611832,0.0264410600066185
1.7294991269429524e+18,0.052509430795907974,-0.09003974497318268,0.024196676909923553
1.7294991269489526e+18,0.05110519006848335,-0.08743495494127274,0.026315344497561455
1.7294991269579528e+18,0.04661482200026512,-0.07984763383865356,0.030549412593245506
1.729499126966953e+18,0.04831831157207489,-0.07668459415435791,0.02715010941028595
1.7294991269759532e+18,0.04554525017738342,-0.07701579481363297,0.026945970952510834
1.7294991269819533e+18,0.04464270919561386,-0.07294396311044693,0.028378618881106377
1.7294991269909535e+18,0.04390904679894447,-0.07221990078687668,0.026169201359152794
1.7294991269999537e+18,0.04358533397316933,-0.07081048935651779,0.029813993722200394
1.7294991270059538e+18,0.04771656170487404,-0.06874963641166687,0.029881836846470833
1.729499127014954e+18,0.0410323329269886,-0.06194227561354637,0.0305915679782629
1.7294991270239542e+18,0.03681003674864769,-0.05653611943125725,0.03153501823544502
1.7294991270299543e+18,0.02980266883969307,-0.04940813034772873,0.025764187797904015
1.7294991270389545e+18,0.030718090012669563,-0.04814297333359718,0.02536134049296379
1.7294991270479547e+18,0.02489224262535572,-0.040546540170907974,0.030232684686779976
1.7294991270539548e+18,0.026907332241535187,-0.03826587647199631,0.031419724225997925
1.729499127062955e+18,0.028072120621800423,-0.03428995609283447,0.030431760475039482
1.7294991270719552e+18,0.027024555951356888,-0.03293843939900398,0.028031885623931885
1.7294991270779553e+18,0.02546106092631817,-0.03246418014168739,0.026693355292081833
1.7294991270869555e+18,0.02214476838707924,-0.027061494067311287,0.0276701170951128
1.7294991270959557e+18,0.01698993146419525,-0.021912885829806328,0.029529539868235588
1.729499127104956e+18,0.009997011162340641,-0.016421984881162643,0.027488982304930687
1.729499127113956e+18,0.00820201076567173,-0.014310155995190144,0.030213912948966026
1.7294991271199562e+18,0.007879648357629776,-0.012043358758091927,0.029637841507792473
1.7294991271289564e+18,0.0065398747101426125,-0.011996972374618053,0.02876272238790989
1.7294991271379566e+18,0.007249611429870129,-0.006498295813798904,0.027308741584420204
1.7294991271469568e+18,0.01103291381150484,-0.0033628882374614477,0.028004556894302368
1.729499127155957e+18,0.008080041036009789,0.002726302482187748,0.028772324323654175
1.7294991271649572e+18,0.003990025259554386,0.0076757618226110935,0.029452968388795853
1.7294991271739574e+18,-0.0013472101418301463,0.007252268027514219,0.02878345549106598
1.7294991271799575e+18,-0.0018117438303306699,0.004378947429358959,0.028831759467720985
1.7294991271889577e+18,-0.0033317916095256805,0.00902216974645853,0.02734752744436264
1.729499127197958e+18,-0.0025459688622504473,0.009651118889451027,0.028492771089076996
1.729499127206958e+18,-0.0003447720664553344,0.010596644133329391,0.029837142676115036
1.7294991272159583e+18,-0.0014768783003091812,0.014715257100760937,0.02639096789062023
1.7294991272219584e+18,-0.00164751335978508,0.015941238030791283,0.027717599645256996
1.7294991272309586e+18,-0.0005873027839697897,0.019319850951433182,0.028008876368403435
1.7294991272399588e+18,-0.00017268978990614414,0.017533117905259132,0.028555195778608322
1.729499127245959e+18,0.00010350579395890236,0.012617750093340874,0.030332017689943314
1.729499127254959e+18,-0.002232602098956704,0.016378076747059822,0.028988787904381752
1.7294991272639593e+18,-0.0023196241818368435,0.012127725407481194,0.027925366535782814
1.7294991272729595e+18,-0.005210420582443476,0.014228645712137222,0.02778545953333378
1.7294991272789596e+18,-0.0028275123331695795,0.014557522721588612,0.029608355835080147
1.7294991272879598e+18,0.0002806754782795906,0.014878974296152592,0.026552561670541763
1.72949912729696e+18,-0.0009907123167067766,0.019007451832294464,0.031633876264095306
1.72949912730296e+18,-0.001496487995609641,0.011483369395136833,0.02981668710708618
1.7294991273119603e+18,-0.0014557219110429287,0.01496382150799036,0.02710741199553013
1.7294991273209605e+18,-0.004868511110544205,0.014455226249992847,0.026050981134176254
1.7294991273269606e+18,-0.0045477645471692085,0.013375641778111458,0.02714449167251587
1.7294991273359608e+18,-0.005293183960020542,0.015731241554021835,0.026418980211019516
1.729499127344961e+18,-0.004175642970949411,0.01805536076426506,0.02780984155833721
1.7294991273539612e+18,-0.005265892017632723,0.014230715110898018,0.025979794561862946
1.7294991273629614e+18,-0.005059427581727505,0.013977124355733395,0.027699993923306465
1.7294991273749617e+18,-0.005585505627095699,0.011481646448373795,0.028564108535647392
1.729499127389962e+18,-0.008491928689181805,0.010300332680344582,0.025096220895648003
1.729499127395962e+18,-0.008487178944051266,0.01395400334149599,0.026528142392635345
1.7294991274049623e+18,-0.009584048762917519,0.014581309631466866,0.025337234139442444
1.7294991274139625e+18,-0.006787908263504505,0.009898851625621319,0.02420108951628208
1.7294991274229627e+18,-0.0065094586461782455,0.01543343998491764,0.028548073023557663
1.729499127431963e+18,-0.00833373237401247,0.014103426598012447,0.02702299878001213
1.729499127440963e+18,-0.010503051802515984,0.013900304213166237,0.027449237182736397
1.7294991274499633e+18,-0.011041696183383465,0.011147122830152512,0.027074899524450302
1.7294991274589635e+18,-0.006544126197695732,0.012186843901872635,0.02568344585597515
1.7294991274649636e+18,-0.004613157361745834,0.01304991077631712,0.02754068188369274
1.7294991274739638e+18,-0.005782849621027708,0.015260659158229828,0.026506323367357254
1.729499127482964e+18,-0.009224812500178814,0.014232778921723366,0.02809259667992592
1.7294991274919642e+18,-0.010857869870960712,0.015424893237650394,0.024992816150188446
1.7294991275009644e+18,-0.015033559873700142,0.015364503487944603,0.028237611055374146
1.7294991275099645e+18,-0.010663587599992752,0.01654810830950737,0.025393418967723846
1.7294991275189647e+18,-0.011077153496444225,0.015680285170674324,0.025936545804142952
1.729499127527965e+18,-0.00995800644159317,0.015464995056390762,0.026524841785430908
1.729499127536965e+18,-0.006686919368803501,0.017294425517320633,0.024914175271987915
1.7294991275429652e+18,-0.010215011425316334,0.01643575169146061,0.030418502166867256
1.7294991275519654e+18,-0.011825080029666424,0.018512655049562454,0.02504342421889305
1.7294991275609656e+18,-0.013176033273339272,0.019647670909762383,0.024398529902100563
1.7294991275699658e+18,-0.013296189717948437,0.021153395995497704,0.027479834854602814
1.729499127578966e+18,-0.01673365943133831,0.019276941195130348,0.025652073323726654
1.7294991275849661e+18,-0.015963144600391388,0.01935078389942646,0.02574499510228634
1.7294991275939663e+18,-0.018232863396406174,0.014942127279937267,0.026104364544153214
1.7294991276029665e+18,-0.01603478379547596,0.019136395305395126,0.025414898991584778
1.7294991276089667e+18,-0.01119946502149105,0.014607374556362629,0.022530537098646164
1.7294991276179668e+18,-0.01239170040935278,0.02103084698319435,0.02798154577612877
1.729499127626967e+18,-0.012428712099790573,0.024305395781993866,0.026390373706817627
1.7294991276329672e+18,-0.012321623973548412,0.023766227066516876,0.02856834977865219
1.7294991276419674e+18,-0.015730472281575203,0.02190001867711544,0.024313410744071007
1.7294991276509676e+18,-0.015415129251778126,0.021444126963615417,0.025846218690276146
1.7294991276569677e+18,-0.01989428885281086,0.022952552884817123,0.026067795231938362
1.7294991276659679e+18,-0.01815078780055046,0.021482504904270172,0.022361066192388535
1.729499127674968e+18,-0.014280591160058975,0.023004455491900444,0.0256799329072237
1.7294991276809682e+18,-0.017060721293091774,0.025272944942116737,0.024567514657974243
1.7294991276899684e+18,-0.013343487866222858,0.024903936311602592,0.02379586733877659
1.7294991276989686e+18,-0.014042994007468224,0.020247317850589752,0.024879638105630875
1.7294991277049687e+18,-0.01837747171521187,0.02587629295885563,0.025349052622914314
1.729499127713969e+18,-0.020985668525099754,0.021691620349884033,0.024708839133381844
1.729499127722969e+18,-0.026910929009318352,0.022978903725743294,0.024596262723207474
1.7294991277289692e+18,-0.023289630189538002,0.02328062802553177,0.02471866086125374
1.7294991277379694e+18,-0.021226130425930023,0.024210849776864052,0.02188742160797119
1.7294991277439695e+18,-0.020262541249394417,0.02303393743932247,0.022782323881983757
1.7294991277529697e+18,-0.020220093429088593,0.02163412794470787,0.026121938601136208
1.72949912776197e+18,-0.018996771425008774,0.022739453241229057,0.02324836142361164
1.72949912776797e+18,-0.017704185098409653,0.021621501073241234,0.025167938321828842
1.7294991277769702e+18,-0.023035379126667976,0.02066800557076931,0.023967336863279343
1.7294991277859704e+18,-0.02114659734070301,0.022499633952975273,0.02267911471426487
1.7294991277919706e+18,-0.02492404729127884,0.02120497077703476,0.02085583284497261
1.7294991278009708e+18,-0.028302643448114395,0.027360333129763603,0.021996429190039635
1.729499127809971e+18,-0.025907127186655998,0.029557032510638237,0.023597393184900284
1.7294991278189711e+18,-0.023379167541861534,0.029101083055138588,0.02445829287171364
1.7294991278249713e+18,-0.021263692528009415,0.02717580646276474,0.020225077867507935
1.7294991278339715e+18,-0.016185149550437927,0.028263205662369728,0.024117393419146538
1.7294991278429716e+18,-0.014253949746489525,0.027202991768717766,0.022799380123615265
1.7294991278489718e+18,-0.017806751653552055,0.024771494790911674,0.02247323840856552
1.729499127857972e+18,-0.018735414370894432,0.025071201846003532,0.022858550772070885
1.729499127863972e+18,-0.02407790534198284,0.027819575741887093,0.02142835035920143
1.7294991278729723e+18,-0.02319614589214325,0.027442768216133118,0.02320842817425728
1.7294991278819725e+18,-0.020317723974585533,0.02866230718791485,0.023020025342702866
1.7294991278879726e+18,-0.02219192311167717,0.025540223345160484,0.02300514280796051
1.7294991278969728e+18,-0.020252227783203125,0.028302369639277458,0.022854618728160858
1.729499127905973e+18,-0.01652432233095169,0.02455153875052929,0.02391219325363636
1.7294991279149732e+18,-0.017864499241113663,0.028100715950131416,0.019777191802859306
1.7294991279209733e+18,-0.016889721155166626,0.025599714368581772,0.02256453037261963
1.7294991279299735e+18,-0.01539641059935093,0.027815265581011772,0.020976699888706207
1.7294991279389737e+18,-0.018013283610343933,0.028154777362942696,0.02651299349963665
1.7294991279449738e+18,-0.01781202293932438,0.026216091588139534,0.02408892847597599
1.729499127953974e+18,-0.016979800537228584,0.026055961847305298,0.020411774516105652
1.7294991279629742e+18,-0.0239157285541296,0.023437602445483208,0.02030351012945175
1.7294991279689743e+18,-0.01975194178521633,0.02422027848660946,0.0241374634206295
1.7294991279779745e+18,-0.02448798343539238,0.025814253836870193,0.022187698632478714
1.7294991279869747e+18,-0.02369697578251362,0.027575651183724403,0.021472375839948654
1.7294991279929748e+18,-0.02061890996992588,0.028572525829076767,0.02043130248785019
1.729499128001975e+18,-0.017979253083467484,0.026594746857881546,0.020061980932950974
1.7294991280109752e+18,-0.02105562575161457,0.027467265725135803,0.019450340420007706
1.7294991280199754e+18,-0.01792936585843563,0.028221193701028824,0.021091792732477188
1.7294991280259756e+18,-0.021339137107133865,0.02716774307191372,0.021106109023094177
1.7294991280349757e+18,-0.024462906643748283,0.033829327672719955,0.022861532866954803
1.729499128043976e+18,-0.02534591406583786,0.029364250600337982,0.021337492391467094
1.729499128052976e+18,-0.024094093590974808,0.033304113894701004,0.020232530310750008
1.7294991280619763e+18,-0.020349662750959396,0.027620289474725723,0.02161557786166668
1.7294991280709765e+18,-0.01956740766763687,0.028216399252414703,0.019698096439242363
1.7294991280769766e+18,-0.019820239394903183,0.02677166648209095,0.02133842557668686
1.7294991280859768e+18,-0.02060379460453987,0.026779677718877792,0.018631944432854652
1.729499128094977e+18,-0.018057962879538536,0.03167128562927246,0.02160010300576687
1.7294991281039772e+18,-0.020173300057649612,0.03364010155200958,0.022224310785531998
1.7294991281129774e+18,-0.024265406653285027,0.028972279280424118,0.019167697057127953
1.7294991281189775e+18,-0.023603105917572975,0.027045156806707382,0.017356958240270615
1.7294991281279777e+18,-0.022370487451553345,0.02601468749344349,0.022388312965631485
1.729499128136978e+18,-0.019507288932800293,0.026383519172668457,0.024143032729625702
1.729499128142978e+18,-0.019076893106102943,0.02479160949587822,0.023724887520074844
1.7294991281519782e+18,-0.01741415075957775,0.024843808263540268,0.0209914892911911
1.7294991281609784e+18,-0.01696736365556717,0.026881352066993713,0.020086882635951042
1.7294991281669786e+18,-0.01966351643204689,0.02625352330505848,0.019019002094864845
1.7294991281759788e+18,-0.023577990010380745,0.026435494422912598,0.023108283057808876
1.729499128184979e+18,-0.023007720708847046,0.02713657170534134,0.016431733965873718
1.729499128190979e+18,-0.02670692279934883,0.0255849901586771,0.01775027997791767
1.7294991281999793e+18,-0.024428654462099075,0.0263962484896183,0.01951715536415577
1.7294991282059794e+18,-0.023567896336317062,0.026262419298291206,0.016995005309581757
1.7294991282149796e+18,-0.01987258344888687,0.026195336133241653,0.015515193343162537
1.7294991282239798e+18,-0.02046653814613819,0.028372222557663918,0.02051432430744171
1.72949912822998e+18,-0.017676983028650284,0.026272913441061974,0.01859370619058609
1.72949912823898e+18,-0.020977672189474106,0.026896465569734573,0.01668313518166542
1.7294991282449802e+18,-0.023085687309503555,0.024789156392216682,0.020729470998048782
1.7294991282539804e+18,-0.02499067410826683,0.02302173711359501,0.019243568181991577
1.7294991282629806e+18,-0.021127179265022278,0.024976108223199844,0.017834318801760674
1.7294991282689807e+18,-0.02194461226463318,0.026206061244010925,0.01857840083539486
1.729499128277981e+18,-0.019148152321577072,0.022495087236166,0.019519107416272163
1.729499128286981e+18,-0.01770232990384102,0.024412235245108604,0.016375716775655746
1.7294991282959813e+18,-0.017998550087213516,0.018621306866407394,0.02121662348508835
1.7294991283019814e+18,-0.01680341549217701,0.021908193826675415,0.02032996155321598
1.7294991283109816e+18,-0.018466172739863396,0.0242045596241951,0.017885709181427956
1.7294991283199818e+18,-0.018742935732007027,0.02364986017346382,0.02021537348628044
1.729499128328982e+18,-0.01692156493663788,0.027533702552318573,0.017179405316710472
1.7294991283349821e+18,-0.018993018195033073,0.027629751712083817,0.021100079640746117
1.7294991283439823e+18,-0.02007313258945942,0.026191500946879387,0.017728742212057114
1.7294991283559826e+18,-0.018072228878736496,0.02751287817955017,0.016040608286857605
1.7294991283619827e+18,-0.01947646774351597,0.02733360417187214,0.018499616533517838
1.729499128370983e+18,-0.016632448881864548,0.02846330963075161,0.017981383949518204
1.729499128379983e+18,-0.015861785039305687,0.028118310496211052,0.02025996893644333
1.7294991283859832e+18,-0.016062242910265923,0.02557193674147129,0.01996912993490696
1.7294991283949834e+18,-0.017028821632266045,0.020150190219283104,0.01712028868496418
1.7294991284009836e+18,-0.01232388149946928,0.024686889722943306,0.017949946224689484
1.7294991284099837e+18,-0.011964457109570503,0.021703047677874565,0.020841538906097412
1.729499128418984e+18,-0.013669589534401894,0.021752387285232544,0.018603134900331497
1.729499128424984e+18,-0.0162640567868948,0.02273998223245144,0.018609873950481415
1.7294991284339843e+18,-0.016702603548765182,0.023906901478767395,0.016210166737437248
1.7294991284429844e+18,-0.016754431650042534,0.023985909298062325,0.01630244217813015
1.7294991284519846e+18,-0.016235649585723877,0.023309404030442238,0.01695961132645607
1.7294991284579848e+18,-0.017549138516187668,0.02360578626394272,0.019359514117240906
1.729499128466985e+18,-0.015760647132992744,0.019253108650445938,0.016291143372654915
1.7294991284759852e+18,-0.015195631422102451,0.016223151236772537,0.017144111916422844
1.7294991284819853e+18,-0.01304626651108265,0.019276060163974762,0.01800987683236599
1.7294991284909855e+18,-0.01673107221722603,0.02000359073281288,0.016111545264720917
1.7294991284999857e+18,-0.017758289352059364,0.024165203794836998,0.017589684575796127
1.7294991285089859e+18,-0.02139044739305973,0.026644084602594376,0.01866859756410122
1.729499128514986e+18,-0.020604712888598442,0.02720365673303604,0.015653859823942184
1.7294991285239862e+18,-0.02091521956026554,0.02536039613187313,0.018199937418103218
1.7294991285329864e+18,-0.020660553127527237,0.023547019809484482,0.0153451943770051
1.7294991285419866e+18,-0.021355897188186646,0.022647209465503693,0.01722177304327488
1.7294991285479867e+18,-0.017767038196325302,0.025331582874059677,0.016895610839128494
1.729499128556987e+18,-0.01964476704597473,0.024794863536953926,0.017769357189536095
1.729499128562987e+18,-0.015199746936559677,0.026260336861014366,0.016335060819983482
1.7294991285719872e+18,-0.01737024448812008,0.02664055861532688,0.016577405855059624
1.7294991285809874e+18,-0.02093210443854332,0.024226995185017586,0.017179647460579872
1.7294991285899876e+18,-0.01849573850631714,0.020276829600334167,0.014631259255111217
1.7294991285959877e+18,-0.02203589491546154,0.021298330277204514,0.018555860966444016
1.729499128604988e+18,-0.023771677166223526,0.017829809337854385,0.015472538769245148
1.729499128610988e+18,-0.019969988614320755,0.02073468267917633,0.017593534663319588
1.7294991286199882e+18,-0.016263745725154877,0.020014433190226555,0.01573411002755165
1.7294991286289884e+18,-0.016991209238767624,0.021997570991516113,0.01491618249565363
1.7294991286379886e+18,-0.014618471264839172,0.01713305339217186,0.015643596649169922
1.7294991286439887e+18,-0.01194323692470789,0.018490005284547806,0.016480229794979095
1.729499128652989e+18,-0.015275229699909687,0.02383137308061123,0.01742541231215
1.729499128661989e+18,-0.017946764826774597,0.022265486419200897,0.015804190188646317
1.7294991286709893e+18,-0.02036210335791111,0.0201983992010355,0.018802115693688393
1.7294991286769894e+18,-0.015606003813445568,0.022774014621973038,0.014515933580696583
1.7294991286859896e+18,-0.0177831519395113,0.018840428441762924,0.015099635347723961
1.7294991286949898e+18,-0.016982784494757652,0.01937013864517212,0.015684936195611954
1.72949912870099e+18,-0.013702590949833393,0.014838731847703457,0.015214798040688038
1.7294991287099901e+18,-0.013341473415493965,0.01937299780547619,0.013699857518076897
1.7294991287189903e+18,-0.010611752048134804,0.013231394812464714,0.013002512976527214
1.7294991287279905e+18,-0.012447154149413109,0.01831854321062565,0.011797314509749413
1.7294991287339907e+18,-0.013502618297934532,0.01773080788552761,0.012728355824947357
1.7294991287429908e+18,-0.014955722726881504,0.018442369997501373,0.013616295531392097
1.729499128748991e+18,-0.015725387260317802,0.01608431711792946,0.019897354766726494
1.7294991287579912e+18,-0.018160231411457062,0.015815816819667816,0.016552012413740158
1.7294991287669914e+18,-0.018382908776402473,0.011582886800169945,0.014214231632649899
1.7294991287759916e+18,-0.017400238662958145,0.01551224384456873,0.015369366854429245
1.7294991287849917e+18,-0.016406740993261337,0.013696855865418911,0.014950384385883808
1.729499128790992e+18,-0.01349320076406002,0.014803418889641762,0.013494100421667099
1.729499128799992e+18,-0.013126689940690994,0.012992248870432377,0.012448340654373169
1.7294991288089923e+18,-0.01128398533910513,0.01710926555097103,0.01349449623376131
1.7294991288179924e+18,-0.011619106866419315,0.011529003269970417,0.012656080536544323
1.7294991288269926e+18,-0.0153817068785429,0.01410815492272377,0.011862307786941528
1.7294991288359928e+18,-0.012524832971394062,0.012751762755215168,0.014954912476241589
1.729499128841993e+18,-0.013170345686376095,0.014623257331550121,0.013334397226572037
1.7294991288509932e+18,-0.010850055143237114,0.012545442208647728,0.013707004487514496
1.7294991288599933e+18,-0.005608406849205494,0.015498653054237366,0.014983867295086384
1.7294991288659935e+18,-0.005059648305177689,0.015437950380146503,0.013640939258038998
1.7294991288749937e+18,-0.0005859034135937691,0.009995747357606888,0.0122824776917696
1.7294991288839939e+18,-0.0032931065652519464,0.011391324922442436,0.014851039275527
1.729499128889994e+18,-0.003698443528264761,0.006411978974938393,0.015095081180334091
1.7294991288989942e+18,-0.007543561980128288,0.005526370368897915,0.012777219526469707
1.7294991289079944e+18,-0.010557102039456367,0.010146889835596085,0.013155881315469742
1.7294991289139945e+18,-0.011210011318325996,0.012281958013772964,0.011628818698227406
1.7294991289229947e+18,-0.009989564307034016,0.009397616609930992,0.009535672143101692
1.7294991289289948e+18,-0.010783780366182327,0.006558324676007032,0.01335528027266264
1.729499128937995e+18,-0.005688615143299103,0.008755316957831383,0.011068529449403286
1.7294991289439951e+18,-0.0034328524488955736,0.0027687116526067257,0.012338211759924889
1.7294991289529953e+18,-0.002359633333981037,0.001704955124296248,0.010332869365811348
1.7294991289619955e+18,-0.0022576849441975355,-0.001782890991307795,0.011631413362920284
1.7294991289679956e+18,-0.002301208907738328,-0.0014149146154522896,0.010223103687167168
1.7294991289769958e+18,-0.007609392981976271,0.0013377123977988958,0.013733502477407455
1.729499128985996e+18,-0.0038229019846767187,0.0017862372333183885,0.010462969541549683
1.7294991289949962e+18,-0.004171394743025303,0.0006513872649520636,0.012856830842792988
1.7294991290039964e+18,-0.0034286242444068193,0.000517910928465426,0.011924361810088158
1.7294991290099965e+18,-0.0002251842524856329,0.0001573797781020403,0.010968170128762722
1.7294991290189967e+18,-0.0017814759630709887,0.002892791060730815,0.012317960150539875
1.729499129027997e+18,8.076312951743603e-05,-0.0013361696619540453,0.009967281483113766
1.729499129033997e+18,-0.0037068265955895185,-0.0026543335989117622,0.014631824567914009
1.7294991290429972e+18,-0.0017267954535782337,-0.0018650726415216923,0.011763928458094597
1.7294991290489974e+18,-0.006283835507929325,-0.002656436525285244,0.012640818022191525
1.7294991290579976e+18,-0.0052977679297327995,0.001251295441761613,0.01619075797498226
1.7294991290669978e+18,-0.001658337190747261,0.0002571388322394341,0.011648892425000668
1.729499129075998e+18,-0.0009170573321171105,0.001766903675161302,0.01065472699701786
1.729499129081998e+18,0.00024341617245227098,0.0006197576294653118,0.009587034583091736
1.7294991290909983e+18,0.0015896805562078953,0.0012071197852492332,0.014515954069793224
1.7294991290969984e+18,-0.00037321593845263124,-0.0017468519508838654,0.01107153668999672
1.7294991291059986e+18,-0.002037718426436186,-0.0014133565127849579,0.00938352569937706
1.7294991291149988e+18,-0.00538288988173008,0.00011144770542159677,0.009625621140003204
1.729499129123999e+18,-0.004761215765029192,-0.0022634207271039486,0.010494540445506573
1.729499129129999e+18,-0.003817224409431219,0.0012919905129820108,0.012398245744407177
1.7294991291389993e+18,-0.0008580039720982313,-0.0021012728102505207,0.009939704090356827
1.7294991291479995e+18,0.004113576840609312,0.00035504973493516445,0.011442720890045166
1.7294991291569997e+18,0.002862669760361314,-0.003984265960752964,0.011635380797088146
1.7294991291629998e+18,0.0007869601249694824,-0.003235899144783616,0.01079387404024601
1.729499129172e+18,-0.0017620555590838194,-0.0011454131454229355,0.01116509921848774
1.7294991291810002e+18,-0.0014307633973658085,-0.001571817439980805,0.00792457815259695
1.7294991291900004e+18,-0.005994666367769241,-0.004667520057410002,0.011238468810915947
1.7294991291960005e+18,-0.0015400515403598547,-0.004542725160717964,0.008730954490602016
1.7294991292050007e+18,0.0019266873132437468,-0.004291895776987076,0.010151793248951435
1.7294991292110008e+18,0.004767242819070816,-0.005182337947189808,0.010433889925479889
1.729499129220001e+18,0.009257560595870018,-0.0019036340527236462,0.00999876856803894
1.7294991292290012e+18,0.004222995601594448,-0.00289721367880702,0.009111175313591957
1.7294991292350013e+18,0.0071435426361858845,-0.0006528203375637531,0.008858159184455872
1.7294991292440015e+18,0.0012716894270852208,-0.004116890486329794,0.010888765566051006
1.7294991292530017e+18,-0.0041434271261096,-0.004277437459677458,0.01241982076317072
1.7294991292590019e+18,-0.0051626963540911674,-0.007055255584418774,0.010927305556833744
1.729499129268002e+18,-0.0043092090636491776,-0.005696221254765987,0.009864239022135735
1.7294991292770022e+18,0.0022464811336249113,-0.009328674525022507,0.011427521705627441
1.7294991292830024e+18,0.0019131721928715706,-0.006191846448928118,0.010727036744356155
1.7294991292920026e+18,0.008945425041019917,-0.006287424825131893,0.00921229925006628
1.7294991292980027e+18,0.009329009801149368,-0.005073784850537777,0.009407950565218925
1.729499129307003e+18,0.005966120399534702,-0.004664178937673569,0.01075766421854496
1.729499129316003e+18,0.0008484033169224858,-0.008524558506906033,0.013136059045791626
1.7294991293220032e+18,0.002988731022924185,-0.009155451320111752,0.010287591256201267
1.7294991293310034e+18,-0.0011773942969739437,-0.0069004567340016365,0.00808150414377451
1.7294991293400036e+18,0.0005096922977827489,-0.00962467584758997,0.009084046818315983
1.7294991293490038e+18,0.0011967977043241262,-0.01068966742604971,0.01169564574956894
1.729499129355004e+18,0.0045413910411298275,-0.008749435655772686,0.01005390752106905
1.729499129364004e+18,0.004886184819042683,-0.009543006308376789,0.009431635960936546
1.7294991293730043e+18,0.006119521334767342,-0.009844367392361164,0.009036294184625149
1.7294991293820045e+18,0.0054451837204396725,-0.009357200935482979,0.00997464545071125
1.7294991293880046e+18,0.007530942093580961,-0.008213149383664131,0.0068168011493980885
1.7294991293970048e+18,0.004297312349081039,-0.011434786953032017,0.009954368695616722
1.729499129406005e+18,0.002000239444896579,-0.013256622478365898,0.007357201538980007
1.729499129412005e+18,-0.0004313455428928137,-0.010824795812368393,0.006676502525806427
1.7294991294210053e+18,0.005093174986541271,-0.010639753192663193,0.010746671818196774
1.7294991294300055e+18,0.007392421364784241,-0.011574903503060341,0.00598627794533968
1.7294991294360056e+18,0.008491168729960918,-0.010743165388703346,0.008780228905379772
1.7294991294450058e+18,0.010258795693516731,-0.010018552653491497,0.008707351051270962
1.729499129454006e+18,0.007977388799190521,-0.013830911368131638,0.00931628793478012
1.7294991294600061e+18,0.010562931187450886,-0.011130716651678085,0.008663803339004517
1.7294991294690063e+18,0.006002726033329964,-0.00920670386403799,0.008007659576833248
1.7294991294780065e+18,0.006691907998174429,-0.012351978570222855,0.010624546557664871
1.7294991294840067e+18,0.002758198883384466,-0.012120506726205349,0.0051558916456997395
1.7294991294930068e+18,0.0066046398133039474,-0.01352725364267826,0.007377344649285078
1.729499129502007e+18,0.006702844053506851,-0.00916777178645134,0.011736978776752949
1.7294991295110072e+18,0.011243223212659359,-0.012279846705496311,0.007773846387863159
1.7294991295170074e+18,0.011579200625419617,-0.015087996609508991,0.007879026234149933
1.7294991295260076e+18,0.010775448754429817,-0.012973428703844547,0.008702335879206657
1.7294991295350077e+18,0.00569584034383297,-0.01854928582906723,0.008211314678192139
1.729499129541008e+18,0.010501363314688206,-0.017345737665891647,0.0071076867170631886
1.729499129550008e+18,0.005498255603015423,-0.015851078554987907,0.011150587350130081
1.7294991295590083e+18,0.005280752666294575,-0.016300367191433907,0.009303668513894081
1.7294991295680084e+18,0.007847797125577927,-0.01513348426669836,0.007765553425997496
1.7294991295740086e+18,0.010137539356946945,-0.017793355509638786,0.009099003858864307
1.7294991295860088e+18,0.010056902654469013,-0.016084589064121246,0.0075667318888008595
1.729499129592009e+18,0.009824937209486961,-0.014589289203286171,0.007988826371729374
1.7294991296010092e+18,0.011247639544308186,-0.01599218137562275,0.010852452367544174
1.7294991296100093e+18,0.01145107951015234,-0.013512469828128815,0.007966658100485802
1.7294991296160095e+18,0.011566019617021084,-0.017993731424212456,0.00470961956307292
1.7294991296250097e+18,0.015583283267915249,-0.015748806297779083,0.004518404603004456
1.7294991296340099e+18,0.012787498533725739,-0.01896584965288639,0.007444709073752165
1.72949912964301e+18,0.012135830707848072,-0.019407162442803383,0.0076105790212750435
1.7294991296520102e+18,0.01198172103613615,-0.019421067088842392,0.01001618430018425
1.7294991296580104e+18,0.011528809554874897,-0.014291156083345413,0.01099405437707901
1.7294991296670106e+18,0.011523699387907982,-0.017094621434807777,0.010061075910925865
1.7294991296760108e+18,0.007556729018688202,-0.014685534872114658,0.007042685057967901
1.729499129685011e+18,0.004813665058463812,-0.013124761171638966,0.010430581867694855
1.7294991296940111e+18,0.005247337743639946,-0.012837894260883331,0.0078116729855537415
1.7294991297000113e+18,0.007690082769840956,-0.013657902367413044,0.006900601554661989
1.7294991297090115e+18,0.006036865059286356,-0.015237941406667233,0.008405380882322788
1.7294991297150116e+18,0.007635956630110741,-0.014700329862535,0.004633788019418716
1.7294991297240118e+18,0.006202775985002518,-0.01677033305168152,0.005611366592347622
1.729499129733012e+18,0.005342123564332724,-0.01480171363800764,0.005812679883092642
1.7294991297420122e+18,0.007957595400512218,-0.015185302123427391,0.008003907278180122
1.7294991297510124e+18,0.007400737144052982,-0.013020133599638939,0.005803962703794241
1.7294991297570125e+18,0.007063485682010651,-0.012987702153623104,0.005555209703743458
1.7294991297660127e+18,0.004660949110984802,-0.013499169610440731,0.007387100253254175
1.7294991297750129e+18,0.004934525582939386,-0.015935856848955154,0.010875627398490906
1.729499129781013e+18,0.0068461718037724495,-0.014957722276449203,0.007909317500889301
1.7294991297900132e+18,0.006343274377286434,-0.016942443326115608,0.0073644681833684444
1.7294991297960133e+18,0.008296207524836063,-0.018367566168308258,0.00819008331745863
1.7294991298050135e+18,0.008986803703010082,-0.016466347500681877,0.008569873869419098
1.7294991298140137e+18,0.007764082867652178,-0.016047891229391098,0.007159933913499117
1.729499129823014e+18,0.0058742789551615715,-0.017286881804466248,0.005937999114394188
1.729499129832014e+18,0.0035414148587733507,-0.01882658340036869,0.005685136653482914
1.7294991298410143e+18,0.0030886344611644745,-0.017712755128741264,0.007598148193210363
1.7294991298470144e+18,0.001065821386873722,-0.016701722517609596,0.008262798190116882
1.7294991298560146e+18,0.006004230119287968,-0.01720546744763851,0.0065958513878285885
1.7294991298650148e+18,0.0069105797447264194,-0.01633959449827671,0.007722288370132446
1.729499129874015e+18,0.009403343312442303,-0.012685010209679604,0.005398693028837442
1.729499129880015e+18,0.007886584848165512,-0.017719270661473274,0.006307694595307112
1.7294991298890153e+18,0.009679852984845638,-0.014844652265310287,0.0058267321437597275
1.7294991298980155e+18,0.007150727324187756,-0.013829415664076805,0.007775735575705767
1.7294991299070157e+18,0.007684060372412205,-0.013519450090825558,0.006122572813183069
1.7294991299160159e+18,0.00554101075977087,-0.01815136708319187,0.007833140902221203
1.729499129922016e+18,0.0033251196146011353,-0.01676948554813862,0.007932220585644245
1.7294991299310162e+18,0.009347974322736263,-0.017961300909519196,0.0071706222370266914
1.7294991299400164e+18,0.012011539191007614,-0.017317863181233406,0.0071647739969193935
1.7294991299490166e+18,0.0146328741684556,-0.020395023748278618,0.0075363521464169025
1.7294991299550167e+18,0.01441361103206873,-0.01588418520987034,0.006632986944168806
1.729499129964017e+18,0.013769358396530151,-0.017076663672924042,0.0070784795098006725
1.729499129973017e+18,0.011666771024465561,-0.019902633503079414,0.005467139650136232
1.7294991299820173e+18,0.011148677207529545,-0.018871039152145386,0.004807549063116312
1.7294991299910175e+18,0.007619891781359911,-0.016740567982196808,0.008033938705921173
1.7294991299970176e+18,0.01018446497619152,-0.0173800028860569,0.006159207783639431
1.7294991300060178e+18,0.012481301091611385,-0.015379431657493114,0.008566676639020443
1.729499130015018e+18,0.010648656636476517,-0.01845284178853035,0.004154500551521778
1.729499130021018e+18,0.012677798978984356,-0.02212592586874962,0.004915191791951656
1.7294991300300183e+18,0.010913489386439323,-0.02132134884595871,0.007066486403346062
1.7294991300390185e+18,0.012486242689192295,-0.019705098122358322,0.0035169003531336784
1.7294991300450186e+18,0.014564412645995617,-0.021793171763420105,0.005579428747296333
1.7294991300540188e+18,0.014311431907117367,-0.02021596021950245,0.005705367308109999
1.729499130063019e+18,0.01284837443381548,-0.019822953268885612,0.0065102349035441875
1.7294991300690191e+18,0.01482416596263647,-0.01564169116318226,0.00717075215652585
1.7294991300780193e+18,0.00965594407171011,-0.016878250986337662,0.0056030601263046265
1.7294991300870195e+18,0.012332075275480747,-0.016322506591677666,0.0058897556737065315
1.7294991300960197e+18,0.008794223889708519,-0.01995967887341976,0.007685184944421053
1.7294991301020198e+18,0.009581463411450386,-0.017985530197620392,0.007146370597183704
1.72949913011102e+18,0.014305506832897663,-0.018073176965117455,0.0019198686350136995
1.7294991301200202e+18,0.012302186340093613,-0.018704203888773918,0.008033182471990585
1.7294991301290204e+18,0.011451884172856808,-0.019486170262098312,0.0073801628313958645
1.7294991301380206e+18,0.01158968172967434,-0.01585422456264496,0.002942916238680482
1.7294991301440207e+18,0.013017521239817142,-0.017753982916474342,0.0069740042090415955
1.729499130153021e+18,0.010747162625193596,-0.01773829571902752,0.007565569132566452
1.729499130162021e+18,0.012513468973338604,-0.014300788752734661,0.004081847611814737
1.7294991301680212e+18,0.015270480886101723,-0.011102722957730293,0.008083876222372055
1.7294991301770214e+18,0.012552308849990368,-0.012683434411883354,0.005871884059160948
1.7294991301830216e+18,0.01398717425763607,-0.01209474541246891,0.0054637049324810505
1.7294991301920218e+18,0.014325513504445553,-0.01360396295785904,0.004939272068440914
1.729499130201022e+18,0.015566502697765827,-0.014899374917149544,0.0046835835091769695
1.729499130207022e+18,0.011506723240017891,-0.015844322741031647,0.0047768461517989635
1.7294991302160223e+18,0.0143654216080904,-0.017156213521957397,0.005116110667586327
1.7294991302250225e+18,0.01368754729628563,-0.015113872475922108,0.005237409379333258
1.7294991302310226e+18,0.01291947066783905,-0.012592836283147335,0.0045854561030864716
1.7294991302400228e+18,0.01196509599685669,-0.014922777190804482,0.004949637688696384
1.729499130249023e+18,0.010574238374829292,-0.011965696699917316,0.006492218933999538
1.729499130255023e+18,0.012703539803624153,-0.012394293211400509,0.004828718025237322
1.7294991302640233e+18,0.013573932461440563,-0.01582086831331253,0.0036449050530791283
1.7294991302700234e+18,0.009870799258351326,-0.018243251368403435,0.00499559473246336
1.7294991302820237e+18,0.01576174609363079,-0.016121797263622284,0.00613828469067812
1.7294991302880238e+18,0.013324357569217682,-0.01766912266612053,0.003118008840829134
1.729499130297024e+18,0.012282227165997028,-0.01642582006752491,0.0053498269990086555
1.7294991303090243e+18,0.014240783639252186,-0.015585876069962978,0.003740828949958086
1.7294991303150244e+18,0.01788456365466118,-0.009704207070171833,0.005780865903943777
1.7294991303240246e+18,0.014934384264051914,-0.01722668670117855,0.002721228636801243
1.7294991303300247e+18,0.015590331517159939,-0.012805294245481491,0.0054275887086987495
1.729499130339025e+18,0.015460842289030552,-0.014900579117238522,0.005710536148399115
1.729499130348025e+18,0.015628525987267494,-0.01734512858092785,0.001165949972346425
1.7294991303570253e+18,0.012951185926795006,-0.019554030150175095,0.006535063497722149
1.7294991303660255e+18,0.01358813140541315,-0.017454534769058228,0.0022067148238420486
1.7294991303720256e+18,0.016239434480667114,-0.020334573462605476,0.004386004060506821
1.7294991303810258e+18,0.012862095609307289,-0.017781181260943413,0.0048866975121200085
1.729499130390026e+18,0.012504350394010544,-0.012477627024054527,0.004733107052743435
1.729499130396026e+18,0.01369768287986517,-0.010229619219899178,0.006966974586248398
1.7294991304050263e+18,0.011766855604946613,-0.01287777815014124,0.002424205420538783
1.7294991304110264e+18,0.009399926289916039,-0.013371432200074196,0.001966021256521344
1.7294991304200266e+18,0.012749217450618744,-0.014924295246601105,0.0048080445267260075
1.7294991304290268e+18,0.016748420894145966,-0.016381777822971344,0.002127365441992879
1.729499130435027e+18,0.01568329893052578,-0.021595424041152,0.004524154122918844
1.7294991304440271e+18,0.01656254194676876,-0.01755153387784958,0.003307301551103592
1.7294991304530273e+18,0.01167406514286995,-0.01893508993089199,0.0027497883420437574
1.7294991304590275e+18,0.009910963475704193,-0.017446689307689667,0.0023726834915578365
1.7294991304680276e+18,0.011736897751688957,-0.015565063804388046,0.008917908184230328
1.729499130483028e+18,0.009392675012350082,-0.012489642016589642,0.001105498056858778
1.7294991304920282e+18,0.011170832440257072,-0.013324545696377754,0.0059045106172561646
1.7294991305010284e+18,0.011836135759949684,-0.011840835213661194,0.004229060374200344
1.7294991305070285e+18,0.010969465598464012,-0.017123810946941376,0.0026105165015906096
1.7294991305160287e+18,0.011085041798651218,-0.0178680457174778,0.006535978987812996
1.7294991305250289e+18,0.01054907962679863,-0.014880954287946224,0.007435034029185772
1.729499130534029e+18,0.011708995327353477,-0.013312266208231449,0.0007688263431191444
1.7294991305400292e+18,0.01034174207597971,-0.013888509944081306,0.002720635151490569
1.7294991305490294e+18,0.008518945425748825,-0.00852364394813776,0.00030408333986997604
1.7294991305580296e+18,0.008990463800728321,-0.010101400315761566,0.004055776633322239
1.7294991305640297e+18,0.008411981165409088,-0.01117212139070034,0.003456930862739682
1.72949913057303e+18,0.006621344946324825,-0.011087022721767426,0.005776336416602135
1.72949913058203e+18,0.01006859727203846,-0.012989437207579613,0.003602834651246667
1.7294991305910303e+18,0.010846187360584736,-0.012628325261175632,0.0038390348199754953
1.7294991306000305e+18,0.01015884056687355,-0.00964488834142685,0.005354253109544516
1.7294991306090307e+18,0.011557219550013542,-0.011256109923124313,0.005407040938735008
1.7294991306150308e+18,0.006940444000065327,-0.008875817060470581,0.0025604828260838985
1.729499130624031e+18,0.005943469237536192,-0.009978515096008778,0.004461909644305706
1.7294991306330312e+18,0.003045514924451709,-0.010083763860166073,0.005521382205188274
1.7294991306420314e+18,0.0066032372415065765,-0.010712257586419582,0.005560581106692553
1.7294991306510316e+18,0.006408316548913717,-0.008513359352946281,0.004158657975494862
1.7294991306570317e+18,0.006360008846968412,-0.013637138530611992,0.004926425404846668
1.7294991306660319e+18,0.007609834894537926,-0.010543392971158028,0.0034019406884908676
1.729499130675032e+18,0.007075546309351921,-0.007998519577085972,0.0013800740707665682
1.7294991306810322e+18,0.004943239502608776,-0.009939715266227722,0.0022607827559113503
1.7294991306900324e+18,0.010852936655282974,-0.008444815874099731,0.005039032548666
1.7294991306990326e+18,0.007199103012681007,-0.008451051078736782,0.00035185785964131355
1.7294991307080328e+18,0.011387152597308159,-0.009677916765213013,0.005517714191228151
1.729499130714033e+18,0.009890515357255936,-0.01415874995291233,0.0041223084554076195
1.729499130723033e+18,0.00993935763835907,-0.014493103139102459,0.0024578659795224667
1.7294991307320333e+18,0.009106632322072983,-0.010289804078638554,0.004163096658885479
1.7294991307410335e+18,0.007656498346477747,-0.011041748337447643,0.003992358688265085
1.7294991307500337e+18,0.011211914010345936,-0.010777007788419724,0.0042530205100774765
1.7294991307560338e+18,0.012253731489181519,-0.010512903332710266,0.002853058511391282
1.729499130765034e+18,0.01072101853787899,-0.008408602327108383,0.002436595968902111
1.7294991307740342e+18,0.01351231150329113,-0.012398205697536469,0.0036824969574809074
1.7294991307830344e+18,0.01376544963568449,-0.008839973248541355,0.001705181086435914
1.7294991307920346e+18,0.01404996681958437,-0.012698903679847717,0.0008471417240798473
1.7294991308010348e+18,0.015487081371247768,-0.015811705961823463,0.005421713925898075
1.729499130807035e+18,0.012459838762879372,-0.0116737624630332,0.001284295693039894
1.729499130816035e+18,0.012051500380039215,-0.011057321913540363,0.002446013269945979
1.7294991308250353e+18,0.01111540850251913,-0.010593573562800884,0.004838536959141493
1.7294991308310354e+18,0.010574210435152054,-0.010116811841726303,0.0026085085701197386
1.7294991308400356e+18,0.010403078980743885,-0.012568550184369087,0.0018603827338665724
1.7294991308490358e+18,0.007304081693291664,-0.008635864593088627,0.0014980491250753403
1.729499130858036e+18,0.00896199606359005,-0.009078601375222206,0.0029397907201200724
1.729499130864036e+18,0.008540821261703968,-0.010134369134902954,0.0020484686829149723
1.7294991308730363e+18,0.006441160570830107,-0.007891430519521236,0.0015920181758701801
1.7294991308820365e+18,0.009029020555317402,-0.010882789269089699,0.002603072440251708
1.7294991308880366e+18,0.009274653159081936,-0.009900419041514397,0.0035559721291065216
1.7294991308970368e+18,0.007995177991688251,-0.009880365803837776,0.004613783676177263
1.729499130906037e+18,0.011777311563491821,-0.010336395353078842,0.0037181617226451635
1.7294991309150372e+18,0.0069746943190693855,-0.006266103591769934,0.005765506997704506
1.7294991309210373e+18,0.008321135304868221,-0.006100956816226244,0.0009079242590814829
1.7294991309300375e+18,0.006856445223093033,-0.005745762027800083,0.005020535085350275
1.7294991309360376e+18,0.008766265586018562,-0.011974100954830647,0.0054887873120605946
1.7294991309450378e+18,0.008774448186159134,-0.007897009141743183,0.0027678993064910173
1.729499130954038e+18,0.00570458360016346,-0.010430202819406986,0.00140042370185256
1.7294991309630382e+18,0.008534503169357777,-0.005944668781012297,0.005027951672673225
1.7294991309720384e+18,0.0081692049279809,-0.002470083301886916,0.0023266212083399296
1.7294991309780385e+18,0.007841606624424458,-0.003865229431539774,0.005773937329649925
1.7294991309930388e+18,0.003120844718068838,-0.004288619849830866,0.004562939517199993
1.729499131002039e+18,0.002764016855508089,-0.004502312280237675,0.0034950377885252237
1.7294991310080392e+18,0.0021023438312113285,-0.00733509287238121,0.0032539034727960825
1.7294991310170394e+18,0.0054093399085104465,-0.0025632802862674,0.008029687218368053
1.7294991310260396e+18,0.007546300068497658,-0.0036581011954694986,0.001099826069548726
1.7294991310320397e+18,0.007536198478192091,-0.002744840458035469,0.003198662307113409
1.72949913104104e+18,0.010951831936836243,-0.004333765711635351,0.0048200334422290325
1.72949913105004e+18,0.007806273177266121,-0.003701144829392433,0.0033804273698478937
1.7294991310560402e+18,0.006446719169616699,-0.0011459511006250978,0.0008808104321360588
1.7294991310650404e+18,0.004612863529473543,-0.0031130467541515827,0.0029059331864118576
1.7294991310740406e+18,0.0032483632676303387,-0.0020448348950594664,0.003659115871414542
1.7294991310800407e+18,0.003119186731055379,0.00026493705809116364,0.0035993694327771664
1.729499131089041e+18,0.0031947677489370108,-0.0015912523958832026,0.003699086606502533
1.729499131098041e+18,0.010893807746469975,-0.005470334552228451,0.00466910982504487
1.7294991311070413e+18,0.00910403486341238,-0.002657522913068533,0.0031012208200991154
1.7294991311160415e+18,0.008611170575022697,-0.0022908574901521206,0.0023629164788872004
1.7294991311250417e+18,0.007884982973337173,-0.003259089309722185,0.0003095713909715414
1.7294991311340419e+18,0.005857672542333603,-0.0023901790846139193,0.004978618584573269
1.729499131140042e+18,0.003432091325521469,-0.001774668344296515,0.003517226781696081
1.7294991311490422e+18,0.0043674129992723465,-0.0013722635339945555,0.0043595461174845695
1.7294991311580424e+18,0.0038977707736194134,-0.005324791185557842,-3.102654591202736e-05
1.7294991311670426e+18,0.005814068019390106,-0.0040695867501199245,0.00047968816943466663
1.7294991311730427e+18,0.0075643789023160934,-0.007687337696552277,0.0022125709801912308
1.729499131182043e+18,0.01046663150191307,-0.0033425521105527878,0.0035148803144693375
1.729499131191043e+18,0.006011812947690487,0.0004752750974148512,0.004075092263519764
1.7294991312000433e+18,0.004380851984024048,0.0016307714395225048,0.004469455685466528
1.7294991312060434e+18,0.00384638924151659,0.0021181157790124416,0.0034647579304873943
1.7294991312150436e+18,0.004813625942915678,-0.0011513533536344767,0.0008890698663890362
1.7294991312240438e+18,0.00634298799559474,-0.0006308545125648379,0.0030939856078475714
1.729499131230044e+18,0.006281113252043724,-0.0004938471829518676,0.005112501792609692
1.729499131239044e+18,0.007606972008943558,-0.001479764236137271,0.0032158687245100737
1.7294991312450442e+18,0.007760929875075817,-0.0005314618465490639,0.0038755168206989765
1.7294991312540444e+18,0.00047812797129154205,-0.0008697448647581041,0.0036413022316992283
1.7294991312630446e+18,0.001017470145598054,0.0017682977486401796,0.003487583249807358
1.7294991312690447e+18,-0.00012016715481877327,0.004228622652590275,0.0009917216375470161
1.729499131278045e+18,0.0029923534020781517,0.0020491944160312414,0.004557555541396141
1.729499131284045e+18,0.00010016630403697491,0.0025618996005505323,0.0035236463882029057
1.7294991312930452e+18,0.0016819813754409552,-2.8384849429130554e-05,0.004229295067489147
1.7294991313020454e+18,0.0011002280516549945,-0.002804300980642438,0.003931151237338781
1.7294991313080456e+18,0.002208201913163066,-0.0018341874238103628,0.004329563584178686
1.7294991313170458e+18,0.0016110364813357592,-0.0011955930385738611,0.0037375197280198336
1.729499131326046e+18,0.002875553909689188,-0.0024735499173402786,0.0022259256802499294
1.7294991313350461e+18,0.0004403269267641008,0.00033745262771844864,0.0028626651037484407
1.7294991313410463e+18,0.0020465946290642023,0.000572129269130528,0.0033804154954850674
1.7294991313500465e+18,-0.0001425043446943164,-0.0004666874883696437,0.00429008062928915
1.7294991313590467e+18,0.0025174799375236034,0.002211365383118391,0.0014760402264073491
1.7294991313680468e+18,0.003211438190191984,0.0028289826586842537,0.0031509159598499537
1.729499131377047e+18,0.0019339758437126875,-0.0005078568938188255,0.002697193529456854
1.7294991313860472e+18,0.002934032352641225,0.00019136059563606977,0.0011458537774160504
1.7294991313950474e+18,0.0030651839915663004,-0.00020791988936252892,-4.616426303982735e-05
1.7294991314040476e+18,0.005163963418453932,-6.490241503342986e-06,0.002915746532380581
1.7294991314130478e+18,0.0060046399012207985,0.0005623889737762511,-0.00026451051235198975
1.729499131419048e+18,0.006560369394719601,0.0017374490853399038,0.002915652934461832
1.7294991314280481e+18,0.0018380596302449703,0.0022929564584046602,0.0028505248483270407
1.7294991314370483e+18,-0.0001714176032692194,0.0010568833677098155,0.0019026531372219324
1.7294991314430484e+18,-0.001120196538977325,0.004972267895936966,0.0014207129133865237
1.7294991314550487e+18,0.0005466343136504292,0.0005050920881330967,0.003713605459779501
1.7294991314610488e+18,0.0038372748531401157,0.005542067810893059,-0.00019264454022049904
1.729499131470049e+18,0.0011391689768061042,0.0058356355875730515,0.0023933369666337967
1.7294991314790492e+18,0.005605085752904415,0.0004829841200262308,0.003615195630118251
1.7294991314880494e+18,0.0032375510782003403,0.007089804857969284,0.0040654381737113
1.7294991314940495e+18,0.002274139318615198,0.0018637854373082519,0.0022157072089612484
1.7294991315030497e+18,-0.0027044862508773804,0.0034144739620387554,0.001705024391412735
1.72949913151205e+18,-0.00010084599489346147,0.0022983397357165813,0.004486913792788982
1.72949913151805e+18,0.0006643318920396268,0.004043624736368656,0.0009204698726534843
1.7294991315270502e+18,-0.0016188165172934532,0.0010673599317669868,0.0004335385747253895
1.7294991315330504e+18,0.0028200382366776466,0.0037454061675816774,0.001032800879329443
1.7294991315420506e+18,0.004960446152836084,0.003566198283806443,-0.0002668779343366623
1.7294991315480507e+18,0.0044586327858269215,0.004538223147392273,0.0030441114213317633
1.729499131557051e+18,0.0025538152549415827,0.006619528401643038,0.0026611194480210543
1.729499131566051e+18,0.001803022576496005,0.005157093517482281,0.0023055982310324907
1.7294991315720512e+18,-0.0019621755927801132,0.006260014604777098,0.001057696295902133
1.7294991315810514e+18,-0.003758759703487158,0.004071109928190708,0.00029482413083314896
1.7294991315900516e+18,-0.005238409619778395,0.005430936813354492,0.0016369817312806845
1.7294991315960517e+18,-0.004885513801127672,0.003987031057476997,0.00408569909632206
1.729499131605052e+18,-0.0033431907650083303,0.005464942194521427,0.003395209088921547
1.729499131614052e+18,0.002591656055301428,0.006727570667862892,0.002450806088745594
1.7294991316200522e+18,0.0023162206634879112,0.0076570105738937855,0.0015719686634838581
1.7294991316290524e+18,0.0006849292549304664,0.010298880748450756,0.002402934245765209
1.7294991316350525e+18,0.00219290261156857,0.008694907650351524,9.010522626340389e-05
1.7294991316440527e+18,-0.004647945053875446,0.008623332716524601,0.003965344280004501
1.7294991316500529e+18,-0.007738207001239061,0.012410053983330727,0.0024755503982305527
1.729499131659053e+18,-0.00805114395916462,0.006633341778069735,-4.314165562391281e-05
1.7294991316680532e+18,-0.008224133402109146,0.007487445138394833,0.0022140739019960165
1.7294991316740534e+18,-0.00879561435431242,0.0058790394105017185,0.0034895269200205803
1.7294991316860536e+18,0.0011639324948191643,0.008739285171031952,-0.0003727092407643795
1.7294991316950538e+18,-0.0026513123884797096,0.013135034590959549,0.00040727376472204924
1.729499131701054e+18,-0.002575160702690482,0.0141211599111557,0.0035267998464405537
1.7294991317100541e+18,-0.005928591825067997,0.01227764692157507,0.0005990255158394575
1.7294991317190543e+18,-0.005105583928525448,0.007513867225497961,0.0013822249602526426
1.7294991317250545e+18,-0.007967283017933369,0.008972655981779099,0.004552132450044155
1.7294991317340547e+18,-0.00722228130325675,0.010111880488693714,0.0027420097030699253
1.7294991317400548e+18,-0.008894556201994419,0.008194523863494396,0.001405869028531015
1.729499131749055e+18,-0.006882769986987114,0.010053199715912342,0.0023279907181859016
1.7294991317580552e+18,-0.004122563172131777,0.011013773269951344,0.001942649483680725
1.7294991317640553e+18,-0.00108580372761935,0.008898476138710976,0.002126627368852496
1.7294991317730555e+18,-0.0017427903367206454,0.014290999621152878,0.0033862327691167593
1.7294991317820557e+18,-0.004235283471643925,0.010440904647111893,-0.0002621107269078493
1.7294991317880558e+18,-0.007249695248901844,0.011070562526583672,0.003991848323494196
1.729499131797056e+18,-0.006004593800753355,0.008344639092683792,0.00143796531483531
1.7294991318060562e+18,-0.0053880540654063225,0.008602780289947987,0.0018083208706229925
1.7294991318150564e+18,-0.005932662636041641,0.008932174183428288,0.002912904368713498
1.7294991318210565e+18,-0.0031736658420413733,0.009805242531001568,0.000992448884062469
1.7294991318300567e+18,-0.004107276909053326,0.012057600542902946,0.001891421270556748
1.729499131839057e+18,-0.004084626212716103,0.012531926855444908,0.0023371968418359756
1.729499131848057e+18,-0.0022425760980695486,0.013171559199690819,-0.0008130373898893595
1.7294991318540572e+18,-0.003836302552372217,0.010473959147930145,-0.001095007173717022
1.7294991318630574e+18,-0.005665580742061138,0.011541350744664669,0.0037241268437355757
1.7294991318720576e+18,-0.00827915221452713,0.008575593121349812,0.0021797441877424717
1.7294991318780577e+18,-0.003951464779675007,0.010452507063746452,0.0014303680509328842
1.729499131887058e+18,-0.006492129527032375,0.009661220945417881,0.0026116182561963797
1.729499131896058e+18,-0.004614180885255337,0.011424513533711433,0.0007628905586898327
1.7294991319020582e+18,-0.006259605288505554,0.010424158535897732,0.0015404658624902368
1.7294991319110584e+18,-0.0013256305828690529,0.009513838216662407,0.0025965184904634953
1.7294991319170586e+18,-0.006193302106112242,0.011034304276108742,0.00039754866156727076
1.7294991319260588e+18,-0.006164558231830597,0.008918264880776405,-0.0005976693937554955
1.729499131935059e+18,-0.008581683039665222,0.009245429188013077,0.003376361448317766
1.7294991319440591e+18,-0.011004519648849964,0.010288434103131294,0.004318596795201302
1.7294991319500593e+18,-0.00916982814669609,0.009668801911175251,0.0022674535866826773
1.7294991319620595e+18,-0.007348475977778435,0.007554623298346996,0.0003855490358546376
1.7294991319710597e+18,-0.002704569837078452,0.004706446081399918,0.0014951789053156972
1.7294991319770598e+18,-0.0014986866153776646,0.1742255687713623,0.0010033785365521908
1.72949913198606e+18,-0.00143191940151155,0.722108781337738,0.003080607857555151
1.7294991319950602e+18,0.000943031394854188,1.3383291959762573,0.004175129812210798
1.7294991320040604e+18,0.0004219169495627284,1.9323748350143433,-0.001050976337864995
1.7294991320100605e+18,-0.029221631586551666,2.28515362739563,0.004206673242151737
1.7294991320190607e+18,-0.24916809797286987,2.676384925842285,0.0037991818971931934
1.729499132028061e+18,-0.6624263525009155,2.8590140342712402,-0.0022988449782133102
1.729499132037061e+18,-1.0928221940994263,2.9055252075195312,0.0028259034734219313
1.7294991320460613e+18,-1.398775339126587,2.893249034881592,0.0034422448370605707
1.7294991320550615e+18,-1.4750746488571167,2.9076972007751465,0.005016583949327469
1.7294991320610616e+18,-1.4072858095169067,2.937166929244995,0.00539442291483283
1.7294991320700618e+18,-1.2176672220230103,2.9962196350097656,0.0064106532372534275
1.729499132079062e+18,-1.0477519035339355,3.0410709381103516,0.008548582904040813
1.7294991320850621e+18,-1.0010451078414917,3.0319626331329346,0.010029885917901993
1.7294991320940623e+18,-1.051455020904541,2.9677162170410156,0.012171091511845589
1.7294991321090627e+18,-1.267874002456665,2.7209110260009766,0.011415351182222366
1.729499132124063e+18,-1.3073594570159912,2.4384407997131348,0.013488315977156162
1.7294991321330632e+18,-1.1789745092391968,2.3032748699188232,0.011123302392661572
1.7294991321390633e+18,-1.0612157583236694,2.221121311187744,0.017063124105334282
1.7294991321540636e+18,-0.8009762763977051,2.0201525688171387,0.01661510393023491
1.7294991321600637e+18,-0.7625333666801453,1.9302867650985718,0.015410349704325199
1.729499132169064e+18,-0.7697500586509705,1.778906226158142,0.010858826339244843
1.7294991321780641e+18,-0.8145992755889893,1.6242915391921997,0.010662894695997238
1.7294991321870643e+18,-0.8317949771881104,1.457330346107483,0.009780610911548138
1.7294991321960645e+18,-0.7808992266654968,1.3029283285140991,0.008137902244925499
1.7294991322020646e+18,-0.7007600665092468,1.2052139043807983,0.003671654500067234
1.7294991322110648e+18,-0.555923581123352,1.0701268911361694,0.001605651224963367
1.729499132220065e+18,-0.42115262150764465,0.9476830959320068,0.0025322490837424994
1.7294991322260652e+18,-0.3648879826068878,0.8699821829795837,0.0004492867738008499
1.7294991322350653e+18,-0.3271844685077667,0.7580808997154236,-0.002660469152033329
1.7294991322470656e+18,-0.34959667921066284,0.6071912050247192,-0.009486113674938679
1.7294991322590659e+18,-0.35385191440582275,0.4511023759841919,-0.013439767062664032
1.729499132268066e+18,-0.30219632387161255,0.3433881998062134,-0.017419980838894844
1.7294991322800663e+18,-0.18416324257850647,0.21385392546653748,-0.01963510923087597
1.7294991322890665e+18,-0.08658139407634735,0.12561972439289093,-0.02372395247220993
1.7294991322980667e+18,-0.031345393508672714,0.04952037334442139,-0.028036072850227356
1.729499132307067e+18,-0.012166755273938179,-0.0163137037307024,-0.03214044123888016
1.729499132313067e+18,-0.014486242085695267,-0.06438864022493362,-0.03293131664395332
1.7294991323250673e+18,-0.039542119950056076,-0.1490054875612259,-0.03446600213646889
1.7294991323340675e+18,-0.02950899302959442,-0.20918883383274078,-0.04402386024594307
1.7294991323430676e+18,0.008977320045232773,-0.25914350152015686,-0.04754198342561722
1.7294991323490678e+18,0.04415778070688248,-0.2864108979701996,-0.049526430666446686
1.729499132358068e+18,0.10376042127609253,-0.3242080807685852,-0.04907149076461792
1.729499132364068e+18,0.13298989832401276,-0.3514350354671478,-0.05251326411962509
1.7294991323730683e+18,0.15666593611240387,-0.3873341679573059,-0.05557079613208771
1.7294991323820685e+18,0.15151584148406982,-0.41787686944007874,-0.061445366591215134
1.7294991323910687e+18,0.1376480609178543,-0.44657307863235474,-0.061183247715234756
1.7294991323970688e+18,0.1278807371854782,-0.46569234132766724,-0.0658879205584526
1.729499132406069e+18,0.12899145483970642,-0.49597567319869995,-0.07069295644760132
1.7294991324150692e+18,0.15370161831378937,-0.5148897171020508,-0.07215657085180283
1.7294991324210693e+18,0.17546243965625763,-0.5269123911857605,-0.07578709721565247
1.7294991324300695e+18,0.20862427353858948,-0.5437204241752625,-0.07945313304662704
1.7294991324420698e+18,0.2256428748369217,-0.5420500040054321,-0.08233214914798737
1.72949913244807e+18,0.2228555977344513,-0.5466446280479431,-0.08438485115766525
1.72949913245707e+18,0.20563848316669464,-0.5494165420532227,-0.09003450721502304
1.7294991324660703e+18,0.19217894971370697,-0.5562392473220825,-0.09070103615522385
1.7294991324750705e+18,0.19081392884254456,-0.5614388585090637,-0.09464620798826218
1.7294991324840707e+18,0.20135746896266937,-0.57185959815979,-0.09554903209209442
1.7294991324930708e+18,0.22298339009284973,-0.5798952579498291,-0.09920687973499298
1.729499132499071e+18,0.23529449105262756,-0.5789995789527893,-0.10249067842960358
1.7294991325110712e+18,0.24043045938014984,-0.5674047470092773,-0.10706495493650436
1.7294991325200714e+18,0.22893355786800385,-0.5576502084732056,-0.11014935374259949
1.7294991325260716e+18,0.21939292550086975,-0.5511878728866577,-0.1127447709441185
1.7294991325350717e+18,0.20832349359989166,-0.5439811944961548,-0.11252792924642563
1.729499132544072e+18,0.2056826800107956,-0.5484156608581543,-0.11560828983783722
1.729499132553072e+18,0.2093176394701004,-0.5517552495002747,-0.12098045647144318
1.7294991325620723e+18,0.22276048362255096,-0.5545670986175537,-0.1237473264336586
1.7294991325710725e+18,0.23431870341300964,-0.5478596091270447,-0.12353846430778503
1.7294991325800727e+18,0.23242321610450745,-0.5365585088729858,-0.1299532651901245
1.7294991325860728e+18,0.22963978350162506,-0.530280590057373,-0.12978389859199524
1.729499132595073e+18,0.21677473187446594,-0.5147554874420166,-0.13276398181915283
1.7294991326040732e+18,0.1992003619670868,-0.5001630783081055,-0.133607879281044
1.7294991326130734e+18,0.19036714732646942,-0.49082571268081665,-0.1372624784708023
1.7294991326220736e+18,0.19316129386425018,-0.47802734375,-0.13882876932621002
1.7294991326310738e+18,0.19958597421646118,-0.47905099391937256,-0.13904574513435364
1.729499132640074e+18,0.20960718393325806,-0.4780958294868469,-0.1409761905670166
1.7294991326490742e+18,0.2165611833333969,-0.4823148250579834,-0.14483319222927094
1.7294991326580744e+18,0.2178562432527542,-0.47891831398010254,-0.14677898585796356
1.7294991326670746e+18,0.20486915111541748,-0.46167150139808655,-0.14851514995098114
1.7294991326760748e+18,0.19167329370975494,-0.4486488997936249,-0.14864493906497955
1.729499132685075e+18,0.17762233316898346,-0.43222299218177795,-0.15143464505672455
1.7294991326940751e+18,0.17800408601760864,-0.4229993224143982,-0.15428926050662994
1.7294991327030753e+18,0.1879265010356903,-0.42428821325302124,-0.15500310063362122
1.7294991327120755e+18,0.19737036526203156,-0.43263548612594604,-0.15716063976287842
1.7294991327180756e+18,0.2035304307937622,-0.4322829842567444,-0.1582907885313034
1.7294991327270758e+18,0.20639318227767944,-0.43335726857185364,-0.15662112832069397
1.729499132736076e+18,0.2006961703300476,-0.4284655749797821,-0.15943393111228943
1.7294991327450762e+18,0.1854352056980133,-0.41849279403686523,-0.16200751066207886
1.7294991327540764e+18,0.17384381592273712,-0.4006807506084442,-0.16269195079803467
1.7294991327600765e+18,0.16598385572433472,-0.3937837779521942,-0.1621103435754776
1.7294991327690767e+18,0.16291657090187073,-0.38367992639541626,-0.1632932871580124
1.7294991327750769e+18,0.16694679856300354,-0.3804434835910797,-0.16250669956207275
1.729499132784077e+18,0.17575539648532867,-0.37991487979888916,-0.16455744206905365
1.7294991327930772e+18,0.18548300862312317,-0.3832138180732727,-0.1647331863641739
1.7294991327990774e+18,0.18394652009010315,-0.3848711848258972,-0.16905371844768524
1.7294991328080776e+18,0.18076103925704956,-0.3816949129104614,-0.16919149458408356
1.7294991328170778e+18,0.17510157823562622,-0.3747135102748871,-0.16541433334350586
1.729499132823078e+18,0.1697835475206375,-0.37387385964393616,-0.16819995641708374
1.729499132832078e+18,0.15928849577903748,-0.3625306785106659,-0.16911189258098602
1.7294991328410783e+18,0.16026942431926727,-0.3536900281906128,-0.16727466881275177
1.7294991328500785e+18,0.16466684639453888,-0.3472593426704407,-0.16485929489135742
1.7294991328560786e+18,0.1686646044254303,-0.34685879945755005,-0.16832765936851501
1.7294991328650788e+18,0.1745930016040802,-0.34927302598953247,-0.16890522837638855
1.729499132871079e+18,0.17737777531147003,-0.34720760583877563,-0.17030863463878632
1.729499132880079e+18,0.1788347065448761,-0.34878167510032654,-0.16859863698482513
1.7294991328890793e+18,0.17421849071979523,-0.3503592014312744,-0.16924278438091278
1.7294991328980795e+18,0.1686483770608902,-0.34792065620422363,-0.17036890983581543
1.7294991329070797e+18,0.16909433901309967,-0.343892902135849,-0.16756045818328857
1.7294991329130798e+18,0.16811104118824005,-0.34388425946235657,-0.169218972325325
1.72949913292208e+18,0.1716945469379425,-0.33639007806777954,-0.16951985657215118
1.7294991329310802e+18,0.16903181374073029,-0.325764924287796,-0.16576500236988068
1.7294991329370803e+18,0.16742922365665436,-0.32296139001846313,-0.17069882154464722
1.7294991329460805e+18,0.1629781424999237,-0.3150087594985962,-0.16582095623016357
1.7294991329520806e+18,0.16448406875133514,-0.31058669090270996,-0.16895489394664764
1.7294991329610808e+18,0.1614893227815628,-0.31040292978286743,-0.16696368157863617
1.729499132970081e+18,0.1604222059249878,-0.3110819160938263,-0.1653648465871811
1.7294991329760812e+18,0.1604914665222168,-0.3096197843551636,-0.16718734800815582
1.7294991329880814e+18,0.1659318208694458,-0.31157732009887695,-0.16444610059261322
1.7294991329970816e+18,0.16376836597919464,-0.3081209361553192,-0.1653413474559784
1.7294991330060818e+18,0.15971234440803528,-0.30044737458229065,-0.16288790106773376
1.729499133012082e+18,0.15936581790447235,-0.2953436076641083,-0.16457918286323547
1.729499133021082e+18,0.15686583518981934,-0.29245737195014954,-0.1609666645526886
1.7294991330300823e+18,0.14921225607395172,-0.2846636176109314,-0.16001088917255402
1.7294991330360824e+18,0.1520967036485672,-0.2845253348350525,-0.15910029411315918
1.7294991330450826e+18,0.15443384647369385,-0.2887328267097473,-0.15970124304294586
1.7294991330540828e+18,0.16071712970733643,-0.28917360305786133,-0.15896061062812805
1.729499133063083e+18,0.16429738700389862,-0.29563698172569275,-0.16168583929538727
1.7294991330690831e+18,0.1592629998922348,-0.294190376996994,-0.15505574643611908
1.7294991330780833e+18,0.15838554501533508,-0.2901113033294678,-0.15398955345153809
1.7294991330870835e+18,0.15621469914913177,-0.2811231315135956,-0.15603579580783844
1.7294991330960837e+18,0.15057694911956787,-0.27009209990501404,-0.15358464419841766
1.729499133105084e+18,0.14768467843532562,-0.26102301478385925,-0.15012405812740326
1.729499133111084e+18,0.14723119139671326,-0.2599814236164093,-0.1449170559644699
1.7294991331200842e+18,0.14650554955005646,-0.26063966751098633,-0.1468857377767563
1.7294991331290844e+18,0.15262740850448608,-0.26389944553375244,-0.1428559422492981
1.7294991331350845e+18,0.1543324589729309,-0.26397275924682617,-0.14462298154830933
1.7294991331440847e+18,0.15624120831489563,-0.26792672276496887,-0.14367473125457764
1.729499133153085e+18,0.1562536358833313,-0.26585283875465393,-0.1438184231519699
1.729499133159085e+18,0.15473778545856476,-0.2631586492061615,-0.1379701942205429
1.7294991331680852e+18,0.14571000635623932,-0.2563623785972595,-0.14033901691436768
1.7294991331770854e+18,0.14204564690589905,-0.24626120924949646,-0.13878390192985535
1.7294991331830856e+18,0.14164137840270996,-0.23897841572761536,-0.137210413813591
1.7294991331920858e+18,0.14315563440322876,-0.2351371794939041,-0.13269321620464325
1.729499133201086e+18,0.14009499549865723,-0.23842032253742218,-0.13106536865234375
1.729499133207086e+18,0.1459285318851471,-0.2373395413160324,-0.1323462873697281
1.7294991332160863e+18,0.15104155242443085,-0.23966839909553528,-0.12884147465229034
1.7294991332250865e+18,0.15056633949279785,-0.24399791657924652,-0.12529875338077545
1.7294991332340867e+18,0.14999796450138092,-0.23729665577411652,-0.12488716840744019
