timestamp,accel_x,accel_y,accel_z
1.7294952819949286e+18,0.002829262288287282,-0.025594722479581833,-9.886725425720215
1.7294952820039288e+18,-0.021155934780836105,0.021934734657406807,-9.723180770874023
1.729495282012929e+18,0.0076433466747403145,-0.016057658940553665,-9.856554985046387
1.7294952820219292e+18,0.016784178093075752,-0.1256362646818161,-9.867284774780273
1.7294952820309294e+18,-0.026369966566562653,0.04830699786543846,-9.835566520690918
1.7294952820369295e+18,-0.014462804421782494,0.027622278779745102,-9.769306182861328
1.7294952820459297e+18,-0.017964273691177368,-0.06533460319042206,-9.813414573669434
1.72949528205493e+18,0.026891032233834267,0.00623755156993866,-9.857872009277344
1.72949528206393e+18,-0.007036149967461824,0.017515286803245544,-9.871582984924316
1.7294952820729303e+18,0.035880785435438156,-0.02073417603969574,-9.902490615844727
1.7294952820819305e+18,-0.02117752470076084,-0.0834403708577156,-9.800532341003418
1.7294952820909307e+18,0.04412645474076271,0.02074049971997738,-9.816312789916992
1.729495282099931e+18,0.02778700366616249,0.04361873120069504,-9.837821006774902
1.729495282105931e+18,-0.018500737845897675,0.007415952626615763,-9.887513160705566
1.7294952821149312e+18,0.013251831755042076,0.07008906453847885,-9.809707641601562
1.7294952821239314e+18,-0.007574102841317654,-0.0028582278173416853,-9.774313926696777
1.7294952821329316e+18,-0.00392345804721117,-0.02632373385131359,-9.789152145385742
1.7294952821419318e+18,0.0017715521389618516,-0.02077500708401203,-9.836164474487305
1.729495282153932e+18,0.0009721547830849886,-0.010530308820307255,-9.852388381958008
1.7294952821629322e+18,0.035430338233709335,0.05062325671315193,-9.82177734375
1.7294952821719324e+18,-0.005572636611759663,-0.05109267681837082,-9.798662185668945
1.7294952821839327e+18,0.04701266810297966,-0.02816610410809517,-9.807601928710938
1.7294952821899328e+18,0.008981326594948769,-0.017493320629000664,-9.81477165222168
1.729495282198933e+18,-0.0037320589181035757,-0.06362883746623993,-9.755754470825195
1.7294952822079332e+18,0.007867489010095596,-0.0574864000082016,-9.796807289123535
1.7294952822169334e+18,0.011292844079434872,-0.026448767632246017,-9.798368453979492
1.7294952822229335e+18,0.01694704033434391,0.006265615578740835,-9.795877456665039
1.7294952822319337e+18,0.03064679726958275,-0.08999096602201462,-9.791861534118652
1.729495282240934e+18,0.009283422492444515,0.0016565797850489616,-9.728607177734375
1.729495282249934e+18,-0.021324703469872475,-0.027807075530290604,-9.812174797058105
1.7294952822589343e+18,0.01380939967930317,0.06185664236545563,-9.745451927185059
1.7294952822649344e+18,0.06399476528167725,0.05075827240943909,-9.806245803833008
1.7294952822739346e+18,0.008947676979005337,-0.020540226250886917,-9.874624252319336
1.7294952822829348e+18,-0.054868560284376144,-9.900727309286594e-05,-9.820879936218262
1.729495282291935e+18,-0.04953894764184952,-0.05296758934855461,-9.809775352478027
1.7294952823009352e+18,0.005029881373047829,0.0052592577412724495,-9.768338203430176
1.7294952823099354e+18,-0.024307338520884514,-0.04709980636835098,-9.76469898223877
1.7294952823189356e+18,0.021392788738012314,-0.020158248022198677,-9.717467308044434
1.7294952823249357e+18,0.025378666818141937,-0.039368849247694016,-9.755706787109375
1.7294952823339359e+18,0.0357486754655838,0.062028221786022186,-9.799934387207031
1.729495282342936e+18,-0.018915921449661255,-0.06841679662466049,-9.833711624145508
1.7294952823489362e+18,-0.009328995831310749,0.027684785425662994,-9.842220306396484
1.7294952823579364e+18,0.011390049010515213,0.016138657927513123,-9.798578262329102
1.7294952823669366e+18,0.032303862273693085,-0.005978098139166832,-9.79210090637207
1.7294952823759368e+18,0.10296548157930374,0.040349386632442474,-9.834765434265137
1.729495282381937e+18,0.031034551560878754,-0.04813661798834801,-9.813980102539062
1.729495282390937e+18,0.0005343615193851292,-0.02056783065199852,-9.811209678649902
1.7294952823999373e+18,-0.0036278031766414642,0.006516246125102043,-9.76879596710205
1.7294952824089375e+18,-0.056564588099718094,-0.012276001274585724,-9.859672546386719
1.7294952824149376e+18,0.022348757833242416,0.09139618277549744,-9.791510581970215
1.7294952824239378e+18,0.00856007169932127,-0.0848904699087143,-9.808123588562012
1.729495282432938e+18,0.007761537563055754,0.051697585731744766,-9.832633972167969
1.729495282438938e+18,-0.03570721670985222,-0.023195194080471992,-9.795568466186523
1.7294952824479383e+18,0.008604048751294613,-0.021180814132094383,-9.792645454406738
1.7294952824569385e+18,0.03248247131705284,-0.018742261454463005,-9.778230667114258
1.7294952824629386e+18,0.021987438201904297,-0.06278069317340851,-9.771639823913574
1.7294952824719388e+18,-0.012076068669557571,0.05268268659710884,-9.943121910095215
1.729495282480939e+18,0.031716931611299515,0.12944430112838745,-9.847456932067871
1.7294952824869391e+18,-0.059525951743125916,-0.03154398873448372,-9.739286422729492
1.7294952824959393e+18,0.022401388734579086,0.03501918166875839,-9.80240535736084
1.7294952825049395e+18,-0.07953045517206192,-0.03007201850414276,-9.795540809631348
1.7294952825139397e+18,0.011002764105796814,0.019529107958078384,-9.853215217590332
1.72949528252294e+18,-0.016415037214756012,0.05762298032641411,-9.802339553833008
1.72949528253194e+18,0.03565015643835068,-0.07294455170631409,-9.752874374389648
1.7294952825559406e+18,0.010345010086894035,-0.032470159232616425,-9.73611831665039
1.7294952825679409e+18,0.032829415053129196,-0.027294810861349106,-9.82828140258789
1.729495282576941e+18,-0.0237203910946846,-0.0603431761264801,-9.71651554107666
1.7294952825859412e+18,-0.06648775935173035,0.05481887608766556,-9.793292999267578
1.7294952825949414e+18,0.02539438009262085,-0.006853366270661354,-9.855049133300781
1.7294952826039416e+18,0.052931271493434906,-0.0486125648021698,-9.78664493560791
1.7294952826129418e+18,-0.009968144819140434,0.02292238175868988,-9.792223930358887
1.729495282621942e+18,-0.02224627509713173,0.018831755965948105,-9.797080993652344
1.7294952826309422e+18,-0.05364690721035004,0.047235921025276184,-9.812780380249023
1.7294952826399424e+18,0.023325292393565178,-0.09809001535177231,-9.802450180053711
1.7294952826489426e+18,-0.044567883014678955,0.023415429517626762,-9.787360191345215
1.7294952826579428e+18,-0.033137500286102295,-0.03590872511267662,-9.762795448303223
1.729495282666943e+18,-0.0026976310182362795,0.0038800747133791447,-9.879005432128906
1.729495282672943e+18,0.04740985110402107,-0.054393596947193146,-9.808876037597656
1.7294952826819433e+18,0.04100020229816437,-0.012288986705243587,-9.894301414489746
1.7294952826909435e+18,-0.006186237558722496,0.06072542816400528,-9.826693534851074
1.7294952826999437e+18,-0.014756208285689354,-0.02295025996863842,-9.86997127532959
1.7294952827059438e+18,-0.05319655314087868,0.036871928721666336,-9.839507102966309
1.729495282714944e+18,0.03604511544108391,0.023781603202223778,-9.818973541259766
1.7294952827239442e+18,-0.07013334333896637,0.009021717123687267,-9.708443641662598
1.7294952827299443e+18,-0.05457190424203873,0.012298778630793095,-9.79015064239502
1.7294952827389445e+18,0.0010614402126520872,0.03905739262700081,-9.768945693969727
1.7294952827479447e+18,0.023041842505335808,0.004991794470697641,-9.804773330688477
1.729495282756945e+18,0.0414680577814579,-0.0034216544590890408,-9.823802947998047
1.729495282765945e+18,0.04458676278591156,0.035162266343832016,-9.770297050476074
1.7294952827719452e+18,0.031243106350302696,-0.007237227167934179,-9.797563552856445
1.7294952827809454e+18,0.023017125204205513,0.032027922570705414,-9.827634811401367
1.7294952827869455e+18,0.036615125834941864,0.0076505872420966625,-9.815882682800293
1.7294952827959457e+18,0.008694960735738277,0.09791085869073868,-9.834968566894531
1.729495282804946e+18,0.04333338886499405,-0.015632975846529007,-9.81118106842041
1.729495282810946e+18,-0.01011692825704813,0.010595938190817833,-9.850624084472656
1.7294952828199462e+18,0.04100896418094635,-0.01067833136767149,-9.892183303833008
1.7294952828289464e+18,-0.018895983695983887,0.005806265864521265,-9.886844635009766
1.7294952828379466e+18,-0.02506907470524311,0.02598244696855545,-9.802346229553223
1.7294952828439468e+18,0.0722295343875885,-0.026023298501968384,-9.78020191192627
1.729495282852947e+18,-0.013358509168028831,-0.027006784453988075,-9.79916000366211
1.7294952828619471e+18,-0.026397818699479103,-0.009671923704445362,-9.832735061645508
1.7294952828709473e+18,0.030067894607782364,0.08067244291305542,-9.840530395507812
1.7294952828769475e+18,-0.0872509628534317,0.026339352130889893,-9.863262176513672
1.7294952828859476e+18,0.0026163908187299967,0.0033390254247933626,-9.833560943603516
1.7294952828949478e+18,-0.027100399136543274,0.03058316744863987,-9.83430004119873
1.729495282903948e+18,-0.017294811084866524,0.021487068384885788,-9.837872505187988
1.7294952829099482e+18,-0.01407509483397007,0.007675190456211567,-9.822407722473145
1.7294952829189484e+18,-0.03661678731441498,0.04644181206822395,-9.753826141357422
1.7294952829279485e+18,0.012459080666303635,-0.027828581631183624,-9.784823417663574
1.7294952829339487e+18,-0.029308779165148735,0.01294027827680111,-9.81664752960205
1.7294952829429489e+18,0.015237681567668915,-0.026998208835721016,-9.797385215759277
1.729495282951949e+18,0.032909829169511795,0.0023352820426225662,-9.873103141784668
1.7294952829579492e+18,0.11183014512062073,0.056991953402757645,-9.855599403381348
1.7294952829669494e+18,-0.029235603287816048,-0.022341834381222725,-9.804946899414062
1.7294952829759496e+18,0.07344973832368851,0.04178023710846901,-9.880637168884277
1.7294952829819497e+18,0.1190500482916832,0.013116879388689995,-9.803375244140625
1.72949528299095e+18,0.005033252295106649,-0.014143481850624084,-9.732349395751953
1.72949528299695e+18,0.023327914997935295,0.011311394162476063,-9.818887710571289
1.7294952830059502e+18,-0.026794232428073883,0.028861472383141518,-9.791099548339844
1.7294952830149504e+18,0.015894612297415733,-0.06027458608150482,-9.75214672088623
1.7294952830209505e+18,0.07646768540143967,-0.06274756044149399,-9.839975357055664
1.7294952830299507e+18,-0.01895134337246418,-0.016091031953692436,-9.754303932189941
1.729495283038951e+18,-0.042424362152814865,0.010013056918978691,-9.784401893615723
1.729495283044951e+18,0.024105269461870193,0.011274056509137154,-9.79335880279541
1.7294952830539512e+18,0.0805031880736351,0.0034416927956044674,-9.761883735656738
1.7294952830599514e+18,0.025890689343214035,0.020327800884842873,-9.778180122375488
1.7294952830689516e+18,0.03314528986811638,-0.00984941702336073,-9.714873313903809
1.7294952830749517e+18,-0.06152920052409172,0.03253377974033356,-9.866520881652832
1.7294952830839519e+18,0.06714322417974472,-0.002441201126202941,-9.795881271362305
1.729495283092952e+18,-0.021657414734363556,0.006791232153773308,-9.839139938354492
1.7294952831019523e+18,-0.11072169244289398,-0.009106626734137535,-9.899443626403809
1.7294952831079524e+18,0.013604006730020046,0.026264755055308342,-9.736408233642578
1.7294952831169526e+18,-0.0002532188664190471,0.02735472097992897,-9.896655082702637
1.7294952831259528e+18,-0.00810814369469881,-0.008223304525017738,-9.83496379852295
1.729495283134953e+18,-0.025975171476602554,0.06465638428926468,-9.810751914978027
1.7294952831439532e+18,0.012890727259218693,0.0022054805886000395,-9.850610733032227
1.7294952831529533e+18,0.05201675370335579,0.015089757740497589,-9.823164939880371
1.7294952831619535e+18,0.02971922978758812,0.004253342282027006,-9.790404319763184
1.7294952831709537e+18,0.001480753067880869,0.01302094291895628,-9.786195755004883
1.7294952831769539e+18,0.0270327627658844,0.04596511274576187,-9.844033241271973
1.729495283185954e+18,0.0014799080090597272,0.023491788655519485,-9.797409057617188
1.7294952831949542e+18,0.04699955880641937,-0.07802879810333252,-9.786827087402344
1.7294952832069545e+18,-0.058042582124471664,0.011460985988378525,-9.856446266174316
1.7294952832129546e+18,0.02056632936000824,-0.038462717086076736,-9.777688980102539
1.7294952832219548e+18,0.00015981416800059378,0.056474801152944565,-9.763776779174805
1.729495283230955e+18,-0.0713319331407547,0.026656830683350563,-9.799967765808105
1.7294952832399552e+18,-0.017014600336551666,0.024755042046308517,-9.815109252929688
1.7294952832489554e+18,0.017845064401626587,0.010484804399311543,-9.829828262329102
1.7294952832579556e+18,-0.004541428294032812,-0.0604681633412838,-9.772183418273926
1.7294952832669558e+18,-0.019762368872761726,0.0438702367246151,-9.723575592041016
1.729495283275956e+18,-0.01389461848884821,0.05543157458305359,-9.832053184509277
1.7294952832849562e+18,-0.010057831183075905,0.03837071359157562,-9.823310852050781
1.7294952832939564e+18,0.025352206081151962,-0.09686875343322754,-9.882813453674316
1.7294952833029565e+18,0.015197934582829475,-0.0006369877373799682,-9.765470504760742
1.7294952833119567e+18,0.018690695986151695,0.04144095629453659,-9.864898681640625
1.729495283320957e+18,-0.001380630419589579,-0.07459957152605057,-9.826401710510254
1.729495283326957e+18,0.05618905648589134,-0.08041302114725113,-9.800922393798828
1.7294952833359572e+18,-0.00012234674068167806,-0.072530597448349,-9.847949028015137
1.7294952833449574e+18,0.010238980874419212,-0.03546172007918358,-9.84142780303955
1.7294952833539576e+18,0.08901896327733994,0.05741532891988754,-9.854612350463867
1.7294952833629578e+18,0.06941152364015579,-0.02397577464580536,-9.790511131286621
1.729495283371958e+18,0.016802335157990456,-0.033205367624759674,-9.828803062438965
1.7294952833809582e+18,-0.055424850434064865,0.0003344228316564113,-9.822160720825195
1.7294952833899584e+18,-0.021453656256198883,0.004089267924427986,-9.814565658569336
1.7294952833989586e+18,-0.043143391609191895,-0.018088962882757187,-9.821483612060547
1.7294952834079588e+18,0.02641495317220688,-0.006074039731174707,-9.789710998535156
1.729495283416959e+18,0.019445734098553658,-0.07330268621444702,-9.801865577697754
1.729495283422959e+18,-0.012552074156701565,-0.05562540888786316,-9.843817710876465
1.7294952834319593e+18,0.003771794494241476,0.013568932190537453,-9.83722972869873
1.7294952834409595e+18,-0.03267376497387886,0.021054552868008614,-9.817180633544922
1.7294952834499597e+18,0.025799475610256195,0.06416453421115875,-9.870564460754395
1.7294952834559598e+18,-0.02520791068673134,-0.025360675528645515,-9.811177253723145
1.72949528346496e+18,-0.011452974751591682,0.023754140362143517,-9.802401542663574
1.7294952834739602e+18,0.050505612045526505,-0.02805662527680397,-9.692728042602539
1.7294952834799603e+18,0.01603284478187561,-0.027799447998404503,-9.76590633392334
1.7294952834889605e+18,0.012450876645743847,-0.03857824206352234,-9.868550300598145
1.7294952834979607e+18,-0.0032435643952339888,0.05395572632551193,-9.760202407836914
1.7294952835039608e+18,-0.03378353640437126,0.01743934117257595,-9.766971588134766
1.729495283512961e+18,-0.006804067641496658,-0.006123752798885107,-9.882366180419922
1.7294952835189612e+18,0.020590901374816895,0.018301205709576607,-9.829038619995117
1.7294952835279613e+18,0.044096458703279495,-0.010664956644177437,-9.76243782043457
1.7294952835369615e+18,-0.0015921099111437798,-0.007533238735049963,-9.797530174255371
1.7294952835429617e+18,-0.04750252142548561,-0.0040224893018603325,-9.881319046020508
1.7294952835519619e+18,0.000685522158164531,-0.007812179625034332,-9.864900588989258
1.729495283560962e+18,0.020361047238111496,-0.034134071320295334,-9.726554870605469
1.7294952835669622e+18,-0.019426511600613594,-0.008637098595499992,-9.686708450317383
1.7294952835759624e+18,-0.017980465665459633,0.016552759334445,-9.747769355773926
1.7294952835849626e+18,-0.05023111402988434,-0.05733489617705345,-9.756319999694824
1.7294952835909627e+18,0.07653834670782089,0.006551909260451794,-9.758465766906738
1.729495283599963e+18,-0.04612753167748451,0.008577238768339157,-9.778223037719727
1.729495283608963e+18,-0.013790015131235123,0.09856469929218292,-9.777066230773926
1.7294952836149632e+18,-0.021599523723125458,-0.017536796629428864,-9.774375915527344
1.7294952836239634e+18,0.059228844940662384,-0.00757330097258091,-9.817915916442871
1.7294952836329636e+18,0.07333206385374069,0.07438050955533981,-9.81113052368164
1.7294952836419638e+18,-0.08732394874095917,0.015752548351883888,-9.815757751464844
1.729495283647964e+18,-0.04025125503540039,0.02867167443037033,-9.809174537658691
1.729495283656964e+18,0.048283446580171585,-0.033143047243356705,-9.787041664123535
1.7294952836629642e+18,0.00929786916822195,-0.04752679169178009,-9.800887107849121
1.7294952836719644e+18,-0.05393916368484497,-0.01423322968184948,-9.804460525512695
1.7294952836779645e+18,0.012841886840760708,0.07635817676782608,-9.783884048461914
1.7294952836869647e+18,-0.021814413368701935,0.06951692700386047,-9.8165864944458
1.729495283695965e+18,-0.07774105668067932,0.012518992647528648,-9.716758728027344
1.729495283701965e+18,-0.0009575769654475152,0.03630667179822922,-9.789066314697266
1.7294952837109652e+18,-0.04140065237879753,-0.018575651571154594,-9.793176651000977
1.7294952837199654e+18,0.027431078255176544,-0.040091488510370255,-9.82085132598877
1.7294952837289656e+18,-0.023886743932962418,-0.0010452980641275644,-9.818531036376953
1.7294952837379658e+18,-0.0769677609205246,0.04700588062405586,-9.856827735900879
1.729495283743966e+18,-0.021475762128829956,0.07118907570838928,-9.726089477539062
1.7294952837529661e+18,-0.07353527098894119,0.002116675954312086,-9.848345756530762
1.7294952837619663e+18,0.03432914614677429,0.0198077242821455,-9.889908790588379
1.7294952837709665e+18,-0.027913939207792282,-0.006748829502612352,-9.81121826171875
1.7294952837799667e+18,-0.043841008096933365,-0.035888347774744034,-9.873990058898926
1.729495283788967e+18,0.0025750326458364725,0.05489740148186684,-9.757835388183594
1.729495283794967e+18,-0.10995879769325256,-0.014057764783501625,-9.82497787475586
1.7294952838039672e+18,-0.02971888706088066,0.07219749689102173,-9.770891189575195
1.7294952838129674e+18,0.02214287593960762,-0.060930170118808746,-9.800826072692871
1.7294952838219676e+18,-0.031743794679641724,-0.013455868698656559,-9.813403129577637
1.7294952838309678e+18,-0.0140882208943367,-0.05413338169455528,-9.788183212280273
1.729495283839968e+18,0.06941534578800201,0.006550952792167664,-9.683128356933594
1.7294952838459681e+18,-0.0815800279378891,0.029787296429276466,-9.810382843017578
1.7294952838549683e+18,-0.04711953178048134,0.03600176423788071,-9.777934074401855
1.7294952838639685e+18,0.030838076025247574,0.09642432630062103,-9.758806228637695
1.7294952838729687e+18,-0.024197140708565712,0.0013930535642430186,-9.852993965148926
1.729495283881969e+18,0.0068344296887516975,0.038965072482824326,-9.8215913772583
1.7294952838939692e+18,0.0056291366927325726,-0.059702128171920776,-9.697602272033691
1.7294952839029693e+18,-0.036675382405519485,0.08728769421577454,-9.827127456665039
1.7294952839119695e+18,0.009509166702628136,-0.02319239266216755,-9.814813613891602
1.7294952839209697e+18,-0.03947467729449272,-0.0028552506119012833,-9.842570304870605
1.72949528392997e+18,-0.03770887106657028,0.015393159352242947,-9.809288024902344
1.72949528393897e+18,-0.0068077086471021175,-0.010277642868459225,-9.777565002441406
1.7294952839479703e+18,0.07853778451681137,0.00020301935728639364,-9.854098320007324
1.7294952839569705e+18,-0.05484085530042648,0.03564249724149704,-9.864782333374023
1.7294952839629706e+18,0.03865962475538254,0.04435207322239876,-9.798577308654785
1.7294952839719708e+18,0.046983037143945694,0.057248033583164215,-9.81623363494873
1.729495283980971e+18,0.08735062181949615,0.08056054264307022,-9.792963981628418
1.7294952839899712e+18,0.010520393960177898,-0.05174943432211876,-9.807723045349121
1.7294952839959713e+18,-0.03730512410402298,-0.015618612989783287,-9.82965087890625
1.7294952840079716e+18,-0.08351799845695496,0.013913198374211788,-9.83462142944336
1.7294952840169718e+18,0.10793669521808624,0.026542093604803085,-9.718955039978027
1.729495284022972e+18,0.05281134694814682,0.04170001670718193,-9.80859375
1.729495284031972e+18,-0.06934921443462372,-0.021060233935713768,-9.787447929382324
1.7294952840409723e+18,0.002872750861570239,-0.011401962488889694,-9.765456199645996
1.7294952840499725e+18,-0.028587205335497856,0.016765713691711426,-9.771872520446777
1.7294952840589727e+18,-0.003205958055332303,0.03240788355469704,-9.776309967041016
1.7294952840679729e+18,-0.06349685043096542,0.02094692923128605,-9.83882999420166
1.729495284073973e+18,0.02123689465224743,-0.016758447512984276,-9.850933074951172
1.7294952840829732e+18,0.0014534214278683066,-0.052472785115242004,-9.798118591308594
1.7294952840919734e+18,0.024489497765898705,-0.0060016196221113205,-9.80790901184082
1.7294952841009736e+18,-0.03763313591480255,-0.0001958826178452,-9.764402389526367
1.7294952841099738e+18,0.008892906829714775,0.02249254286289215,-9.872834205627441
1.729495284118974e+18,0.04622674733400345,0.0023547254968434572,-9.796808242797852
1.7294952841279741e+18,0.05438530445098877,0.094773069024086,-9.784014701843262
1.7294952841339743e+18,0.01907476969063282,0.022368816658854485,-9.849226951599121
1.7294952841429745e+18,-0.0705234631896019,-0.003868341678753495,-9.887386322021484
1.7294952841519747e+18,-0.03641825169324875,-0.013998390175402164,-9.75558090209961
1.7294952841609748e+18,0.017137549817562103,0.06824302673339844,-9.807449340820312
1.729495284166975e+18,-0.005116074346005917,-0.01430073007941246,-9.82561206817627
1.7294952841759752e+18,-0.004319062922149897,-0.03423411399126053,-9.81080150604248
1.7294952841849754e+18,0.10228034108877182,0.04198561981320381,-9.784547805786133
1.7294952841909755e+18,-0.05839581415057182,-0.009763840585947037,-9.78691291809082
1.7294952841999757e+18,-0.06417740136384964,0.08952649682760239,-9.780832290649414
1.7294952842059758e+18,0.011232025921344757,-0.051138654351234436,-9.797248840332031
1.729495284214976e+18,-0.038147587329149246,-0.0437832772731781,-9.73796272277832
1.7294952842239762e+18,0.05262473225593567,-0.004183528013527393,-9.778672218322754
1.7294952842299763e+18,-0.018962789326906204,0.030810123309493065,-9.808300018310547
1.7294952842389765e+18,-0.05019134283065796,0.001864878460764885,-9.738884925842285
1.7294952842479767e+18,-0.10793063789606094,-0.026296062394976616,-9.835631370544434
1.729495284256977e+18,0.0675409585237503,-0.006642898544669151,-9.73780345916748
1.729495284262977e+18,0.019367676228284836,-0.07147995382547379,-9.766401290893555
1.7294952842719772e+18,-0.06822396069765091,-0.07922017574310303,-9.855348587036133
1.7294952842809774e+18,-0.007671511732041836,0.028422823175787926,-9.833120346069336
1.7294952842899776e+18,0.004158324096351862,-0.04964357241988182,-9.841631889343262
1.7294952842989778e+18,0.04979323968291283,-0.024336718022823334,-9.787858963012695
1.729495284304978e+18,-0.026419637724757195,0.03943760320544243,-9.801143646240234
1.729495284313978e+18,-0.016538819298148155,-0.04258148744702339,-9.860796928405762
1.7294952843229783e+18,-0.052711121737957,0.09060665220022202,-9.798888206481934
1.7294952843289784e+18,-0.028762618079781532,0.03324786573648453,-9.835489273071289
1.7294952843379786e+18,-0.03793928399682045,-0.023171760141849518,-9.723536491394043
1.7294952843439788e+18,0.045047879219055176,-0.03786451369524002,-9.805724143981934
1.729495284352979e+18,-0.07247305661439896,0.07276380062103271,-9.835159301757812
1.729495284358979e+18,-0.053507860749959946,-0.006718496326357126,-9.83110523223877
1.7294952843679793e+18,0.06547649204730988,-0.003343744669109583,-9.805771827697754
1.7294952843769795e+18,0.0031629404984414577,-0.029423832893371582,-9.780892372131348
1.7294952843829796e+18,-0.007208904251456261,0.025218943133950233,-9.797588348388672
1.7294952843919798e+18,0.02628953568637371,0.010044853202998638,-9.787291526794434
1.72949528440098e+18,-0.0645579993724823,0.038717132061719894,-9.771081924438477
1.72949528440698e+18,0.01769467256963253,0.045536089688539505,-9.857050895690918
1.7294952844159803e+18,-0.05021398141980171,-0.011854263953864574,-9.974640846252441
1.7294952844219804e+18,0.012756960466504097,-0.023746619001030922,-9.964669227600098
1.7294952844309806e+18,0.02106054499745369,-0.011498929001390934,-10.036052703857422
1.7294952844399808e+18,-0.06338576227426529,-0.05878274887800217,-9.919294357299805
1.729495284445981e+18,0.004164800979197025,-0.05094364657998085,-9.946917533874512
1.729495284454981e+18,0.0010925978422164917,0.006215686444193125,-10.044382095336914
1.7294952844639813e+18,-0.045362360775470734,-0.05026766657829285,-10.012832641601562
1.7294952844729815e+18,-0.005080433562397957,0.09112074971199036,-9.993154525756836
1.7294952844789816e+18,-0.04643583297729492,-0.0007497724145650864,-10.067599296569824
1.7294952844879818e+18,-0.009947850368916988,0.0539315864443779,-9.99119758605957
1.729495284496982e+18,-0.009327284060418606,0.1279338300228119,-10.057903289794922
1.7294952845029821e+18,-0.026172108948230743,-0.1079387217760086,-10.077367782592773
1.7294952845119823e+18,0.11617366969585419,0.02509159967303276,-10.024126052856445
1.7294952845179825e+18,0.026255354285240173,-0.011486688628792763,-10.063343048095703
1.7294952845269827e+18,0.05152098089456558,0.057786423712968826,-10.090733528137207
1.7294952845359828e+18,0.020497305318713188,-0.04176916182041168,-10.085474014282227
1.729495284544983e+18,-0.026772715151309967,-0.03305801749229431,-10.242267608642578
1.7294952845539832e+18,-0.03253811597824097,0.002668023342266679,-10.386837005615234
1.7294952845629834e+18,-0.011850539594888687,-0.0361960232257843,-10.55517578125
1.7294952845749837e+18,-0.005462617613375187,0.08689089864492416,-10.498048782348633
1.7294952845839839e+18,-0.006125296000391245,-0.07642537355422974,-10.546627044677734
1.729495284592984e+18,-0.02279098518192768,0.07686412334442139,-10.462733268737793
1.7294952845989842e+18,0.0293373204767704,0.05687183141708374,-10.529284477233887
1.7294952846079844e+18,-0.0361030176281929,-0.09753890335559845,-10.581498146057129
1.7294952846169846e+18,0.0007538619684055448,0.01726326160132885,-10.567142486572266
1.7294952846259848e+18,-0.034981902688741684,0.025005515664815903,-10.508761405944824
1.729495284634985e+18,-0.00831862073391676,0.03919326141476631,-10.47186279296875
1.7294952846439852e+18,0.05862533301115036,-0.07151977717876434,-10.592702865600586
1.7294952846529853e+18,0.0735456719994545,-0.03061138279736042,-10.510021209716797
1.7294952846619855e+18,-0.0137816546484828,0.05700037628412247,-10.601567268371582
1.7294952846709857e+18,0.03962931036949158,-0.04037626087665558,-10.59085464477539
1.729495284679986e+18,-0.03969739377498627,-0.03462178260087967,-10.410956382751465
1.7294952846919862e+18,0.01553170382976532,-0.0488116517663002,-10.532960891723633
1.7294952846979863e+18,0.05601005628705025,-0.04324398934841156,-10.474532127380371
1.7294952847069865e+18,0.10349288582801819,-0.005320953205227852,-10.5220365524292
1.7294952847159867e+18,-0.04756814241409302,0.07049015909433365,-10.551671028137207
1.729495284724987e+18,-0.0015015453100204468,-0.028780622407794,-10.615471839904785
1.729495284733987e+18,0.09696696698665619,-0.019918572157621384,-10.501558303833008
1.7294952847429873e+18,-0.0445440337061882,-0.06252128630876541,-10.584060668945312
1.7294952847519875e+18,0.007204779423773289,-0.028342362493276596,-10.573110580444336
1.7294952847609876e+18,0.05465681105852127,-0.03775564581155777,-10.66142463684082
1.7294952847699878e+18,-0.0003285938873887062,-0.062124866992235184,-10.594446182250977
1.729495284778988e+18,0.04356770217418671,-0.02479039691388607,-10.674846649169922
1.7294952847879882e+18,0.014556428417563438,-0.033735986799001694,-10.589242935180664
1.7294952847969884e+18,-0.01464812085032463,-0.040941089391708374,-10.545540809631348
1.7294952848059886e+18,-0.007954565808176994,0.015324809588491917,-10.57308578491211
1.7294952848149888e+18,0.02502983808517456,0.031500086188316345,-10.585536003112793
1.729495284823989e+18,-0.0150908213108778,0.08726105093955994,-10.578269004821777
1.7294952848329892e+18,-0.04127078130841255,-0.010092204436659813,-10.636454582214355
1.7294952848419894e+18,0.06061311066150665,0.002738591283559799,-10.63424015045166
1.7294952848539896e+18,-0.0142891900613904,-0.04837572202086449,-10.647454261779785
1.7294952848599898e+18,0.0040509686805307865,0.08476711809635162,-10.664714813232422
1.72949528486899e+18,-0.03935859352350235,-0.031004423275589943,-10.56728744506836
1.7294952848809902e+18,0.023892279714345932,-0.010493317618966103,-10.556090354919434
1.7294952848899904e+18,0.020144082605838776,-0.045298829674720764,-10.50893783569336
1.7294952848989906e+18,0.05060887336730957,0.035291679203510284,-10.667048454284668
1.7294952849079908e+18,-0.018473146483302116,-0.0008359929197467864,-10.544404983520508
1.729495284919991e+18,-0.03097490966320038,0.05768479034304619,-10.641646385192871
1.7294952849289912e+18,0.05009409040212631,-0.028351889923214912,-10.626968383789062
1.7294952849379914e+18,0.03495108708739281,0.010426531545817852,-10.668927192687988
1.7294952849469916e+18,0.02281877025961876,0.0009285425767302513,-10.609233856201172
1.7294952849559918e+18,-0.06744115054607391,0.010792739689350128,-10.645720481872559
1.729495284964992e+18,0.0065044257789850235,-0.035377178341150284,-10.629605293273926
1.7294952849769923e+18,-0.011622206307947636,0.09271977841854095,-10.696526527404785
1.7294952849859924e+18,-0.009932336397469044,0.07033272087574005,-10.616384506225586
1.7294952849949926e+18,-0.051293082535266876,-0.003700012108311057,-10.627492904663086
1.7294952850039928e+18,0.010049651376903057,-0.03744696080684662,-10.610150337219238
1.729495285012993e+18,0.009585747495293617,0.03377040848135948,-10.665420532226562
1.7294952850249933e+18,-0.03793058916926384,0.06619458645582199,-10.643415451049805
1.7294952850309934e+18,0.03707369044423103,0.0032334579154849052,-10.639725685119629
1.7294952850429937e+18,0.04265465587377548,-0.02787005342543125,-10.765201568603516
1.7294952850519939e+18,-0.020326044410467148,-0.00218795845285058,-10.589069366455078
1.729495285060994e+18,-0.010391435585916042,-0.02854033000767231,-10.689287185668945
1.7294952850699942e+18,0.04725910350680351,0.06095787137746811,-10.63289737701416
1.7294952850789944e+18,0.02204764261841774,-0.014339763671159744,-10.682677268981934
1.7294952850879946e+18,-0.02073953114449978,0.05753522366285324,-10.56106185913086
1.7294952850969948e+18,-0.008489349856972694,0.05687247961759567,-10.607040405273438
1.729495285105995e+18,-0.03035275824368,-0.01985439471900463,-10.65141487121582
1.7294952851149952e+18,0.048610489815473557,0.03899573162198067,-10.610684394836426
1.7294952851239954e+18,-0.026820693165063858,-0.04437034949660301,-10.577797889709473
1.7294952851329956e+18,0.0020303716883063316,-0.13241712749004364,-10.603845596313477
1.7294952851419958e+18,-0.01965913735330105,-0.08478198945522308,-10.584969520568848
1.729495285150996e+18,-0.025228820741176605,-0.05523054674267769,-10.630731582641602
1.7294952851599962e+18,0.005881879478693008,-0.054899051785469055,-10.57962703704834
1.7294952851689964e+18,0.03246976435184479,0.023716401308774948,-10.602910041809082
1.7294952851779965e+18,-0.03143959492444992,-0.04844481870532036,-10.679180145263672
1.7294952851869967e+18,0.06287012249231339,0.020253222435712814,-10.657892227172852
1.729495285198997e+18,0.05585027486085892,-0.09525757282972336,-10.577654838562012
1.7294952852079972e+18,-0.07703875750303268,-0.035429880023002625,-10.565252304077148
1.7294952852169974e+18,-0.030782204121351242,-0.10051566362380981,-10.661042213439941
1.7294952852259976e+18,0.0268517155200243,0.012632081285119057,-10.633770942687988
1.7294952852349978e+18,0.005395425017923117,-0.08756925165653229,-10.642789840698242
1.729495285243998e+18,-0.0212565828114748,-0.04454568028450012,-10.577463150024414
1.7294952852529981e+18,0.0061554815620183945,0.09574757516384125,-10.548327445983887
1.7294952852619983e+18,-0.0032842368818819523,0.09872981160879135,-10.566317558288574
1.7294952852709985e+18,0.019295072183012962,0.021538233384490013,-10.644947052001953
1.7294952852799987e+18,-0.012904385104775429,0.036094047129154205,-10.561738014221191
1.729495285288999e+18,-0.0063157095573842525,0.04213956743478775,-10.644828796386719
1.729495285297999e+18,0.0049395184032619,-0.0436372235417366,-10.619292259216309
1.7294952853069993e+18,0.007695918902754784,0.03290238231420517,-10.564352989196777
1.7294952853129994e+18,0.011368117295205593,-0.01365862600505352,-10.619000434875488
1.7294952853219996e+18,0.004390059504657984,-0.0354553684592247,-10.660902976989746
1.7294952853309998e+18,-0.05645568668842316,0.0018139865715056658,-10.626989364624023
1.72949528534e+18,0.025345787405967712,0.022213837131857872,-10.668163299560547
1.7294952853490002e+18,0.04504653438925743,0.01731666550040245,-10.554730415344238
1.7294952853580004e+18,-0.0418083555996418,0.04999714344739914,-10.582856178283691
1.7294952853670006e+18,0.020991086959838867,-0.015092253684997559,-10.564558982849121
1.7294952853760008e+18,0.018391486257314682,-0.03535746783018112,-10.603439331054688
1.729495285385001e+18,-0.058347005397081375,-0.0433206707239151,-10.593352317810059
1.7294952853940012e+18,0.045279767364263535,0.08603326231241226,-10.563980102539062
1.7294952854000013e+18,-0.04031156376004219,-0.010416045784950256,-10.597208023071289
1.7294952854090015e+18,0.06600967049598694,0.026047969236969948,-10.538939476013184
1.7294952854180017e+18,0.03182358294725418,-0.018719643354415894,-10.571268081665039
1.7294952854270019e+18,0.02229250594973564,-0.08033290505409241,-10.636502265930176
1.729495285436002e+18,0.029975727200508118,0.02892942540347576,-10.574993133544922
1.7294952854450022e+18,0.04664931073784828,0.04061001166701317,-10.502876281738281
1.7294952854540024e+18,-0.05631188675761223,0.07602525502443314,-10.612709045410156
1.7294952854630026e+18,0.01614275760948658,-0.007753583136945963,-10.671648979187012
1.7294952854690028e+18,0.02107013575732708,0.01597827672958374,-10.576648712158203
1.729495285478003e+18,0.060862209647893906,-0.014169450849294662,-10.612136840820312
1.7294952854870031e+18,-0.05444552004337311,0.00039504270534962416,-10.538220405578613
1.7294952854930033e+18,0.011579124256968498,-0.0033790026791393757,-10.656562805175781
1.7294952855020035e+18,-0.06185896694660187,0.016906872391700745,-10.641074180603027
1.7294952855110036e+18,0.0030344815459102392,0.1534205824136734,-10.599987030029297
1.7294952855200038e+18,-0.038978319615125656,0.023523608222603798,-10.53322982788086
1.729495285529004e+18,0.06964944303035736,0.019130827859044075,-10.642388343811035
1.7294952855350042e+18,0.026253996416926384,0.01555630937218666,-10.530866622924805
1.7294952855440044e+18,0.010570472106337547,-0.043486110866069794,-10.554523468017578
1.7294952855530045e+18,0.03071685880422592,-0.005458349362015724,-10.574783325195312
1.7294952855590047e+18,-0.0019379942677915096,-0.1195368617773056,-10.625561714172363
1.7294952855680049e+18,-0.028099773451685905,-0.05085374042391777,-10.602316856384277
1.729495285577005e+18,-0.06529664248228073,-0.04948318749666214,-10.594986915588379
1.7294952855860052e+18,0.006664055399596691,-0.07820223271846771,-10.557933807373047
1.7294952855950054e+18,-0.07681861519813538,-0.028116801753640175,-10.525871276855469
1.7294952856040056e+18,-0.05129775032401085,-0.038720812648534775,-10.571810722351074
1.7294952856130058e+18,0.03154505789279938,0.040656883269548416,-10.489402770996094
1.729495285619006e+18,-0.052777282893657684,0.004985429346561432,-10.610078811645508
1.7294952856280061e+18,0.012597437016665936,-0.016709938645362854,-10.646510124206543
1.7294952856370063e+18,0.039062902331352234,-0.06052964925765991,-10.51730728149414
1.7294952856460065e+18,0.04358600080013275,0.014916274696588516,-10.601051330566406
1.7294952856520067e+18,-0.022491006180644035,0.06602606922388077,-10.518295288085938
1.7294952856610068e+18,0.0110434889793396,-0.0178797896951437,-10.569304466247559
1.729495285673007e+18,-0.010438112542033195,0.009608268737792969,-10.587767601013184
1.7294952856790072e+18,-0.027239996939897537,0.0011943619465455413,-10.481269836425781
1.7294952856880074e+18,0.013797749765217304,0.020448487251996994,-10.530747413635254
1.7294952856970076e+18,0.04659973457455635,-0.07896897941827774,-10.53738021850586
1.7294952857060078e+18,0.06190453842282295,-0.06015739217400551,-10.556967735290527
1.729495285715008e+18,-0.06727077066898346,-0.0037720014806836843,-10.546067237854004
1.7294952857240082e+18,-0.01277465932071209,-0.015575721859931946,-10.538919448852539
1.7294952857300083e+18,0.0197854395955801,-0.04666785150766373,-10.561208724975586
1.7294952857390085e+18,-0.03755640983581543,0.018357019871473312,-10.534313201904297
1.7294952857480087e+18,-0.05302489176392555,0.019733263179659843,-10.61718463897705
1.7294952857540088e+18,-0.06228680908679962,0.007700283080339432,-10.521059036254883
1.729495285763009e+18,0.06142326816916466,-0.0007429434917867184,-10.57186222076416
1.7294952857720092e+18,-0.006829080171883106,0.07232251018285751,-10.55960750579834
1.7294952857810094e+18,0.08528195321559906,0.021833373233675957,-10.536722183227539
1.7294952857870095e+18,-0.03683236613869667,-0.005460721906274557,-10.543554306030273
1.7294952857960097e+18,-0.006987866945564747,-0.03265097364783287,-10.552379608154297
1.72949528580501e+18,-0.03818729147315025,-0.029308080673217773,-10.572186470031738
1.72949528581101e+18,-0.037441689521074295,-0.0033386629074811935,-10.622793197631836
1.7294952858200102e+18,-0.03939645364880562,-0.05270279198884964,-10.46354866027832
1.7294952858290104e+18,0.0267958827316761,-0.05203678458929062,-10.58321762084961
1.7294952858350106e+18,-0.004322098568081856,-0.005649625323712826,-10.463361740112305
1.7294952858440108e+18,-0.003504422726109624,0.026019927114248276,-10.526270866394043
1.729495285853011e+18,-0.038842037320137024,-0.004204161465167999,-10.441762924194336
1.7294952858620111e+18,-0.04632456600666046,-0.05497584491968155,-10.416891098022461
1.7294952858710113e+18,-0.014189567416906357,0.06633682548999786,-10.452390670776367
1.7294952858800115e+18,0.0030713260639458895,-0.07762562483549118,-10.331915855407715
1.7294952858890117e+18,0.02849610336124897,0.06028367206454277,-10.380166053771973
1.729495285898012e+18,0.01218748465180397,0.002367347478866577,-10.350128173828125
1.729495285907012e+18,-0.014154774136841297,-0.05216236785054207,-10.292823791503906
1.7294952859160123e+18,-0.0007592808688059449,-0.08799152076244354,-10.236586570739746
1.7294952859250125e+18,0.0044375257566571236,0.01894310489296913,-10.26586627960205
1.7294952859310126e+18,-0.00015049631474539638,0.011088704690337181,-10.214376449584961
1.7294952859400128e+18,0.02871759608387947,-0.015709931030869484,-10.165698051452637
1.729495285949013e+18,-0.003381237154826522,0.05890539661049843,-10.22806167602539
1.7294952859580132e+18,-0.003866579383611679,-0.038694337010383606,-10.097426414489746
1.7294952859670134e+18,0.01403812039643526,0.0323907770216465,-10.118706703186035
1.7294952859760136e+18,0.04276522621512413,-0.060488563030958176,-10.082508087158203
1.7294952859850138e+18,-0.12605881690979004,0.01861875131726265,-10.073474884033203
1.729495285994014e+18,-0.04714871942996979,0.005811425857245922,-9.990519523620605
1.7294952860030141e+18,-0.04291931167244911,-0.05142192170023918,-10.071294784545898
1.7294952860120143e+18,-0.0030557126738131046,-0.038601502776145935,-9.926671028137207
1.7294952860210145e+18,-0.044692110270261765,-0.00582756707444787,-9.96032428741455
1.7294952860300147e+18,0.02430029772222042,0.019424736499786377,-9.922260284423828
1.729495286039015e+18,-0.05359302833676338,-0.040451597422361374,-9.906388282775879
1.729495286048015e+18,0.09764770418405533,0.005146255251020193,-9.79875659942627
1.7294952860570153e+18,-0.012461945414543152,0.003493893425911665,-9.844738960266113
1.7294952860690156e+18,0.023397833108901978,-0.038149621337652206,-9.755176544189453
1.7294952860780157e+18,-0.00950375385582447,0.013259852305054665,-9.837864875793457
1.729495286087016e+18,0.025255179032683372,-0.06623239815235138,-9.679327011108398
1.7294952860960161e+18,-0.034624408930540085,0.049561455845832825,-9.702219009399414
1.7294952861080164e+18,-0.040435146540403366,0.0034427500795572996,-9.679163932800293
1.7294952861170166e+18,0.0008880437817424536,-0.032427337020635605,-9.678292274475098
1.7294952861260168e+18,-0.06113114207983017,0.035286955535411835,-9.680039405822754
1.729495286135017e+18,0.005774255841970444,0.022883368656039238,-9.737074851989746
1.7294952861470172e+18,-0.05978919193148613,0.024465225636959076,-9.622953414916992
1.7294952861560174e+18,0.033418554812669754,0.004982305224984884,-9.632651329040527
1.7294952861650176e+18,-0.038623981177806854,0.01036103069782257,-9.634149551391602
1.7294952861740178e+18,-0.009913508780300617,-0.07176820933818817,-9.746362686157227
1.729495286183018e+18,-0.041968073695898056,-0.003124159760773182,-9.660537719726562
1.729495286189018e+18,0.002022873843088746,-0.044778838753700256,-9.637697219848633
1.7294952861980183e+18,0.009880736470222473,0.0317465141415596,-9.681343078613281
1.7294952862070185e+18,-0.04737253114581108,0.023783061653375626,-9.67600154876709
1.7294952862130186e+18,-0.0019452045671641827,-0.06016075983643532,-9.68459415435791
1.7294952862220188e+18,-0.030699877068400383,-0.034781329333782196,-9.6700439453125
1.729495286228019e+18,0.024500444531440735,0.06228499487042427,-9.724995613098145
1.7294952862370191e+18,-0.03958284854888916,-0.020215226337313652,-9.66591739654541
1.7294952862460193e+18,-0.02758026495575905,0.057758212089538574,-9.734722137451172
1.7294952862520195e+18,0.06643648445606232,-0.058410532772541046,-9.631692886352539
1.7294952862610196e+18,-0.09296831488609314,0.09959517419338226,-9.746935844421387
1.7294952862700198e+18,-0.02819695509970188,0.05488855391740799,-9.734646797180176
1.72949528627902e+18,-0.040279634296894073,0.017626991495490074,-9.707164764404297
1.7294952862880202e+18,0.046394236385822296,-0.007041843608021736,-9.704155921936035
1.7294952862970204e+18,-0.05510079115629196,-0.04438679665327072,-9.625261306762695
1.7294952863030205e+18,0.033918336033821106,0.03587217628955841,-9.7124605178833
1.7294952863120207e+18,-0.036609504371881485,0.022038884460926056,-9.654921531677246
1.729495286321021e+18,-0.06851132214069366,-0.030362922698259354,-9.657730102539062
1.729495286330021e+18,0.006081855855882168,0.004836998414248228,-9.708061218261719
1.7294952863390213e+18,0.09320223331451416,0.03148716688156128,-9.692878723144531
1.7294952863450214e+18,0.059729915112257004,-0.02963452972471714,-9.710007667541504
1.7294952863540216e+18,-0.026688333600759506,0.03515975922346115,-9.777036666870117
1.7294952863630218e+18,-0.0409093052148819,-0.0425846092402935,-9.723878860473633
1.729495286372022e+18,-0.005531310103833675,0.01930220052599907,-9.66504955291748
1.7294952863780221e+18,-0.017891963943839073,-0.03246521204710007,-9.596717834472656
1.7294952863870223e+18,-0.012181051075458527,0.0723557099699974,-9.77957820892334
1.7294952863960225e+18,0.06494269520044327,-0.00964020099490881,-9.613051414489746
1.7294952864050227e+18,-0.06557256728410721,0.04418206587433815,-9.591699600219727
1.729495286414023e+18,0.03156394511461258,0.018944954499602318,-9.755077362060547
1.729495286423023e+18,0.022212551906704903,-0.040230125188827515,-9.631994247436523
1.7294952864290232e+18,-0.08018209785223007,0.04098769649863243,-9.603497505187988
1.7294952864380234e+18,0.011151697486639023,-0.04121449217200279,-9.653509140014648
1.7294952864470236e+18,-0.02247960865497589,0.05289049446582794,-9.67857551574707
1.7294952864560238e+18,-0.012040458619594574,-0.043880827724933624,-9.651253700256348
1.729495286465024e+18,0.020814482122659683,-0.05729794502258301,-9.59294605255127
1.7294952864740242e+18,-0.005514480173587799,-0.03147134184837341,-9.622456550598145
1.7294952864830244e+18,-0.07033172249794006,-0.041464775800704956,-9.61290168762207
1.7294952864920246e+18,0.005728819407522678,0.00718248775228858,-9.602378845214844
1.7294952865010248e+18,-0.04368213564157486,0.07544583827257156,-9.645831108093262
1.729495286510025e+18,0.01652173325419426,0.036637041717767715,-9.586688995361328
1.7294952865190252e+18,0.06115030497312546,8.808652637526393e-05,-9.635520935058594
1.7294952865280253e+18,-0.03811214864253998,0.003097987500950694,-9.62338638305664
1.7294952865370255e+18,-0.06485801935195923,0.015344168990850449,-9.597466468811035
1.7294952865460257e+18,0.008172579109668732,0.04054846614599228,-9.627583503723145
1.729495286555026e+18,-0.023339059203863144,-0.007915716618299484,-9.60285472869873
1.729495286564026e+18,-0.008506298996508121,-0.05145291984081268,-9.51717758178711
1.7294952865730263e+18,-0.03293003514409065,0.046596989035606384,-9.583038330078125
1.7294952865820265e+18,-0.01942393183708191,-0.08162285387516022,-9.588509559631348
1.7294952865880266e+18,-0.011770516633987427,0.021185308694839478,-9.623696327209473
1.7294952865970268e+18,0.05251901224255562,0.04717252030968666,-9.652639389038086
1.729495286606027e+18,0.017623284831643105,0.010071637108922005,-9.575955390930176
1.7294952866150272e+18,-0.0511905662715435,0.014672034420073032,-9.538128852844238
1.7294952866240274e+18,-0.04087197780609131,-0.019392136484384537,-9.58276653289795
1.7294952866330276e+18,0.007260832004249096,-0.06330369412899017,-9.65352725982666
1.7294952866390277e+18,-0.02750418148934841,0.05136003717780113,-9.603797912597656
1.729495286648028e+18,-0.07017196714878082,-0.09329211711883545,-9.573212623596191
1.729495286657028e+18,-0.016346964985132217,-0.012449483387172222,-9.559149742126465
1.7294952866660283e+18,0.052104849368333817,-0.03730818256735802,-9.552045822143555
1.7294952866750285e+18,0.02914121001958847,-0.10903473198413849,-9.625155448913574
1.7294952866840287e+18,-0.019932445138692856,-0.09665950387716293,-9.636422157287598
1.7294952866930289e+18,0.01826137863099575,-0.02979755774140358,-9.585947036743164
1.729495286702029e+18,-0.016458660364151,0.06473756581544876,-9.560429573059082
1.7294952867110292e+18,0.01221248134970665,-0.038763370364904404,-9.58504581451416
1.7294952867200294e+18,-0.00688260467723012,-0.024059154093265533,-9.555849075317383
1.7294952867290296e+18,-0.02504853904247284,-0.012593258172273636,-9.535174369812012
1.7294952867380298e+18,0.025988467037677765,0.012886561453342438,-9.497041702270508
1.72949528674703e+18,-0.055941391736269,0.017459820955991745,-9.541757583618164
1.7294952867560302e+18,0.018728088587522507,0.011540014296770096,-9.507169723510742
1.7294952867650304e+18,0.011790309101343155,-0.07360870391130447,-9.469653129577637
1.7294952867740306e+18,0.0301906056702137,-0.039286352694034576,-9.53291130065918
1.7294952867830308e+18,0.007958587259054184,-0.035901304334402084,-9.480446815490723
1.729495286792031e+18,-0.008291498757898808,0.011923931539058685,-9.605077743530273
1.7294952868010312e+18,0.0034251066390424967,0.036322396248579025,-9.53927993774414
1.7294952868100314e+18,-0.0375073179602623,0.02210855856537819,-9.601208686828613
1.7294952868160315e+18,0.03636334463953972,0.03124111518263817,-9.4960355758667
1.7294952868250317e+18,0.049655333161354065,-0.03675832971930504,-9.458083152770996
1.7294952868340319e+18,-0.09087398648262024,0.007076503708958626,-9.492409706115723
1.729495286843032e+18,0.059805549681186676,-0.014001196250319481,-9.52914810180664
1.7294952868520323e+18,-0.013822811655700207,0.010726002044975758,-9.4692964553833
1.7294952868610324e+18,-0.04068354517221451,0.021520448848605156,-9.525686264038086
1.7294952868700326e+18,-0.0023267026990652084,-0.03514768183231354,-9.49700927734375
1.7294952868790328e+18,-0.021394532173871994,0.001783090177923441,-9.51225757598877
1.729495286888033e+18,-0.023070532828569412,-0.0019734916277229786,-9.502010345458984
1.7294952868970332e+18,-0.029272902756929398,-0.025404145941138268,-9.53699779510498
1.7294952869060334e+18,-0.03489356115460396,-0.0032515982165932655,-9.499940872192383
1.7294952869150336e+18,0.04047330468893051,0.07211806625127792,-9.555011749267578
1.7294952869240338e+18,-0.023505980148911476,-0.04614677652716637,-9.497775077819824
1.729495286933034e+18,-0.014328993856906891,0.01069764792919159,-9.518885612487793
1.7294952869420342e+18,0.02687564119696617,0.018417464569211006,-9.52056884765625
1.7294952869510344e+18,-0.007528758607804775,0.006161748897284269,-9.497955322265625
1.7294952869600346e+18,0.005804842803627253,-0.05664953216910362,-9.473329544067383
1.7294952869690348e+18,-0.02768358215689659,-0.003527418477460742,-9.542616844177246
1.729495286978035e+18,0.01520463079214096,0.014660620130598545,-9.549880027770996
1.7294952869870351e+18,-0.028920788317918777,-0.036948032677173615,-9.591543197631836
1.7294952869960353e+18,0.011443468742072582,-0.02357991598546505,-9.472847938537598
1.7294952870050355e+18,-0.011765735223889351,0.08398591727018356,-9.504644393920898
1.7294952870140357e+18,-0.012831813655793667,-0.02881205640733242,-9.452872276306152
1.729495287023036e+18,0.06977206468582153,-0.021164139732718468,-9.49025821685791
1.729495287032036e+18,0.03137464448809624,0.0737476497888565,-9.537463188171387
1.7294952870410363e+18,0.06951295584440231,0.04030044376850128,-9.511321067810059
1.7294952870530365e+18,-0.025050420314073563,-0.04077233374118805,-9.479146957397461
1.7294952870620367e+18,-0.05710878223180771,0.052625544369220734,-9.518200874328613
1.729495287071037e+18,-0.012421035207808018,0.02432606928050518,-9.404569625854492
1.729495287080037e+18,0.017449192702770233,0.007530572824180126,-9.502220153808594
1.7294952870890373e+18,-0.011552792973816395,-0.04298326373100281,-9.554363250732422
1.7294952870980375e+18,0.004342116415500641,0.0624852329492569,-9.50264835357666
1.7294952871070377e+18,-0.03032178431749344,0.0593092180788517,-9.458516120910645
1.7294952871130378e+18,-0.04002051055431366,0.012265021912753582,-9.473091125488281
1.729495287122038e+18,-0.019374307245016098,0.011513128876686096,-9.462039947509766
1.7294952871310382e+18,-0.027941925451159477,-0.05794151499867439,-9.535521507263184
1.7294952871400384e+18,-0.026544786989688873,0.009398878552019596,-9.436628341674805
1.7294952871460385e+18,0.00034543301444500685,0.00838005356490612,-9.513279914855957
1.7294952871550387e+18,-0.020063189789652824,-0.07996933907270432,-9.467994689941406
1.729495287164039e+18,0.07662805169820786,0.0055564697831869125,-9.494117736816406
1.729495287173039e+18,-0.014099243097007275,-0.06513674557209015,-9.498068809509277
1.7294952871820393e+18,0.01607314683496952,0.02317613922059536,-9.447806358337402
1.7294952871910395e+18,-0.011192746460437775,-0.03612736985087395,-9.503059387207031
1.7294952872000397e+18,-0.07042067497968674,-0.020029757171869278,-9.535493850708008
1.7294952872060398e+18,-0.009008805267512798,0.07802114635705948,-9.469133377075195
1.72949528721504e+18,0.005896672140806913,-0.08768273144960403,-9.463238716125488
1.7294952872240402e+18,0.021881790831685066,0.003902179654687643,-9.409204483032227
1.7294952872330404e+18,-0.046464648097753525,-0.007652269210666418,-9.443511009216309
1.7294952872390405e+18,-0.05111156776547432,-0.0142165906727314,-9.570778846740723
1.7294952872480407e+18,0.04425857961177826,-0.08685320615768433,-9.485492706298828
1.729495287257041e+18,-0.05572785064578056,0.022653669118881226,-9.460409164428711
1.729495287266041e+18,-0.05914800241589546,-0.024992672726511955,-9.510411262512207
1.7294952872720412e+18,-0.03563132509589195,-0.0243317149579525,-9.48146915435791
1.7294952872810414e+18,0.03802017867565155,-0.009629571810364723,-9.397831916809082
1.7294952872900416e+18,0.028830869123339653,0.03343692421913147,-9.500574111938477
1.7294952872990418e+18,-0.001549284323118627,0.05288174748420715,-9.429605484008789
1.729495287308042e+18,0.04326450079679489,0.05097641795873642,-9.433284759521484
1.729495287314042e+18,-0.026111498475074768,0.01407644897699356,-9.468124389648438
1.7294952873230423e+18,-0.0009213360026478767,0.00154774053953588,-9.41030216217041
1.7294952873320425e+18,-0.026801904663443565,-0.08703530579805374,-9.421236038208008
1.7294952873380426e+18,0.03688877820968628,-0.014667878858745098,-9.388216018676758
1.7294952873470428e+18,-0.06650038063526154,-0.06899888068437576,-9.453784942626953
1.729495287356043e+18,-0.06922424584627151,-0.0058607067912817,-9.510047912597656
1.7294952873650432e+18,0.04059021174907684,0.01183328963816166,-9.477249145507812
1.7294952873740434e+18,0.12508593499660492,0.0202485378831625,-9.462273597717285
1.7294952873800435e+18,0.031536001712083817,-0.01151687279343605,-9.46246337890625
1.7294952873890437e+18,-0.010321613401174545,-0.04107782617211342,-9.586124420166016
1.729495287398044e+18,-0.008052858524024487,0.012344161048531532,-9.421460151672363
1.729495287407044e+18,-0.0037130138371139765,0.0971088707447052,-9.518173217773438
1.7294952874160443e+18,0.06431572884321213,-0.08075999468564987,-9.535584449768066
1.7294952874250445e+18,0.0003987197997048497,0.0016812094254419208,-9.394590377807617
1.7294952874310446e+18,-0.0316549688577652,0.008400936610996723,-9.43209171295166
1.7294952874400448e+18,-0.014835839159786701,-0.0204811692237854,-9.468815803527832
1.729495287449045e+18,0.05688239634037018,-0.03186666592955589,-9.443960189819336
1.7294952874580452e+18,-0.0691189169883728,0.004421114455908537,-9.447665214538574
1.7294952874670454e+18,-0.06633909791707993,-0.03706715255975723,-9.354936599731445
1.7294952874760456e+18,0.026644036173820496,-0.06804335862398148,-9.437453269958496
1.7294952874820457e+18,-0.0059095723554492,-0.006790798623114824,-9.356754302978516
1.729495287494046e+18,-0.010782873257994652,0.06809838116168976,-9.422141075134277
1.729495287500046e+18,-0.001973589649423957,0.0413094125688076,-9.39721965789795
1.7294952875090463e+18,-0.011863075196743011,0.01903497986495495,-9.497631072998047
1.7294952875180465e+18,-0.04551937058568001,0.01900588907301426,-9.443336486816406
1.7294952875270467e+18,0.010852368548512459,0.021189413964748383,-9.386946678161621
1.7294952875360468e+18,0.0894361138343811,0.027458252385258675,-9.364289283752441
1.729495287545047e+18,-0.005045722704380751,0.023613229393959045,-9.46635913848877
1.7294952875540472e+18,-0.02103506587445736,0.017899969592690468,-9.372648239135742
1.7294952875630474e+18,0.011584476567804813,-0.04096877947449684,-9.367568016052246
1.7294952875720476e+18,-0.04779595509171486,0.009362718090415001,-9.418522834777832
1.7294952875810478e+18,0.11558853834867477,0.04580293595790863,-9.323006629943848
1.729495287590048e+18,-0.00767344469204545,-0.03480513021349907,-9.350541114807129
1.7294952875990482e+18,-0.04054683819413185,0.051335182040929794,-9.272100448608398
1.7294952876080484e+18,0.03814677894115448,-0.04881412535905838,-9.289700508117676
1.7294952876170486e+18,-0.07198256999254227,-0.03636191785335541,-9.22132682800293
1.7294952876260488e+18,0.11886191368103027,-0.023877404630184174,-9.22036075592041
1.729495287635049e+18,-0.016163716092705727,-0.015752390027046204,-9.19046688079834
1.7294952876440492e+18,0.025956377387046814,0.030336588621139526,-9.252315521240234
1.7294952876530493e+18,0.026270557194948196,-0.01579921506345272,-9.01616382598877
1.7294952876620495e+18,-0.058983124792575836,0.0022364421747624874,-9.134981155395508
1.7294952876710497e+18,-0.01457739807665348,-0.029434483498334885,-9.114760398864746
1.72949528768005e+18,0.03326309844851494,0.028038782998919487,-8.991947174072266
1.72949528768905e+18,0.02787686325609684,0.04938429966568947,-9.097469329833984
1.7294952876980503e+18,3.112107515335083e-05,-0.004727740306407213,-9.057276725769043
1.7294952877070505e+18,0.022220458835363388,-0.03372834622859955,-8.950448036193848
1.7294952877160507e+18,-0.04033331945538521,0.029722267761826515,-8.892406463623047
1.7294952877220508e+18,-0.014433532953262329,-0.06583541631698608,-8.932952880859375
1.729495287731051e+18,0.061210256069898605,0.05340498313307762,-8.897185325622559
1.7294952877400512e+18,-0.06321661174297333,0.04592148959636688,-8.799212455749512
1.7294952877490514e+18,-0.037884488701820374,0.042970672249794006,-8.83987045288086
1.7294952877580516e+18,-0.059969350695610046,-0.08316204696893692,-8.820771217346191
1.7294952877670518e+18,0.07815609127283096,-0.10085414350032806,-8.780340194702148
1.729495287776052e+18,-0.0009813441429287195,0.022964349016547203,-8.69139289855957
1.7294952877880522e+18,0.01906680129468441,-0.0051172152161598206,-8.706764221191406
1.7294952877970524e+18,-0.03347788751125336,0.018913572654128075,-8.696979522705078
1.7294952878060526e+18,0.02211713418364525,-0.030245905742049217,-8.673717498779297
1.7294952878150528e+18,0.07063037157058716,-0.024332847446203232,-8.611830711364746
1.729495287824053e+18,0.031047027558088303,-0.06403826922178268,-8.60822582244873
1.7294952878330532e+18,-0.013013336807489395,-0.051926642656326294,-8.674463272094727
1.7294952878420534e+18,-0.00894201546907425,0.010491428896784782,-8.648590087890625
1.7294952878510536e+18,0.012203920632600784,0.024694763123989105,-8.697660446166992
1.7294952878600538e+18,-0.02593294158577919,-0.018023960292339325,-8.666735649108887
1.729495287869054e+18,0.038769617676734924,0.07320140302181244,-8.641263961791992
1.7294952878780541e+18,0.01800212636590004,-0.0458206906914711,-8.669121742248535
1.7294952878870543e+18,-0.06482250243425369,-0.032397862523794174,-8.702223777770996
1.7294952878960545e+18,-0.04096971079707146,0.04603468254208565,-8.74049186706543
1.7294952879020547e+18,-0.04449142888188362,0.033446140587329865,-8.726696968078613
1.729495287914055e+18,-0.02090296894311905,-0.024272959679365158,-8.699639320373535
1.729495287923055e+18,0.02648111991584301,0.09761055558919907,-12.053374290466309
1.7294952879320553e+18,-0.019605794921517372,-0.0343971848487854,-15.553131103515625
1.7294952879410555e+18,-0.04450239613652229,0.0157704409211874,-16.1268310546875
1.7294952879500557e+18,-0.02681288868188858,-0.020221825689077377,-16.217105865478516
1.729495287959056e+18,-0.025063272565603256,0.10683713108301163,-16.242300033569336
1.729495287968056e+18,-0.03490019589662552,0.005121247842907906,-16.158916473388672
1.7294952879770563e+18,-0.10603790730237961,-0.0013254915829747915,-15.967777252197266
1.7294952879890565e+18,0.013192171230912209,-0.10529588162899017,-15.966354370117188
1.7294952879980567e+18,-0.013018328696489334,0.048515480011701584,-15.672608375549316
1.729495288007057e+18,0.012517454102635384,-0.03072270005941391,-15.675596237182617
1.729495288016057e+18,0.07833041995763779,0.008934502489864826,-15.406292915344238
1.7294952880250573e+18,-0.01393557246774435,0.06765498965978622,-15.302959442138672
1.7294952880370575e+18,-0.011301709339022636,0.0413426011800766,-15.217180252075195
1.7294952880460577e+18,0.002586178481578827,-0.026386186480522156,-15.045452117919922
1.729495288055058e+18,-0.00154287985060364,0.051919035613536835,-14.854952812194824
1.729495288064058e+18,0.051950592547655106,0.05637526884675026,-14.807247161865234
1.7294952880760584e+18,0.01064690388739109,0.06106860190629959,-14.578139305114746
1.7294952880850586e+18,-0.02684197947382927,0.03722292184829712,-14.509905815124512
1.7294952880940588e+18,0.04068344086408615,-0.03642391413450241,-14.427762985229492
1.729495288103059e+18,-0.0206629429012537,0.02085612714290619,-14.300422668457031
1.7294952881150592e+18,-0.018581755459308624,0.07329165190458298,-14.164910316467285
1.7294952881240594e+18,0.009392602369189262,0.0379415899515152,-14.008705139160156
1.7294952881330596e+18,0.013870947994291782,-0.0436023585498333,-13.923096656799316
1.7294952881450598e+18,-0.012099621817469597,0.015658486634492874,-13.810280799865723
1.72949528815406e+18,0.06257637590169907,0.027579184621572495,-13.727842330932617
1.7294952881630602e+18,-0.05310281738638878,0.060558170080184937,-13.57380199432373
1.7294952881750605e+18,-0.021283846348524094,0.009905208833515644,-13.466546058654785
1.7294952881840607e+18,0.0033498136326670647,-0.04696507379412651,-13.455972671508789
1.7294952881930609e+18,0.023699350655078888,-0.027273807674646378,-13.332975387573242
1.729495288202061e+18,0.08604684472084045,-0.0352611318230629,-13.193246841430664
1.7294952882140613e+18,-0.08037850260734558,-0.015125637874007225,-13.148239135742188
1.7294952882230615e+18,0.04554570093750954,-0.0075391726568341255,-13.037069320678711
1.7294952882320617e+18,-0.09773389995098114,0.03096332959830761,-12.986809730529785
1.729495288241062e+18,-0.013244722038507462,0.004732822068035603,-12.88127326965332
1.729495288250062e+18,-0.08303897082805634,-0.018290936946868896,-12.824125289916992
1.7294952882590623e+18,-0.055640317499637604,0.017421692609786987,-12.788301467895508
1.7294952882680625e+18,0.007611035834997892,-0.08712857961654663,-12.736807823181152
1.7294952882800627e+18,0.017534270882606506,0.015527872368693352,-12.634724617004395
1.729495288289063e+18,0.03350179269909859,-0.07131057977676392,-12.480422019958496
1.729495288298063e+18,-0.019946862012147903,-0.011398911476135254,-12.513087272644043
1.7294952883070633e+18,0.03676946461200714,-0.02600419521331787,-12.433149337768555
1.7294952883190636e+18,-0.06820527464151382,-0.0259933453053236,-12.329275131225586
1.7294952883280637e+18,-0.00435763131827116,0.024256229400634766,-12.222990989685059
1.729495288337064e+18,-0.010590730234980583,-0.01668594218790531,-12.253271102905273
1.7294952883460641e+18,0.044814955443143845,0.006099035032093525,-12.14593505859375
1.7294952883550643e+18,-0.037225816398859024,-0.07143616676330566,-12.17648696899414
1.7294952883670646e+18,-0.03302127867937088,0.06001872569322586,-12.072291374206543
1.7294952883760648e+18,0.005360114388167858,0.013902377337217331,-12.057185173034668
1.729495288388065e+18,-0.0010359790176153183,-0.04429740831255913,-11.908248901367188
1.7294952884000653e+18,-0.043608762323856354,-0.04802209883928299,-11.876472473144531
1.7294952884090655e+18,0.009082943201065063,-0.05019621551036835,-11.81926155090332
1.7294952884180657e+18,-0.016890879720449448,-0.03315921127796173,-11.810612678527832
1.729495288430066e+18,-0.05564974620938301,-0.014201337471604347,-11.76182746887207
1.729495288439066e+18,-0.07730812579393387,0.043324410915374756,-11.722982406616211
1.7294952884510664e+18,0.04153801500797272,-0.03186340257525444,-11.604382514953613
1.7294952884630666e+18,-0.02803063578903675,-0.035140492022037506,-11.541606903076172
1.729495288475067e+18,-0.03523259609937668,0.10223923623561859,-11.524310111999512
1.729495288484067e+18,0.0038048001006245613,-0.0028067738749086857,-11.471696853637695
1.7294952884960673e+18,-0.04077443480491638,0.00010481680510565639,-11.41526985168457
1.7294952885050675e+18,0.13629545271396637,0.06964825838804245,-11.345698356628418
1.7294952885170678e+18,-0.03860180824995041,-0.01982111670076847,-11.35779094696045
1.729495288526068e+18,-0.025659125298261642,0.1165611520409584,-11.32845687866211
1.7294952885380682e+18,0.0068376692943274975,0.02704448625445366,-11.309510231018066
1.7294952885500685e+18,0.005193022545427084,0.07224815338850021,-11.288363456726074
1.7294952885590687e+18,0.0387527234852314,0.020624130964279175,-11.216702461242676
1.729495288571069e+18,0.005875188857316971,0.09009162336587906,-11.205245971679688
1.729495288580069e+18,0.058536991477012634,0.010183659382164478,-11.128925323486328
1.7294952885890693e+18,0.009986981749534607,-0.01643972098827362,-11.143500328063965
1.7294952885980695e+18,-0.03325291723012924,0.011895696632564068,-11.131515502929688
1.7294952886100698e+18,0.04990633204579353,-0.01592504233121872,-11.083155632019043
1.72949528861907e+18,0.03395739570260048,0.03598188981413841,-11.1340913772583
1.7294952886310702e+18,-0.03775981441140175,0.0029722643084824085,-11.04331111907959
1.7294952886400704e+18,-0.03516478091478348,-0.025657586753368378,-11.031304359436035
1.7294952886490706e+18,-0.04815453290939331,-0.09016025066375732,-10.93114185333252
1.7294952886580708e+18,-0.039765674620866776,-0.027964401990175247,-10.886975288391113
1.729495288667071e+18,0.004044732078909874,-0.07612886279821396,-10.862326622009277
1.7294952886790712e+18,-0.06816648691892624,0.008081184700131416,-10.891074180603027
1.7294952886880714e+18,0.03853355348110199,0.039615027606487274,-10.83952808380127
1.7294952886970716e+18,-0.020920375362038612,0.03186797350645065,-10.839936256408691
1.729495288709072e+18,0.022272499278187752,0.043356526643037796,-10.79619026184082
1.729495288718072e+18,0.005049253348261118,-0.07354864478111267,-10.813097953796387
1.7294952887270723e+18,-0.02916606143116951,-0.054017357528209686,-10.723366737365723
1.7294952887360724e+18,0.07292954623699188,0.0216435045003891,-10.718955039978027
1.7294952887450726e+18,-0.02872837893664837,-0.007300199940800667,-10.67215347290039
1.729495288757073e+18,-0.13864655792713165,0.009344796650111675,-10.582655906677246
1.729495288766073e+18,0.013890563510358334,-0.02330433949828148,-10.700173377990723
1.7294952887750733e+18,0.018623925745487213,0.10152329504489899,-10.668960571289062
1.7294952887870735e+18,-0.023272760212421417,-0.03666864335536957,-10.652872085571289
1.7294952887960737e+18,0.05785750225186348,0.0486588291823864,-10.661860466003418
1.729495288805074e+18,0.0034236786887049675,0.05536128580570221,-10.59943675994873
1.7294952888170742e+18,-0.019133787602186203,-0.02472003363072872,-10.561932563781738
1.7294952888260744e+18,0.022277815267443657,-0.02728244476020336,-10.57021713256836
1.7294952888350746e+18,-0.01550611387938261,0.025221187621355057,-10.481616973876953
1.7294952888470748e+18,0.1062375083565712,-0.03225789964199066,-10.50358772277832
1.729495288856075e+18,-0.05315154045820236,0.03739789128303528,-10.540719032287598
1.7294952888650752e+18,0.05441465973854065,-0.04653432220220566,-10.452679634094238
1.7294952888770755e+18,0.00011940667172893882,-0.09714175760746002,-10.454741477966309
1.7294952888860756e+18,0.033550575375556946,0.09430127590894699,-10.45949649810791
1.7294952888950758e+18,-0.02289941906929016,-0.10827115923166275,-10.387784004211426
1.729495288904076e+18,-0.05980881676077843,0.07617661356925964,-10.340255737304688
1.7294952889160763e+18,0.03250321373343468,0.033606838434934616,-10.394803047180176
1.7294952889250765e+18,0.011478470638394356,-0.07175949215888977,-10.413752555847168
1.7294952889340767e+18,0.05074217915534973,0.05195556953549385,-10.293427467346191
1.7294952889430769e+18,0.042586322873830795,0.05563626438379288,-10.304522514343262
1.729495288952077e+18,0.005972403101623058,-0.04616580158472061,-10.250258445739746
1.7294952889640773e+18,0.009516988880932331,0.026150111109018326,-10.283946990966797
1.7294952889730775e+18,-0.01937410794198513,-0.013098406605422497,-10.280686378479004
1.7294952889820777e+18,0.08848147094249725,-0.05825794115662575,-10.301691055297852
1.729495288994078e+18,-0.0027510314248502254,0.02997632697224617,-10.287306785583496
1.7294952890030781e+18,0.11278467625379562,-0.050529830157756805,-10.309957504272461
1.7294952890120783e+18,-0.06237105280160904,-0.018757009878754616,-10.191400527954102
1.7294952890210785e+18,-0.06846913695335388,0.12206283956766129,-10.21973991394043
1.7294952890300787e+18,-0.058421991765499115,0.09491027891635895,-10.22542667388916
1.729495289039079e+18,-0.033574022352695465,0.015078555792570114,-10.212625503540039
1.729495289048079e+18,-0.04673447459936142,0.03926386684179306,-10.1513090133667
1.7294952890600794e+18,-0.014469940215349197,-0.04507562518119812,-10.29829216003418
1.7294952890690796e+18,0.0011557930847629905,0.014522147364914417,-10.156786918640137
1.7294952890780797e+18,-0.007140766363590956,-0.020435186102986336,-10.126069068908691
1.72949528909008e+18,0.032867562025785446,0.04906105250120163,-10.119091987609863
1.7294952890990802e+18,0.020895138382911682,-0.011732015758752823,-10.127435684204102
1.7294952891110804e+18,-0.05459348484873772,0.04308705776929855,-10.030848503112793
1.7294952891200806e+18,0.05735638365149498,-0.05065643787384033,-10.170979499816895
1.729495289132081e+18,-0.01781456172466278,0.004865320399403572,-10.108128547668457
1.729495289141081e+18,-0.06817974895238876,-0.030869873240590096,-10.148117065429688
1.7294952891500813e+18,-0.0034034247510135174,0.027391856536269188,-10.054376602172852
1.7294952891590815e+18,0.011090568266808987,0.04704936221241951,-10.047861099243164
1.7294952891680817e+18,-0.013119368813931942,0.015088777989149094,-10.055163383483887
1.7294952891770819e+18,-0.07036899775266647,0.018791377544403076,-10.04509449005127
1.729495289186082e+18,0.03529953956604004,-0.024908101186156273,-10.066256523132324
1.7294952891950822e+18,-0.007709352299571037,-0.01369748916476965,-9.984314918518066
1.7294952892070825e+18,-0.04092317074537277,-0.010705096647143364,-10.072721481323242
1.7294952892160827e+18,0.05990936607122421,0.002395067596808076,-10.058439254760742
1.729495289225083e+18,-0.04842744395136833,-0.015802836045622826,-10.025941848754883
1.729495289234083e+18,-0.02689574845135212,-0.031118353828787804,-10.000669479370117
1.7294952892460833e+18,-0.10394269227981567,0.008710108697414398,-10.079270362854004
1.7294952892550835e+18,0.043678805232048035,-0.008416280150413513,-9.956790924072266
1.7294952892640837e+18,-0.00966072641313076,-0.006173721048980951,-9.98294448852539
1.7294952892700838e+18,0.0032508857548236847,0.0015843143919482827,-10.02191162109375
1.729495289279084e+18,0.020280705764889717,0.06659287959337234,-10.055033683776855
1.7294952892910843e+18,0.010259472765028477,-0.05711355432868004,-9.94395637512207
1.7294952893000845e+18,-0.07056070864200592,0.014139712788164616,-10.039198875427246
1.7294952893090847e+18,0.04110816493630409,0.04823155701160431,-9.90934944152832
1.7294952893180849e+18,-0.04031462222337723,0.020567581057548523,-10.028671264648438
1.729495289330085e+18,-0.06954584270715714,-0.012730706483125687,-9.921475410461426
1.7294952893390853e+18,-0.028399646282196045,0.03992873430252075,-9.972877502441406
1.7294952893480855e+18,-0.04207517206668854,0.060624636709690094,-9.906661987304688
1.7294952893570857e+18,-0.03839344158768654,0.031604718416929245,-9.932439804077148
1.729495289366086e+18,-0.03747180849313736,0.023747291415929794,-9.897710800170898
1.729495289375086e+18,-0.052000343799591064,-0.08940905332565308,-9.885053634643555
1.7294952893840863e+18,-0.0033760732039809227,0.019201429560780525,-9.938231468200684
1.7294952893960865e+18,0.02364015206694603,0.005104320123791695,-9.942761421203613
1.7294952894050867e+18,0.08038069307804108,-0.01560756005346775,-9.821551322937012
1.729495289414087e+18,0.010027708485722542,0.014037182554602623,-9.883882522583008
1.729495289423087e+18,-0.007825184613466263,-0.04926534369587898,-9.879093170166016
1.7294952894320873e+18,0.027804680168628693,-0.005677350796759129,-9.834324836730957
1.7294952894410875e+18,-0.02277717925608158,0.04420657455921173,-9.981563568115234
1.7294952894500877e+18,-0.03283369913697243,-0.0842168778181076,-9.828254699707031
1.729495289459088e+18,0.010869643650949001,0.05268625542521477,-9.90609359741211
1.729495289465088e+18,-0.06867144256830215,-0.06685379892587662,-9.850178718566895
1.7294952894740882e+18,-0.0030692422296851873,0.07312175631523132,-9.8411226272583
1.7294952894800883e+18,-0.03692111745476723,0.002572541357949376,-9.914806365966797
1.7294952894890885e+18,0.036379508674144745,0.06670164316892624,-9.772884368896484
1.7294952894980887e+18,-0.06902259588241577,-0.04655058681964874,-9.824236869812012
1.729495289507089e+18,-0.040029145777225494,-0.03307611122727394,-9.843069076538086
1.729495289513089e+18,0.013792656362056732,-0.016237683594226837,-9.861638069152832
1.7294952895220892e+18,0.027080165222287178,-0.049674659967422485,-9.80829906463623
1.7294952895310894e+18,-0.003052288666367531,0.010994639247655869,-9.88300609588623
1.7294952895400896e+18,-0.03116791322827339,-0.017169803380966187,-9.882537841796875
1.7294952895490898e+18,-0.02860230579972267,-0.020268971100449562,-9.786519050598145
1.72949528955509e+18,-0.05492362752556801,-0.07114626467227936,-9.89306640625
1.72949528956409e+18,0.022467998787760735,0.04062514379620552,-9.81493091583252
1.7294952895730903e+18,-0.10567814111709595,0.03004193678498268,-9.825773239135742
1.7294952895820905e+18,0.028831331059336662,-0.023541811853647232,-9.870183944702148
1.7294952895880906e+18,0.018220847472548485,0.042026225477457047,-9.783377647399902
1.7294952895970908e+18,0.016931306570768356,0.06921567022800446,-9.820777893066406
1.729495289606091e+18,-0.005784992594271898,-0.009328330866992474,-9.85054874420166
1.7294952896120911e+18,0.030812889337539673,0.02361360564827919,-9.844204902648926
1.7294952896210913e+18,-0.04826142638921738,-0.011114200577139854,-9.797127723693848
1.7294952896300915e+18,0.04656054452061653,-0.04744589328765869,-9.74441909790039
1.7294952896390917e+18,0.0754636600613594,-0.013945878483355045,-9.842880249023438
1.729495289648092e+18,-0.0048338184133172035,-0.021496731787919998,-9.858616828918457
1.729495289657092e+18,-0.026816023513674736,0.014715433120727539,-9.758062362670898
1.7294952896660923e+18,0.06822364777326584,0.027514729648828506,-9.855936050415039
1.7294952896750925e+18,-0.009763030335307121,-0.013616261072456837,-9.707781791687012
1.7294952896840927e+18,0.027272438630461693,0.04636559635400772,-9.77458381652832
1.7294952896900928e+18,-0.0934639498591423,-0.005081853363662958,-9.772690773010254
1.729495289699093e+18,-0.07132963836193085,-0.02895968034863472,-9.768662452697754
1.7294952897080932e+18,-0.015130812302231789,0.01858130656182766,-9.723150253295898
1.7294952897170934e+18,0.04013841971755028,-0.029547588899731636,-9.825715065002441
1.7294952897260936e+18,0.05278622359037399,0.008900988847017288,-9.766754150390625
1.7294952897350938e+18,-0.04140844941139221,-0.04953361302614212,-9.75314998626709
1.729495289744094e+18,0.03625702112913132,0.06345859915018082,-9.78504753112793
1.7294952897530941e+18,-0.03151153773069382,-0.013234255835413933,-9.781244277954102
1.7294952897620943e+18,0.07085324823856354,-0.00984879955649376,-9.71401596069336
1.7294952897680945e+18,-0.033464718610048294,0.006039424799382687,-9.738471031188965
1.7294952897770947e+18,0.015089161694049835,-0.039714325219392776,-9.7159423828125
1.7294952897860948e+18,-0.019926784560084343,-0.005550800357013941,-9.770829200744629
1.729495289795095e+18,-0.0745963454246521,0.022584104910492897,-9.793693542480469
1.7294952898040952e+18,-0.064817875623703,-0.04428314045071602,-9.72236156463623
1.7294952898130954e+18,0.03484984114766121,0.03591705858707428,-9.771718978881836
1.7294952898220956e+18,0.0387512631714344,0.03687671571969986,-9.73669147491455
1.7294952898280957e+18,-0.08900026977062225,-0.025874806568026543,-9.743733406066895
1.729495289837096e+18,-0.09372008591890335,-0.04153937101364136,-9.813180923461914
1.7294952898490962e+18,0.03879072889685631,-0.08209200203418732,-9.61401653289795
1.7294952898580964e+18,0.0037410210352391005,0.012698747217655182,-9.774572372436523
1.7294952898670966e+18,0.08070213347673416,-0.035315923392772675,-9.76578426361084
1.7294952898760968e+18,-0.0050761341117322445,-0.025567958131432533,-9.750160217285156
1.729495289885097e+18,0.026248881593346596,0.018813369795680046,-9.765454292297363
1.7294952898940972e+18,0.0036741704680025578,-0.035472504794597626,-9.790069580078125
1.7294952899030973e+18,-0.029905080795288086,-0.046428412199020386,-9.676301956176758
1.7294952899120975e+18,-0.08647768199443817,0.005037474445998669,-9.764521598815918
1.7294952899210977e+18,-0.014151958748698235,-0.03157038241624832,-9.73367691040039
1.729495289933098e+18,0.011469419114291668,-0.05987643450498581,-9.752411842346191
1.7294952899420982e+18,0.03396087884902954,0.0669780820608139,-9.683570861816406
1.7294952899540984e+18,0.02227507159113884,-0.05200376361608505,-9.674392700195312
1.7294952899630986e+18,0.03425472974777222,0.03262391686439514,-9.807246208190918
1.7294952899720988e+18,-0.05900436267256737,0.004185891710221767,-9.828784942626953
1.729495289981099e+18,0.08073945343494415,-0.08677328377962112,-9.903318405151367
1.7294952899900992e+18,-0.0035465252585709095,0.03601916879415512,-9.89356517791748
1.7294952899990994e+18,-0.02741549350321293,-0.010920509696006775,-9.796754837036133
1.7294952900080996e+18,0.0521441213786602,-0.06345032155513763,-9.713966369628906
1.7294952900200998e+18,0.01749895140528679,0.051761411130428314,-9.826881408691406
1.7294952900291e+18,-0.0024673431180417538,-0.00834057480096817,-9.846774101257324
1.7294952900381002e+18,-0.04085278883576393,0.039491698145866394,-9.749526023864746
1.7294952900471004e+18,-0.03627310320734978,0.007540007587522268,-9.723599433898926
1.7294952900591007e+18,-0.09775933623313904,-0.00878983736038208,-9.765213966369629
1.7294952900681009e+18,-0.005165982525795698,0.013607563450932503,-9.716814994812012
1.729495290077101e+18,-0.03801655024290085,-0.0015262113884091377,-9.788212776184082
1.7294952900891013e+18,0.051568083465099335,-0.026776479557156563,-9.7560396194458
1.7294952900981015e+18,0.02943931147456169,0.03961564972996712,-9.776707649230957
1.7294952901101018e+18,0.03472065553069115,-0.007714092265814543,-9.810280799865723
1.729495290119102e+18,-0.025047646835446358,0.01791931875050068,-9.712434768676758
1.7294952901281021e+18,0.05243649706244469,-0.014889877289533615,-9.76550579071045
1.7294952901401024e+18,-0.014114092104136944,0.04212722182273865,-9.825240135192871
1.7294952901491026e+18,-0.047111593186855316,0.03167515620589256,-9.815354347229004
1.7294952901611028e+18,0.04724874347448349,0.0015693055465817451,-9.770027160644531
1.729495290170103e+18,0.03967045992612839,-0.04523131996393204,-9.84880542755127
1.7294952901791032e+18,0.0007999892113730311,-0.0844535231590271,-9.755990028381348
1.7294952901881034e+18,-0.026530317962169647,-0.037707384675741196,-9.84107494354248
1.7294952902001037e+18,-0.002333993325009942,0.03691472113132477,-9.799837112426758
1.7294952902061038e+18,0.007097756490111351,-0.05162963643670082,-9.796467781066895
1.729495290215104e+18,0.03082207404077053,0.01946299895644188,-9.810863494873047
1.7294952902271043e+18,-0.04973209276795387,0.002247636904940009,-9.785760879516602
1.7294952902361044e+18,0.036259252578020096,0.011330248787999153,-9.777153015136719
1.7294952902451046e+18,-0.022856533527374268,0.03389255329966545,-9.73720932006836
1.729495290257105e+18,0.012282179668545723,0.005794011987745762,-9.7266206741333
1.729495290266105e+18,-0.01989118941128254,-0.03633061796426773,-9.822959899902344
1.7294952902781053e+18,-0.056350432336330414,-0.0081617571413517,-9.708124160766602
1.7294952902871055e+18,-0.08686870336532593,0.03530954569578171,-9.698251724243164
1.7294952902991058e+18,-0.07172278314828873,-0.005766391754150391,-9.78326416015625
1.729495290308106e+18,-0.030535884201526642,0.03711560368537903,-9.737008094787598
1.7294952903171062e+18,-0.04375619813799858,0.07475219666957855,-9.703239440917969
1.7294952903291064e+18,-0.03222201019525528,-0.030772991478443146,-9.840052604675293
1.7294952903381066e+18,0.06801272928714752,-0.002668665489181876,-9.815248489379883
1.7294952903471068e+18,0.13260236382484436,-0.03391679748892784,-9.749387741088867
1.729495290356107e+18,0.0412793792784214,0.006686188746243715,-9.79401683807373
1.7294952903651072e+18,-0.05753360316157341,0.028130946680903435,-9.704061508178711
1.7294952903741074e+18,-0.04568022862076759,0.011725656688213348,-9.75171947479248
1.7294952903861076e+18,0.016532840207219124,-0.013763132505118847,-9.721675872802734
1.7294952903951078e+18,-0.01836450770497322,0.007607978768646717,-9.76650619506836
1.729495290404108e+18,0.02202674001455307,0.03890637308359146,-9.84473705291748
1.7294952904131082e+18,0.010023392736911774,0.0028758684638887644,-9.758158683776855
1.7294952904251085e+18,0.02593066357076168,-0.07922068983316422,-9.738844871520996
1.7294952904341087e+18,0.012411107309162617,-0.00906616821885109,-9.749879837036133
1.7294952904431089e+18,-0.009429048746824265,0.026855168864130974,-9.778165817260742
1.729495290455109e+18,-0.007121100090444088,0.06898233294487,-9.74116325378418
1.7294952904641093e+18,-0.02550092153251171,0.009279105812311172,-9.672103881835938
1.7294952904731095e+18,0.035884298384189606,-0.02303311415016651,-9.706334114074707
1.7294952904821097e+18,-0.03841529041528702,-0.06894063204526901,-9.763386726379395
1.72949529049111e+18,-0.017422903329133987,0.07405074685811996,-9.800408363342285
1.72949529050011e+18,0.01660022884607315,0.012413578107953072,-9.802988052368164
1.7294952905061102e+18,-0.011947644874453545,-0.0443253256380558,-9.774493217468262
1.7294952905151104e+18,-0.04443579912185669,0.05831137299537659,-9.797462463378906
1.7294952905241106e+18,-0.016337158158421516,0.02187306061387062,-9.716323852539062
1.7294952905331108e+18,0.034687589854002,0.08947668969631195,-9.668017387390137
1.729495290542111e+18,0.07131088525056839,0.05016976594924927,-9.742172241210938
1.7294952905511112e+18,0.0037503221537917852,0.03200256824493408,-9.746992111206055
1.7294952905571113e+18,-0.021416012197732925,0.03523731231689453,-9.650569915771484
1.7294952905661115e+18,0.06308947503566742,-0.017371343448758125,-9.720340728759766
1.7294952905751117e+18,0.024097487330436707,0.035697098821401596,-9.781380653381348
1.7294952905811118e+18,-0.00999890360981226,0.022800512611865997,-9.677201271057129
1.729495290590112e+18,0.002601238898932934,0.03901490569114685,-9.686182975769043
1.7294952905991122e+18,-0.038740359246730804,-0.035178299993276596,-9.671186447143555
1.7294952906081124e+18,0.0044718957506120205,0.024086346849799156,-9.720848083496094
1.7294952906201126e+18,0.02587181329727173,-0.015242278575897217,-9.792024612426758
1.7294952906291128e+18,-0.041182562708854675,-0.035426944494247437,-9.72178840637207
1.729495290638113e+18,-0.02416244149208069,0.0010192315094172955,-9.762530326843262
1.7294952906471132e+18,0.007590246852487326,-0.017385441809892654,-9.728097915649414
1.7294952906561134e+18,0.07003038376569748,0.03256746008992195,-9.67221736907959
1.7294952906651136e+18,0.0004186696605756879,0.013285301625728607,-9.740816116333008
1.7294952906741138e+18,-0.016625426709651947,0.02999674156308174,-9.816758155822754
1.729495290683114e+18,0.056531116366386414,0.032585375010967255,-9.717976570129395
1.7294952906921142e+18,-0.01510031707584858,0.058015044778585434,-9.674599647521973
1.7294952907011144e+18,-0.021306229755282402,-0.05974705144762993,-9.708807945251465
1.7294952907101146e+18,-0.06998592615127563,-0.027493882924318314,-9.768210411071777
1.7294952907191148e+18,0.0663677304983139,-0.005436583422124386,-9.752829551696777
1.729495290728115e+18,-0.016210902482271194,0.07535742968320847,-9.731589317321777
1.7294952907371151e+18,-0.04606476053595543,0.03870707005262375,-9.745369911193848
1.7294952907461153e+18,-0.018172355368733406,0.016792770475149155,-9.668008804321289
1.7294952907551155e+18,0.0083491625264287,-0.03428869694471359,-9.72572135925293
1.7294952907611156e+18,0.005481736734509468,0.03018300235271454,-9.864168167114258
1.7294952907701158e+18,0.06396439671516418,0.018168559297919273,-9.734774589538574
1.729495290779116e+18,0.01723668910562992,0.0031997407786548138,-9.7191162109375
1.7294952907851162e+18,0.0018028023187071085,0.03429096192121506,-9.712555885314941
1.7294952907941164e+18,-0.008017173036932945,0.03168828785419464,-9.783797264099121
1.7294952908031165e+18,-0.08295413851737976,0.008754756301641464,-9.752391815185547
1.7294952908091167e+18,-0.07133596390485764,0.025185685604810715,-9.79940414428711
1.7294952908181169e+18,-0.05186309665441513,0.04098159447312355,-9.669862747192383
1.729495290827117e+18,0.053937651216983795,-0.04537308216094971,-9.786919593811035
1.7294952908361172e+18,0.07430081814527512,-0.043796565383672714,-9.66565990447998
1.7294952908451174e+18,-0.00823159608989954,-0.006576002109795809,-9.661359786987305
1.7294952908541176e+18,0.04037720337510109,-0.11108137667179108,-9.671954154968262
1.7294952908631178e+18,0.07509985566139221,0.04931367188692093,-9.762879371643066
1.729495290872118e+18,0.02451951429247856,0.058622054755687714,-9.733470916748047
1.7294952908841183e+18,-0.023873895406723022,-0.00729389488697052,-9.789704322814941
1.7294952908961185e+18,0.023946113884449005,-0.01301906630396843,-9.712848663330078
1.7294952909051187e+18,-0.05167945474386215,-0.016345776617527008,-9.799568176269531
1.729495290914119e+18,0.04538802057504654,-0.0488271564245224,-9.751226425170898
1.729495290923119e+18,0.02600378543138504,0.007435658946633339,-9.748394966125488
1.7294952909321193e+18,0.05488729104399681,-0.037450723350048065,-9.715861320495605
1.7294952909441196e+18,-0.02991017885506153,-0.05344156548380852,-9.681678771972656
1.7294952909531197e+18,0.04165881127119064,-0.03148292377591133,-9.769481658935547
1.72949529096212e+18,-0.06861564517021179,-0.0018726424314081669,-9.710283279418945
1.72949529097112e+18,-0.0318249873816967,0.036116451025009155,-9.660886764526367
1.7294952909801203e+18,0.001757857738994062,0.00571886170655489,-9.728543281555176
1.7294952909891205e+18,0.00956953689455986,-0.06972019374370575,-9.677091598510742
1.7294952909951206e+18,0.024449242278933525,-0.03341202437877655,-9.766300201416016
1.7294952910041208e+18,-0.020199311897158623,0.03747093677520752,-9.78249740600586
1.729495291013121e+18,0.008388059213757515,0.0739453136920929,-9.687079429626465
1.7294952910221212e+18,0.13459421694278717,-0.007863765582442284,-9.76952838897705
1.7294952910311214e+18,-0.017127646133303642,-0.01958921179175377,-9.772857666015625
1.7294952910401216e+18,-0.06811722368001938,0.020231768488883972,-9.683213233947754
1.7294952910521219e+18,0.00463524553924799,0.056724824011325836,-9.674172401428223
1.729495291058122e+18,0.018518030643463135,-0.006474828347563744,-9.769771575927734
1.7294952910701222e+18,-0.02818251959979534,0.06656669825315475,-9.728485107421875
1.7294952910761224e+18,0.01989404670894146,-0.024525174871087074,-9.792559623718262
1.7294952910881226e+18,-0.001011126907542348,0.013939613476395607,-9.829340934753418
1.729495291100123e+18,-0.08285877108573914,-0.020312057808041573,-9.716636657714844
1.729495291109123e+18,0.016303645446896553,-0.07782454043626785,-9.629319190979004
1.7294952911211233e+18,0.0015250161522999406,0.06963091343641281,-9.762751579284668
1.7294952911301235e+18,0.01397599745541811,0.02062535658478737,-9.755373001098633
1.7294952911391237e+18,0.12301355600357056,-0.02385391667485237,-9.753594398498535
1.729495291148124e+18,0.026637976989150047,0.032737936824560165,-9.710410118103027
1.729495291157124e+18,0.05718228593468666,0.03771243244409561,-9.827014923095703
1.7294952911661243e+18,-0.017823852598667145,0.02753349021077156,-9.745811462402344
1.7294952911751245e+18,0.023715756833553314,0.03174879774451256,-9.75261116027832
1.7294952911841247e+18,-0.06712028384208679,-0.04657593369483948,-9.830794334411621
1.7294952911931249e+18,-0.003684555646032095,-0.06634719669818878,-9.776832580566406
1.729495291202125e+18,-0.07746610045433044,-0.015551703982055187,-9.759187698364258
1.7294952912111252e+18,-0.026892606168985367,0.00894329696893692,-9.75435733795166
1.7294952912231255e+18,-0.07061710953712463,-0.0682900920510292,-9.736588478088379
1.7294952912321257e+18,0.01778971403837204,0.11370363086462021,-9.870746612548828
1.729495291241126e+18,-0.034350909292697906,0.05067760497331619,-9.81110954284668
1.729495291250126e+18,0.03723105043172836,0.06686859577894211,-9.77680492401123
1.7294952912591263e+18,-0.02023886889219284,-0.03326572850346565,-9.712861061096191
1.7294952912681265e+18,0.015109557658433914,-0.04690840467810631,-9.675016403198242
1.7294952912771267e+18,-0.023640738800168037,-0.0015015479875728488,-9.701416015625
1.7294952912861268e+18,-0.0035429683048278093,0.02694324590265751,-9.715580940246582
1.729495291298127e+18,0.10346762835979462,0.010598674416542053,-9.87356185913086
1.7294952913041272e+18,-0.057171713560819626,0.0244437362998724,-9.738155364990234
1.7294952913161275e+18,-0.005663176067173481,0.023897480219602585,-9.736778259277344
1.7294952913251277e+18,-0.05432920902967453,-0.012961070984601974,-9.819050788879395
1.7294952913341279e+18,0.04835090413689613,-0.0417148657143116,-9.759909629821777
1.729495291343128e+18,0.005183677189052105,0.006795217283070087,-9.790667533874512
1.7294952913521283e+18,0.03320912644267082,0.053248319774866104,-9.815858840942383
1.7294952913611284e+18,0.007226246874779463,0.04074786975979805,-9.793148040771484
1.7294952913731287e+18,0.1582680493593216,0.049352534115314484,-9.729348182678223
1.729495291382129e+18,0.006180937401950359,0.04955669119954109,-9.767250061035156
1.729495291391129e+18,0.0577823780477047,-0.025620002299547195,-9.75221061706543
1.7294952914001293e+18,0.010260363109409809,0.037397485226392746,-9.758191108703613
1.7294952914091295e+18,0.01059178076684475,0.00037380700814537704,-9.683942794799805
1.7294952914181297e+18,0.05654407665133476,0.010383466258645058,-9.782251358032227
1.72949529143013e+18,-0.006303729023784399,-0.020438168197870255,-9.804926872253418
1.72949529143913e+18,-0.03726577386260033,-0.014243067242205143,-9.786993026733398
1.7294952914481303e+18,0.09012319892644882,0.03777138143777847,-9.74091625213623
1.7294952914571305e+18,-0.04306523874402046,0.038965582847595215,-9.767766952514648
1.7294952914661307e+18,0.015511207282543182,0.04201027378439903,-9.737051963806152
1.729495291475131e+18,0.013174238614737988,0.05001454800367355,-9.70518970489502
1.7294952914871311e+18,-0.014111942611634731,-0.011186671443283558,-9.703156471252441
1.7294952914961313e+18,0.05246962979435921,0.04704393818974495,-9.784152030944824
1.7294952915021315e+18,-0.012114315293729305,-0.0557815246284008,-9.80333423614502
1.7294952915111316e+18,0.029995091259479523,-0.007089989259839058,-9.758395195007324
1.7294952915201318e+18,0.0998678207397461,-0.021314337849617004,-9.751296997070312
1.729495291529132e+18,-0.020174063742160797,0.10668744146823883,-9.751940727233887
1.7294952915411323e+18,-0.0879940390586853,-0.036953601986169815,-9.853116035461426
1.7294952915501325e+18,0.0017819693312048912,0.005787023808807135,-9.73979663848877
1.7294952915561326e+18,0.003386249067261815,-0.046083979308605194,-9.752274513244629
1.7294952915651328e+18,-0.010205913335084915,-0.008703823201358318,-9.763555526733398
1.729495291574133e+18,0.00449290731921792,-0.06577865034341812,-9.85366439819336
1.7294952915861332e+18,0.014356681145727634,0.09031224995851517,-9.667512893676758
1.7294952915951334e+18,-0.03250706195831299,-0.058819156140089035,-9.744125366210938
1.7294952916041336e+18,0.016801994293928146,0.07825043052434921,-9.779058456420898
1.7294952916131338e+18,-0.004564094357192516,0.02652330882847309,-9.78470230102539
1.729495291619134e+18,0.033500730991363525,-0.08666849136352539,-9.78519344329834
1.7294952916311342e+18,-0.008706427179276943,0.06476172059774399,-9.758856773376465
1.7294952916371343e+18,0.016877759248018265,-0.02101561240851879,-9.773202896118164
1.7294952916461345e+18,-0.08025908470153809,0.058457039296627045,-9.822080612182617
1.7294952916551347e+18,0.02324490062892437,-0.06929246336221695,-9.861051559448242
1.729495291664135e+18,0.05964990332722664,-0.004935194738209248,-9.751505851745605
1.729495291673135e+18,-0.06625104695558548,0.028773965314030647,-9.710518836975098
1.7294952916821353e+18,0.0008856342174112797,0.029149645939469337,-9.81491756439209
1.7294952916911355e+18,-0.018963119015097618,0.005497248377650976,-9.83605670928955
1.7294952917001357e+18,-0.06422177702188492,-0.018380669876933098,-9.794907569885254
1.7294952917061358e+18,-0.03259161114692688,0.03829387202858925,-9.815067291259766
1.729495291715136e+18,0.06964009255170822,-0.019789595156908035,-9.745471000671387
1.7294952917241362e+18,0.024201545864343643,-0.015440907329320908,-9.780674934387207
1.7294952917331364e+18,0.04937240108847618,-0.06840132921934128,-9.826065063476562
1.7294952917421366e+18,0.03544440492987633,0.03152358904480934,-9.797126770019531
1.7294952917511368e+18,-0.05783294141292572,-0.016246914863586426,-9.815350532531738
1.729495291760137e+18,-0.01707550883293152,-0.01267053559422493,-9.846772193908691
1.7294952917691372e+18,-0.12563477456569672,-0.05924322083592415,-9.696708679199219
1.7294952917781373e+18,0.03698056936264038,-0.04308846592903137,-9.800402641296387
1.7294952917871375e+18,-0.00042469968320801854,0.03665478155016899,-9.809343338012695
1.7294952917961377e+18,0.017039408907294273,-0.028637709096074104,-9.803600311279297
1.729495291805138e+18,0.004247081466019154,0.013223550282418728,-9.770054817199707
1.729495291814138e+18,0.04157321900129318,0.03160874918103218,-9.808854103088379
1.7294952918231383e+18,-0.002959746401757002,0.005314493086189032,-9.828986167907715
1.7294952918321385e+18,0.07573253661394119,-0.01612214371562004,-9.734429359436035
1.7294952918411387e+18,-0.056937918066978455,0.02158707194030285,-9.772000312805176
1.729495291850139e+18,0.0023150029592216015,-0.010041838511824608,-9.848103523254395
1.729495291859139e+18,0.0019337364938110113,-0.04465362802147865,-9.75821304321289
1.7294952918681393e+18,0.0026557990349829197,-0.07264792174100876,-9.743255615234375
1.7294952918771395e+18,-0.04558791592717171,-0.08953683078289032,-9.825511932373047
1.7294952918861396e+18,0.009480948559939861,0.06382634490728378,-9.74619197845459
1.7294952918951398e+18,-0.06754092872142792,0.0222840066999197,-9.778847694396973
1.72949529190414e+18,0.03092951513826847,-0.04992705211043358,-9.728758811950684
1.7294952919131402e+18,-0.06531272083520889,0.029657261446118355,-9.768189430236816
1.7294952919221404e+18,0.002430915366858244,-0.041969265788793564,-9.789970397949219
1.7294952919311406e+18,0.03271729126572609,0.048904407769441605,-9.755661964416504
1.7294952919371407e+18,-0.05486949533224106,-0.04558146744966507,-9.742167472839355
1.729495291946141e+18,0.047620028257369995,-0.022766362875699997,-9.817198753356934
1.729495291955141e+18,-0.08900319784879684,0.04081635922193527,-9.89646053314209
1.7294952919641413e+18,-0.006353818345814943,0.002129412954673171,-9.892256736755371
1.7294952919731415e+18,-0.052374422550201416,-0.03321385756134987,-9.805721282958984
1.7294952919821417e+18,-0.0020783557556569576,-0.0396585613489151,-9.756462097167969
1.729495291991142e+18,0.009676327928900719,0.0065622758120298386,-9.867116928100586
1.729495292000142e+18,-0.0991787239909172,0.013094749301671982,-9.835335731506348
1.7294952920091423e+18,-0.06172347813844681,0.021211398765444756,-9.739959716796875
1.7294952920181425e+18,-0.05453653633594513,0.0061199115589261055,-9.805989265441895
1.7294952920241426e+18,0.10479559749364853,-0.012785356491804123,-9.769079208374023
1.7294952920331428e+18,0.02625962346792221,0.034419454634189606,-9.765780448913574
1.729495292045143e+18,0.015111295506358147,-0.04048580303788185,-9.854707717895508
1.7294952920541432e+18,-0.006697613745927811,0.03036658652126789,-9.856002807617188
1.7294952920631434e+18,0.05345160514116287,-0.013169526122510433,-9.852926254272461
1.7294952920721436e+18,-0.034412890672683716,0.0038562421686947346,-9.764054298400879
1.7294952920811438e+18,0.025606991723179817,-0.004864772781729698,-9.785040855407715
1.729495292090144e+18,0.024312563240528107,-0.015906143933534622,-9.805167198181152
1.7294952920991442e+18,-0.04255710542201996,-0.01702498272061348,-9.791316032409668
1.7294952921081444e+18,-0.015387694351375103,-0.003905176417902112,-9.848799705505371
1.7294952921141445e+18,0.02370341494679451,0.01762569695711136,-9.812151908874512
1.7294952921231447e+18,0.010598188266158104,0.04223647713661194,-9.775293350219727
1.729495292132145e+18,-0.043067820370197296,0.03428475558757782,-9.757625579833984
1.729495292141145e+18,-0.017423665151000023,0.0014229409862309694,-9.886096000671387
1.7294952921501453e+18,-0.03508635610342026,0.07697070389986038,-9.822433471679688
1.7294952921591455e+18,0.013849742710590363,-0.03154359385371208,-9.787641525268555
1.7294952921681457e+18,-0.018984002992510796,-0.04621288552880287,-9.846330642700195
1.7294952921771459e+18,-0.06049589812755585,-0.012023882009088993,-9.845389366149902
1.729495292186146e+18,-0.003236507996916771,0.00856892578303814,-9.810992240905762
1.7294952921951462e+18,0.007661168929189444,-0.04077020287513733,-9.751177787780762
1.7294952922041464e+18,0.016457395628094673,-0.01926264725625515,-9.84022045135498
1.7294952922131466e+18,0.02973967231810093,0.0016052739229053259,-9.809792518615723
1.7294952922221468e+18,-0.05660348758101463,-0.04101743921637535,-9.797062873840332
1.729495292231147e+18,-0.03881946951150894,-0.023181691765785217,-9.821951866149902
1.7294952922401472e+18,-0.05020323395729065,-0.034201234579086304,-9.80368423461914
1.7294952922491474e+18,-0.02186397649347782,0.04239736124873161,-9.806883811950684
1.7294952922581476e+18,0.04187537729740143,0.046059783548116684,-9.879493713378906
1.7294952922671478e+18,0.03680645301938057,-0.003223615000024438,-9.784350395202637
1.729495292276148e+18,0.029514621943235397,-0.08780544251203537,-9.803250312805176
1.7294952922851482e+18,0.01903814636170864,0.0474686399102211,-9.783173561096191
1.7294952922941484e+18,-0.014436203055083752,-0.008584899827837944,-9.745190620422363
1.7294952923001485e+18,0.047035861760377884,-0.00816114991903305,-9.737444877624512
1.7294952923091487e+18,0.04227029159665108,-0.008639456704258919,-9.843703269958496
1.7294952923181489e+18,0.02495279721915722,0.06705877184867859,-9.717095375061035
1.729495292327149e+18,-0.04417354613542557,-0.03027752786874771,-9.710917472839355
1.7294952923361492e+18,-0.08012725412845612,-0.008748114109039307,-9.837361335754395
1.7294952923451494e+18,0.05544811859726906,0.014629563316702843,-9.758193016052246
1.7294952923541496e+18,0.05763993784785271,-0.0596894808113575,-9.813712120056152
1.7294952923631498e+18,0.015939192846417427,-0.007817182689905167,-9.745190620422363
1.72949529236915e+18,0.0503416545689106,-0.028217006474733353,-9.730718612670898
1.7294952923781501e+18,-0.009255915880203247,0.02817450650036335,-9.697931289672852
1.7294952923871503e+18,0.022370589897036552,0.02863924577832222,-9.84877872467041
1.7294952923961505e+18,0.00442865677177906,0.008627920411527157,-9.797967910766602
1.7294952924021507e+18,0.007496663369238377,-0.04019433259963989,-9.773052215576172
1.7294952924111508e+18,0.0467003658413887,-0.01793873868882656,-9.83036994934082
1.729495292420151e+18,-0.024744033813476562,-0.002759534865617752,-9.824003219604492
1.7294952924291512e+18,0.014612498693168163,0.058087825775146484,-9.864582061767578
1.7294952924381514e+18,-0.007111080922186375,0.05585489422082901,-9.82944393157959
1.7294952924471516e+18,0.009799519553780556,-0.029772836714982986,-9.810535430908203
1.7294952924561518e+18,0.009730707854032516,0.003256941679865122,-9.768181800842285
1.729495292465152e+18,-0.01667070761322975,0.011127379722893238,-9.833113670349121
1.7294952924741522e+18,-0.0001531328889541328,-0.0701037049293518,-9.788172721862793
1.7294952924831524e+18,0.024351786822080612,-0.027991117909550667,-9.874464988708496
1.7294952924891525e+18,0.03293997794389725,-0.021031135693192482,-9.813370704650879
1.7294952924981527e+18,0.009147531352937222,-0.012574635446071625,-9.884357452392578
1.729495292507153e+18,-0.013832544907927513,0.046167585998773575,-9.81799602508545
1.729495292516153e+18,0.09511218219995499,0.04572363197803497,-9.883275985717773
1.7294952925221532e+18,-0.026748059317469597,0.01829732581973076,-9.849732398986816
1.7294952925311534e+18,0.00495798559859395,-0.0536031536757946,-9.890962600708008
1.7294952925401536e+18,-0.0625622346997261,0.019770486280322075,-9.869140625
1.7294952925491538e+18,-0.028360042721033096,-0.025043576955795288,-9.761456489562988
1.729495292555154e+18,0.08555831760168076,-0.028224943205714226,-9.796881675720215
1.729495292564154e+18,-0.011987431906163692,-0.04412446916103363,-9.867546081542969
1.7294952925731543e+18,-0.024649454280734062,-0.04045563191175461,-9.772594451904297
1.7294952925821545e+18,-0.00671857874840498,-0.0012693614698946476,-9.821263313293457
1.7294952925881546e+18,-0.025772785767912865,-0.021745964884757996,-9.872563362121582
1.7294952925971548e+18,-0.053840234875679016,0.021225813776254654,-9.79246997833252
1.729495292606155e+18,0.019281992688775063,0.0029397865291684866,-9.859434127807617
1.7294952926151552e+18,0.033582210540771484,0.04321180284023285,-9.834295272827148
1.7294952926241554e+18,0.04507853090763092,-0.0068728188052773476,-9.775835037231445
1.7294952926301555e+18,-0.08147218823432922,0.030186498537659645,-9.800806999206543
1.7294952926421558e+18,-0.017266111448407173,0.08841045200824738,-9.892752647399902
1.729495292648156e+18,-0.06568334251642227,-0.09647795557975769,-9.744410514831543
1.729495292657156e+18,-0.02507689595222473,0.036140404641628265,-9.799005508422852
1.7294952926661563e+18,-0.08120694756507874,0.022051144391298294,-9.846964836120605
1.7294952926751565e+18,-0.04823591560125351,-0.08176470547914505,-9.852943420410156
1.7294952926811566e+18,-0.0394095815718174,0.05062966048717499,-9.83676815032959
1.7294952926901568e+18,0.05607946589589119,0.026797804981470108,-9.821263313293457
1.729495292699157e+18,0.029242096468806267,0.01042112335562706,-9.825735092163086
1.7294952927081572e+18,0.0463901087641716,-0.022993115708231926,-9.847013473510742
1.7294952927171574e+18,-0.08626218885183334,0.011158563196659088,-9.810317039489746
1.7294952927231575e+18,-0.02099554054439068,-0.01548166573047638,-9.822731971740723
1.7294952927351578e+18,0.0795002207159996,-0.007674666121602058,-9.796454429626465
1.729495292741158e+18,-0.03175922855734825,0.01284053735435009,-9.784554481506348
1.7294952927531581e+18,-0.025425847619771957,0.07376007735729218,-9.837396621704102
1.7294952927621583e+18,-0.02120569534599781,0.04790949821472168,-9.840764999389648
1.7294952927711585e+18,0.014825431630015373,-0.05933085083961487,-9.790315628051758
1.7294952927801587e+18,-0.009662638418376446,-0.038181230425834656,-9.847238540649414
1.729495292789159e+18,-0.06707853078842163,-0.06362989544868469,-9.754067420959473
1.729495292798159e+18,0.043512485921382904,0.006094364449381828,-9.864508628845215
1.7294952928071593e+18,-0.026301801204681396,-0.01629691943526268,-9.86485481262207
1.7294952928161595e+18,-0.02520807273685932,0.05950125306844711,-9.716559410095215
1.7294952928251597e+18,0.042038220912218094,-0.04473045468330383,-9.823273658752441
1.7294952928341599e+18,0.002264586742967367,0.021601324900984764,-9.743114471435547
1.72949529284316e+18,0.00864668469876051,0.0638667568564415,-9.812346458435059
1.7294952928521603e+18,0.022482097148895264,-0.03755674511194229,-9.786405563354492
1.7294952928611604e+18,-0.06263711303472519,-0.013207240030169487,-9.845746994018555
1.7294952928701606e+18,-0.02150167152285576,0.04846712946891785,-9.813819885253906
1.729495292882161e+18,0.018800366669893265,0.0096216956153512,-9.794917106628418
1.729495292891161e+18,0.010885119438171387,0.008163509890437126,-9.832820892333984
1.7294952929001613e+18,-0.08999980241060257,-0.03457317873835564,-9.813783645629883
1.7294952929091615e+18,0.010560340248048306,0.029233092442154884,-9.785140037536621
1.7294952929181617e+18,-0.0005772217409685254,-0.06539879739284515,-9.79887866973877
1.7294952929271619e+18,0.021848782896995544,-0.02749551087617874,-9.769665718078613
1.729495292936162e+18,-0.0345638282597065,-0.07987271994352341,-9.809189796447754
1.7294952929421622e+18,0.04704905301332474,0.04955239221453667,-9.718538284301758
1.7294952929511624e+18,-0.009817521087825298,-0.04184626042842865,-9.743803977966309
1.7294952929601626e+18,0.07596765458583832,-0.03707076236605644,-9.76757526397705
1.7294952929721628e+18,0.043160419911146164,0.03745253011584282,-9.792839050292969
1.729495292981163e+18,-0.03466535359621048,0.011139392852783203,-9.744861602783203
1.7294952929901632e+18,-0.03376588970422745,-0.06553442031145096,-9.809001922607422
1.7294952929991634e+18,0.01881030946969986,0.017581282183527946,-9.696959495544434
1.7294952930081636e+18,-0.004943045321851969,0.02283116616308689,-9.846250534057617
1.7294952930171638e+18,0.13521471619606018,-0.014340373687446117,-9.743770599365234
1.729495293026164e+18,-0.05899417772889137,0.02409452199935913,-9.819122314453125
1.7294952930351642e+18,-0.005004662089049816,-0.014608132652938366,-9.753196716308594
1.7294952930441644e+18,0.041063547134399414,0.014826633967459202,-9.813965797424316
1.7294952930531645e+18,0.009052598848938942,0.07291681319475174,-9.767951011657715
1.7294952930621647e+18,0.00845521129667759,0.016514673829078674,-8.639976501464844
1.729495293071165e+18,0.038197074085474014,0.04177165776491165,-8.247518539428711
1.729495293080165e+18,-0.017436619848012924,0.06877703219652176,-8.18182373046875
1.7294952930891653e+18,-0.11235496401786804,0.06860124319791794,-9.12822437286377
1.7294952930981655e+18,-0.11036210507154465,0.008544407784938812,-10.886200904846191
1.7294952931071657e+18,-0.10054390877485275,0.10203742980957031,-11.365540504455566
1.7294952931131658e+18,-0.0754062682390213,0.004709910601377487,-11.525887489318848
1.729495293125166e+18,-0.1000809371471405,-0.021233081817626953,-11.592101097106934
1.7294952931341663e+18,-0.11243525892496109,-0.001574791967868805,-11.279008865356445
1.7294952931431665e+18,-0.09282572567462921,0.055265188217163086,-10.850890159606934
1.7294952931521667e+18,-0.09168393164873123,0.0718773901462555,-10.843795776367188
1.7294952931581668e+18,-0.08377470076084137,0.0953930988907814,-10.761235237121582
1.729495293167167e+18,-0.14689844846725464,0.03287861496210098,-10.673951148986816
1.7294952931761672e+18,-0.09568622708320618,0.0744757428765297,-10.47119426727295
1.7294952931851674e+18,-0.01927150785923004,0.14388281106948853,-10.303093910217285
1.7294952931941676e+18,-0.07414720207452774,0.07523475587368011,-10.181632995605469
1.7294952932031677e+18,-0.17871373891830444,0.07621004432439804,-9.853270530700684
1.729495293212168e+18,0.0025462284684181213,0.05545933544635773,-9.62958812713623
1.729495293221168e+18,-0.09824918210506439,0.07790233194828033,-9.644384384155273
1.7294952932301683e+18,0.020996488630771637,0.07883135974407196,-9.68046760559082
1.7294952932391685e+18,-0.055497247725725174,0.08188039064407349,-9.638463020324707
1.7294952932481687e+18,-0.012589287012815475,0.06974422931671143,-9.395332336425781
1.7294952932541688e+18,-0.08700531721115112,0.0607181191444397,-9.381452560424805
1.729495293263169e+18,-0.032375648617744446,-0.00786297582089901,-9.144521713256836
1.7294952932721692e+18,0.01317904144525528,0.04368717223405838,-8.997101783752441
1.7294952932811694e+18,-0.0069025857374072075,-0.04668477177619934,-8.939447402954102
1.7294952932901696e+18,-0.0807712972164154,0.014805545099079609,-8.94473648071289
1.7294952932991698e+18,0.0043396297842264175,-0.03678464889526367,-8.902413368225098
1.72949529331117e+18,0.060069382190704346,-0.03982843458652496,-8.660417556762695
1.7294952933201702e+18,-0.018584031611680984,0.03419904783368111,-8.625883102416992
1.7294952933291704e+18,0.011042457073926926,0.029937438666820526,-8.788029670715332
1.7294952933381706e+18,0.06568457931280136,-0.04478989169001579,-8.861810684204102
1.7294952933471708e+18,-0.03149425983428955,-0.03025032952427864,-8.669519424438477
1.729495293356171e+18,-0.03271695598959923,-0.024469496682286263,-8.625688552856445
1.7294952933651712e+18,-0.0033286139369010925,-0.003276058007031679,-8.548747062683105
1.7294952933741714e+18,-0.06971899420022964,-0.04318824037909508,-8.487194061279297
1.7294952933831716e+18,-0.027596544474363327,-0.03601200133562088,-8.479543685913086
1.7294952933951718e+18,-0.011108631268143654,-0.03385651111602783,-8.602557182312012
1.729495293404172e+18,0.03210253268480301,0.006519366055727005,-8.609572410583496
1.7294952934161723e+18,0.0357925109565258,-0.03393271565437317,-8.440842628479004
1.7294952934251725e+18,0.010927938856184483,0.07644028216600418,-8.468652725219727
1.7294952934341727e+18,0.08644943684339523,-0.035305529832839966,-8.345992088317871
1.7294952934431729e+18,-0.06810341775417328,0.03776697441935539,-8.489558219909668
1.729495293452173e+18,0.02963765524327755,0.005060981027781963,-8.415216445922852
1.7294952934611732e+18,-0.029821686446666718,-0.02111148089170456,-8.529900550842285
1.7294952934731735e+18,0.020724207162857056,-0.027124643325805664,-8.535207748413086
1.7294952934821737e+18,0.019099343568086624,-0.028445227071642876,-8.491384506225586
1.729495293494174e+18,-0.04963787645101547,0.07794457674026489,-8.453807830810547
1.7294952935031741e+18,0.051839590072631836,-0.02364874817430973,-8.439382553100586
1.7294952935121743e+18,0.029969656839966774,-0.011190993711352348,-8.540989875793457
1.7294952935211745e+18,0.007884213700890541,-0.0006233192980289459,-8.547879219055176
1.7294952935301747e+18,0.019165243953466415,0.011617623269557953,-8.65639591217041
1.729495293539175e+18,0.021246913820505142,0.044583216309547424,-8.57496166229248
1.729495293548175e+18,0.029612762853503227,0.0691622644662857,-8.485608100891113
1.7294952935601754e+18,-0.023174166679382324,0.006935926154255867,-8.564269065856934
1.7294952935691756e+18,0.041289590299129486,-0.06619726121425629,-8.714618682861328
1.7294952935781757e+18,0.04656105488538742,-0.0031502710189670324,-8.67066764831543
1.729495293590176e+18,-0.045744433999061584,0.04667074978351593,-8.626255989074707
1.7294952935991762e+18,0.03182726353406906,-0.006490714382380247,-8.559294700622559
1.7294952936081764e+18,-0.0434395968914032,0.0028632115572690964,-8.55620002746582
1.7294952936171766e+18,0.06254458427429199,0.04878232628107071,-8.572590827941895
1.7294952936291768e+18,-0.004383656196296215,0.12639766931533813,-8.724382400512695
1.729495293638177e+18,0.03113507851958275,0.004135490395128727,-8.643839836120605
1.7294952936471772e+18,-0.03412152826786041,-0.10949942469596863,-8.664690017700195
1.7294952936561774e+18,-0.056954145431518555,0.005512682721018791,-8.72089672088623
1.7294952936651776e+18,0.00961649976670742,0.023052455857396126,-8.663280487060547
1.7294952936741778e+18,0.05311468988656998,0.03147652745246887,-8.638958930969238
1.729495293680178e+18,-0.006566727068275213,0.0617644339799881,-8.642738342285156
1.7294952936921782e+18,0.012091683223843575,-0.06549164652824402,-8.761207580566406
1.7294952937011784e+18,-0.017629940062761307,-0.019622497260570526,-8.758219718933105
1.7294952937101786e+18,0.0023949756287038326,-0.05682540312409401,-8.778063774108887
1.7294952937221788e+18,0.04508545994758606,0.01129594724625349,-8.934229850769043
1.729495293731179e+18,-0.00317386700771749,-0.06655829399824142,-8.800674438476562
1.7294952937401792e+18,-0.032613229006528854,-0.04214923456311226,-8.905437469482422
1.7294952937491794e+18,0.005554798990488052,-0.018002144992351532,-8.874117851257324
1.7294952937581796e+18,0.010750643908977509,0.00223554577678442,-8.854860305786133
1.7294952937671798e+18,-0.034982070326805115,0.014809982851147652,-8.975932121276855
1.72949529377618e+18,0.05520230531692505,0.06487630307674408,-8.98447036743164
1.7294952937851802e+18,0.022414837032556534,-0.012448009103536606,-9.008995056152344
1.7294952937941804e+18,0.05548716336488724,-0.0035266554914414883,-9.03360652923584
1.7294952938031805e+18,0.016896501183509827,-0.0803413838148117,-9.061981201171875
1.7294952938121807e+18,-0.015119055286049843,0.003953073173761368,-8.991518020629883
1.729495293821181e+18,-0.0460689514875412,-0.03305073454976082,-8.959243774414062
1.729495293830181e+18,0.020222246646881104,0.028581924736499786,-9.044733047485352
1.7294952938391813e+18,-0.031784914433956146,-0.009162023663520813,-9.020882606506348
1.7294952938481815e+18,-0.0664210170507431,0.04650199040770531,-9.045540809631348
1.7294952938571817e+18,-0.060381751507520676,0.035176146775484085,-9.044346809387207
1.729495293866182e+18,0.0505870059132576,0.07400234043598175,-9.104390144348145
1.729495293872182e+18,0.05013856291770935,0.11080772429704666,-9.181854248046875
1.7294952938841823e+18,0.029178541153669357,0.012800135649740696,-9.138924598693848
1.7294952938931825e+18,-0.08441879600286484,0.0508609376847744,-9.155316352844238
1.7294952939021827e+18,-0.036484524607658386,0.07846320420503616,-9.2512788772583
1.7294952939111828e+18,-0.025466622784733772,0.048709332942962646,-9.1996431350708
1.729495293920183e+18,-0.024535803124308586,0.005966728087514639,-9.282468795776367
1.7294952939291832e+18,0.029861383140087128,-0.011033459566533566,-9.225835800170898
1.7294952939381834e+18,0.01950143650174141,0.05369233340024948,-9.260212898254395
1.7294952939471836e+18,0.004966244101524353,-0.03262350335717201,-9.328038215637207
1.7294952939561838e+18,-0.0008599422872066498,-0.01438729278743267,-9.33264446258545
1.729495293965184e+18,-0.04746200889348984,0.062303341925144196,-9.337563514709473
1.7294952939741842e+18,-0.02076183818280697,-0.002306208945810795,-9.287115097045898
1.7294952939801843e+18,-0.06673000007867813,0.005507827736437321,-9.276276588439941
1.7294952939921846e+18,-0.0018113106489181519,-0.048646777868270874,-9.373345375061035
1.7294952940011848e+18,-0.06684195250272751,-0.058284737169742584,-9.418899536132812
1.729495294010185e+18,-0.08316892385482788,0.016548942774534225,-9.333355903625488
1.7294952940191852e+18,0.03599327802658081,0.0459291897714138,-9.409772872924805
1.7294952940281853e+18,-0.08955127000808716,-0.011397069320082664,-9.432538986206055
1.7294952940371855e+18,0.007364131510257721,0.056647125631570816,-9.438724517822266
1.7294952940491858e+18,-0.0320935882627964,0.005750075448304415,-9.467904090881348
1.729495294058186e+18,-0.03166218101978302,-0.011045951396226883,-9.534163475036621
1.7294952940671862e+18,-0.028436491265892982,-0.08136618137359619,-9.498795509338379
1.7294952940791864e+18,-0.1324557662010193,-0.07197002321481705,-9.565056800842285
1.7294952940851866e+18,-0.07565774023532867,0.08599604666233063,-9.472782135009766
1.7294952940941868e+18,-0.04592891037464142,0.029392844066023827,-9.618465423583984
1.729495294106187e+18,-0.16075363755226135,0.042887426912784576,-9.648909568786621
1.7294952941151872e+18,-0.061543483287096024,0.0888262540102005,-9.61220932006836
1.7294952941241874e+18,-0.042692143470048904,-0.04707459732890129,-9.650999069213867
1.7294952941331876e+18,0.012472070753574371,0.0032005151733756065,-9.707231521606445
1.7294952941451878e+18,-0.0048992820084095,0.015236916020512581,-9.700355529785156
1.729495294154188e+18,-0.07432456314563751,0.04148983582854271,-9.714844703674316
1.7294952941631882e+18,-0.005727745592594147,0.059801630675792694,-9.680319786071777
1.7294952941721884e+18,-0.04443953186273575,-0.010180829092860222,-9.760553359985352
1.7294952941811886e+18,-0.03713839501142502,0.07648888230323792,-9.81057071685791
1.7294952941931889e+18,-0.11316287517547607,-0.0015514958649873734,-9.826521873474121
1.729495294202189e+18,-0.1535465568304062,0.11711478978395462,-9.847196578979492
1.7294952942111892e+18,-0.006703026592731476,0.028446566313505173,-9.813745498657227
1.7294952942201894e+18,-0.09801977872848511,-0.017250820994377136,-9.848799705505371
1.7294952942291896e+18,-0.06469763815402985,-0.027466624975204468,-9.993524551391602
1.7294952942381898e+18,-0.019250500947237015,0.05264827609062195,-9.889421463012695
1.72949529424719e+18,-0.07202181220054626,0.020320365205407143,-9.963608741760254
1.7294952942591903e+18,-0.05239197611808777,0.11320208013057709,-9.9420804977417
1.7294952942711905e+18,-0.06550650298595428,-0.004178252071142197,-9.925264358520508
1.7294952942801907e+18,-0.14070522785186768,0.012801862321794033,-9.968750953674316
1.729495294292191e+18,-0.11726639419794083,0.04239722341299057,-9.992772102355957
1.7294952943011912e+18,-0.08775869756937027,-0.05844844505190849,-10.051907539367676
1.7294952943131914e+18,-0.07914430648088455,0.07009905576705933,-10.000018119812012
1.7294952943251917e+18,-0.14092090725898743,0.012574143707752228,-10.052179336547852
1.729495294337192e+18,-0.07064078003168106,0.03213522210717201,-10.032690048217773
1.7294952943461921e+18,-0.06659135967493057,-0.013808853924274445,-10.087930679321289
1.7294952943551923e+18,-0.03424421697854996,0.07480175048112869,-10.11282730102539
1.7294952943641925e+18,-0.13460677862167358,0.024579443037509918,-10.16507339477539
1.7294952943761928e+18,-0.14024785161018372,0.017491916194558144,-10.210773468017578
1.729495294385193e+18,-0.14568069577217102,0.06624454259872437,-10.168211936950684
1.7294952943971932e+18,-0.10324074327945709,0.02609674073755741,-10.272063255310059
1.7294952944061934e+18,-0.06549068540334702,0.0446154847741127,-10.318527221679688
1.7294952944151936e+18,-0.09526170790195465,0.08635282516479492,-10.312712669372559
1.7294952944241938e+18,-0.10035250335931778,-0.022761614993214607,-10.309019088745117
1.729495294433194e+18,-0.05952446907758713,-0.007291823625564575,-10.172253608703613
1.7294952944451942e+18,-0.0962631106376648,0.04421326518058777,-10.272750854492188
1.7294952944541944e+18,-0.11160686612129211,-0.016410231590270996,-10.320443153381348
1.7294952944661947e+18,-0.11807549744844437,-0.005408711731433868,-10.294224739074707
1.7294952944721948e+18,-0.12833233177661896,-0.006606634706258774,-10.368745803833008
1.729495294481195e+18,-0.15207788348197937,0.04307364672422409,-10.331230163574219
1.7294952944901952e+18,-0.13403809070587158,0.046590737998485565,-10.316829681396484
1.7294952944991954e+18,-0.14514002203941345,0.07208003103733063,-10.297968864440918
1.7294952945081956e+18,-0.12109768390655518,0.04465886205434799,-10.385401725769043
1.7294952945171958e+18,-0.13789498805999756,0.06126951053738594,-10.455127716064453
1.729495294526196e+18,-0.1120210587978363,0.05651538074016571,-10.440125465393066
1.7294952945381962e+18,-0.060473497956991196,0.08647258579730988,-10.384819984436035
1.7294952945471964e+18,-0.16413700580596924,0.06271231174468994,-10.506624221801758
1.7294952945561966e+18,-0.1020871251821518,0.008671361953020096,-10.528192520141602
1.7294952945651968e+18,-0.12150875478982925,0.037937991321086884,-10.56400203704834
1.729495294574197e+18,-0.020570583641529083,0.01411411538720131,-10.572089195251465
1.7294952945831972e+18,-0.08830978721380234,0.05477859824895859,-10.595762252807617
1.7294952945951974e+18,-0.19306576251983643,0.04418760910630226,-10.627703666687012
1.7294952946041976e+18,-0.07885921001434326,-0.005283690989017487,-10.543831825256348
1.729495294616198e+18,-0.07074514776468277,0.10099443793296814,-10.585155487060547
1.729495294625198e+18,-0.11339127272367477,0.017736367881298065,-10.607925415039062
1.7294952946371983e+18,-0.09310533106327057,0.016319774091243744,-10.727766036987305
1.7294952946461985e+18,-0.15293768048286438,0.06819027662277222,-10.610275268554688
1.7294952946581988e+18,-0.14226867258548737,-0.1037541925907135,-10.672236442565918
1.729495294667199e+18,-0.08038832247257233,0.09807631373405457,-10.727904319763184
1.7294952946791992e+18,-0.155014768242836,0.00189155712723732,-10.625523567199707
1.7294952946881994e+18,-0.160375714302063,0.0319402739405632,-10.635671615600586
1.7294952947001997e+18,-0.08734641969203949,0.07955563068389893,-10.648625373840332
1.7294952947122e+18,-0.14445406198501587,0.004172779619693756,-10.610673904418945
1.7294952947212e+18,-0.13767512142658234,0.09587505459785461,-10.583100318908691
1.7294952947302003e+18,-0.10699141025543213,0.08227793872356415,-10.577567100524902
1.7294952947422006e+18,-0.10967428982257843,0.05947650969028473,-10.572216987609863
1.7294952947542008e+18,-0.07976295053958893,0.04052778705954552,-10.517322540283203
1.729495294763201e+18,-0.12008411437273026,-0.031870365142822266,-10.556657791137695
1.7294952947752013e+18,-0.09258845448493958,0.06567981839179993,-10.549820899963379
1.7294952947872015e+18,-0.14088726043701172,0.08418028056621552,-10.527509689331055
1.7294952947992018e+18,-0.15397723019123077,0.0032585039734840393,-10.504602432250977
1.729495294808202e+18,-0.10012032836675644,-0.011031221598386765,-10.478458404541016
1.7294952948202022e+18,-0.132104754447937,0.002000659704208374,-9.518324851989746
1.7294952948292024e+18,-0.07276757061481476,0.07000464200973511,-9.12886905670166
1.7294952948412027e+18,-0.051515161991119385,0.05435151606798172,-9.951127052307129
1.729495294850203e+18,-0.04088975861668587,0.09363537281751633,-12.210183143615723
