timestamp,gyro_x,gyro_y,gyro_z
1.7294952819949286e+18,-0.00048431893810629845,-0.00026674309629015625,0.0019744972232729197
1.7294952820039288e+18,-0.00021957641001790762,0.0016321326838806272,0.0006501474999822676
1.729495282012929e+18,0.0003847488551400602,-0.0010739224962890148,-0.00033301112125627697
1.7294952820219292e+18,0.001362463808618486,-0.0007530706352554262,-0.001595484558492899
1.7294952820309294e+18,-0.0021297242492437363,-0.0008199927397072315,0.0007460287306457758
1.7294952820369295e+18,-0.0004491567669901997,-0.00015199108747765422,0.0014055246720090508
1.7294952820459297e+18,0.002789762569591403,-0.0006612875731661916,0.0008728645043447614
1.72949528205493e+18,0.002145197708159685,0.0005826088017784059,0.002055071061477065
1.72949528206393e+18,0.001697324332781136,0.0019953434821218252,-0.005345188081264496
1.7294952820729303e+18,-0.002124113030731678,0.0006850727368146181,-0.0009315604111179709
1.7294952820819305e+18,-0.0006966427317820489,-0.0013249579351395369,-0.0019292242359369993
1.7294952820909307e+18,-0.0016078974585980177,-0.00019255292136222124,-0.001334956381469965
1.729495282099931e+18,0.004589964635670185,0.003982529975473881,0.001160609070211649
1.729495282105931e+18,-0.0020870445296168327,0.0025191379245370626,0.0027430152986198664
1.7294952821149312e+18,5.3416373702930287e-05,-0.0004648852627724409,0.0017122026765719056
1.7294952821239314e+18,-0.0022000744938850403,-0.0006790814222767949,0.0003260662197135389
1.7294952821329316e+18,0.0017930075991898775,0.0010114159667864442,0.0009105238132178783
1.7294952821419318e+18,0.0008042068220674992,0.001578694675117731,-0.0007639374234713614
1.729495282153932e+18,0.0014367819530889392,0.002331639640033245,-0.0018725382396951318
1.7294952821629322e+18,-0.0007702820003032684,-0.0005679473397321999,0.0017776178428903222
1.7294952821719324e+18,0.002551410114392638,0.00027819001115858555,0.0020059968810528517
1.7294952821839327e+18,0.00039801897946745157,0.00044844657531939447,0.00041126657743006945
1.7294952821899328e+18,-0.0031998849008232355,6.893480895087123e-05,0.0013766414485871792
1.729495282198933e+18,0.00014152476796880364,0.0017300929175689816,-0.0012504582991823554
1.7294952822079332e+18,4.206259472994134e-05,0.0007713531376793981,-0.00012919909204356372
1.7294952822169334e+18,0.00266374577768147,0.0005393800092861056,-0.0001131046301452443
1.7294952822229335e+18,0.002366692526265979,0.0003486786154098809,-0.001320124720223248
1.7294952822319337e+18,0.0013177933869883418,-0.0016127536073327065,-0.0021909328643232584
1.729495282240934e+18,-0.0014570034109055996,0.0005108668119646609,0.0018846088787540793
1.729495282249934e+18,0.0024150486569851637,0.0019099944038316607,0.00039300863863900304
1.7294952822589343e+18,0.002044455148279667,-0.0003751089971046895,3.6700312193715945e-05
1.7294952822649344e+18,0.0011855452321469784,0.00010058344196295366,-3.86157953471411e-05
1.7294952822739346e+18,-0.004246761091053486,-0.0022957785986363888,0.0007437277236022055
1.7294952822829348e+18,0.0007244692533276975,-0.0025302614085376263,0.001011681859381497
1.729495282291935e+18,-9.696486085886136e-05,-0.0010010246187448502,0.001704115536995232
1.7294952823009352e+18,0.001755826873704791,0.0013260531704872847,0.0005190831143409014
1.7294952823099354e+18,-0.0015443109441548586,0.0025547281838953495,0.0023659183643758297
1.7294952823189356e+18,-0.0022611573804169893,0.0021090006921440363,0.001219385419972241
1.7294952823249357e+18,-0.0029454082250595093,0.002602209569886327,-0.000841448490973562
1.7294952823339359e+18,-0.0008706619264557958,-0.001494361087679863,0.00310538150370121
1.729495282342936e+18,-0.001770392176695168,0.0010430372785776854,0.0011546775931492448
1.7294952823489362e+18,0.000141067459480837,-0.0012170325499027967,0.001563797239214182
1.7294952823579364e+18,0.0002310175186721608,0.0007717344560660422,-0.00392465153709054
1.7294952823669366e+18,-0.0031255914364010096,-0.002082601422443986,-0.0026387430261820555
1.7294952823759368e+18,8.73218450578861e-05,0.0008383379317820072,0.0010603850241750479
1.729495282381937e+18,-0.002162048825994134,-0.0008922324050217867,0.0011330716079100966
1.729495282390937e+18,0.0005908564780838788,-0.0010610014433041215,0.0036718056071549654
1.7294952823999373e+18,-0.001264734542928636,0.002739459043368697,-0.0008752071298658848
1.7294952824089375e+18,0.00026788731338456273,0.00207390240393579,0.0013419537572190166
1.7294952824149376e+18,0.00015224776871036738,-0.0005622215685434639,0.00013925446546636522
1.7294952824239378e+18,0.0006117571610957384,-0.000845382222905755,0.0001660030393395573
1.729495282432938e+18,0.0011734358267858624,0.0012233619345352054,0.00096858199685812
1.729495282438938e+18,0.00011408667342038825,0.00022037788585294038,0.0005391432205215096
1.7294952824479383e+18,-0.0015920577570796013,-0.0014651569072157145,-0.0017597541445866227
1.7294952824569385e+18,-0.0012101290049031377,0.0005114530795253813,0.00048599098226986825
1.7294952824629386e+18,0.0009840743150562048,-0.001208041561767459,-0.004218577407300472
1.7294952824719388e+18,-0.0010542230447754264,0.0009265851113013923,-0.0049691032618284225
1.729495282480939e+18,0.00048450761823914945,0.0001630451442906633,0.0007651109481230378
1.7294952824869391e+18,-0.0012304674601182342,-0.0016544107347726822,-0.0017812682781368494
1.7294952824959393e+18,-0.0030947630293667316,-0.0019626207649707794,-0.002753317356109619
1.7294952825049395e+18,0.00037404728936962783,-0.0001781467581167817,0.002522817812860012
1.7294952825139397e+18,0.0010566770797595382,-0.002105717547237873,-0.0013368603540584445
1.72949528252294e+18,0.0009073638939298689,-0.00023831617727410048,0.00022635400819126517
1.72949528253194e+18,0.0022863023914396763,0.001591329462826252,0.0006133295246399939
1.7294952825559406e+18,0.00031038245651870966,-0.0017537653911858797,0.0017795388121157885
1.7294952825679409e+18,0.0005629413644783199,-0.0006494004628621042,-5.165374022908509e-05
1.729495282576941e+18,-0.0003447001217864454,-0.0020580380223691463,0.002132449997588992
1.7294952825859412e+18,-0.0019018609309569001,0.001570943626575172,0.0011896510841324925
1.7294952825949414e+18,0.0013364615151658654,-0.0019209528109058738,-0.0005007508443668485
1.7294952826039416e+18,-0.00332383019849658,-8.473983325529844e-05,-0.0011710003018379211
1.7294952826129418e+18,0.0019554821774363518,0.0010944034438580275,0.000819904322270304
1.729495282621942e+18,0.0004796144785359502,0.002056206576526165,-0.001152029144577682
1.7294952826309422e+18,-0.002147602615877986,-0.0026039404328912497,0.0019489034311845899
1.7294952826399424e+18,0.003085011150687933,0.00045685889199376106,0.0003108403761871159
1.7294952826489426e+18,0.001339351641945541,-0.0009210321586579084,-0.00048486897139810026
1.7294952826579428e+18,-0.0014079216634854674,0.00019168024300597608,-0.0007378377486020327
1.729495282666943e+18,-0.0013053042348474264,0.0018914435058832169,-0.00023958995006978512
1.729495282672943e+18,0.002939254976809025,0.0022436033468693495,-0.0019222804112359881
1.7294952826819433e+18,-0.0015246927505359054,-0.00017111655324697495,0.001956492429599166
1.7294952826909435e+18,0.0005147077026776969,0.0023604324087500572,-0.0015218432527035475
1.7294952826999437e+18,0.0017213664250448346,-0.0027197692543268204,-0.0006839797715656459
1.7294952827059438e+18,0.0018013225635513663,-0.0005263558705337346,0.0003086264478042722
1.729495282714944e+18,0.0016438729362562299,0.0010276479879394174,0.0020972115453332663
1.7294952827239442e+18,0.0014203796163201332,-0.0039123836904764175,0.002830993849784136
1.7294952827299443e+18,-0.00028720806585624814,0.0003890995867550373,0.0010497969342395663
1.7294952827389445e+18,0.001493731397204101,-0.0012764065759256482,0.00341838994063437
1.7294952827479447e+18,-0.0010897816391661763,-0.001048792153596878,-0.0007653632783330977
1.729495282756945e+18,-0.00018874865781981498,-0.0038379470352083445,-0.0007517731282860041
1.729495282765945e+18,0.001859706244431436,-0.0009799390099942684,0.0006357935490086675
1.7294952827719452e+18,-0.0013423870550468564,-0.0026512984186410904,0.00037156115286052227
1.7294952827809454e+18,-0.0021794720087200403,-0.0017001195810735226,-0.0021289915312081575
1.7294952827869455e+18,-0.001488752313889563,-7.516990081057884e-06,0.0026676857378333807
1.7294952827959457e+18,-0.0009306516731157899,0.0005191111122258008,0.0006738142110407352
1.729495282804946e+18,-0.001799271092750132,0.0014021972892805934,0.0017551092896610498
1.729495282810946e+18,0.0015856078825891018,-0.0012550445972010493,-0.0016544607933610678
1.7294952828199462e+18,0.0009434368112124503,-0.0016860486939549446,-5.1591861847555265e-05
1.7294952828289464e+18,-0.00160141137894243,-0.0002653635456226766,-0.0016861034091562033
1.7294952828379466e+18,5.4383435781346634e-05,-0.0007548333378508687,0.0015235231257975101
1.7294952828439468e+18,0.0012511004460975528,-0.0011141380527988076,0.0014073398197069764
1.729495282852947e+18,0.00017772529099602252,0.00012705649714916945,-0.0004247486649546772
1.7294952828619471e+18,-0.0013725251192227006,0.0009844228625297546,0.0005182007444091141
1.7294952828709473e+18,0.0009879441931843758,-0.001564371632412076,0.0017940468387678266
1.7294952828769475e+18,0.0023810667917132378,0.0004525071126408875,-0.0006052833050489426
1.7294952828859476e+18,-0.0014631060184910893,-0.0012648532865568995,-0.0011498205130919814
1.7294952828949478e+18,-0.0014349675038829446,-0.0011476567015051842,-0.0007067433907650411
1.729495282903948e+18,-0.0009660308132879436,0.000697624811436981,-0.00028846049099229276
1.7294952829099482e+18,-0.001967908116057515,0.00020527215383481234,-0.00036516477121040225
1.7294952829189484e+18,-0.0018424310255795717,0.00031518543255515397,-0.0006608219118788838
1.7294952829279485e+18,0.0021658146288245916,0.0018930902006104589,-0.0030185936484485865
1.7294952829339487e+18,0.0026951434556394815,0.0006993685965426266,0.00218187365680933
1.7294952829429489e+18,0.0009265962871722877,-0.00040304299909621477,0.00099137460347265
1.729495282951949e+18,-0.001567148370668292,0.00040590937715023756,0.0009455651161260903
1.7294952829579492e+18,-0.0018299950752407312,-0.0002490311162546277,0.0008877718937583268
1.7294952829669494e+18,0.00032889933208934963,-0.0006113991257734597,0.00042498562834225595
1.7294952829759496e+18,0.00015579030150547624,-0.001229549408890307,0.000907622161321342
1.7294952829819497e+18,0.0014816193142905831,-0.0005854573682881892,-0.0009624669328331947
1.72949528299095e+18,-0.0006501176976598799,-0.001141103683039546,-0.0024544280022382736
1.72949528299695e+18,0.0007654009968973696,0.0005647900979965925,-0.0011280255857855082
1.7294952830059502e+18,0.0011701751500368118,-0.0015527091454714537,0.00026716836146079004
1.7294952830149504e+18,-0.0009045234764926136,-0.000638904923107475,0.0005788046983070672
1.7294952830209505e+18,0.002027808455750346,0.0027618284802883863,0.0006743008270859718
1.7294952830299507e+18,0.0015132196713238955,0.0007667932659387589,-0.0007377946749329567
1.729495283038951e+18,0.0008033208432607353,-0.0003042364551220089,0.0017494949279353023
1.729495283044951e+18,0.0014079288812354207,-0.0003914582193829119,-0.0006520789465866983
1.7294952830539512e+18,-0.0016888657119125128,-4.2915933590848e-05,-0.0004341718158684671
1.7294952830599514e+18,-0.0002720779739320278,-0.0012422963045537472,0.00134560267906636
1.7294952830689516e+18,-0.0023481077514588833,3.0293460440589115e-05,-0.001745911780744791
1.7294952830749517e+18,0.002214941428974271,0.0012997548328712583,-0.003833312075585127
1.7294952830839519e+18,-0.0004153547342866659,0.0001025860765366815,-0.0016613767948001623
1.729495283092952e+18,0.00012697061174549162,0.0020416078623384237,-0.00041197409154847264
1.7294952831019523e+18,7.226259185699746e-05,0.001708131399936974,0.0008102026185952127
1.7294952831079524e+18,-0.0009157750173471868,0.0001926957629621029,-7.740047294646502e-05
1.7294952831169526e+18,-6.406416650861502e-05,0.0023605586029589176,0.00321103329770267
1.7294952831259528e+18,0.0005047530285082757,-0.0029697169084101915,0.0026407698169350624
1.729495283134953e+18,-0.0030868975445628166,-0.000618392659816891,-0.0006660101935267448
1.7294952831439532e+18,0.0003214942989870906,0.0006421850412152708,0.0027303756214678288
1.7294952831529533e+18,0.001111595775000751,0.0010095995385199785,-0.0004785242199432105
1.7294952831619535e+18,-0.0004942161031067371,-0.0003440161526668817,0.001160330488346517
1.7294952831709537e+18,7.771685341140255e-05,-0.0012641503708437085,-0.0011019023368135095
1.7294952831769539e+18,-0.000980430282652378,-0.000588493247050792,0.00020749113173224032
1.729495283185954e+18,-0.000560200191102922,0.0014780234778299928,0.00029651515069417655
1.7294952831949542e+18,0.004619751125574112,0.0005876190261915326,-0.0005924850120209157
1.7294952832069545e+18,0.0023023991379886866,-0.004286699928343296,0.001282470882870257
1.7294952832129546e+18,0.000541234971024096,-0.0006901559536345303,0.0003699720255099237
1.7294952832219548e+18,-0.001629147562198341,-0.0008674018899910152,0.0008655511774122715
1.729495283230955e+18,0.00010806920909089968,-0.00040433628601022065,0.0026063306722790003
1.7294952832399552e+18,0.00023912164033390582,-0.0021048476919531822,0.002691937843337655
1.7294952832489554e+18,-0.00026907504070550203,-0.003327585058286786,-0.0006804167642258108
1.7294952832579556e+18,0.0010929990094155073,0.0017857044003903866,-0.0038388208486139774
1.7294952832669558e+18,-0.00033683920628391206,0.0009688723948784173,-0.0001502227532910183
1.729495283275956e+18,0.0022650083992630243,0.0016180796083062887,0.0003243669343646616
1.7294952832849562e+18,-0.0010346660856157541,-0.0022606304846704006,0.0024154470302164555
1.7294952832939564e+18,-0.001261635567061603,0.001574849826283753,1.2311181308177765e-05
1.7294952833029565e+18,0.0003026988997589797,0.0005376847111620009,0.0013070498825982213
1.7294952833119567e+18,-0.0006754307541996241,-0.0010871189879253507,0.0012927434872835875
1.729495283320957e+18,0.0006990698166191578,0.001307033933699131,0.0013012411072850227
1.729495283326957e+18,-0.00038900450454093516,-0.0007428131648339331,-0.0005795622710138559
1.7294952833359572e+18,-0.00027450075140222907,-0.0022860346361994743,0.0053108916617929935
1.7294952833449574e+18,-0.0037465172354131937,0.001699222018942237,5.997985863359645e-05
1.7294952833539576e+18,0.00032365156221203506,0.0014379096683114767,0.0017597691621631384
1.7294952833629578e+18,0.001989901065826416,-0.001715784426778555,-0.0005102390423417091
1.729495283371958e+18,-0.00261284364387393,-0.000809397257398814,-0.0011491426266729832
1.7294952833809582e+18,0.002767560537904501,-0.001242249272763729,0.002654558978974819
1.7294952833899584e+18,-0.0018271005246788263,0.0019196814391762018,-0.0019111044239252806
1.7294952833989586e+18,8.575895481044427e-05,0.0016158707439899445,0.003019490744918585
1.7294952834079588e+18,0.00195907661691308,-0.002268425188958645,-0.0015583267668262124
1.729495283416959e+18,0.00033268515835516155,-0.0014733661664649844,-0.0006270207231864333
1.729495283422959e+18,-0.0024332059547305107,0.00018631700368132442,-0.0019643898122012615
1.7294952834319593e+18,-0.001114120939746499,0.0014818240888416767,0.00032143574208021164
1.7294952834409595e+18,-0.0023724494967609644,0.0012075125705450773,-0.000154584544361569
1.7294952834499597e+18,0.0005948763573542237,0.0031938008032739162,0.0023521236144006252
1.7294952834559598e+18,-0.001178569858893752,0.0005761460051871836,-0.0016037147725000978
1.72949528346496e+18,0.0029238767456263304,0.0009214600431732833,0.0033441996201872826
1.7294952834739602e+18,0.0020738786552101374,0.0002394638431724161,0.00010026052041212097
1.7294952834799603e+18,0.0009382809512317181,-0.0011418041540309787,0.00037556959432549775
1.7294952834889605e+18,-0.001734958146698773,-0.000974644732195884,0.0007365257479250431
1.7294952834979607e+18,0.0011322996579110622,-0.0016545207472518086,0.0003486492787487805
1.7294952835039608e+18,-0.001446621841751039,-0.00042952096555382013,-0.0015034796670079231
1.729495283512961e+18,-0.0018278942443430424,0.0025429315865039825,-1.2788567801180761e-05
1.7294952835189612e+18,-0.0022759537678211927,-0.0018657378386706114,-0.00034009406226687133
1.7294952835279613e+18,-0.0013649894390255213,-0.0007230471237562597,-0.0028579644858837128
1.7294952835369615e+18,-0.002253447426483035,0.002060381695628166,-0.0021424759179353714
1.7294952835429617e+18,-0.003452765755355358,0.002283544512465596,-0.00011113972868770361
1.7294952835519619e+18,0.0022739258129149675,0.00040960762999020517,0.0006519579328596592
1.729495283560962e+18,2.2968473786022514e-05,-0.00011699410970322788,0.00042875640792772174
1.7294952835669622e+18,-0.0021961668971925974,0.0011556402314454317,0.0002326735993847251
1.7294952835759624e+18,-0.002466248581185937,-0.0017382012447342277,0.00013951283472124487
1.7294952835849626e+18,-0.0015887293266132474,-0.0018416439415886998,-0.0004966410924680531
1.7294952835909627e+18,0.0004202087293379009,-0.0001210258124046959,-0.00019661446276586503
1.729495283599963e+18,0.0004612825869116932,0.0005853762850165367,-0.002919099759310484
1.729495283608963e+18,0.0012388414470478892,0.0034367868211120367,-0.00021646443929057568
1.7294952836149632e+18,-0.0005180052830837667,-0.0016319480491802096,-0.0006267262506298721
1.7294952836239634e+18,0.0007623611600138247,-0.0008451967150904238,0.0026554318610578775
1.7294952836329636e+18,-0.003355494001880288,0.000812441052403301,0.0012180643389001489
1.7294952836419638e+18,-0.002404601313173771,-0.0036841316614300013,0.00420790771022439
1.729495283647964e+18,0.0020152621436864138,0.0032206817995756865,-0.0005831834860146046
1.729495283656964e+18,0.0003589249972719699,-0.0005248280358500779,0.001379941706545651
1.7294952836629642e+18,-0.0011647180654108524,7.023385842330754e-05,-0.001469559851102531
1.7294952836719644e+18,0.0006633991724811494,-0.0012829183833673596,0.0004835240251850337
1.7294952836779645e+18,0.0004679776029661298,-0.0018274930771440268,6.83390098856762e-05
1.7294952836869647e+18,0.002590188989415765,0.002159334486350417,-0.0022780210711061954
1.729495283695965e+18,0.002130010863766074,-0.0012380657717585564,-0.0015742843970656395
1.729495283701965e+18,0.0009861757280305028,0.0029027899727225304,0.001031086896546185
1.7294952837109652e+18,0.001072062412276864,0.0012415406526997685,0.003689742414280772
1.7294952837199654e+18,-0.002090686233714223,0.0008231679676100612,0.0002917800738941878
1.7294952837289656e+18,0.003436882281675935,0.0013626143336296082,-3.0641381272289436e-06
1.7294952837379658e+18,0.000389894878026098,0.002076609991490841,0.0005601391312666237
1.729495283743966e+18,-0.000438156072050333,0.00040666619315743446,0.0006597429164685309
1.7294952837529661e+18,-0.0002780932409223169,0.00048431457253172994,0.0006487816572189331
1.7294952837619663e+18,-0.0006335953366942704,0.003732529701665044,0.004060264211148024
1.7294952837709665e+18,-0.004393463488668203,0.0011488257441669703,-0.0014054338680580258
1.7294952837799667e+18,0.0019883508794009686,0.0020243432372808456,0.0008445393177680671
1.729495283788967e+18,-0.00028348746127448976,0.0003961555485147983,0.00019698547839652747
1.729495283794967e+18,-0.002669628243893385,0.002069565001875162,4.429102318681544e-06
1.7294952838039672e+18,-0.0012022026348859072,0.002234884537756443,-0.0007731140940450132
1.7294952838129674e+18,-0.0003519998863339424,0.0007931912550702691,-0.0008670351235195994
1.7294952838219676e+18,-0.00424652686342597,0.00036241221823729575,0.001232362468726933
1.7294952838309678e+18,0.00048730679554864764,0.0007937840418890119,0.00010006495722336695
1.729495283839968e+18,-0.00032900142832659185,0.0007590781897306442,-0.0006341584958136082
1.7294952838459681e+18,-0.0002405435952823609,-0.0008524606819264591,-0.0009116091532632709
1.7294952838549683e+18,0.003305441699922085,0.0022896963637322187,0.0014708525268360972
1.7294952838639685e+18,-0.00048418069491162896,-0.001594630884937942,0.0008296950836665928
1.7294952838729687e+18,0.0012721567181870341,0.0009625330567359924,-0.0005565515020862222
1.729495283881969e+18,0.0007892529247328639,0.0011013236362487078,0.001653541810810566
1.7294952838939692e+18,0.0027953945100307465,-0.0015273448079824448,-0.0005207796348258853
1.7294952839029693e+18,-0.0006569306133314967,0.0017841638764366508,0.00010046467650681734
1.7294952839119695e+18,0.00014723296044394374,0.0016757987905293703,0.0016581922536715865
1.7294952839209697e+18,0.001275828224606812,0.00039893697248771787,0.0010990904411301017
1.72949528392997e+18,-0.00049276661593467,0.002080650068819523,0.0003929596859961748
1.72949528393897e+18,-0.002773635322228074,0.0008296231972053647,0.0018927768105641007
1.7294952839479703e+18,0.0017575834644958377,-0.0003421552828513086,0.00010463009675731882
1.7294952839569705e+18,-0.0005425068666227162,0.0020689484663307667,-0.0017385345418006182
1.7294952839629706e+18,-5.719046021113172e-05,-0.0015207104152068496,0.0006714853225275874
1.7294952839719708e+18,-0.0014146241592243314,0.0005668284138664603,0.0031683749984949827
1.729495283980971e+18,0.000844968541059643,0.002172161592170596,0.0010782083263620734
1.7294952839899712e+18,-0.00029715089476667345,-0.001809342298656702,-0.0020030641462653875
1.7294952839959713e+18,-0.0015479206340387464,-0.0004959857906214893,0.0018090858357027173
1.7294952840079716e+18,0.0003281626559328288,-0.000471909181214869,-0.0004143005353398621
1.7294952840169718e+18,-0.0010450453264638782,-0.0007176550570875406,0.0003294938651379198
1.729495284022972e+18,0.0007236882229335606,-0.001946283271536231,-1.7850345102488063e-05
1.729495284031972e+18,0.0003462260647211224,-0.0021971287205815315,0.0025532571598887444
1.7294952840409723e+18,-0.0019022601190954447,-0.0003968702512793243,-0.0014405985129997134
1.7294952840499725e+18,0.00037486371002160013,0.003374347696080804,0.0005486943409778178
1.7294952840589727e+18,-0.0003170752024743706,0.0004512555315159261,0.0026632831431925297
1.7294952840679729e+18,-0.0006953693809919059,-0.0018576880684122443,0.00155835400801152
1.729495284073973e+18,-0.00010606827709125355,0.002043235581368208,-0.001427997020073235
1.7294952840829732e+18,-3.916635614586994e-05,0.00021005910821259022,0.000129237916553393
1.7294952840919734e+18,-0.0016763841267675161,-0.0031617844942957163,0.00015738894580863416
1.7294952841009736e+18,0.0010856252629309893,-0.00035918602952733636,0.0016617607325315475
1.7294952841099738e+18,0.0022941534407436848,0.0026098345406353474,-0.00126499286852777
1.729495284118974e+18,-0.003289853222668171,0.00048296828754246235,0.002563631162047386
1.7294952841279741e+18,-0.002851350698620081,0.0019173292675986886,-0.00010202622797805816
1.7294952841339743e+18,0.0005225769127719104,0.00038681869045831263,-0.0026290728710591793
1.7294952841429745e+18,0.0017368118278682232,0.0014039867091923952,-0.0012487726053223014
1.7294952841519747e+18,-0.0007724468596279621,0.0014637354761362076,0.0021529265213757753
1.7294952841609748e+18,0.001354452222585678,0.0008824419928714633,0.00030325984698720276
1.729495284166975e+18,0.0006007589981891215,-4.608116432791576e-05,0.0021585733629763126
1.7294952841759752e+18,-0.002893502125516534,-0.0013264454901218414,-0.001306394231505692
1.7294952841849754e+18,0.00012908500502817333,0.00020300639152992517,0.0004174463974777609
1.7294952841909755e+18,0.00020549484179355204,0.0018793544732034206,-0.0006182683864608407
1.7294952841999757e+18,-0.000639969133771956,0.0023389006964862347,-0.0006032189703546464
1.7294952842059758e+18,-0.0009215984027832747,0.0022286775056272745,-0.0014474698109552264
1.729495284214976e+18,-0.0005194508121348917,0.0013444173382595181,-0.0006335537764243782
1.7294952842239762e+18,-0.0013127793790772557,-0.00023842236259952188,-0.0012519560987129807
1.7294952842299763e+18,-0.0017022705869749188,0.0024182370398193598,-0.00035010132705792785
1.7294952842389765e+18,-0.00037631424493156374,0.0012177820317447186,-0.0013786900090053678
1.7294952842479767e+18,-0.002416412578895688,0.0003618426853790879,0.0018042195588350296
1.729495284256977e+18,0.0003717118233907968,-3.253390241297893e-05,-0.001436444348655641
1.729495284262977e+18,0.0012834256049245596,0.001393991056829691,6.445296457968652e-05
1.7294952842719772e+18,-0.0005362118245102465,-0.001892967033199966,0.0015320359962061048
1.7294952842809774e+18,0.0014458850491791964,-0.00010233846114715561,-0.003299230244010687
1.7294952842899776e+18,0.0027703612577170134,0.00040369408088736236,0.0008379138889722526
1.7294952842989778e+18,-0.0018641127971932292,0.0011658777948468924,0.0032609710469841957
1.729495284304978e+18,0.0010813380358740687,0.0012650382705032825,-0.0016786408377811313
1.729495284313978e+18,0.00014822643424849957,0.000364438135875389,0.0007640538387931883
1.7294952843229783e+18,0.0005988983321003616,-0.0002562980807852,-0.00025557982735335827
1.7294952843289784e+18,0.0019220012472942472,-0.0016415271675214171,-0.000795423926319927
1.7294952843379786e+18,-0.0027863611467182636,-0.00058127345982939,0.0008622960885986686
1.7294952843439788e+18,-0.0024530552327632904,0.0006907994393259287,-0.0018613601569086313
1.729495284352979e+18,-0.0011105934390798211,1.1378361705283169e-05,0.001269977306947112
1.729495284358979e+18,0.0018795932410284877,-0.002493608510121703,-0.0007826069486327469
1.7294952843679793e+18,0.001928818179294467,0.0003871609806083143,0.0015801347326487303
1.7294952843769795e+18,-0.0008460308308713138,-0.000949910725466907,0.0002008992014452815
1.7294952843829796e+18,-0.036099646240472794,-0.07947511225938797,-0.0025115886237472296
1.7294952843919798e+18,-0.10247371345758438,-0.2351723611354828,-0.0034864190965890884
1.72949528440098e+18,-0.16814835369586945,-0.3879317045211792,0.0016152379103004932
1.72949528440698e+18,-0.2040650099515915,-0.4689399302005768,0.0008132028160616755
1.7294952844159803e+18,-0.22051328420639038,-0.5300601720809937,-0.0015238388441503048
1.7294952844219804e+18,-0.21243710815906525,-0.525075376033783,0.0009296517237089574
1.7294952844309806e+18,-0.175508052110672,-0.4820334017276764,-0.002077113837003708
1.7294952844399808e+18,-0.14033672213554382,-0.42704227566719055,-0.0012128583621233702
1.729495284445981e+18,-0.12638717889785767,-0.40172386169433594,-0.003146585775539279
1.729495284454981e+18,-0.12616904079914093,-0.39699509739875793,-0.00034979963675141335
1.7294952844639813e+18,-0.14813224971294403,-0.41634416580200195,-0.0005698371678590775
1.7294952844729815e+18,-0.17798340320587158,-0.4446108341217041,-0.00018339790403842926
1.7294952844789816e+18,-0.18143735826015472,-0.44848400354385376,-0.0033744159154593945
1.7294952844879818e+18,-0.17012262344360352,-0.43641236424446106,-0.003256200347095728
1.729495284496982e+18,-0.1410028040409088,-0.3942883312702179,-0.002256903564557433
1.7294952845029821e+18,-0.11192941665649414,-0.3574063181877136,-0.00014958390966057777
1.7294952845119823e+18,-0.08158616721630096,-0.30320054292678833,-0.0064034853130578995
1.7294952845179825e+18,-0.06868191808462143,-0.27530181407928467,-0.004024978261440992
1.7294952845269827e+18,-0.061298348009586334,-0.23675304651260376,0.00019777659326791763
1.7294952845359828e+18,-0.07178599387407303,-0.22215107083320618,-0.002162632532417774
1.729495284544983e+18,-0.07836180925369263,-0.20619887113571167,-0.004930364899337292
1.7294952845539832e+18,-0.07967580854892731,-0.18863043189048767,-0.0018581796903163195
1.7294952845629834e+18,-0.060107190161943436,-0.1600257009267807,-0.004189722239971161
1.7294952845749837e+18,-0.025812903419137,-0.10363756120204926,-0.0025002011097967625
1.7294952845839839e+18,0.001393293496221304,-0.05831019952893257,-0.0037152389995753765
1.729495284592984e+18,0.01471753790974617,-0.027197929099202156,-0.005048283375799656
1.7294952845989842e+18,0.017528625205159187,-0.004642338491976261,-0.009013155475258827
1.7294952846079844e+18,0.017074426636099815,0.016126468777656555,-0.004073633812367916
1.7294952846169846e+18,0.013318212702870369,0.032188136130571365,0.0035068118013441563
1.7294952846259848e+18,0.014495408162474632,0.047604039311409,0.005092511884868145
1.729495284634985e+18,0.025970403105020523,0.06982547789812088,0.006377103738486767
1.7294952846439852e+18,0.0391547754406929,0.08952914923429489,0.007778964936733246
1.7294952846529853e+18,0.05612955987453461,0.11584671586751938,0.006036737933754921
1.7294952846619855e+18,0.06062440946698189,0.13506121933460236,0.007911624386906624
1.7294952846709857e+18,0.060597021132707596,0.14771834015846252,0.0027082194574177265
1.729495284679986e+18,0.057174209505319595,0.1621975302696228,0.008052357472479343
1.7294952846919862e+18,0.05214200168848038,0.17301249504089355,0.0075720264576375484
1.7294952846979863e+18,0.05345236510038376,0.1757020801305771,0.005647944286465645
1.7294952847069865e+18,0.05413715913891792,0.18109095096588135,0.005900050047785044
1.7294952847159867e+18,0.06510859727859497,0.191875159740448,0.0005438653752207756
1.729495284724987e+18,0.07288545370101929,0.19917641580104828,0.009060418233275414
1.729495284733987e+18,0.07767017930746078,0.2075386792421341,0.004477094393223524
1.7294952847429873e+18,0.07598035782575607,0.21022959053516388,0.0016214314382523298
1.7294952847519875e+18,0.07192044705152512,0.2097352147102356,0.004508352838456631
1.7294952847609876e+18,0.06308978796005249,0.20902065932750702,0.004078840836882591
1.7294952847699878e+18,0.06130196154117584,0.20371106266975403,0.0030683402437716722
1.729495284778988e+18,0.06475021690130234,0.20508810877799988,0.003119762521237135
1.7294952847879882e+18,0.06949397176504135,0.20682606101036072,-0.0008269650861620903
1.7294952847969884e+18,0.07167746871709824,0.2049885392189026,0.001656808890402317
1.7294952848059886e+18,0.0742681547999382,0.2024853229522705,0.000645926222205162
1.7294952848149888e+18,0.0761057585477829,0.19990450143814087,0.0016632085898891091
1.729495284823989e+18,0.06883278489112854,0.19616952538490295,0.0042527709156274796
1.7294952848329892e+18,0.06219645217061043,0.18724271655082703,0.0036158019211143255
1.7294952848419894e+18,0.05819939076900482,0.18473319709300995,0.00821753591299057
1.7294952848539896e+18,0.05901816487312317,0.17722222208976746,0.003205107059329748
1.7294952848599898e+18,0.057417791336774826,0.173862025141716,0.0050020297057926655
1.72949528486899e+18,0.06415916979312897,0.17169111967086792,0.0017128835897892714
1.7294952848809902e+18,0.06150159239768982,0.16202490031719208,0.002827014774084091
1.7294952848899904e+18,0.06055361405014992,0.15870118141174316,0.0017016486963257194
1.7294952848989906e+18,0.053153250366449356,0.15331535041332245,0.001621804665774107
1.7294952849079908e+18,0.04477992281317711,0.1454276293516159,0.0002285666996613145
1.729495284919991e+18,0.046238936483860016,0.14035791158676147,-0.0007772105745971203
1.7294952849289912e+18,0.04615865647792816,0.13607965409755707,-0.0025698691606521606
1.7294952849379914e+18,0.047496501356363297,0.13146208226680756,-0.0005231676041148603
1.7294952849469916e+18,0.05316250026226044,0.1275097280740738,-0.0018782129045575857
1.7294952849559918e+18,0.05058949813246727,0.12404424697160721,-0.000256354600423947
1.729495284964992e+18,0.044300783425569534,0.11979806423187256,-0.00015710509615018964
1.7294952849769923e+18,0.038815636187791824,0.1136835515499115,-0.0005432962207123637
1.7294952849859924e+18,0.03512469679117203,0.11300350725650787,-0.0012915950501337647
1.7294952849949926e+18,0.030368246138095856,0.10553377121686935,-0.00014022714458405972
1.7294952850039928e+18,0.03523937240242958,0.10264676064252853,-0.001594452653080225
1.729495285012993e+18,0.03865867108106613,0.09901463985443115,-0.002612427342683077
1.7294952850249933e+18,0.039896465837955475,0.0938979908823967,-0.0009058182477019727
1.7294952850309934e+18,0.03857118636369705,0.08993484824895859,-0.0027828665915876627
1.7294952850429937e+18,0.030245788395404816,0.09128552675247192,-0.0019519416382536292
1.7294952850519939e+18,0.02539237216114998,0.08477749675512314,-0.0023094178177416325
1.729495285060994e+18,0.024069463834166527,0.0870625376701355,-0.00268426607362926
1.7294952850699942e+18,0.02860214374959469,0.08196062594652176,-0.003206660971045494
1.7294952850789944e+18,0.029943468049168587,0.08252864331007004,-0.0027832859195768833
1.7294952850879946e+18,0.033478789031505585,0.07743165642023087,-0.003115619532763958
1.7294952850969948e+18,0.03044174611568451,0.07251058518886566,0.0001580934040248394
1.729495285105995e+18,0.02604718878865242,0.069841168820858,-0.000746097881346941
1.7294952851149952e+18,0.023304356262087822,0.06896799802780151,-0.005124295130372047
1.7294952851239954e+18,0.021826747804880142,0.06998874992132187,-0.00044972216710448265
1.7294952851329956e+18,0.022134557366371155,0.06840702891349792,-0.0011001995299011469
1.7294952851419958e+18,0.026575367897748947,0.06710557639598846,-0.001989066367968917
1.729495285150996e+18,0.023969829082489014,0.06407306343317032,-0.0039377049542963505
1.7294952851599962e+18,0.027463577687740326,0.0627184808254242,-0.003058149479329586
1.7294952851689964e+18,0.026377294212579727,0.06081406772136688,-0.003685989649966359
1.7294952851779965e+18,0.02626606822013855,0.062576062977314,-0.0038888738490641117
1.7294952851869967e+18,0.022806191816926003,0.05972769111394882,-0.006275787949562073
1.729495285198997e+18,0.02259819023311138,0.06194339692592621,-0.0033248444087803364
1.7294952852079972e+18,0.02024117112159729,0.059476613998413086,-0.004007566254585981
1.7294952852169974e+18,0.02205170877277851,0.06022896617650986,-0.005312078166753054
1.7294952852259976e+18,0.02353036403656006,0.06011269614100456,-0.003558090655133128
1.7294952852349978e+18,0.02562863379716873,0.05779425799846649,-0.003317877184599638
1.729495285243998e+18,0.02560102939605713,0.05538332834839821,-0.0042419410310685635
1.7294952852529981e+18,0.021623453125357628,0.05289975181221962,-0.004940002225339413
1.7294952852619983e+18,0.021268649026751518,0.053094107657670975,-0.006321001797914505
1.7294952852709985e+18,0.02105134353041649,0.05206802487373352,-0.007713405415415764
1.7294952852799987e+18,0.023406362161040306,0.051513347774744034,-0.005864311475306749
1.729495285288999e+18,0.021989822387695312,0.047898609191179276,-0.007722607348114252
1.729495285297999e+18,0.018618717789649963,0.05034127086400986,-0.0047189886681735516
1.7294952853069993e+18,0.018761901184916496,0.04623856768012047,-0.0071029504761099815
1.7294952853129994e+18,0.01569381169974804,0.0451008565723896,-0.005534087773412466
1.7294952853219996e+18,0.017641637474298477,0.04505210742354393,-0.008110223338007927
1.7294952853309998e+18,0.01576928235590458,0.04093037545681,-0.006418217904865742
1.72949528534e+18,0.017051855102181435,0.04403739795088768,-0.007877852767705917
1.7294952853490002e+18,0.01217756886035204,0.04501369222998619,-0.006256889086216688
1.7294952853580004e+18,0.014443998225033283,0.044300343841314316,-0.003936734516173601
1.7294952853670006e+18,0.014328042976558208,0.042904675006866455,-0.006891407538205385
1.7294952853760008e+18,0.015050213783979416,0.04138331860303879,-0.010393653064966202
1.729495285385001e+18,0.016158144921064377,0.03712072595953941,-0.010899568907916546
1.7294952853940012e+18,0.012620116584002972,0.04202568158507347,-0.009283563122153282
1.7294952854000013e+18,0.013267198577523232,0.03564570099115372,-0.006680043414235115
1.7294952854090015e+18,0.012415051460266113,0.03717911243438721,-0.00989261269569397
1.7294952854180017e+18,0.013764044269919395,0.03704353794455528,-0.00765122938901186
1.7294952854270019e+18,0.011609721928834915,0.03535502031445503,-0.007130366284400225
1.729495285436002e+18,0.016617832705378532,0.036713745445013046,-0.009548532776534557
1.7294952854450022e+18,0.01369495689868927,0.03538894280791283,-0.010311860591173172
1.7294952854540024e+18,0.016098735854029655,0.034431684762239456,-0.00903654657304287
1.7294952854630026e+18,0.015061512589454651,0.03354364261031151,-0.0068266866728663445
1.7294952854690028e+18,0.011977189220488071,0.032454293221235275,-0.008380456827580929
1.729495285478003e+18,0.013982409611344337,0.03244571387767792,-0.009507476352155209
1.7294952854870031e+18,0.013912786729633808,0.034046050161123276,-0.010614375583827496
1.7294952854930033e+18,0.012062781490385532,0.031890638172626495,-0.008946473710238934
1.7294952855020035e+18,0.01286578830331564,0.03372741863131523,-0.006757964380085468
1.7294952855110036e+18,0.015344168990850449,0.030824271962046623,-0.006196900270879269
1.7294952855200038e+18,0.011825025081634521,0.026064230129122734,-0.009816616773605347
1.729495285529004e+18,0.01393214426934719,0.026818668469786644,-0.00798830110579729
1.7294952855350042e+18,0.011721690185368061,0.025703756138682365,-0.010147139430046082
1.7294952855440044e+18,0.010403946042060852,0.027217939496040344,-0.007863233797252178
1.7294952855530045e+18,0.012669237330555916,0.026751894503831863,-0.008309529162943363
1.7294952855590047e+18,0.011126113124191761,0.027314305305480957,-0.010874347761273384
1.7294952855680049e+18,0.009346753358840942,0.02825419418513775,-0.00687497528269887
1.729495285577005e+18,0.008140595629811287,0.02673208713531494,-0.011789869517087936
1.7294952855860052e+18,0.008663760498166084,0.024159640073776245,-0.007703931536525488
1.7294952855950054e+18,0.008410964161157608,0.02375294454395771,-0.011405854485929012
1.7294952856040056e+18,0.00836072489619255,0.020859472453594208,-0.010514937341213226
1.7294952856130058e+18,0.007457476109266281,0.019876662641763687,-0.011845288798213005
1.729495285619006e+18,0.00931902788579464,0.01994415745139122,-0.010440872050821781
1.7294952856280061e+18,0.008961115032434464,0.019586138427257538,-0.008455091156065464
1.7294952856370063e+18,0.00914124958217144,0.01873157173395157,-0.009732234291732311
1.7294952856460065e+18,0.009186874143779278,0.01580430381000042,-0.008685354143381119
1.7294952856520067e+18,0.0090279346331954,0.0200860146433115,-0.008168991655111313
1.7294952856610068e+18,0.010189631953835487,0.01582939177751541,-0.008565082214772701
1.729495285673007e+18,0.010562848299741745,0.013733012601733208,-0.009996261447668076
1.7294952856790072e+18,0.005929066799581051,0.01298812497407198,-0.0057251835241913795
1.7294952856880074e+18,0.007575174793601036,0.014627417549490929,-0.009826581925153732
1.7294952856970076e+18,0.006478301249444485,0.010216892696917057,-0.011269643902778625
1.7294952857060078e+18,0.007006182335317135,0.013882665894925594,-0.009359916672110558
1.729495285715008e+18,0.0075928568840026855,0.010422218590974808,-0.012499785050749779
1.7294952857240082e+18,0.006718025077134371,0.010337970219552517,-0.010247059166431427
1.7294952857300083e+18,0.008288049139082432,0.009158933535218239,-0.006615706719458103
1.7294952857390085e+18,0.00782297644764185,0.010274345986545086,-0.012166518718004227
1.7294952857480087e+18,0.005942427087575197,0.008190253749489784,-0.00581729831174016
1.7294952857540088e+18,0.005127498414367437,0.009891165420413017,-0.006892090663313866
1.729495285763009e+18,0.004400014411658049,0.006439707241952419,-0.010784158483147621
1.7294952857720092e+18,0.004103089217096567,0.00848868116736412,-0.008113284595310688
1.7294952857810094e+18,0.006186716258525848,0.007041381672024727,-0.008774945512413979
1.7294952857870095e+18,0.007711417973041534,0.007769173476845026,-0.008885444141924381
1.7294952857960097e+18,0.0062910327687859535,0.005323867779225111,-0.009644653648138046
1.72949528580501e+18,0.007120224647223949,0.004323055502027273,-0.00866103544831276
1.72949528581101e+18,0.00548621267080307,0.005081877112388611,-0.01021425612270832
1.7294952858200102e+18,0.004457515198737383,0.0047133504413068295,-0.00630395021289587
1.7294952858290104e+18,8.097593672573566e-05,0.002525676041841507,-0.010346921160817146
1.7294952858350106e+18,0.0021518555004149675,0.0031323523726314306,-0.004792625550180674
1.7294952858440108e+18,0.0014669856755062938,0.0037213044706732035,-0.00780992116779089
1.729495285853011e+18,0.0008085373556241393,0.0020411608275026083,-0.00795220211148262
1.7294952858620111e+18,0.002895125886425376,0.002920721657574177,-0.006883705500513315
1.7294952858710113e+18,0.006610319949686527,0.0004895370220765471,-0.008621759712696075
1.7294952858800115e+18,0.007413954474031925,-0.0005530333146452904,-0.0077310591004788876
1.7294952858890117e+18,0.005668600555509329,0.0016833244590088725,-0.006217821966856718
1.729495285898012e+18,0.000719889416359365,0.0012019912246614695,-0.005640761461108923
1.729495285907012e+18,-0.0014967232709750533,-2.067314926534891e-05,-0.0055047860369086266
1.7294952859160123e+18,-0.0008397060446441174,-5.127393524162471e-05,-0.008742153644561768
1.7294952859250125e+18,-0.001988062635064125,-0.0005892456974834204,-0.009786388836801052
1.7294952859310126e+18,-0.002481407020241022,-0.0005149648641236126,-0.006750104017555714
1.7294952859400128e+18,0.0012415254022926092,-0.0034380387514829636,-0.007513030432164669
1.729495285949013e+18,0.0005816944176331162,-0.004312829114496708,-0.008541494607925415
1.7294952859580132e+18,0.0005959012778475881,-0.004291936755180359,-0.009134551510214806
1.7294952859670134e+18,-0.0011185240000486374,-0.0025242569390684366,-0.007133192382752895
1.7294952859760136e+18,-0.0041565303690731525,-0.0018774723866954446,-0.004565420560538769
1.7294952859850138e+18,-0.006244524847716093,-0.00531772430986166,-0.004041992127895355
1.729495285994014e+18,-0.003953906241804361,-0.002506077755242586,-0.007695418316870928
1.7294952860030141e+18,-0.0015592087293043733,-0.001752216718159616,-0.006182032637298107
1.7294952860120143e+18,-0.0022270383778959513,-0.001538299722597003,-0.006015229504555464
1.7294952860210145e+18,0.0014008514117449522,-0.004707065410912037,-0.004952636547386646
1.7294952860300147e+18,0.003071027109399438,-0.003211487550288439,-0.006881908979266882
1.729495286039015e+18,-0.001508462941274047,-0.0028665889985859394,-0.011395764537155628
1.729495286048015e+18,-0.0016135297482833266,-0.0037851009983569384,-0.005382673814892769
1.7294952860570153e+18,-0.0034318428952246904,-0.006376441568136215,-0.008031814359128475
1.7294952860690156e+18,-0.0029855784960091114,-0.003992918878793716,-0.00791839137673378
1.7294952860780157e+18,-0.0007128091529011726,-0.006777188740670681,-0.00436095055192709
1.729495286087016e+18,0.0002581875305622816,-0.002577132312580943,-0.006219616625458002
1.7294952860960161e+18,0.0025351736694574356,-0.00723457895219326,-0.006034545600414276
1.7294952861080164e+18,-0.002071021357551217,-0.0021622388157993555,-0.005806391127407551
1.7294952861170166e+18,-0.0017107147723436356,-0.003406830597668886,-0.00640332093462348
1.7294952861260168e+18,-0.004344368353486061,-0.008107216097414494,-0.0034226165153086185
1.729495286135017e+18,-0.0017170518403872848,-0.0038792025297880173,-0.005857003852725029
1.7294952861470172e+18,-0.0005518419202417135,-0.005182978697121143,-0.0035885407123714685
1.7294952861560174e+18,0.00031579588539898396,-0.005081946961581707,-0.0032806515228003263
1.7294952861650176e+18,-0.0030966217163950205,-0.010056959465146065,-0.005464100278913975
1.7294952861740178e+18,-0.0029381951317191124,-0.010489248670637608,-0.005705926101654768
1.729495286183018e+18,-0.002822287380695343,-0.0142567353323102,-0.0018617529422044754
1.729495286189018e+18,-0.0027758420910686255,-0.012311559170484543,-0.0040756347589194775
1.7294952861980183e+18,-0.003935032058507204,-0.012488684616982937,-0.0013146973215043545
1.7294952862070185e+18,-0.0034560018684715033,-0.009421393275260925,-0.004866725765168667
1.7294952862130186e+18,-0.001723637105897069,-0.011630194261670113,-0.0060506537556648254
1.7294952862220188e+18,-0.0033955336548388004,-0.012534646317362785,-0.004227857571095228
1.729495286228019e+18,0.00011968088801950216,-0.009978520683944225,-0.002053611446171999
1.7294952862370191e+18,-0.0035963712725788355,-0.010827891528606415,-0.0029096840880811214
1.7294952862460193e+18,-0.0028082225471735,-0.013732771389186382,-0.006760764867067337
1.7294952862520195e+18,-0.006056857295334339,-0.018559392541646957,-0.004424850456416607
1.7294952862610196e+18,-0.0066122133284807205,-0.016781505197286606,-0.004630574956536293
1.7294952862700198e+18,-0.005760448984801769,-0.013382957316935062,-0.005258649121969938
1.72949528627902e+18,-0.007459754589945078,-0.014596022665500641,-0.003951384220272303
1.7294952862880202e+18,-0.00666328938677907,-0.012853248044848442,-0.0049071176908910275
1.7294952862970204e+18,-0.007275580428540707,-0.015192780643701553,-0.004747162573039532
1.7294952863030205e+18,-0.005836633965373039,-0.017380891367793083,-0.0026778215542435646
1.7294952863120207e+18,-0.005679274443536997,-0.017596064135432243,-0.00468522310256958
1.729495286321021e+18,-0.006680576130747795,-0.020406479015946388,-0.0017515408108010888
1.729495286330021e+18,-0.010815359652042389,-0.022066999226808548,-0.0036358360666781664
1.7294952863390213e+18,-0.00797562301158905,-0.018367266282439232,-0.004976232070475817
1.7294952863450214e+18,-0.009749602526426315,-0.013773482292890549,-0.0016145468689501286
1.7294952863540216e+18,-0.009577578864991665,-0.016845261678099632,-0.004393372219055891
1.7294952863630218e+18,-0.008821253664791584,-0.019290318712592125,-0.0014422950334846973
1.729495286372022e+18,-0.00623750826343894,-0.020176289603114128,-0.004176742862910032
1.7294952863780221e+18,-0.007901043631136417,-0.02091364748775959,-0.0017997652757912874
1.7294952863870223e+18,-0.00987318530678749,-0.023477859795093536,-0.004403233993798494
1.7294952863960225e+18,-0.00822327472269535,-0.022526657208800316,-0.002609111135825515
1.7294952864050227e+18,-0.004663234110921621,-0.019270477816462517,-0.0026887895073741674
1.729495286414023e+18,-0.009717759676277637,-0.02182125672698021,-0.0030893865041434765
1.729495286423023e+18,-0.010941720567643642,-0.01923205517232418,-0.0018172506242990494
1.7294952864290232e+18,-0.009273553267121315,-0.01868479885160923,-0.0027865017764270306
1.7294952864380234e+18,-0.00782807171344757,-0.017323778942227364,-0.005557338707149029
1.7294952864470236e+18,-0.009509928524494171,-0.019751176238059998,-0.0005924331489950418
1.7294952864560238e+18,-0.008321274071931839,-0.02014809474349022,-0.0026898873038589954
1.729495286465024e+18,-0.009906663559377193,-0.020480778068304062,-0.004556322004646063
1.7294952864740242e+18,-0.0072548179887235165,-0.0199879240244627,-0.0025066875386983156
1.7294952864830244e+18,-0.0077407145872712135,-0.02031579613685608,-0.0030313043389469385
1.7294952864920246e+18,-0.004776474554091692,-0.02280164137482643,-0.004541573114693165
1.7294952865010248e+18,-0.00620961794629693,-0.022089460864663124,-0.0023658277932554483
1.729495286510025e+18,-0.005286026746034622,-0.018760161474347115,-0.0029493747279047966
1.7294952865190252e+18,-0.005081042647361755,-0.023003950715065002,-0.002958521246910095
1.7294952865280253e+18,-0.007889135740697384,-0.02444787137210369,-0.002975917886942625
1.7294952865370255e+18,-0.007077022455632687,-0.02097192220389843,-0.00019465351942926645
1.7294952865460257e+18,-0.008343694731593132,-0.02122969552874565,-0.0013051179703325033
1.729495286555026e+18,-0.00723076518625021,-0.021766193211078644,-0.0031920396722853184
1.729495286564026e+18,-0.011078638024628162,-0.01980513706803322,-0.002712251851335168
1.7294952865730263e+18,-0.009688756428658962,-0.021028591319918633,-0.0010427499655634165
1.7294952865820265e+18,-0.011401589959859848,-0.022614924237132072,0.0006447912892326713
1.7294952865880266e+18,-0.012892235070466995,-0.023000264540314674,-0.002768424339592457
1.7294952865970268e+18,-0.010326375253498554,-0.023113450035452843,0.002440698677673936
1.729495286606027e+18,-0.009408579207956791,-0.022543461993336678,-0.0011257368605583906
1.7294952866150272e+18,-0.006636930629611015,-0.02237040549516678,-0.0006719683879055083
1.7294952866240274e+18,-0.010531680658459663,-0.023069022223353386,-0.0005796414334326982
1.7294952866330276e+18,-0.010500759817659855,-0.02149314433336258,-0.0001512649469077587
1.7294952866390277e+18,-0.01165357232093811,-0.017652470618486404,-0.0034281467087566853
1.729495286648028e+18,-0.016115715727210045,-0.023507211357355118,-5.177024286240339e-05
1.729495286657028e+18,-0.011922973208129406,-0.023090731352567673,-0.0026517838705331087
1.7294952866660283e+18,-0.010740872472524643,-0.021894261240959167,-0.00010928837582468987
1.7294952866750285e+18,-0.008255642838776112,-0.022087136283516884,-0.0003428088966757059
1.7294952866840287e+18,-0.00713003147393465,-0.02126324363052845,3.134831786155701e-05
1.7294952866930289e+18,-0.010381005704402924,-0.023757731541991234,-0.0008287198143079877
1.729495286702029e+18,-0.010609898716211319,-0.017195506021380424,-0.0014930135803297162
1.7294952867110292e+18,-0.009835243225097656,-0.024274606257677078,-0.00038527202559635043
1.7294952867200294e+18,-0.008853557519614697,-0.021184829995036125,0.0011321909260004759
1.7294952867290296e+18,-0.008543184958398342,-0.023296551778912544,-0.0010628766613081098
1.7294952867380298e+18,-0.006196385715156794,-0.02226913720369339,-0.003748621791601181
1.72949528674703e+18,-0.005189329385757446,-0.024453788995742798,0.0011097351089119911
1.7294952867560302e+18,-0.0040774098597466946,-0.023449731990695,-0.0030214497819542885
1.7294952867650304e+18,-0.006823924370110035,-0.0210257638245821,-0.0003521720936987549
1.7294952867740306e+18,-0.007581472396850586,-0.021727455779910088,-0.0016894304426386952
1.7294952867830308e+18,-0.012930910103023052,-0.022165242582559586,-0.0008627730421721935
1.729495286792031e+18,-0.010529899969696999,-0.02429390326142311,5.463969137053937e-05
1.7294952868010312e+18,-0.006606284063309431,-0.02443799003958702,-0.0013289324706420302
1.7294952868100314e+18,-0.0034669036976993084,-0.020942624658346176,0.00041412157588638365
1.7294952868160315e+18,-0.002385352272540331,-0.019887369126081467,3.493338590487838e-05
1.7294952868250317e+18,-0.0004403097555041313,-0.022230839356780052,0.002622410887852311
1.7294952868340319e+18,-0.0002916707890108228,-0.02470921352505684,-0.00616534985601902
1.729495286843032e+18,0.009817393496632576,-0.026658354327082634,-0.02025262638926506
1.7294952868520323e+18,0.01674126461148262,-0.028543340042233467,-0.027924571186304092
1.7294952868610324e+18,0.013564136810600758,-0.03154902160167694,-0.028745729476213455
1.7294952868700326e+18,0.008789015002548695,-0.03176039084792137,-0.031961530447006226
1.7294952868790328e+18,0.0015808944590389729,-0.03063911944627762,-0.031418800354003906
1.729495286888033e+18,-0.004318193532526493,-0.02753850258886814,-0.029198497533798218
1.7294952868970332e+18,-0.007664249278604984,-0.02417142502963543,-0.030288219451904297
1.7294952869060334e+18,-0.005021422170102596,-0.02258458361029625,-0.030064266175031662
1.7294952869150336e+18,-0.0022522315848618746,-0.025642812252044678,-0.030747603625059128
1.7294952869240338e+18,0.001451383694075048,-0.025159602984786034,-0.02886190265417099
1.729495286933034e+18,0.005318921059370041,-0.030350055545568466,-0.028956204652786255
1.7294952869420342e+18,-0.0037621688097715378,-0.028408650308847427,-0.027628423646092415
1.7294952869510344e+18,-0.0051456475630402565,-0.0284995399415493,-0.030452588573098183
1.7294952869600346e+18,-0.012623473070561886,-0.025436587631702423,-0.03134392201900482
1.7294952869690348e+18,-0.012413077987730503,-0.025266075506806374,-0.027284041047096252
1.729495286978035e+18,-0.011085697449743748,-0.02486475370824337,-0.024754825979471207
1.7294952869870351e+18,-0.009020650759339333,-0.025379979982972145,-0.030732326209545135
1.7294952869960353e+18,-0.0057837096974253654,-0.023083848878741264,-0.030233537778258324
1.7294952870050355e+18,-0.005885320715606213,-0.021360158920288086,-0.028954748064279556
1.7294952870140357e+18,-0.008896969258785248,-0.02371673844754696,-0.02576425112783909
1.729495287023036e+18,-0.011791497468948364,-0.021927569061517715,-0.02508903667330742
1.729495287032036e+18,-0.014867088757455349,-0.024485066533088684,-0.026086434721946716
1.7294952870410363e+18,-0.016099123284220695,-0.02371901646256447,-0.02443111129105091
1.7294952870530365e+18,-0.015344295650720596,-0.023912107571959496,-0.024420300498604774
1.7294952870620367e+18,-0.01438805740326643,-0.0252008605748415,-0.018798964098095894
1.729495287071037e+18,-0.011903071776032448,-0.02107882872223854,-0.021806925535202026
1.729495287080037e+18,-0.014795675873756409,-0.02509957179427147,-0.02022376097738743
1.7294952870890373e+18,-0.015155363827943802,-0.020177830010652542,-0.017311468720436096
1.7294952870980375e+18,-0.012045463547110558,-0.02471914328634739,-0.020627710968255997
1.7294952871070377e+18,-0.013169744051992893,-0.02321752905845642,-0.016328180208802223
1.7294952871130378e+18,-0.010903989896178246,-0.02625393308699131,-0.01463508140295744
1.729495287122038e+18,-0.011408752761781216,-0.02870367094874382,-0.01471891812980175
1.7294952871310382e+18,-0.01545108761638403,-0.026057563722133636,-0.01349921990185976
1.7294952871400384e+18,-0.013427704572677612,-0.023356212303042412,-0.012709612026810646
1.7294952871460385e+18,-0.01527493353933096,-0.02256527915596962,-0.012630272656679153
1.7294952871550387e+18,-0.01199046429246664,-0.023619525134563446,-0.010332158766686916
1.729495287164039e+18,-0.010778444819152355,-0.02435131184756756,-0.011476759798824787
1.729495287173039e+18,-0.013253893703222275,-0.024334877729415894,-0.009294412098824978
1.7294952871820393e+18,-0.013288290239870548,-0.026411738246679306,-0.01183995045721531
1.7294952871910395e+18,-0.01274709403514862,-0.026077790185809135,-0.008351691998541355
1.7294952872000397e+18,-0.009279625490307808,-0.02635888382792473,-0.007558563724160194
1.7294952872060398e+18,-0.010673108510673046,-0.02635730803012848,-0.008640187792479992
1.72949528721504e+18,-0.009539519436657429,-0.02600901573896408,-0.005128065124154091
1.7294952872240402e+18,-0.0070757451467216015,-0.024652255699038506,-0.007374750450253487
1.7294952872330404e+18,-0.011482272297143936,-0.027277493849396706,-0.008793938905000687
1.7294952872390405e+18,-0.013617759570479393,-0.027122827246785164,-0.006055980920791626
1.7294952872480407e+18,-0.012317223474383354,-0.027793042361736298,-0.005933500826358795
1.729495287257041e+18,-0.015421048738062382,-0.025176236405968666,-0.005269551649689674
1.729495287266041e+18,-0.012270734645426273,-0.021984394639730453,-0.004263807088136673
1.7294952872720412e+18,-0.007973521947860718,-0.021578731015324593,-0.004721947945654392
1.7294952872810414e+18,-0.005741365719586611,-0.02434050478041172,-0.006347167305648327
1.7294952872900416e+18,-0.011951718479394913,-0.02505580708384514,-0.0040698000229895115
1.7294952872990418e+18,-0.012649153359234333,-0.02839035913348198,-0.005683279130607843
1.729495287308042e+18,-0.01424063928425312,-0.022374307736754417,-0.005330993328243494
1.729495287314042e+18,-0.012318229302763939,-0.02603028155863285,-0.004922273103147745
1.7294952873230423e+18,-0.012076097540557384,-0.022686375305056572,-0.004611945245414972
1.7294952873320425e+18,-0.009798307903110981,-0.023391300812363625,-0.00584601704031229
1.7294952873380426e+18,-0.007693421095609665,-0.024280717596411705,-0.0039007547311484814
1.7294952873470428e+18,-0.00981912948191166,-0.024936089292168617,-0.006947499234229326
1.729495287356043e+18,-0.0075064594857394695,-0.02559814229607582,-0.004629773087799549
1.7294952873650432e+18,-0.01186701375991106,-0.024219436571002007,-0.00633725943043828
1.7294952873740434e+18,-0.013102766126394272,-0.023185893893241882,-0.0073002115823328495
1.7294952873800435e+18,-0.01284013781696558,-0.024125225841999054,-0.007847324945032597
1.7294952873890437e+18,-0.013723417185246944,-0.02461698092520237,-0.007510764058679342
1.729495287398044e+18,-0.009886362589895725,-0.02588254027068615,-0.007388675585389137
1.729495287407044e+18,-0.007789364084601402,-0.02098909392952919,-0.008243653923273087
1.7294952874160443e+18,-0.005123439710587263,-0.022474518045783043,-0.008522715419530869
1.7294952874250445e+18,-0.007935925386846066,-0.01860109716653824,-0.010026118718087673
1.7294952874310446e+18,-0.010037648491561413,-0.019816480576992035,-0.006282933987677097
1.7294952874400448e+18,-0.010508595034480095,-0.018799230456352234,-0.0094797033816576
1.729495287449045e+18,-0.011476879008114338,-0.018378891050815582,-0.010142792016267776
1.7294952874580452e+18,-0.013145772740244865,-0.020101463422179222,-0.008800419047474861
1.7294952874670454e+18,-0.012346681207418442,-0.020061353221535683,-0.012757550925016403
1.7294952874760456e+18,-0.008746273815631866,-0.02040109410881996,-0.012750430032610893
1.7294952874820457e+18,-0.008513553068041801,-0.01833285391330719,-0.009304849430918694
1.729495287494046e+18,-0.0058408272452652454,-0.022463876754045486,-0.01069527305662632
1.729495287500046e+18,-0.006647431757301092,-0.019716603681445122,-0.009206360206007957
1.7294952875090463e+18,-0.009363383054733276,-0.020887257531285286,-0.010597155429422855
1.7294952875180465e+18,-0.010265927761793137,-0.019460251554846764,-0.008979272097349167
1.7294952875270467e+18,-0.015363511629402637,-0.021485794335603714,-0.012182104401290417
1.7294952875360468e+18,-0.01373005099594593,-0.019964756444096565,-0.011047081090509892
1.729495287545047e+18,-0.013783534988760948,-0.021474137902259827,-0.010523076169192791
1.7294952875540472e+18,-0.011085353791713715,-0.02015412598848343,-0.009817884303629398
1.7294952875630474e+18,-0.00861331820487976,-0.019247019663453102,-0.014169329777359962
1.7294952875720476e+18,-0.006247035227715969,-0.019855860620737076,-0.011039488948881626
1.7294952875810478e+18,-0.007335749454796314,-0.016017349436879158,-0.01271281111985445
1.729495287590048e+18,-0.009738021530210972,-0.0155039606615901,-0.012303715571761131
1.7294952875990482e+18,-0.011712879873812199,-0.015015460550785065,-0.010739509016275406
1.7294952876080484e+18,-0.01409333385527134,-0.01742716319859028,-0.012264421209692955
1.7294952876170486e+18,-0.015323391184210777,-0.018079552799463272,-0.009630355052649975
1.7294952876260488e+18,-0.011138699017465115,-0.016991665586829185,-0.011056184768676758
1.729495287635049e+18,-0.011532372795045376,-0.016403505578637123,-0.010760546661913395
1.7294952876440492e+18,-0.00841989740729332,-0.013520101085305214,-0.011852342635393143
1.7294952876530493e+18,-0.012235411442816257,-0.016131464391946793,-0.011946828104555607
1.7294952876620495e+18,-0.008584441617131233,-0.01571415364742279,-0.010537543334066868
1.7294952876710497e+18,-0.010099380277097225,-0.01492068450897932,-0.011335764080286026
1.72949528768005e+18,-0.010975634679198265,-0.016744369640946388,-0.010036622174084187
1.72949528768905e+18,-0.013573065400123596,-0.017339114099740982,-0.008026923052966595
1.7294952876980503e+18,-0.013484814204275608,-0.01621718890964985,-0.009003670886158943
1.7294952877070505e+18,-0.010997050441801548,-0.01776215061545372,-0.010002232156693935
1.7294952877160507e+18,-0.008331332355737686,-0.01781197264790535,-0.010905665345489979
1.7294952877220508e+18,-0.009241368621587753,-0.017635533586144447,-0.00814560055732727
1.729495287731051e+18,-0.006149037275463343,-0.016758790239691734,-0.008612039498984814
1.7294952877400512e+18,-0.008898431435227394,-0.01600748859345913,-0.008632364682853222
1.7294952877490514e+18,-0.010189151391386986,-0.01641828939318657,-0.009507592767477036
1.7294952877580516e+18,-0.008489950560033321,-0.01713051274418831,-0.004076026845723391
1.7294952877670518e+18,-0.011217227205634117,-0.017460735514760017,-0.006432021968066692
1.729495287776052e+18,-0.013269913382828236,-0.013488964177668095,-0.0040946160443127155
1.7294952877880522e+18,-0.00789971835911274,-0.015881657600402832,-0.0075341626070439816
1.7294952877970524e+18,-0.009655597619712353,-0.015734201297163963,-0.005379030480980873
1.7294952878060526e+18,-0.006509621161967516,-0.013129066675901413,-0.0004960100632160902
1.7294952878150528e+18,-0.007316111121326685,-0.014570942148566246,-0.004053235054016113
1.729495287824053e+18,-0.008540886454284191,-0.013493821956217289,-0.0027411088813096285
1.7294952878330532e+18,-0.008688985370099545,-0.016585828736424446,0.0001840014010667801
1.7294952878420534e+18,-0.004876376129686832,-0.01649196818470955,-0.0008887713775038719
1.7294952878510536e+18,-0.005217814818024635,-0.01440263632684946,-0.003497624769806862
1.7294952878600538e+18,-0.007569723762571812,-0.013775452971458435,-0.0027721384540200233
1.729495287869054e+18,-0.00596160301938653,-0.015477675944566727,-0.0006382386782206595
1.7294952878780541e+18,-0.006929600145667791,-0.013146434910595417,-0.00025969985290430486
1.7294952878870543e+18,-0.002322589745745063,-0.01034566294401884,-0.0003151261480525136
1.7294952878960545e+18,-0.00282705994322896,-0.014962706714868546,-3.454356919974089e-05
1.7294952879020547e+18,-0.0011103779543191195,-0.009575600735843182,0.002307799644768238
1.729495287914055e+18,-0.0048342603258788586,-0.014103580266237259,-0.0021825293079018593
1.729495287923055e+18,-0.006628889590501785,-0.012535319663584232,0.002379938028752804
1.7294952879320553e+18,-0.008401758037507534,-0.02379734441637993,0.0014070634497329593
1.7294952879410555e+18,-0.011828521266579628,-0.03487653285264969,0.003071927698329091
1.7294952879500557e+18,-0.017496971413493156,-0.04712194576859474,0.00273547088727355
1.729495287959056e+18,-0.02114330604672432,-0.05647117272019386,0.0052569592371582985
1.729495287968056e+18,-0.02248283661901951,-0.05873291566967964,0.002219614339992404
1.7294952879770563e+18,-0.021068554371595383,-0.06269637495279312,0.00021045166067779064
1.7294952879890565e+18,-0.02160339429974556,-0.06020715460181236,0.005592887755483389
1.7294952879980567e+18,-0.020479699596762657,-0.061220038682222366,0.0004841838963329792
1.729495288007057e+18,-0.018954643979668617,-0.06319428235292435,0.004076980520039797
1.729495288016057e+18,-0.022350359708070755,-0.06856834888458252,-0.00015518907457590103
1.7294952880250573e+18,-0.021467288956046104,-0.06962526589632034,0.001071869395673275
1.7294952880370575e+18,-0.024029439315199852,-0.07259467989206314,0.003226814791560173
1.7294952880460577e+18,-0.022316407412290573,-0.0731525868177414,0.0031682169064879417
1.729495288055058e+18,-0.02290584146976471,-0.06859403848648071,0.002473163418471813
1.729495288064058e+18,-0.02437896654009819,-0.06533051282167435,0.0010197767987847328
1.7294952880760584e+18,-0.02204914391040802,-0.05964573845267296,0.003983613569289446
1.7294952880850586e+18,-0.022991687059402466,-0.058146703988313675,0.0031934622675180435
1.7294952880940588e+18,-0.02495691552758217,-0.059848494827747345,0.00036516180261969566
1.729495288103059e+18,-0.0223222803324461,-0.05619492009282112,0.001247765263542533
1.7294952881150592e+18,-0.01945440284907818,-0.052739642560482025,0.0024027458857744932
1.7294952881240594e+18,-0.018103038892149925,-0.04886946827173233,0.004686701577156782
1.7294952881330596e+18,-0.019531117752194405,-0.04641576111316681,-0.0001223569270223379
1.7294952881450598e+18,-0.01755187287926674,-0.04411984235048294,-1.1473894119262695e-05
1.72949528815406e+18,-0.017115596681833267,-0.0368325337767601,0.0009312393376603723
1.7294952881630602e+18,-0.020357685163617134,-0.03536389395594597,0.0009845775784924626
1.7294952881750605e+18,-0.017321331426501274,-0.029680898413062096,0.004471196793019772
1.7294952881840607e+18,-0.01385537814348936,-0.025341641157865524,0.001833478920161724
1.7294952881930609e+18,-0.009574449621140957,-0.023812416940927505,0.0011918448144569993
1.729495288202061e+18,-0.0073586441576480865,-0.018474487587809563,0.0013164168922230601
1.7294952882140613e+18,-0.012551689520478249,-0.0216401144862175,0.0007585167768411338
1.7294952882230615e+18,-0.015622642822563648,-0.018772922456264496,0.00015933963004499674
1.7294952882320617e+18,-0.013607827015221119,-0.016572255641222,0.0015775663778185844
1.729495288241062e+18,-0.01414270605891943,-0.007673999760299921,0.0017244283808395267
1.729495288250062e+18,-0.010248723439872265,-0.005163075402379036,0.002043309388682246
1.7294952882590623e+18,-0.00702092656865716,-0.005602004937827587,0.002781056798994541
1.7294952882680625e+18,-0.005782293155789375,-0.004167215898633003,0.0008147324551828206
1.7294952882800627e+18,-0.003862415673211217,-0.009528262540698051,0.002628923859447241
1.729495288289063e+18,-0.00711682066321373,-0.006230311002582312,0.0009734067134559155
1.729495288298063e+18,-0.00869995541870594,-0.0068520717322826385,0.0017106726299971342
1.7294952883070633e+18,-0.00827275775372982,-0.0037363155279308558,-0.0021704279351979494
1.7294952883190636e+18,-0.0015811566263437271,-0.002201270777732134,0.00022920715855434537
1.7294952883280637e+18,-0.0029702435713261366,-4.118814831599593e-05,0.0016372866230085492
1.729495288337064e+18,0.00059804308693856,0.003576477523893118,0.0026436082553118467
1.7294952883460641e+18,0.0008815586916171014,0.00305130030028522,0.0008147315820679069
1.7294952883550643e+18,-0.00026271556271240115,0.004842578899115324,0.000298005499644205
1.7294952883670646e+18,-0.0031366986222565174,0.0051528075709939,0.0018619971815496683
1.7294952883760648e+18,-0.002801466966047883,0.0028289726469665766,0.0030009823385626078
1.729495288388065e+18,-0.0038106224965304136,0.004910757299512625,0.00048434847849421203
1.7294952884000653e+18,0.0009453649399802089,0.00765133835375309,0.003308741608634591
1.7294952884090655e+18,0.0021193218417465687,0.009598847478628159,0.00022643980628345162
1.7294952884180657e+18,-0.00025769692729227245,0.00997721403837204,-0.0009349910542368889
1.729495288430066e+18,-0.001367232296615839,0.01104816235601902,0.0006406625034287572
1.729495288439066e+18,-0.007201545871794224,0.008737705647945404,-0.0009405930759385228
1.7294952884510664e+18,-0.006699905730783939,0.0030977893620729446,0.0002353299641981721
1.7294952884630666e+18,-0.0009896233677864075,0.007120559457689524,0.0002686093794181943
1.729495288475067e+18,0.0027316189371049404,0.008671363815665245,-0.0018613229040056467
1.729495288484067e+18,0.007698792964220047,0.009613783098757267,0.0007578274235129356
1.7294952884960673e+18,0.005025495309382677,0.009780441410839558,0.0005303837824612856
1.7294952885050675e+18,0.0008754046284593642,0.010591118596494198,-0.0011834946926683187
1.7294952885170678e+18,8.936459198594093e-05,0.009016886353492737,0.0004100730293430388
1.729495288526068e+18,0.0013069275300949812,0.009935722686350346,-0.0018416044767946005
1.7294952885380682e+18,0.00279009691439569,0.011678878217935562,0.002449004678055644
1.7294952885500685e+18,0.0014535104855895042,0.01076636090874672,0.0007071853615343571
1.7294952885590687e+18,0.005898327566683292,0.011937631294131279,0.004533509723842144
1.729495288571069e+18,0.005558500997722149,0.010529869236052036,0.0019078073091804981
1.729495288580069e+18,0.005208646412938833,0.00926135666668415,0.00040010258089751005
1.7294952885890693e+18,0.00699660275131464,0.010536660440266132,0.0013855216093361378
1.7294952885980695e+18,0.004951235838234425,0.009910567663609982,5.151028744876385e-05
1.7294952886100698e+18,0.003296810435131192,0.01312317792326212,0.00039352974272333086
1.72949528861907e+18,0.0036533300299197435,0.0096513656899333,0.0029643746092915535
1.7294952886310702e+18,0.004343659617006779,0.012377333827316761,0.0008551291539333761
1.7294952886400704e+18,0.004735416267067194,0.014918722212314606,0.003415999934077263
1.7294952886490706e+18,0.0071341292932629585,0.00903954729437828,0.00109102891292423
1.7294952886580708e+18,0.004583819769322872,0.013434123247861862,0.00015159143367782235
1.729495288667071e+18,0.0038950364105403423,0.009856019169092178,0.0008135780226439238
1.7294952886790712e+18,0.0027858843095600605,0.012730156071484089,0.004321438260376453
1.7294952886880714e+18,0.0060472250916063786,0.015992412343621254,0.0021464459132403135
1.7294952886970716e+18,0.004668806679546833,0.014813770540058613,0.000734326895326376
1.729495288709072e+18,0.008289532735943794,0.015027536079287529,0.002181737218052149
1.729495288718072e+18,0.012960911728441715,0.008611444383859634,0.0014134515076875687
1.7294952887270723e+18,0.012822141870856285,0.014049150049686432,0.0005471378099173307
1.7294952887360724e+18,0.009895297698676586,0.017691083252429962,0.001148811774328351
1.7294952887450726e+18,0.008367696776986122,0.01774410530924797,0.0021428214386105537
1.729495288757073e+18,0.012656981125473976,0.01721927523612976,0.001171377138234675
1.729495288766073e+18,0.008904206566512585,0.019085939973592758,0.00376804918050766
1.7294952887750733e+18,0.01057599950581789,0.01865929365158081,0.0028201648965477943
1.7294952887870735e+18,0.009383713826537132,0.019190693274140358,0.003353816457092762
1.7294952887960737e+18,0.008320034481585026,0.015575756318867207,-0.0005303514190018177
1.729495288805074e+18,0.00964368972927332,0.02055453509092331,-0.0020755911245942116
1.7294952888170742e+18,0.01199142262339592,0.018645059317350388,0.0012704909313470125
1.7294952888260744e+18,0.015977980569005013,0.021662702783942223,0.000946186890359968
1.7294952888350746e+18,0.012232387438416481,0.02433156594634056,0.0029963762499392033
1.7294952888470748e+18,0.00948597863316536,0.027867501601576805,-0.0014299371978268027
1.729495288856075e+18,0.014810839667916298,0.026308227330446243,0.0009320923709310591
1.7294952888650752e+18,0.015106267295777798,0.02771020121872425,0.0016068912809714675
1.7294952888770755e+18,0.01296227052807808,0.027264811098575592,0.0007317747222259641
1.7294952888860756e+18,0.01267155446112156,0.02574947662651539,-0.0010133623145520687
1.7294952888950758e+18,0.012681183405220509,0.02710667997598648,0.0004540300869848579
1.729495288904076e+18,0.00957607664167881,0.029680417850613594,9.926006896421313e-05
1.7294952889160763e+18,0.012317351065576077,0.029649052768945694,-0.0009138675522990525
1.7294952889250765e+18,0.014975877478718758,0.028016408905386925,0.001106352312490344
1.7294952889340767e+18,0.013581149280071259,0.028157420456409454,5.096371751278639e-06
1.7294952889430769e+18,0.014066113159060478,0.027473371475934982,-0.002404504455626011
1.729495288952077e+18,0.011941839940845966,0.03263872116804123,0.0017592092044651508
1.7294952889640773e+18,0.012543752789497375,0.031090183183550835,5.452195182442665e-05
1.7294952889730775e+18,0.012216240167617798,0.029691774398088455,0.00026163284201174974
1.7294952889820777e+18,0.015303893014788628,0.027049051597714424,0.0031218985095620155
1.729495288994078e+18,0.014587030746042728,0.03203854709863663,0.0016284373123198748
1.7294952890030781e+18,0.013072101399302483,0.03273633494973183,-0.00035386194940656424
1.7294952890120783e+18,0.018155258148908615,0.03153056278824806,0.00278436578810215
1.7294952890210785e+18,0.016104059293866158,0.030327418819069862,0.0004495278117246926
1.7294952890300787e+18,0.014803016558289528,0.03278518468141556,0.001051702769473195
1.729495289039079e+18,0.014481814578175545,0.031730689108371735,0.0024744048714637756
1.729495289048079e+18,0.009432217106223106,0.03236214816570282,0.0006138840108178556
1.7294952890600794e+18,0.013988975435495377,0.031878601759672165,0.0010586485732346773
1.7294952890690796e+18,0.012551327235996723,0.03158492594957352,-0.0014488387387245893
1.7294952890780797e+18,0.015661148354411125,0.03267394378781319,0.0014518671669065952
1.72949528909008e+18,0.016832536086440086,0.03237731382250786,-0.00028759369160979986
1.7294952890990802e+18,0.013659785501658916,0.03110884688794613,0.0006999194156378508
1.7294952891110804e+18,0.012365588918328285,0.032267261296510696,0.002082803985103965
1.7294952891200806e+18,0.010712548159062862,0.03236446902155876,0.0004829688696190715
1.729495289132081e+18,0.014043815433979034,0.031131189316511154,-0.0026808835100382566
1.729495289141081e+18,0.012469666078686714,0.03300311788916588,0.0009139928733929992
1.7294952891500813e+18,0.012419254519045353,0.03601875528693199,0.0008072421187534928
1.7294952891590815e+18,0.010623776353895664,0.029649551957845688,0.0012545502977445722
1.7294952891680817e+18,0.01442421693354845,0.03169277310371399,0.0015033544041216373
1.7294952891770819e+18,0.014704813249409199,0.03240452706813812,-0.0015761200338602066
1.729495289186082e+18,0.0129855927079916,0.029820440337061882,-0.0016544804675504565
1.7294952891950822e+18,0.013018747791647911,0.03173026815056801,-0.0003935749991796911
1.7294952892070825e+18,0.012999923899769783,0.03191279247403145,0.0008174186805263162
1.7294952892160827e+18,0.01348299253731966,0.03345713019371033,0.0007004713406786323
1.729495289225083e+18,0.010908525437116623,0.033116068691015244,0.0015551052056252956
1.729495289234083e+18,0.01476969849318266,0.03156188875436783,0.002577005885541439
1.7294952892460833e+18,0.01816500909626484,0.03272639960050583,0.0004988924483768642
1.7294952892550835e+18,0.015635626390576363,0.03135954961180687,0.001649653073400259
1.7294952892640837e+18,0.014780043624341488,0.030873224139213562,-0.0009780764812603593
1.7294952892700838e+18,0.015445739962160587,0.025089796632528305,-0.0015453743981197476
1.729495289279084e+18,0.01409258134663105,0.02686762809753418,0.0012425960740074515
1.7294952892910843e+18,0.01566491648554802,0.03148948401212692,-0.00011736882879631594
1.7294952893000845e+18,0.011689594946801662,0.032184477895498276,0.0003654582833405584
1.7294952893090847e+18,0.015239817090332508,0.032580457627773285,-0.0008120306301862001
1.7294952893180849e+18,0.01633642613887787,0.028928544372320175,-0.00021192480926401913
1.729495289330085e+18,0.013679641298949718,0.02764865756034851,-0.00022728041221853346
1.7294952893390853e+18,0.011311831884086132,0.026480073109269142,0.0013964793179184198
1.7294952893480855e+18,0.010475539602339268,0.025767071172595024,0.0008906453149393201
1.7294952893570857e+18,0.014058737084269524,0.03124857135117054,0.001674123341217637
1.729495289366086e+18,0.013984241522848606,0.0332140251994133,0.00170051958411932
1.729495289375086e+18,0.014511515386402607,0.03613381087779999,0.0008914436912164092
1.7294952893840863e+18,0.017276255413889885,0.032498106360435486,-0.0015924772014841437
1.7294952893960865e+18,0.01675538904964924,0.02957865595817566,-0.0005416108178906143
1.7294952894050867e+18,0.01180054247379303,0.024020373821258545,5.9214828070253134e-05
1.729495289414087e+18,0.006494592875242233,0.028203371912240982,-0.0001715057878755033
1.729495289423087e+18,0.008296079002320766,0.030436603352427483,-0.00042043119901791215
1.7294952894320873e+18,0.0059850504621863365,0.030663326382637024,0.0005750562413595617
1.7294952894410875e+18,0.011076794937252998,0.025430995970964432,-0.0007324269972741604
1.7294952894500877e+18,0.013656584545969963,0.027008529752492905,0.0013774690451100469
1.729495289459088e+18,0.01523373182862997,0.028956061229109764,-0.0014739981852471828
1.729495289465088e+18,0.015014857053756714,0.027779851108789444,-0.004985401406884193
1.7294952894740882e+18,0.012407846748828888,0.03015046939253807,-0.00037492444971576333
1.7294952894800883e+18,0.011134762316942215,0.027632366865873337,-0.001435299520380795
1.7294952894890885e+18,0.011633343994617462,0.030995965003967285,-0.0032548538874834776
1.7294952894980887e+18,0.01058525312691927,0.027084341272711754,-0.0031934096477925777
1.729495289507089e+18,0.012734172865748405,0.025706296786665916,-0.002159802708774805
1.729495289513089e+18,0.01211267989128828,0.02613767609000206,-0.002453635912388563
1.7294952895220892e+18,0.015544667840003967,0.02729322575032711,-0.003154084086418152
1.7294952895310894e+18,0.014126867055892944,0.027997653931379318,-0.0012213776353746653
1.7294952895400896e+18,0.01258330512791872,0.028447864577174187,0.0002940576523542404
1.7294952895490898e+18,0.013048128224909306,0.02652326039969921,0.0015758690424263477
1.72949528955509e+18,0.010320384055376053,0.02615435980260372,-0.0035454013850539923
1.72949528956409e+18,0.013253802433609962,0.02803102321922779,-0.0004188598832115531
1.7294952895730903e+18,0.01628100499510765,0.0299615990370512,-0.0009701325325295329
1.7294952895820905e+18,0.017664436250925064,0.03017594665288925,-0.0028534128796309233
1.7294952895880906e+18,0.019533704966306686,0.030458182096481323,0.0001648839097470045
1.7294952895970908e+18,0.017476912587881088,0.02731488272547722,0.003657205495983362
1.729495289606091e+18,0.016251852735877037,0.028942059725522995,0.0025298623368144035
1.7294952896120911e+18,0.01386310812085867,0.02760160341858864,0.0010083920788019896
1.7294952896210913e+18,0.011942713521420956,0.025649333372712135,0.0003121075569652021
1.7294952896300915e+18,0.013599967584013939,0.028365761041641235,0.0016058868495747447
1.7294952896390917e+18,0.013960735872387886,0.024393418803811073,-0.000407022685976699
1.729495289648092e+18,0.01452796533703804,0.024124875664711,-0.002327952068299055
1.729495289657092e+18,0.01837882772088051,0.025915760546922684,0.0022070645354688168
1.7294952896660923e+18,0.014485280029475689,0.027029244229197502,-0.0005161890294402838
1.7294952896750925e+18,0.010145490989089012,0.024365408346056938,-0.001219017431139946
1.7294952896840927e+18,0.01057963352650404,0.024074291810393333,0.0015629453118890524
1.7294952896900928e+18,0.009125998243689537,0.024013064801692963,-0.002194939414039254
1.729495289699093e+18,0.01019976381212473,0.02580583654344082,0.0010533089516684413
1.7294952897080932e+18,0.013410389423370361,0.026395337656140327,-0.002165826503187418
1.7294952897170934e+18,0.010765342973172665,0.023366285488009453,-0.0015638771001249552
1.7294952897260936e+18,0.01275516115128994,0.022113636136054993,0.001619781949557364
1.7294952897350938e+18,0.012710930779576302,0.02523971162736416,0.002367480890825391
1.729495289744094e+18,0.012034758925437927,0.02649780735373497,-0.002954341471195221
1.7294952897530941e+18,0.012997657991945744,0.027038266882300377,-0.0006879719439893961
1.7294952897620943e+18,0.012234900146722794,0.02535797655582428,0.0026546758599579334
1.7294952897680945e+18,0.01319795474410057,0.02882547304034233,0.00027310894802212715
1.7294952897770947e+18,0.012043601833283901,0.023355577141046524,0.0016964335227385163
1.7294952897860948e+18,0.009500749409198761,0.020727602764964104,-0.001329372520558536
1.729495289795095e+18,0.008860363624989986,0.02280934900045395,-1.2278760550543666e-05
1.7294952898040952e+18,0.006908424198627472,0.02678409405052662,-0.0011023234110325575
1.7294952898130954e+18,0.012302868068218231,0.02616770565509796,-0.003546941326931119
1.7294952898220956e+18,0.011670581065118313,0.02527640387415886,-0.003075805027037859
1.7294952898280957e+18,0.011865992099046707,0.024553727358579636,0.0001523104147054255
1.729495289837096e+18,0.011571033857762814,0.02233942411839962,0.0017347258981317282
1.7294952898490962e+18,0.014743821695446968,0.01695426180958748,-0.004627210088074207
1.7294952898580964e+18,0.01283545233309269,0.016929805278778076,-0.0003689253353513777
1.7294952898670966e+18,0.010829996317625046,0.017657257616519928,-0.0002477179514244199
1.7294952898760968e+18,0.008031164295971394,0.019227726384997368,0.0006778117967769504
1.729495289885097e+18,0.009357853792607784,0.017360897734761238,-0.001226629945449531
1.7294952898940972e+18,0.010776977986097336,0.014602333307266235,0.00016070896526798606
1.7294952899030973e+18,0.014088710770010948,0.017094086855649948,-0.0011413006577640772
1.7294952899120975e+18,0.016629613935947418,0.015474042855203152,-0.00020133331418037415
1.7294952899210977e+18,0.01747954450547695,0.018818452954292297,-0.0005025312420912087
1.729495289933098e+18,0.015036971308290958,0.01674588955938816,0.0028191665187478065
1.7294952899420982e+18,0.009203927591443062,0.01565607637166977,-0.003046618774533272
1.7294952899540984e+18,0.00922235008329153,0.015904352068901062,-0.0017014362383633852
1.7294952899630986e+18,0.014079714193940163,0.012662079185247421,-0.000630405789706856
1.7294952899720988e+18,0.013746759854257107,0.013755926862359047,-0.003053989028558135
1.729495289981099e+18,0.014994624070823193,0.0160512812435627,-0.002270184690132737
1.7294952899900992e+18,0.013363583944737911,0.014648905023932457,-0.0003528584202285856
1.7294952899990994e+18,0.012575398199260235,0.013520928099751472,-0.0019268880132585764
1.7294952900080996e+18,0.010553223080933094,0.012284941971302032,0.0007492819568142295
1.7294952900200998e+18,0.00995444506406784,0.007066602818667889,0.00217939424328506
1.7294952900291e+18,0.010058702901005745,0.007144901901483536,-0.0006685104453936219
1.7294952900381002e+18,0.011785820126533508,0.011714932508766651,-0.0009493809775449336
1.7294952900471004e+18,0.012857463210821152,0.011806887574493885,0.0008662743493914604
1.7294952900591007e+18,0.008624544367194176,0.015822431072592735,4.975430783815682e-05
1.7294952900681009e+18,0.007418136112391949,0.0099248131737113,-0.0005340658826753497
1.729495290077101e+18,0.00239125220105052,0.009222691878676414,-0.0007293610251508653
1.7294952900891013e+18,-0.0024835339281708,0.006033369340002537,-0.002776480745524168
1.7294952900981015e+18,0.005004041828215122,0.011307645589113235,0.0006161732599139214
1.7294952901101018e+18,0.0065169124864041805,0.012827695347368717,-0.0002427146682748571
1.729495290119102e+18,0.00703869154676795,0.010727261193096638,0.0019149028230458498
1.7294952901281021e+18,0.006224913988262415,0.009677347727119923,-0.0025707113090902567
1.7294952901401024e+18,0.0046492828987538815,0.010356822982430458,-0.0001318726281169802
1.7294952901491026e+18,0.0022763290908187628,0.005544598679989576,-0.002970813075080514
1.7294952901611028e+18,0.008450433611869812,0.01166597381234169,0.0009835002711042762
1.729495290170103e+18,0.00592457503080368,0.008830662816762924,-0.0017104707658290863
1.7294952901791032e+18,0.0076117804273962975,0.006830410100519657,-0.0027821806725114584
1.7294952901881034e+18,0.004876248072832823,0.009705014526844025,0.002541118999943137
1.7294952902001037e+18,0.0029350770637392998,0.010037517175078392,0.0017226544441655278
1.7294952902061038e+18,0.0017851025331765413,0.007871745154261589,-0.0012489232467487454
1.729495290215104e+18,0.0030991877429187298,0.010586783289909363,0.00025293597718700767
1.7294952902271043e+18,0.005942543502897024,0.00834578275680542,2.3575063096359372e-05
1.7294952902361044e+18,0.0074039422906935215,0.005388814955949783,-0.00016355066327378154
1.7294952902451046e+18,0.01071084849536419,0.005469019990414381,-0.0002733577857725322
1.729495290257105e+18,0.005894685164093971,0.007440484128892422,-0.0002751676947809756
1.729495290266105e+18,0.0039176419377326965,0.0050249965861439705,0.0007437296444550157
1.7294952902781053e+18,0.0006188331171870232,0.002380458638072014,0.001855455688200891
1.7294952902871055e+18,0.004343098495155573,0.004314489662647247,-0.004772018641233444
1.7294952902991058e+18,0.0020852447487413883,9.502074681222439e-05,-0.001698309788480401
1.729495290308106e+18,0.00410890206694603,0.0038889748975634575,-0.002241437789052725
1.7294952903171062e+18,0.0034948086831718683,0.0017476258799433708,-3.89415945392102e-05
1.7294952903291064e+18,0.0024073454551398754,0.006245905067771673,-0.0007806026842445135
1.7294952903381066e+18,0.0016794868279248476,0.0009570082183927298,0.000323817424941808
1.7294952903471068e+18,-0.00038938166107982397,0.0021142400801181793,-0.0014446137938648462
1.729495290356107e+18,0.005023971665650606,-0.0027084616012871265,0.000831865007057786
1.7294952903651072e+18,0.001016860012896359,-0.0039231134578585625,0.0024629251565784216
1.7294952903741074e+18,0.0025279861874878407,-0.003291643923148513,-0.00047027593245729804
1.7294952903861076e+18,-0.0039040392730385065,8.147372864186764e-05,-0.0006588476244360209
1.7294952903951078e+18,-0.0002834740444086492,-0.0010467092506587505,0.0004575022612698376
1.729495290404108e+18,-0.002316572703421116,0.0019400181481614709,-7.213300705188885e-05
1.7294952904131082e+18,-0.002572924830019474,0.0019040682818740606,0.0010148250730708241
1.7294952904251085e+18,-0.0011087767779827118,-0.00015688204439356923,0.0005436470382846892
1.7294952904341087e+18,0.0007848929963074625,-0.0025140654761344194,-0.0009555237484164536
1.7294952904431089e+18,-0.002636800752952695,-0.0012978544691577554,0.00012824873556382954
1.729495290455109e+18,-0.0002495545777492225,0.0009126823279075325,0.00042768509592860937
1.7294952904641093e+18,-0.002163503086194396,-0.00010025023948401213,0.0022312344517558813
1.7294952904731095e+18,-0.0034781035501509905,-0.0006725830608047545,0.0018902721349149942
1.7294952904821097e+18,-0.005482054315507412,-0.0014534307410940528,-0.0011778372572734952
1.72949529049111e+18,-0.0041257720440626144,-0.004132534842938185,-0.003939430695027113
1.72949529050011e+18,-0.0034190453588962555,-0.007096999324858189,-0.0015399225521832705
1.7294952905061102e+18,-0.004395748488605022,-0.007330059073865414,0.00016292760847136378
1.7294952905151104e+18,-0.0011394175235182047,-0.006027501076459885,0.0024323530960828066
1.7294952905241106e+18,-0.00222672033123672,-0.004636902362108231,-0.0026296775322407484
1.7294952905331108e+18,-0.0029634744860231876,-0.004202394746243954,0.002951938658952713
1.729495290542111e+18,-0.005330257583409548,-0.004452476277947426,0.0008232868858613074
1.7294952905511112e+18,-0.004669260233640671,-0.0037398014683276415,-0.0008634051773697138
1.7294952905571113e+18,-0.009238705970346928,-0.009115263819694519,-0.001296793925575912
1.7294952905661115e+18,-0.008764177560806274,-0.00805575679987669,4.680969868786633e-05
1.7294952905751117e+18,-0.00982646457850933,-0.007345560006797314,0.0018196329474449158
1.7294952905811118e+18,-0.012041453272104263,-0.00750153511762619,-0.0018331153551116586
1.729495290590112e+18,-0.007928834296762943,-0.005294064059853554,0.0003273020265623927
1.7294952905991122e+18,-0.009204752743244171,-0.004707056563347578,-0.0008685830980539322
1.7294952906081124e+18,-0.010954620316624641,-0.005636713467538357,-0.00011090721091022715
1.7294952906201126e+18,-0.006617711391299963,-0.006562730297446251,-0.0005972051294520497
1.7294952906291128e+18,-0.008199837058782578,-0.007974468171596527,0.0009406606550328434
1.729495290638113e+18,-0.007999085821211338,-0.006276502273976803,-0.00013338103599380702
1.7294952906471132e+18,-0.011418760754168034,-0.009194332174956799,-0.00169507903046906
1.7294952906561134e+18,-0.008811984211206436,-0.00962063018232584,0.001068589393980801
1.7294952906651136e+18,-0.010827084071934223,-0.007785136345773935,-0.0011247015791013837
1.7294952906741138e+18,-0.011868752539157867,-0.011327844113111496,-0.00033824736601673067
1.729495290683114e+18,-0.008185083046555519,-0.013121138326823711,-0.00016793697432149202
1.7294952906921142e+18,-0.0065891011618077755,-0.012590192258358002,-0.0012641292996704578
1.7294952907011144e+18,-0.0062746936455369,-0.010814777575433254,0.0008641829481348395
1.7294952907101146e+18,-0.005727654788643122,-0.008364344015717506,-0.002190937753766775
1.7294952907191148e+18,-0.00861935131251812,-0.009508281014859676,-0.000729161489289254
1.729495290728115e+18,-0.009717810899019241,-0.011805601418018341,0.002119713230058551
1.7294952907371151e+18,-0.009821000508964062,-0.0086667500436306,-0.0009703157120384276
1.7294952907461153e+18,-0.010564538650214672,-0.012178515084087849,0.0032145893201231956
1.7294952907551155e+18,-0.010982385836541653,-0.012333770282566547,-0.0008195231785066426
1.7294952907611156e+18,-0.011780479922890663,-0.017507102340459824,-0.0023021569941192865
1.7294952907701158e+18,-0.008981948718428612,-0.01770622842013836,0.001071303035132587
1.729495290779116e+18,-0.010711221024394035,-0.019050003960728645,-0.0013105229008942842
1.7294952907851162e+18,-0.013162032701075077,-0.013911704532802105,-0.0010861357441172004
1.7294952907941164e+18,-0.010427428409457207,-0.016307692974805832,0.0007659201510250568
1.7294952908031165e+18,-0.01535030361264944,-0.014116321690380573,0.00025870458921417594
1.7294952908091167e+18,-0.015287736430764198,-0.01489290501922369,-0.002183693926781416
1.7294952908181169e+18,-0.014643197879195213,-0.01223723590373993,0.00040631811134517193
1.729495290827117e+18,-0.01560959778726101,-0.013041987083852291,0.000991710345260799
1.7294952908361172e+18,-0.010014284402132034,-0.013964653015136719,-0.0009688981808722019
1.7294952908451174e+18,-0.010411523282527924,-0.014754458330571651,0.0010413223644718528
1.7294952908541176e+18,-0.01042821817100048,-0.014321905560791492,0.0018609582912176847
1.7294952908631178e+18,-0.012601561844348907,-0.013563658110797405,0.0006055646808817983
1.729495290872118e+18,-0.008856785483658314,-0.016824806109070778,-0.0008273287676274776
1.7294952908841183e+18,-0.011449743993580341,-0.014348220080137253,-0.0012603907380253077
1.7294952908961185e+18,-0.009441104717552662,-0.01344858855009079,-0.0004135580675210804
1.7294952909051187e+18,-0.008802227675914764,-0.013944743201136589,-0.002561958972364664
1.729495290914119e+18,-0.0036324586253613234,-0.01233974564820528,0.0018970721866935492
1.729495290923119e+18,-0.004971633665263653,-0.01424105279147625,0.00014564434241037816
1.7294952909321193e+18,-0.008813465014100075,-0.013404982164502144,-0.004841135814785957
1.7294952909441196e+18,-0.0067036631517112255,-0.016267312690615654,0.0008824019460007548
1.7294952909531197e+18,-0.008260950446128845,-0.017971141263842583,0.0007328148931264877
1.72949529096212e+18,-0.010001299902796745,-0.02107216976583004,-0.001849039806984365
1.72949529097112e+18,-0.004369956441223621,-0.01765391416847706,-0.0003481720923446119
1.7294952909801203e+18,-0.006140870042145252,-0.018829556182026863,0.0011231419630348682
1.7294952909891205e+18,-0.0034885115455836058,-0.01407617423683405,0.001211964525282383
1.7294952909951206e+18,-0.00475273234769702,-0.013961542397737503,-0.0016155610792338848
1.7294952910041208e+18,-0.007025516591966152,-0.01654919981956482,0.0021642420906573534
1.729495291013121e+18,-0.005703786388039589,-0.013468804769217968,-0.0011289995163679123
1.7294952910221212e+18,-0.00935145653784275,-0.017592137679457664,-0.0006367116584442556
1.7294952910311214e+18,-0.0033680822234600782,-0.016515348106622696,-0.0009670323343016207
1.7294952910401216e+18,-0.005244606640189886,-0.018935592845082283,0.00029481746605597436
1.7294952910521219e+18,-0.0008512011263519526,-0.016770584508776665,-0.00032151301275007427
1.729495291058122e+18,-0.000995497452095151,-0.016061358153820038,-0.0019276917446404696
1.7294952910701222e+18,-0.004198279231786728,-0.013446894474327564,0.0010022706119343638
1.7294952910761224e+18,-0.006109503097832203,-0.013911441899836063,8.086510933935642e-05
1.7294952910881226e+18,-0.007879826240241528,-0.016637427732348442,0.0018099817680194974
1.729495291100123e+18,-0.006874312646687031,-0.022578200325369835,-0.0003445891779847443
1.729495291109123e+18,-0.0051446352154016495,-0.022296003997325897,-0.0020757396705448627
1.7294952911211233e+18,-0.004054229706525803,-0.02100512385368347,0.0022828758228570223
1.7294952911301235e+18,-0.00439460389316082,-0.01942411996424198,-0.0018076695268973708
1.7294952911391237e+18,-0.006377403624355793,-0.020408110693097115,0.0017618609126657248
1.729495291148124e+18,-0.008978394791483879,-0.018624136224389076,0.001896705012768507
1.729495291157124e+18,-0.009089403785765171,-0.016367483884096146,0.0011263543274253607
1.7294952911661243e+18,-0.007564968429505825,-0.01792558841407299,-0.0025704307481646538
1.7294952911751245e+18,-0.008417049422860146,-0.020340701565146446,-0.0014873628970235586
1.7294952911841247e+18,-0.007202507462352514,-0.023214321583509445,-0.005394789390265942
1.7294952911931249e+18,-0.00424590427428484,-0.017058392986655235,-0.003950414247810841
1.729495291202125e+18,-0.003118791151791811,-0.016434641554951668,-0.0010547586716711521
1.7294952912111252e+18,-0.009566867724061012,-0.018220080062747,8.022499969229102e-05
1.7294952912231255e+18,-0.009300143457949162,-0.018588896840810776,-0.0011017554206773639
1.7294952912321257e+18,-0.0101774912327528,-0.018777159973978996,-0.0023676855489611626
1.729495291241126e+18,-0.006834135390818119,-0.017845356836915016,-0.0007140635279938579
1.729495291250126e+18,-0.0071499766781926155,-0.020565016195178032,0.0017104949802160263
1.7294952912591263e+18,-0.003445657901465893,-0.020207826048135757,2.5873130653053522e-05
1.7294952912681265e+18,-0.005357584450393915,-0.0238325372338295,0.0011192673118785024
1.7294952912771267e+18,-0.004863788839429617,-0.02044607512652874,-0.0029406207613646984
1.7294952912861268e+18,-0.008470522239804268,-0.02068052813410759,-0.0015863107983022928
1.729495291298127e+18,-0.0076851313933730125,-0.02206207811832428,-0.00015047076158225536
1.7294952913041272e+18,-0.006805814802646637,-0.017742276191711426,-0.0009700424270704389
1.7294952913161275e+18,-0.004763113334774971,-0.022953001782298088,-0.0015173598658293486
1.7294952913251277e+18,-0.0008069737814366817,-0.01963149383664131,0.0008275516447611153
1.7294952913341279e+18,-0.004428773187100887,-0.018247321248054504,-0.0002110860077664256
1.729495291343128e+18,-0.006141473539173603,-0.018466496840119362,-0.0006616435712203383
1.7294952913521283e+18,-0.004004134796559811,-0.020377689972519875,0.001018637791275978
1.7294952913611284e+18,-0.005852342117577791,-0.02041502110660076,-0.002958249533548951
1.7294952913731287e+18,-0.008438569493591785,-0.022853180766105652,-0.002249577548354864
1.729495291382129e+18,-0.007556083612143993,-0.01756669022142887,-3.159232437610626e-05
1.729495291391129e+18,-0.009375367313623428,-0.018930599093437195,-0.0014649985823780298
1.7294952914001293e+18,-0.007938620634377003,-0.01918080449104309,0.0009732986218295991
1.7294952914091295e+18,-0.009711408987641335,-0.01746927946805954,-0.0007939431816339493
1.7294952914181297e+18,-0.009087239392101765,-0.018523139879107475,-0.002611306728795171
1.72949529143013e+18,-0.008543341420590878,-0.01531692873686552,-0.0018586014630272985
1.72949529143913e+18,-0.010243449360132217,-0.015239888802170753,0.0012661584187299013
1.7294952914481303e+18,-0.010354042053222656,-0.016967859119176865,-0.00022904830984771252
1.7294952914571305e+18,-0.0078009734861552715,-0.0178067646920681,0.0004533239989541471
1.7294952914661307e+18,-0.00723026879131794,-0.01844428852200508,-0.001192779396660626
1.729495291475131e+18,-0.007411875296384096,-0.017558053135871887,0.001266759354621172
1.7294952914871311e+18,-0.009093910455703735,-0.015216673724353313,-0.0007431415724568069
1.7294952914961313e+18,-0.00932398997247219,-0.014244915917515755,0.0010767204221338034
1.7294952915021315e+18,-0.0075889332219958305,-0.015327556990087032,0.0011309381807222962
1.7294952915111316e+18,-0.008458474650979042,-0.0176822692155838,-0.0009980433387681842
1.7294952915201318e+18,-0.005330117419362068,-0.02064346708357334,-0.0021822499111294746
1.729495291529132e+18,-0.006230189930647612,-0.020555365830659866,9.386974852532148e-05
1.7294952915411323e+18,-0.010159878060221672,-0.018612341955304146,-0.00012812233762815595
1.7294952915501325e+18,-0.008017892949283123,-0.016892515122890472,-0.0008760352502577007
1.7294952915561326e+18,-0.00819674413651228,-0.019734201952815056,-0.0011390866711735725
1.7294952915651328e+18,-0.010327396914362907,-0.012853588908910751,-0.0009825034067034721
1.729495291574133e+18,-0.00914604403078556,-0.0168143417686224,0.002319879364222288
1.7294952915861332e+18,-0.010465184226632118,-0.018564756959676743,-0.0015196698950603604
1.7294952915951334e+18,-0.008327561430633068,-0.020461764186620712,-0.00026956957299262285
1.7294952916041336e+18,-0.009938579052686691,-0.020429562777280807,-0.0026359513867646456
1.7294952916131338e+18,-0.009758940897881985,-0.01960526779294014,0.0006568226963281631
1.729495291619134e+18,-0.005617286544293165,-0.016450047492980957,-0.0015306726563721895
1.7294952916311342e+18,-0.006659218575805426,-0.013821622356772423,8.807866834104061e-06
1.7294952916371343e+18,-0.008224619552493095,-0.01399590540677309,-0.0012448466150090098
1.7294952916461345e+18,-0.005330870859324932,-0.01825593411922455,-0.0016968387644737959
1.7294952916551347e+18,-0.005571036599576473,-0.016886048018932343,-0.002127684885635972
1.729495291664135e+18,-0.005277506075799465,-0.01914496161043644,-0.0004724294994957745
1.729495291673135e+18,-0.0046082427725195885,-0.023519175127148628,0.000670968962367624
1.7294952916821353e+18,-0.007437881547957659,-0.020316114649176598,0.0031943130306899548
1.7294952916911355e+18,-0.007104099728167057,-0.019465457648038864,-0.00042833448969759047
1.7294952917001357e+18,-0.00889923982322216,-0.0189508143812418,-0.002502478426322341
1.7294952917061358e+18,-0.010730892419815063,-0.01661035045981407,-0.0002619558363221586
1.729495291715136e+18,-0.01010768860578537,-0.016615277156233788,-0.003033580258488655
1.7294952917241362e+18,-0.010894354432821274,-0.01661805436015129,-0.0008448668522760272
1.7294952917331364e+18,-0.004634675569832325,-0.015641113743185997,-0.0008550280472263694
1.7294952917421366e+18,-0.0059744818136096,-0.0188030656427145,-0.0024273705203086138
1.7294952917511368e+18,-0.006276469677686691,-0.021125979721546173,-0.002798110246658325
1.729495291760137e+18,-0.010203840211033821,-0.024660198017954826,0.0006661280640400946
1.7294952917691372e+18,-0.005301077384501696,-0.01831347681581974,-0.0003609113919083029
1.7294952917781373e+18,-0.007605136837810278,-0.01586155965924263,-0.00315513601526618
1.7294952917871375e+18,-0.005969230551272631,-0.010755814611911774,-0.0010376513237133622
1.7294952917961377e+18,-0.00582040986046195,-0.01320298295468092,0.0009889781940728426
1.729495291805138e+18,-0.004728367552161217,-0.014218460768461227,0.0013983722310513258
1.729495291814138e+18,-0.009589734487235546,-0.009969253093004227,-0.0013654690701514482
1.7294952918231383e+18,-0.006215290166437626,-0.015242375433444977,0.002018047496676445
1.7294952918321385e+18,-0.005258429795503616,-0.018698588013648987,-0.0009750668541528285
1.7294952918411387e+18,-0.006592113990336657,-0.01771382987499237,-0.004690837115049362
1.729495291850139e+18,-0.007044699043035507,-0.016632024198770523,-0.0036582467146217823
1.729495291859139e+18,-0.010079470463097095,-0.01412751991301775,-0.001001826487481594
1.7294952918681393e+18,-0.008226893842220306,-0.014750947244465351,0.0012847880134359002
1.7294952918771395e+18,-0.006454149726778269,-0.01275006216019392,-0.0023788793478161097
1.7294952918861396e+18,-0.002343822503462434,-0.011873241513967514,0.00021792686311528087
1.7294952918951398e+18,-0.003947633318603039,-0.013089973479509354,-0.00034855306148529053
1.72949529190414e+18,-0.003188116941601038,-0.017058884724974632,-0.00025152077432721853
1.7294952919131402e+18,-0.00411962391808629,-0.014890944585204124,0.00021256005857139826
1.7294952919221404e+18,-0.0034782798029482365,-0.016773657873272896,-0.0009194383164867759
1.7294952919311406e+18,-0.006744652986526489,-0.014899815432727337,-0.002430480672046542
1.7294952919371407e+18,-0.007554606534540653,-0.011299524456262589,-0.0005290103727020323
1.729495291946141e+18,-0.0060843476094305515,-0.016537999734282494,-0.0015599592588841915
1.729495291955141e+18,-0.004811461549252272,-0.009242840111255646,-0.002590795047581196
1.7294952919641413e+18,-0.004137784242630005,-0.011799024417996407,0.0010132768657058477
1.7294952919731415e+18,-0.0035718469880521297,-0.0136007871478796,-0.001961746718734503
1.7294952919821417e+18,-0.007074571680277586,-0.011257373727858067,0.0018237258773297071
1.729495291991142e+18,-0.006783049087971449,-0.01054079644382,0.00027379958191886544
1.729495292000142e+18,-0.003033633343875408,-0.012993874028325081,-0.0012313872575759888
1.7294952920091423e+18,-0.0038840139750391245,-0.010345441289246082,-0.0027258810587227345
1.7294952920181425e+18,-0.00789626408368349,-0.011116852052509785,-0.001957759726792574
1.7294952920241426e+18,-0.004651515744626522,-0.01106598973274231,0.0006467628991231322
1.7294952920331428e+18,-0.008197590708732605,-0.011758169159293175,0.0010848750825971365
1.729495292045143e+18,-0.008580431342124939,-0.00886611733585596,-0.0011064719874411821
1.7294952920541432e+18,-0.0077344984747469425,-0.01031506434082985,-0.0010485518723726273
1.7294952920631434e+18,-0.004749214742332697,-0.008076457306742668,-0.0013442009221762419
1.7294952920721436e+18,-0.0041209058836102486,-0.012956630438566208,0.0027032140642404556
1.7294952920811438e+18,-0.0003598439507186413,-0.015250212512910366,-0.002728942781686783
1.729495292090144e+18,-0.0034709307365119457,-0.014012429863214493,-0.0015677695628255606
1.7294952920991442e+18,-0.00535461725667119,-0.010186655446887016,-0.0008239944581873715
1.7294952921081444e+18,-0.007478031329810619,-0.011590959504246712,-0.0032348481472581625
1.7294952921141445e+18,-0.005696786101907492,-0.009203467518091202,-0.002058410318568349
1.7294952921231447e+18,-0.005508636590093374,-0.007477771025151014,-0.002420423086732626
1.729495292132145e+18,-0.0022780499421060085,-0.005365470424294472,-0.0008235267014242709
1.729495292141145e+18,-0.00046602252405136824,-0.009906106628477573,-0.001509473193436861
1.7294952921501453e+18,-0.003907687962055206,-0.011308961547911167,0.0009221983491443098
1.7294952921591455e+18,-0.004091288428753614,-0.01407492533326149,-0.0030490849167108536
1.7294952921681457e+18,-0.008405663073062897,-0.010987963527441025,0.0020405424293130636
1.7294952921771459e+18,-0.004390384536236525,-0.006748874671757221,0.0005162173183634877
1.729495292186146e+18,-0.006634416989982128,-0.005141936708241701,-0.001999095780774951
1.7294952921951462e+18,-0.007417585235089064,-0.003359999042004347,0.0034016238059848547
1.7294952922041464e+18,-0.008086571469902992,-0.00420075049623847,0.0009227963164448738
1.7294952922131466e+18,-0.005412223283201456,-0.0035247146151959896,-0.0007658035028725863
1.7294952922221468e+18,-0.006766948848962784,-0.0074060712940990925,-0.0012352685444056988
1.729495292231147e+18,-0.007492753677070141,-0.007364768534898758,0.0005638831062242389
1.7294952922401472e+18,-0.0033336763735860586,-0.00895708054304123,0.0028322397265583277
1.7294952922491474e+18,-0.008097521960735321,-0.0047047194093465805,-0.00010717497207224369
1.7294952922581476e+18,-0.006057399325072765,-0.0034539811313152313,-0.001140159321948886
1.7294952922671478e+18,-0.005954273045063019,-0.004095300100743771,-0.00017473212210461497
1.729495292276148e+18,-0.00505198584869504,-0.003894038964062929,-0.0013702164869755507
1.7294952922851482e+18,-0.0029317005537450314,-0.006112351082265377,0.002297361847013235
1.7294952922941484e+18,-0.002998320385813713,-0.006533253472298384,9.423226583749056e-05
1.7294952923001485e+18,-0.002344308653846383,-0.007917714305222034,-0.0004679666890297085
1.7294952923091487e+18,-0.005778787657618523,-0.007686266675591469,0.00132793840020895
1.7294952923181489e+18,-0.0012148688547313213,-0.0056385016068816185,-0.005064881406724453
1.729495292327149e+18,-0.0023482132237404585,-0.0025246201548725367,-0.001108420779928565
1.7294952923361492e+18,-0.0004752038512378931,-0.003651023143902421,-0.0017073219642043114
1.7294952923451494e+18,-0.0009506370406597853,-0.001832372508943081,-0.0007218889659270644
1.7294952923541496e+18,-0.006220267619937658,-0.0052597904577851295,0.0007782562170177698
1.7294952923631498e+18,-0.005146265961229801,-0.004091030918061733,-0.0007563519757241011
1.72949529236915e+18,-0.004226698540151119,-0.0026819997001439333,-0.0022448364179581404
1.7294952923781501e+18,-0.004374705720692873,-0.005800947546958923,0.00021317758364602923
1.7294952923871503e+18,0.0012631607241928577,-0.0027431012131273746,0.00025857886066660285
1.7294952923961505e+18,0.0003053019754588604,-0.0017191516235470772,2.1233572624623775e-05
1.7294952924021507e+18,0.0008508177706971765,0.0002812584862112999,0.0014715000288560987
1.7294952924111508e+18,-0.0019441561307758093,-0.005242110230028629,-0.001230126479640603
1.729495292420151e+18,-0.004629736300557852,-0.002181551419198513,-0.00012309133308008313
1.7294952924291512e+18,-0.000728612532839179,-0.0037853256799280643,-0.0028926965314894915
1.7294952924381514e+18,-0.0002759387716650963,-0.004179823212325573,-0.003257495816797018
1.7294952924471516e+18,-0.0027116388082504272,-0.0023523096460849047,0.003920929506421089
1.7294952924561518e+18,-4.448345862329006e-05,-0.0017546328017488122,-0.000874446879606694
1.729495292465152e+18,0.003473772434517741,-0.00021144814672879875,-0.0014961953274905682
1.7294952924741522e+18,0.004397137090563774,0.004636550322175026,-0.000989005551673472
1.7294952924831524e+18,0.0028906650841236115,0.002494647167623043,-0.00024564756313338876
1.7294952924891525e+18,0.000349481008015573,0.0012792169582098722,-0.0013912363210693002
1.7294952924981527e+18,-0.0016559300711378455,0.00045793503522872925,-0.001191385556012392
1.729495292507153e+18,-0.005818448029458523,-0.0003048044163733721,-0.003678077831864357
1.729495292516153e+18,-0.004924265202134848,-0.002480203052982688,0.0003486752975732088
1.7294952925221532e+18,0.0001504255342297256,0.001232976675964892,0.003960865084081888
1.7294952925311534e+18,-0.0003423576708883047,-0.0008139334968291223,-0.0002456859510857612
1.7294952925401536e+18,-0.00011050282046198845,-0.0023967530578374863,0.0016649505123496056
1.7294952925491538e+18,0.006065823137760162,0.0011889665620401502,0.0004537621862255037
1.729495292555154e+18,0.0013080264907330275,0.0013163196854293346,-0.001153220422565937
1.729495292564154e+18,-0.00020913250045850873,0.0011370038846507668,-0.0005786517867818475
1.7294952925731543e+18,-0.003934807609766722,-0.0021919209975749254,0.0007508975104428828
1.7294952925821545e+18,0.0010950010037049651,0.0028716782107949257,-0.0022575745824724436
1.7294952925881546e+18,-0.0014871024759486318,-1.988807343877852e-05,-0.002076475415378809
1.7294952925971548e+18,0.0032583042047917843,0.0024689086712896824,-0.0001487096888013184
1.729495292606155e+18,0.0025955389719456434,0.0017325689550489187,0.0027804761193692684
1.7294952926151552e+18,0.004506635945290327,0.006557554006576538,0.002258585300296545
1.7294952926241554e+18,0.0024621759075671434,0.0013478058390319347,-0.00047914087190292776
1.7294952926301555e+18,0.002959850709885359,0.002443112898617983,-0.001336445682682097
1.7294952926421558e+18,-0.0007060733041726053,0.0015962296165525913,-0.00230134604498744
1.729495292648156e+18,0.003074167761951685,0.0020143925212323666,-0.0032827395480126143
1.729495292657156e+18,0.00022508518304675817,-0.0011451402679085732,-0.0021098339930176735
1.7294952926661563e+18,-0.0012441077269613743,0.0036677704192698,-0.0006644316017627716
1.7294952926751565e+18,-0.0017614433309063315,0.0009677440393716097,-0.002890684176236391
1.7294952926811566e+18,0.0023795519955456257,0.0033131237141788006,-0.004664889071136713
1.7294952926901568e+18,-0.00025963038206100464,0.004621994681656361,-0.0007370088715106249
1.729495292699157e+18,1.585925929248333e-05,0.003016626462340355,-0.002471859799697995
1.7294952927081572e+18,0.0005367915728129447,0.003337946254760027,0.0017312743002548814
1.7294952927171574e+18,-0.0001657314132899046,-0.0012908258941024542,-0.0019071465358138084
1.7294952927231575e+18,0.0011025596177205443,0.0006570485420525074,-0.0016961677465587854
1.7294952927351578e+18,0.0019996173214167356,0.0009654185851104558,-0.0003472110547591001
1.729495292741158e+18,0.0018518553115427494,9.935516573023051e-05,-0.001708279480226338
1.7294952927531581e+18,-0.0006217283080331981,0.004525556229054928,-0.0008247322402894497
1.7294952927621583e+18,-0.0013645185390487313,0.003826070111244917,0.0003906961064785719
1.7294952927711585e+18,-0.0011955555528402328,0.002266086172312498,-0.0009146739030256867
1.7294952927801587e+18,0.0048529403284192085,0.004346592351794243,0.0014365279348567128
1.729495292789159e+18,0.002919132588431239,-0.0006738135125488043,-0.0004616294172592461
1.729495292798159e+18,0.005323855672031641,0.004637002944946289,0.0016064117662608624
1.7294952928071593e+18,0.0005845597479492426,0.0023059092927724123,-9.058485738933086e-05
1.7294952928161595e+18,0.0049378518015146255,0.002533474238589406,-0.0005486980080604553
1.7294952928251597e+18,0.0001799368765205145,0.003923011012375355,0.0007755870465189219
1.7294952928341599e+18,-0.0017265558708459139,0.0054833791218698025,0.0015106494538486004
1.72949529284316e+18,-0.00022942510258872062,0.006427303422242403,-0.00218065083026886
1.7294952928521603e+18,0.0003282473189756274,0.007397257722914219,-0.00121203379239887
1.7294952928611604e+18,0.0025878064334392548,0.006166921928524971,-0.0025907238014042377
1.7294952928701606e+18,0.001825875137001276,0.005013759713619947,-0.0001523151295259595
1.729495292882161e+18,0.0035686050541698933,0.004985112231224775,-0.0006277479114942253
1.729495292891161e+18,0.002726514358073473,0.00833935011178255,0.0007495115278288722
1.7294952929001613e+18,0.00023621460422873497,0.005854500457644463,0.00015011016512289643
1.7294952929091615e+18,0.002580726519227028,0.006542370188981295,-0.0012197628384456038
1.7294952929181617e+18,0.001098219072446227,0.0047489916905760765,0.0002510867197997868
1.7294952929271619e+18,0.0027813510969281197,0.006637767888605595,0.0004438719479367137
1.729495292936162e+18,0.002330594463273883,0.006556113250553608,0.0012758045922964811
1.7294952929421622e+18,0.00020137749379500747,0.006997758988291025,0.0017955679213628173
1.7294952929511624e+18,-0.00047767796786502004,0.008877571672201157,-0.0008734487928450108
1.7294952929601626e+18,-0.0002712576533667743,0.004689143970608711,0.002554187085479498
1.7294952929721628e+18,0.002435875590890646,0.006144584156572819,-0.0001978498767130077
1.729495292981163e+18,0.0052006128244102,0.009401939809322357,-0.0013292295625433326
1.7294952929901632e+18,0.006231624633073807,0.009241241030395031,-0.0012526731006801128
1.7294952929991634e+18,0.0019913245923817158,0.00725562172010541,-0.004673600196838379
1.7294952930081636e+18,0.005665094591677189,0.008959372527897358,0.0010247193276882172
1.7294952930171638e+18,0.0032450950238853693,0.00855303555727005,-0.0005249787354841828
1.729495293026164e+18,0.00014513498172163963,0.011930715292692184,-0.0030393293127417564
1.7294952930351642e+18,0.00441175140440464,0.011793709360063076,-0.0016388772055506706
1.7294952930441644e+18,0.00412644911557436,0.007283533923327923,0.0017081110272556543
1.7294952930531645e+18,0.0030505633912980556,0.00995692890137434,-0.0021127588115632534
1.7294952930621647e+18,-0.06589796394109726,-0.24858272075653076,0.001340379472821951
1.729495293071165e+18,-0.2908884286880493,-1.0811139345169067,-0.00754557503387332
1.729495293080165e+18,-0.5573250651359558,-2.0118136405944824,-0.01140210684388876
1.7294952930891653e+18,-1.008345365524292,-2.7936930656433105,-0.018154794350266457
1.7294952930981655e+18,-1.46235191822052,-3.194188117980957,-0.024553367868065834
1.7294952931071657e+18,-1.7854788303375244,-3.2029709815979004,-0.0367751382291317
1.7294952931131658e+18,-1.8874496221542358,-3.0877890586853027,-0.04076352342963219
1.729495293125166e+18,-1.821094036102295,-2.824411392211914,-0.05365375801920891
1.7294952931341663e+18,-1.6584466695785522,-2.8013832569122314,-0.0631631389260292
1.7294952931431665e+18,-1.5393052101135254,-2.9432194232940674,-0.07173732668161392
1.7294952931521667e+18,-1.5301342010498047,-3.1278927326202393,-0.07648367434740067
1.7294952931581668e+18,-1.5908266305923462,-3.216080904006958,-0.08185747265815735
1.729495293167167e+18,-1.7155052423477173,-3.2290241718292236,-0.08947477489709854
1.7294952931761672e+18,-1.7940722703933716,-3.0708837509155273,-0.09651780873537064
1.7294952931851674e+18,-1.757569432258606,-2.8074240684509277,-0.10282059758901596
1.7294952931941676e+18,-1.5949393510818481,-2.5273842811584473,-0.11253267526626587
1.7294952932031677e+18,-1.3790029287338257,-2.319962501525879,-0.11600428074598312
1.729495293212168e+18,-1.1826989650726318,-2.1862730979919434,-0.12179332226514816
1.729495293221168e+18,-1.069649338722229,-2.1071577072143555,-0.1242523267865181
1.7294952932301683e+18,-1.0463144779205322,-2.0259809494018555,-0.12811829149723053
1.7294952932391685e+18,-1.0636104345321655,-1.8869370222091675,-0.1287176012992859
1.7294952932481687e+18,-1.054877758026123,-1.6954914331436157,-0.13076527416706085
1.7294952932541688e+18,-1.0140293836593628,-1.5472049713134766,-0.13205984234809875
1.729495293263169e+18,-0.890034556388855,-1.3269253969192505,-0.1335168331861496
1.7294952932721692e+18,-0.7054396271705627,-1.1307557821273804,-0.1355561465024948
1.7294952932811694e+18,-0.5409174561500549,-0.9772154092788696,-0.1352333277463913
1.7294952932901696e+18,-0.4294392466545105,-0.8657611608505249,-0.1319923847913742
1.7294952932991698e+18,-0.3882791996002197,-0.7660987973213196,-0.13435837626457214
1.72949529331117e+18,-0.39545467495918274,-0.6145625710487366,-0.1323404610157013
1.7294952933201702e+18,-0.38489991426467896,-0.4907692074775696,-0.1307653784751892
1.7294952933291704e+18,-0.32811784744262695,-0.35096168518066406,-0.12999236583709717
1.7294952933381706e+18,-0.2241963893175125,-0.2256694883108139,-0.12786783277988434
1.7294952933471708e+18,-0.10807265341281891,-0.12168743461370468,-0.1279963105916977
1.729495293356171e+18,-0.020923033356666565,-0.04224810376763344,-0.12447474896907806
1.7294952933651712e+18,0.02718442678451538,0.021484654396772385,-0.1193615272641182
1.7294952933741714e+18,0.02648148685693741,0.07647741585969925,-0.11988316476345062
1.7294952933831716e+18,0.008794279769062996,0.13385121524333954,-0.11811964958906174
1.7294952933951718e+18,0.015969829633831978,0.21834294497966766,-0.11409209668636322
1.729495293404172e+18,0.05742311850190163,0.2790882885456085,-0.11066050082445145
1.7294952934161723e+18,0.144133523106575,0.3452915549278259,-0.10787395387887955
1.7294952934251725e+18,0.2014680802822113,0.37945321202278137,-0.105126291513443
1.7294952934341727e+18,0.22332577407360077,0.4038143455982208,-0.10288085043430328
1.7294952934431729e+18,0.21486975252628326,0.4242890179157257,-0.09836511313915253
1.729495293452173e+18,0.1926451027393341,0.4451357424259186,-0.09560120850801468
1.7294952934611732e+18,0.17706812918186188,0.46540290117263794,-0.09035295993089676
1.7294952934731735e+18,0.1893535703420639,0.49065500497817993,-0.08687590807676315
1.7294952934821737e+18,0.22053182125091553,0.5063115954399109,-0.08498653769493103
1.729495293494174e+18,0.26364320516586304,0.516287088394165,-0.08074792474508286
1.7294952935031741e+18,0.2816276550292969,0.5189398527145386,-0.07712632417678833
1.7294952935121743e+18,0.2748485207557678,0.5223085284233093,-0.07118678092956543
1.7294952935211745e+18,0.2554241418838501,0.515396773815155,-0.06804409623146057
1.7294952935301747e+18,0.2286520004272461,0.5166112184524536,-0.0659777894616127
1.729495293539175e+18,0.21729052066802979,0.514090895652771,-0.0625252053141594
1.729495293548175e+18,0.2254847139120102,0.5202823877334595,-0.05865888670086861
1.7294952935601754e+18,0.25078028440475464,0.5146592259407043,-0.053760629147291183
1.7294952935691756e+18,0.26479867100715637,0.5165961980819702,-0.05310479551553726
1.7294952935781757e+18,0.269771933555603,0.507373571395874,-0.04617493599653244
1.729495293590176e+18,0.2547394931316376,0.5014675259590149,-0.04105222970247269
1.7294952935991762e+18,0.23510068655014038,0.49458616971969604,-0.03960569202899933
1.7294952936081764e+18,0.21764059364795685,0.4826531410217285,-0.03390386328101158
1.7294952936171766e+18,0.21347449719905853,0.4805937111377716,-0.03001893311738968
1.7294952936291768e+18,0.22397711873054504,0.46892091631889343,-0.024409407749772072
1.729495293638177e+18,0.24279995262622833,0.4675596058368683,-0.02102438546717167
1.7294952936471772e+18,0.24955976009368896,0.46634137630462646,-0.016244588419795036
1.7294952936561774e+18,0.24506579339504242,0.45808902382850647,-0.010290143080055714
1.7294952936651776e+18,0.23700347542762756,0.4556432068347931,-0.009280245751142502
1.7294952936741778e+18,0.2179950326681137,0.44409531354904175,-0.003148462623357773
1.729495293680178e+18,0.20654627680778503,0.43901312351226807,-0.0026895245537161827
1.7294952936921782e+18,0.20045854151248932,0.426451712846756,0.0015935928095132113
1.7294952937011784e+18,0.20865647494792938,0.42695721983909607,0.004384523257613182
1.7294952937101786e+18,0.21898005902767181,0.4263201057910919,0.011341135948896408
1.7294952937221788e+18,0.23005107045173645,0.4211372435092926,0.014181735925376415
1.729495293731179e+18,0.22338442504405975,0.41406765580177307,0.018893901258707047
1.7294952937401792e+18,0.21397128701210022,0.4096982181072235,0.021985294297337532
1.7294952937491794e+18,0.20107845962047577,0.39793628454208374,0.02512422390282154
1.7294952937581796e+18,0.19287291169166565,0.39599353075027466,0.030274465680122375
1.7294952937671798e+18,0.19768397510051727,0.39730823040008545,0.032481517642736435
1.72949529377618e+18,0.20119626820087433,0.3948967158794403,0.03997477889060974
1.7294952937851802e+18,0.2151890993118286,0.3924028277397156,0.040489938110113144
1.7294952937941804e+18,0.22254464030265808,0.3921787440776825,0.04184616357088089
1.7294952938031805e+18,0.2204062044620514,0.38972145318984985,0.04917571693658829
1.7294952938121807e+18,0.21071304380893707,0.38766324520111084,0.05132585018873215
1.729495293821181e+18,0.19810089468955994,0.3794777989387512,0.05363538861274719
1.729495293830181e+18,0.18974940478801727,0.37519362568855286,0.059582728892564774
1.7294952938391813e+18,0.19164837896823883,0.3689696192741394,0.05916555970907211
1.7294952938481815e+18,0.19835278391838074,0.36971327662467957,0.06476195156574249
1.7294952938571817e+18,0.20694895088672638,0.36818549036979675,0.06784819811582565
1.729495293866182e+18,0.2140919417142868,0.3675173819065094,0.06790734827518463
1.729495293872182e+18,0.21519728004932404,0.3624214231967926,0.0731659084558487
1.7294952938841823e+18,0.20561790466308594,0.3644923269748688,0.07264357805252075
1.7294952938931825e+18,0.19824600219726562,0.3644302189350128,0.08025819063186646
1.7294952939021827e+18,0.19385327398777008,0.3621949553489685,0.08160699158906937
1.7294952939111828e+18,0.19375641644001007,0.36284223198890686,0.08606857806444168
1.729495293920183e+18,0.1965397447347641,0.3599749207496643,0.09040099382400513
1.7294952939291832e+18,0.20362535119056702,0.3571587800979614,0.09043807536363602
1.7294952939381834e+18,0.21134456992149353,0.3536492586135864,0.09432609379291534
1.7294952939471836e+18,0.20735639333724976,0.34987911581993103,0.0966668426990509
1.7294952939561838e+18,0.20365425944328308,0.34856000542640686,0.09753365069627762
1.729495293965184e+18,0.1947179138660431,0.3455069661140442,0.1009751409292221
1.7294952939741842e+18,0.1909707486629486,0.34461748600006104,0.10185028612613678
1.7294952939801843e+18,0.19324371218681335,0.34130361676216125,0.10682742297649384
1.7294952939921846e+18,0.19737501442432404,0.3405156433582306,0.1085272952914238
1.7294952940011848e+18,0.2027151882648468,0.33865535259246826,0.11177265644073486
1.729495294010185e+18,0.2104194164276123,0.3403206765651703,0.11340764909982681
1.7294952940191852e+18,0.20846542716026306,0.3383778929710388,0.11232490092515945
1.7294952940281853e+18,0.20203575491905212,0.3370755910873413,0.1180858314037323
1.7294952940371855e+18,0.1949142962694168,0.33200883865356445,0.11843959987163544
1.7294952940491858e+18,0.19252249598503113,0.32615458965301514,0.12077052891254425
1.729495294058186e+18,0.19645248353481293,0.3238210082054138,0.12076064199209213
1.7294952940671862e+18,0.198433056473732,0.32139497995376587,0.12066305428743362
1.7294952940791864e+18,0.20304176211357117,0.32062628865242004,0.12721632421016693
1.7294952940851866e+18,0.20481112599372864,0.3173799216747284,0.12620453536510468
1.7294952940941868e+18,0.19831764698028564,0.31849947571754456,0.12709882855415344
1.729495294106187e+18,0.19640518724918365,0.3144766092300415,0.126618430018425
1.7294952941151872e+18,0.19173884391784668,0.310781866312027,0.12852947413921356
1.7294952941241874e+18,0.19172005355358124,0.3090415298938751,0.13014449179172516
1.7294952941331876e+18,0.191905215382576,0.3089885115623474,0.1323395073413849
1.7294952941451878e+18,0.19472303986549377,0.30780935287475586,0.1336269974708557
1.729495294154188e+18,0.20009198784828186,0.2992269694805145,0.13490784168243408
1.7294952941631882e+18,0.1948627531528473,0.30551618337631226,0.1338745355606079
1.7294952941721884e+18,0.19281592965126038,0.3001369535923004,0.13525986671447754
1.7294952941811886e+18,0.19063548743724823,0.29621753096580505,0.1350114792585373
1.7294952941931889e+18,0.19162613153457642,0.2924734055995941,0.1353880614042282
1.729495294202189e+18,0.19703571498394012,0.2892686128616333,0.13553427159786224
