timestamp,accel_x,accel_y,accel_z
1.729495403329517e+18,0.00716963317245245,0.09021411836147308,-9.72874927520752
1.7294954033385172e+18,-0.017228614538908005,0.05097661539912224,-9.869574546813965
1.7294954033475174e+18,0.05011662095785141,-0.024158800020813942,-9.801398277282715
1.7294954033535176e+18,0.028294293209910393,0.029199041426181793,-9.841554641723633
1.7294954033625178e+18,-0.014093568548560143,0.04494083300232887,-9.85712718963623
1.729495403374518e+18,0.03265305608510971,-0.015291737392544746,-9.842001914978027
1.7294954033835182e+18,-0.00768724549561739,-0.00434015691280365,-9.834442138671875
1.7294954033925184e+18,0.01580360159277916,-0.014831277541816235,-9.826184272766113
1.7294954034015186e+18,0.011525409296154976,-0.061224814504384995,-9.768830299377441
1.7294954034105188e+18,-0.013705365359783173,0.047359898686409,-9.818400382995605
1.729495403416519e+18,0.06996706128120422,0.0048494176007807255,-9.74268913269043
1.729495403425519e+18,-0.033863864839076996,0.031705092638731,-9.810027122497559
1.7294954034345193e+18,0.02152741141617298,-0.02969645895063877,-9.78445816040039
1.7294954034435195e+18,-0.011605743318796158,0.10197125375270844,-9.894675254821777
1.7294954034525197e+18,0.025087622925639153,0.013199077919125557,-9.850509643554688
1.72949540346152e+18,-0.017201175913214684,0.05030365660786629,-9.752700805664062
1.72949540347052e+18,0.04147256165742874,0.011693298816680908,-9.77261734008789
1.7294954034795203e+18,0.03039633296430111,-0.058319177478551865,-9.833220481872559
1.7294954034885204e+18,0.0030590645037591457,-0.029098600149154663,-9.724814414978027
1.7294954034975206e+18,-0.0007714642561040819,-0.03099147230386734,-9.777090072631836
1.7294954035065208e+18,0.03706574812531471,-0.004171821288764477,-9.836516380310059
1.729495403515521e+18,-0.01755594089627266,0.0406963936984539,-9.837249755859375
1.7294954035245212e+18,-0.07195012271404266,-0.007786124479025602,-9.7669038772583
1.7294954035335214e+18,0.020298561081290245,-0.008698849938809872,-9.85165786743164
1.7294954035425216e+18,-0.030159391462802887,-0.06626255065202713,-9.792433738708496
1.7294954035515218e+18,-0.04841320961713791,0.018711546435952187,-9.833409309387207
1.729495403560522e+18,0.03195631504058838,-0.04309225454926491,-9.76648998260498
1.7294954035695222e+18,0.015391964465379715,0.049263060092926025,-9.782188415527344
1.7294954035755223e+18,0.014077666215598583,-0.07399091869592667,-9.79216194152832
1.7294954035845225e+18,-0.024524444714188576,-0.034520670771598816,-9.808066368103027
1.7294954035935227e+18,0.10626531392335892,0.07518469542264938,-9.838708877563477
1.729495403602523e+18,0.00546890776604414,0.02365817129611969,-9.87398624420166
1.729495403611523e+18,0.07569152861833572,-0.016061803326010704,-9.792365074157715
1.7294954036205233e+18,-0.03094557859003544,0.00626171100884676,-9.799826622009277
1.7294954036295235e+18,0.0315997339785099,-0.010691581293940544,-9.786816596984863
1.7294954036385236e+18,-0.012677856720983982,0.0309083741158247,-9.805691719055176
1.7294954036475238e+18,0.07555455714464188,0.045857369899749756,-9.780762672424316
1.729495403656524e+18,0.11329296976327896,-0.0597015842795372,-9.831311225891113
1.7294954036655242e+18,-0.0875580832362175,-0.008798643946647644,-9.759683609008789
1.7294954036745244e+18,0.07549677789211273,-0.07630777359008789,-9.757611274719238
1.7294954036835246e+18,0.025971081107854843,-0.03602872043848038,-9.777112007141113
1.7294954036925248e+18,-0.009334865026175976,-0.0193112101405859,-9.817394256591797
1.729495403704525e+18,-0.036879878491163254,0.06514984369277954,-9.857501029968262
1.7294954037135252e+18,0.11017806828022003,0.008267230354249477,-9.84260082244873
1.7294954037225254e+18,0.08595988154411316,0.030628884211182594,-9.817729949951172
1.7294954037315256e+18,-0.019830968230962753,0.035103004425764084,-9.758306503295898
1.7294954037405258e+18,0.02170594222843647,-0.017860237509012222,-9.864073753356934
1.729495403749526e+18,-0.07647150754928589,-0.022473689168691635,-9.795487403869629
1.7294954037585262e+18,0.020502211526036263,0.013291522860527039,-9.829530715942383
1.7294954037675264e+18,0.013144943863153458,-0.01023340318351984,-9.776779174804688
1.7294954037765266e+18,0.028730515390634537,-0.019657324999570847,-9.752824783325195
1.7294954037825267e+18,0.008208359591662884,0.026856161653995514,-9.86936092376709
1.729495403791527e+18,-0.03758414089679718,0.02563866414129734,-9.831830978393555
1.729495403800527e+18,-0.002422420773655176,-0.060432784259319305,-9.815598487854004
1.7294954038095273e+18,-0.04757469892501831,0.04040863737463951,-9.817100524902344
1.7294954038185275e+18,-0.0022825347259640694,0.09814311563968658,-9.85075569152832
1.7294954038275277e+18,0.036932870745658875,-0.13417741656303406,-9.863911628723145
1.7294954038365279e+18,0.010570606216788292,0.03205133229494095,-9.756817817687988
1.729495403842528e+18,0.019185243174433708,0.006422367412596941,-9.849651336669922
1.7294954038515282e+18,-0.022767243906855583,-0.07130104303359985,-9.84424877166748
1.7294954038605284e+18,-0.026632072404026985,-0.07916685938835144,-9.884750366210938
1.7294954038695286e+18,0.026151465252041817,0.023583360016345978,-9.805602073669434
1.7294954038785288e+18,-0.06495226174592972,0.056618884205818176,-9.76018238067627
1.729495403887529e+18,0.021065425127744675,0.04628945142030716,-9.774195671081543
1.7294954038965292e+18,0.02217699959874153,0.017596445977687836,-9.811698913574219
1.7294954039055293e+18,0.016555069014430046,-0.045487962663173676,-9.83714771270752
1.7294954039115295e+18,-0.04586680978536606,0.06621488183736801,-9.870335578918457
1.7294954039205297e+18,0.03035775013267994,-0.00637974264100194,-9.78577995300293
1.7294954039295299e+18,0.031389832496643066,0.0028726255986839533,-9.792620658874512
1.72949540393853e+18,0.016294391825795174,-0.00307169440202415,-9.848315238952637
1.7294954039475302e+18,-0.004001460503786802,-0.02489262819290161,-9.847620964050293
1.7294954039565304e+18,0.046224892139434814,0.0035825364757329226,-9.802597045898438
1.7294954039655306e+18,0.12280965596437454,-0.029710911214351654,-9.777119636535645
1.7294954039715308e+18,-0.02729330025613308,-0.013972659595310688,-9.893991470336914
1.729495403980531e+18,-0.01766652800142765,0.022632211446762085,-9.733112335205078
1.7294954039895311e+18,-0.030635716393589973,0.0579255037009716,-9.797957420349121
1.7294954039985313e+18,0.012940595857799053,0.02383193001151085,-9.719756126403809
1.7294954040075315e+18,-0.04457768797874451,0.018795736134052277,-9.851603507995605
1.7294954040135316e+18,0.04484696686267853,0.02797839790582657,-9.772771835327148
1.7294954040225318e+18,0.005456899758428335,0.028248511254787445,-9.843365669250488
1.729495404031532e+18,0.031686894595623016,0.012551828287541866,-9.780611991882324
1.7294954040405322e+18,0.015105703845620155,-0.030409004539251328,-9.866814613342285
1.7294954040495324e+18,0.029830103740096092,0.023755928501486778,-9.87209415435791
1.7294954040585326e+18,0.04739372059702873,0.027894994243979454,-9.750367164611816
1.7294954040675328e+18,0.06301187723875046,0.03765494003891945,-9.80947494506836
1.729495404076533e+18,-0.09722492843866348,0.03971458226442337,-9.789419174194336
1.729495404082533e+18,-0.04206404834985733,0.03196233883500099,-9.815220832824707
1.7294954040915333e+18,0.028286973014473915,0.0065419236198067665,-9.808775901794434
1.7294954041005335e+18,-0.06655099987983704,-0.003957775421440601,-9.795547485351562
1.7294954041095337e+18,0.0781145989894867,-0.07876182347536087,-9.797879219055176
1.729495404118534e+18,-0.025580989196896553,0.031791526824235916,-9.792284965515137
1.729495404127534e+18,0.0006841560825705528,-0.044047579169273376,-9.813620567321777
1.7294954041365343e+18,-0.003070821985602379,0.015284172259271145,-9.813492774963379
1.7294954041455345e+18,0.04907817021012306,0.019585583359003067,-9.761983871459961
1.7294954041545347e+18,-0.006613379810005426,-0.09966644644737244,-9.82993221282959
1.7294954041605348e+18,0.040023624897003174,0.007315392140299082,-9.856006622314453
1.729495404172535e+18,0.010844181291759014,0.07353950291872025,-9.705026626586914
1.7294954041815352e+18,0.07241366058588028,-0.03738754615187645,-9.795416831970215
1.7294954041905354e+18,0.06011945754289627,-0.03438996151089668,-9.772720336914062
1.7294954041965356e+18,-0.05329033359885216,-0.054220400750637054,-9.837566375732422
1.7294954042085358e+18,-0.023591235280036926,-0.06624320894479752,-9.788315773010254
1.729495404214536e+18,0.014142525382339954,0.03128275275230408,-9.864505767822266
1.729495404223536e+18,-0.027104435488581657,-0.005191164556890726,-9.81912612915039
1.7294954042325363e+18,0.047085124999284744,0.019358407706022263,-9.787757873535156
1.7294954042415365e+18,0.017435915768146515,-0.06981142610311508,-9.750395774841309
1.7294954042505367e+18,0.06763192266225815,0.021177370101213455,-9.80357837677002
1.729495404259537e+18,-0.04403062164783478,0.03713465481996536,-9.78879451751709
1.729495404268537e+18,-0.05362798646092415,-0.04729951173067093,-9.795304298400879
1.7294954042775373e+18,-0.012694989331066608,0.01457532774657011,-9.84074878692627
1.7294954042865375e+18,-0.1051253154873848,0.0037252819165587425,-9.78225326538086
1.7294954042955377e+18,-0.02231631428003311,0.0004702745354734361,-9.80583667755127
1.7294954043015378e+18,0.012956579215824604,0.05021074041724205,-9.854055404663086
1.729495404310538e+18,0.013266225345432758,0.03997446224093437,-9.841436386108398
1.7294954043195382e+18,0.0558147132396698,0.023511121049523354,-9.843354225158691
1.7294954043285384e+18,-0.06485970318317413,-0.0014937998494133353,-9.831421852111816
1.7294954043375386e+18,-0.07565801590681076,0.0171612948179245,-9.73794937133789
1.7294954043465388e+18,-0.043824728578329086,0.009989678859710693,-9.845845222473145
1.729495404355539e+18,-0.009222125634551048,0.013246765360236168,-9.808152198791504
1.7294954043645391e+18,-0.01772814244031906,0.01790744625031948,-9.823678970336914
1.7294954043735393e+18,0.025400137528777122,-0.09026506543159485,-9.719182014465332
1.7294954043825395e+18,0.020974095910787582,0.013406798243522644,-9.810572624206543
1.7294954043915397e+18,0.028730617836117744,-0.02948998101055622,-9.756731986999512
1.7294954043975398e+18,-0.013552499003708363,0.002975358394905925,-9.781462669372559
1.72949540440654e+18,0.004084548447281122,-0.0009517305879853666,-9.782792091369629
1.7294954044155402e+18,0.0539078451693058,0.0467899926006794,-9.82259750366211
1.7294954044245404e+18,0.0494423434138298,0.023398172110319138,-9.844701766967773
1.7294954044335406e+18,0.01749236322939396,0.04340217262506485,-9.81407356262207
1.7294954044425408e+18,0.0012565809302031994,-0.07240581512451172,-9.776938438415527
1.729495404451541e+18,0.0600896030664444,-0.05901261791586876,-9.7277193069458
1.7294954044605412e+18,-0.11836376786231995,0.05100433900952339,-9.833492279052734
1.7294954044695414e+18,0.02295646071434021,-0.033788494765758514,-9.825716018676758
1.7294954044755415e+18,0.012476329691708088,0.03464406356215477,-9.82213306427002
1.7294954044845417e+18,0.07478179037570953,0.009235799312591553,-9.829140663146973
1.729495404493542e+18,-0.004972143564373255,0.06084698811173439,-9.775239944458008
1.729495404502542e+18,0.008564423769712448,-0.017029913142323494,-9.66948127746582
1.7294954045085422e+18,0.0280844047665596,-0.005509930197149515,-9.814469337463379
1.7294954045175424e+18,-0.033573396503925323,-0.03674384951591492,-9.824406623840332
1.7294954045265426e+18,-0.017412737011909485,-0.010849767364561558,-9.776005744934082
1.7294954045355428e+18,-0.031469762325286865,-0.08056971430778503,-9.836502075195312
1.729495404541543e+18,-0.01050461083650589,0.007742004934698343,-9.72388744354248
1.729495404550543e+18,0.018256230279803276,-0.01593504659831524,-9.780299186706543
1.7294954045595433e+18,-0.0203400906175375,-0.011557970196008682,-9.821905136108398
1.7294954045685435e+18,-0.07673770189285278,-0.004430175758898258,-9.828802108764648
1.7294954045745436e+18,0.05206868425011635,0.029511403292417526,-9.790096282958984
1.7294954045835438e+18,-0.029033835977315903,0.093626968562603,-9.824535369873047
1.729495404592544e+18,0.034298285841941833,-0.023846689611673355,-9.839508056640625
1.7294954046015442e+18,-0.04951084777712822,-0.06570632755756378,-9.787214279174805
1.7294954046105444e+18,0.03629075735807419,0.018474670127034187,-9.885973930358887
1.7294954046195446e+18,-0.0086887888610363,0.045981138944625854,-9.819421768188477
1.7294954046255447e+18,0.030993852764368057,-0.060851942747831345,-9.79118824005127
1.729495404634545e+18,-0.014784094877541065,0.010028737597167492,-9.752944946289062
1.729495404643545e+18,0.10030961781740189,0.0030959821306169033,-9.864577293395996
1.7294954046525453e+18,-0.05746263265609741,-0.0024986588396131992,-9.797992706298828
1.7294954046615455e+18,-0.021868795156478882,0.01058846153318882,-9.80727481842041
1.7294954046705457e+18,-0.035918887704610825,-0.05944756790995598,-9.827875137329102
1.7294954046795459e+18,0.05418561398983002,-0.01626678928732872,-9.764764785766602
1.729495404688546e+18,0.06102770194411278,0.008474597707390785,-9.709731101989746
1.7294954046975462e+18,-0.014888245612382889,0.002620894927531481,-9.757711410522461
1.7294954047065464e+18,0.02066567726433277,-0.03043234348297119,-9.774480819702148
1.7294954047125466e+18,-0.0467219352722168,-0.059362053871154785,-9.806960105895996
1.7294954047215468e+18,-0.05164577066898346,-0.12378672510385513,-9.74390697479248
1.729495404730547e+18,0.05428715795278549,0.017934655770659447,-9.809099197387695
1.7294954047395471e+18,-0.02332126908004284,0.0546269491314888,-9.805524826049805
1.7294954047485473e+18,0.06889588385820389,-0.0825020968914032,-9.78005599975586
1.7294954047575475e+18,-0.052064307034015656,-0.03305894881486893,-9.6973295211792
1.7294954047635476e+18,-0.08041826635599136,-0.06556191295385361,-9.786102294921875
1.729495404775548e+18,-0.1500864177942276,0.013325155712664127,-9.800670623779297
1.729495404781548e+18,0.01601642370223999,0.02756400965154171,-9.742709159851074
1.7294954047905482e+18,-0.05752648413181305,0.03936586156487465,-9.761774063110352
1.7294954047995484e+18,-0.009941750206053257,-0.005134612787514925,-9.784235000610352
1.7294954048085486e+18,-0.05845029279589653,0.013393857516348362,-9.819235801696777
1.7294954048175488e+18,0.03784177079796791,-0.09389080107212067,-9.851680755615234
1.729495404826549e+18,-0.015174180269241333,0.0028493772260844707,-9.823062896728516
1.7294954048355492e+18,-0.01639125868678093,0.023981638252735138,-9.830970764160156
1.7294954048415493e+18,0.008237550035119057,0.03346353769302368,-9.805055618286133
1.7294954048505495e+18,0.034143950790166855,0.02861001156270504,-9.817534446716309
1.7294954048595497e+18,-0.05400002375245094,0.03542093187570572,-9.737628936767578
1.72949540486855e+18,-0.01921878196299076,0.023625822737812996,-9.73153305053711
1.72949540487755e+18,-0.01808728650212288,0.04882170259952545,-9.846161842346191
1.7294954048865503e+18,0.0026568572502583265,-0.04012158885598183,-9.843306541442871
1.7294954048955505e+18,-0.021255536004900932,-0.025339432060718536,-9.8125638961792
1.7294954049045507e+18,-0.06711295247077942,-0.005734896287322044,-9.928557395935059
1.7294954049105508e+18,0.011722588911652565,0.008018426597118378,-9.806140899658203
1.729495404919551e+18,0.07657641917467117,-0.04162503033876419,-9.746439933776855
1.7294954049285512e+18,-0.07766351848840714,0.025176165625452995,-9.834256172180176
1.7294954049345513e+18,0.0005448722513392568,-0.0016853525303304195,-9.781675338745117
1.7294954049435515e+18,0.07953838258981705,-0.016278749331831932,-9.813721656799316
1.7294954049525517e+18,-0.07693395763635635,-0.002638595411553979,-9.79810905456543
1.729495404961552e+18,-0.034874264150857925,0.08326353132724762,-9.823212623596191
1.729495404967552e+18,0.02071279101073742,-0.014401325024664402,-9.762892723083496
1.7294954049765522e+18,-0.026621496304869652,-0.04271004721522331,-9.809612274169922
1.7294954049855524e+18,-0.02490147389471531,0.05621332302689552,-9.778657913208008
1.7294954049945526e+18,-0.005783408880233765,-0.01799863576889038,-9.72354793548584
1.7294954050005527e+18,0.030669614672660828,0.05521859973669052,-9.897051811218262
1.729495405009553e+18,0.06250391900539398,0.0014670999953523278,-9.85766315460205
1.729495405018553e+18,-0.026244085282087326,-0.022159133106470108,-9.771151542663574
1.7294954050275533e+18,-0.057444583624601364,0.00202149897813797,-9.808561325073242
1.7294954050365535e+18,0.03893289342522621,0.006462820339947939,-9.839242935180664
1.7294954050455537e+18,0.03831203281879425,0.05110175162553787,-9.873336791992188
1.7294954050515538e+18,-0.08063208311796188,0.0017953362548723817,-9.802610397338867
1.729495405060554e+18,0.017090538516640663,0.10286229103803635,-9.776220321655273
1.7294954050695542e+18,-0.003268793225288391,-0.005969810765236616,-9.862496376037598
1.7294954050785544e+18,0.015316160395741463,0.00035566429141908884,-9.857550621032715
1.7294954050845545e+18,0.01974988542497158,-0.01645493693649769,-9.777848243713379
1.7294954050935547e+18,-0.0544513501226902,0.018666468560695648,-9.797037124633789
1.7294954050995548e+18,0.03442873805761337,-0.05825373902916908,-9.937323570251465
1.729495405108555e+18,-0.08011364191770554,-0.010211985558271408,-9.790860176086426
1.7294954051175552e+18,-0.015573661774396896,-0.016071030870079994,-9.857412338256836
1.7294954051265554e+18,0.0055580148473382,0.009446707554161549,-9.772672653198242
1.7294954051355556e+18,-0.029169578105211258,-0.01632365956902504,-9.802041053771973
1.7294954051445558e+18,-0.012276284396648407,0.015254019759595394,-9.800765037536621
1.729495405153556e+18,0.08237902075052261,-0.013959096744656563,-9.815382957458496
1.7294954051625562e+18,-0.07838620245456696,-0.10046012699604034,-9.803057670593262
1.7294954051685563e+18,0.054552141577005386,0.017277460545301437,-9.789681434631348
1.7294954051775565e+18,-0.03581957519054413,0.03599380701780319,-9.873579978942871
1.7294954051865567e+18,0.04688744992017746,-0.05961776524782181,-9.740283966064453
1.7294954051955569e+18,0.015537629835307598,0.0022563994862139225,-9.789688110351562
1.729495405204557e+18,0.05306515842676163,-0.05322730913758278,-9.761215209960938
1.7294954052135572e+18,0.09727396070957184,0.08970467001199722,-9.752584457397461
1.7294954052195574e+18,-0.009088749997317791,0.08657936006784439,-9.79261589050293
1.7294954052285576e+18,0.05299447476863861,-0.006336847320199013,-9.778423309326172
1.7294954052375578e+18,0.12165720015764236,-0.005166936665773392,-9.966983795166016
1.729495405246558e+18,-0.04353034496307373,-0.0012971137184649706,-9.84388256072998
1.7294954052555581e+18,-0.0017200359143316746,0.03219977766275406,-9.888885498046875
1.7294954052645583e+18,-0.04069402068853378,0.02958044223487377,-9.810075759887695
1.7294954052735585e+18,-0.08630415052175522,-0.01034030131995678,-9.87154483795166
1.7294954052825587e+18,-0.015717364847660065,-0.07860138267278671,-9.85884952545166
1.729495405291559e+18,-0.11788497120141983,0.09217248857021332,-9.859810829162598
1.729495405300559e+18,0.008204326033592224,-0.025229888036847115,-10.022575378417969
1.7294954053095593e+18,-0.010979261249303818,0.0928000807762146,-9.980854034423828
1.7294954053155594e+18,-0.01566123031079769,0.09338967502117157,-10.02108383178711
1.7294954053245596e+18,0.08248509466648102,0.0317990817129612,-9.980847358703613
1.7294954053335598e+18,-0.0843358039855957,0.032220158725976944,-10.08997631072998
1.72949540534256e+18,0.01350133866071701,0.038535792380571365,-10.068845748901367
1.7294954053515602e+18,0.023044347763061523,0.025416798889636993,-10.030576705932617
1.7294954053605604e+18,-0.05511104315519333,0.04706476628780365,-9.9884033203125
1.7294954053695606e+18,-0.013521344400942326,0.03018898144364357,-10.194321632385254
1.7294954053755607e+18,0.01836554706096649,-0.05215698480606079,-10.102251052856445
1.729495405387561e+18,-0.06072667986154556,0.004363882355391979,-10.356429100036621
1.729495405393561e+18,-0.05539850518107414,0.04321005940437317,-10.475666999816895
1.7294954054025613e+18,0.04745311290025711,-0.023851078003644943,-10.503769874572754
1.7294954054115615e+18,-0.023828428238630295,-0.00915475469082594,-10.417564392089844
1.7294954054205617e+18,-0.014095284044742584,0.020163895562291145,-10.548629760742188
1.7294954054265618e+18,0.02045658603310585,0.024348318576812744,-10.51450252532959
1.729495405435562e+18,0.07840627431869507,0.025428585708141327,-10.530292510986328
1.7294954054445622e+18,-0.02085881121456623,-0.021993473172187805,-10.470664024353027
1.7294954054535624e+18,-0.021351641044020653,-0.07199566066265106,-10.55980396270752
1.7294954054625626e+18,-0.014034923166036606,0.012804655358195305,-10.575274467468262
1.7294954054685627e+18,0.0006732220062986016,0.06399104744195938,-10.561628341674805
1.729495405477563e+18,0.031245222315192223,-0.015606130473315716,-10.562647819519043
1.729495405486563e+18,-0.0476449653506279,-0.002180003561079502,-10.55881404876709
1.7294954054955633e+18,0.03168205916881561,0.09079477190971375,-10.504942893981934
1.7294954055045635e+18,-0.06933324784040451,-0.07278358191251755,-10.537186622619629
1.7294954055135636e+18,0.028760798275470734,-0.031532034277915955,-10.569745063781738
1.7294954055195638e+18,-0.006884138565510511,-0.008725525811314583,-10.559309005737305
1.729495405528564e+18,0.03438161313533783,0.048886556178331375,-10.56711483001709
1.7294954055375642e+18,-0.02622695453464985,0.052222736179828644,-10.538277626037598
1.7294954055435643e+18,0.008277162909507751,0.04628266766667366,-10.526764869689941
1.7294954055525645e+18,0.04416780173778534,-0.0014209534274414182,-10.529157638549805
1.7294954055615647e+18,-0.010465821251273155,0.0810299813747406,-10.545496940612793
1.7294954055705649e+18,0.045337893068790436,0.008025109767913818,-10.57181167602539
1.729495405579565e+18,-0.1117456778883934,0.02132381685078144,-10.547518730163574
1.7294954055885652e+18,0.025128614157438278,0.06652751564979553,-10.5849609375
1.7294954055945654e+18,-0.06741634011268616,0.014207505621016026,-10.595675468444824
1.7294954056035656e+18,0.024447161704301834,-0.006907481234520674,-10.543030738830566
1.7294954056125658e+18,-0.055148910731077194,-0.07896779477596283,-10.637843132019043
1.729495405621566e+18,0.007061712443828583,-0.006957964040338993,-10.56265640258789
1.7294954056305661e+18,0.024509407579898834,0.035566993057727814,-10.571285247802734
1.7294954056395663e+18,-0.07623663544654846,0.015461661852896214,-10.568582534790039
1.7294954056455665e+18,0.008287584409117699,-0.016666652634739876,-10.563467025756836
1.7294954056545667e+18,0.0024530701339244843,-0.015241388231515884,-10.533308982849121
1.7294954056635668e+18,0.00986479502171278,0.08613760024309158,-10.569942474365234
1.729495405672567e+18,-0.020524414256215096,0.0813165158033371,-10.629520416259766
1.7294954056785672e+18,0.03042118065059185,0.011801601387560368,-10.654740333557129
1.7294954056875674e+18,-0.014764543622732162,-0.03273434564471245,-10.646621704101562
1.7294954056965676e+18,-0.02469026669859886,-0.07409955561161041,-10.591230392456055
1.7294954057055677e+18,-0.044529952108860016,0.04358452558517456,-10.627754211425781
1.729495405714568e+18,-0.03095507062971592,-0.057853393256664276,-10.58851432800293
1.729495405723568e+18,0.0392659530043602,0.0333721898496151,-10.554415702819824
1.7294954057325683e+18,0.011551142670214176,-0.009493252262473106,-10.609862327575684
1.7294954057385684e+18,0.011832661926746368,-0.02095326967537403,-10.607698440551758
1.7294954057475686e+18,0.052417412400245667,0.03472268953919411,-10.574015617370605
1.7294954057565688e+18,0.012684243731200695,0.007761756889522076,-10.565606117248535
1.729495405765569e+18,-0.019973773509263992,-0.0145226726308465,-10.565529823303223
1.7294954057745692e+18,-0.0006363124120980501,-0.025457091629505157,-10.584480285644531
1.7294954057835694e+18,-0.12533172965049744,0.006567851640284061,-10.492795944213867
1.7294954057925696e+18,-0.0016836165450513363,0.0033067474141716957,-10.556426048278809
1.7294954058015698e+18,0.03126082196831703,-0.005794921889901161,-10.593830108642578
1.72949540581057e+18,0.01864561066031456,0.014738302677869797,-10.64614200592041
1.7294954058195702e+18,-0.06829063594341278,-0.09771827608346939,-10.586999893188477
1.7294954058285704e+18,0.050180673599243164,-0.05535179004073143,-10.529047966003418
1.7294954058375706e+18,0.04407148063182831,-0.10888396203517914,-10.636920928955078
1.7294954058465708e+18,-0.007338284514844418,0.019364740699529648,-10.647972106933594
1.729495405852571e+18,-0.09177467972040176,0.00332751520909369,-10.691617965698242
1.7294954058645711e+18,-0.029612815007567406,-0.11632218211889267,-10.619857788085938
1.7294954058735713e+18,0.02422027662396431,0.02468220517039299,-10.717397689819336
1.7294954058825715e+18,-0.05269256979227066,-0.05600561574101448,-10.63561725616455
1.7294954058915717e+18,0.03865521028637886,0.005915511399507523,-10.57140064239502
1.729495405900572e+18,-0.029782431200146675,-0.06441330164670944,-10.681872367858887
1.729495405909572e+18,0.015137558802962303,-0.018789974972605705,-10.624669075012207
1.7294954059185723e+18,0.009919623844325542,-0.02654751017689705,-10.568364143371582
1.7294954059275725e+18,-0.008068596012890339,0.06291788816452026,-10.64476490020752
1.7294954059365727e+18,0.007019138894975185,-0.00982780009508133,-10.648022651672363
1.7294954059455729e+18,0.032065119594335556,-0.04973401129245758,-10.62535285949707
1.729495405954573e+18,-0.044231656938791275,-0.02449614740908146,-10.638101577758789
1.7294954059635732e+18,0.01144368201494217,0.03516099974513054,-10.5877046585083
1.7294954059725734e+18,0.05886135995388031,-0.044535525143146515,-10.632345199584961
1.7294954059815736e+18,-0.039097607135772705,-0.07940661162137985,-10.670381546020508
1.7294954059905738e+18,-0.07319892942905426,0.0934082418680191,-10.710439682006836
1.729495405999574e+18,-0.028200021013617516,-0.01202461402863264,-10.597220420837402
1.7294954060085742e+18,0.005319823045283556,0.04943685606122017,-10.641907691955566
1.7294954060175744e+18,-0.04580211639404297,0.05688861757516861,-10.652596473693848
1.7294954060265746e+18,-0.014164546504616737,0.009504301473498344,-10.558401107788086
1.7294954060325747e+18,-0.060237348079681396,0.033967696130275726,-10.643709182739258
1.729495406041575e+18,0.0254067275673151,-0.007994608022272587,-10.569537162780762
1.729495406050575e+18,-0.03684712573885918,0.04119760915637016,-10.572067260742188
1.7294954060595753e+18,0.00997302308678627,0.0073888408951461315,-10.659329414367676
1.7294954060685755e+18,-0.060784514993429184,-0.01626867987215519,-10.567785263061523
1.7294954060775757e+18,-0.01237479504197836,-0.040988534688949585,-10.652101516723633
1.7294954060865759e+18,0.00038607168244197965,0.05614301189780235,-10.526566505432129
1.729495406095576e+18,0.05329589918255806,-0.0017963661812245846,-10.600224494934082
1.7294954061045763e+18,-0.06311403959989548,-0.038853906095027924,-10.639060974121094
1.7294954061135764e+18,0.05000107362866402,-0.008521465584635735,-10.647244453430176
1.7294954061225766e+18,-0.06353536248207092,0.020607128739356995,-10.631423950195312
1.7294954061315768e+18,0.056784529238939285,0.008141959086060524,-10.589241027832031
1.729495406140577e+18,-0.04071711376309395,-0.039857592433691025,-10.64201545715332
1.7294954061495772e+18,0.02749958075582981,0.045947082340717316,-10.603869438171387
1.7294954061585774e+18,-0.006166222505271435,0.00847079697996378,-10.58164119720459
1.7294954061675776e+18,0.030136102810502052,0.041396643966436386,-10.617777824401855
1.7294954061765778e+18,0.03707006573677063,-0.06494058668613434,-10.559499740600586
1.729495406185578e+18,-0.011752712540328503,-0.04729677736759186,-10.608298301696777
1.7294954061945782e+18,-0.039146002382040024,-0.002869273768737912,-10.581557273864746
1.7294954062035784e+18,0.021375302225351334,-0.09171491116285324,-10.63663101196289
1.7294954062125786e+18,0.01852055825293064,-0.011442343704402447,-10.647354125976562
1.7294954062215788e+18,-0.010337668471038342,0.014336067251861095,-10.56608772277832
1.729495406227579e+18,0.027477411553263664,0.04925566166639328,-10.592242240905762
1.729495406236579e+18,-0.0002864627167582512,-0.03297997638583183,-10.616169929504395
1.7294954062455793e+18,-0.056120119988918304,0.018229151144623756,-10.549264907836914
1.7294954062545795e+18,0.06976202130317688,0.0215813796967268,-10.617045402526855
1.7294954062635796e+18,-0.05561703443527222,-0.02987968735396862,-10.589982032775879
1.7294954062725798e+18,-0.047995444387197495,-0.027520542964339256,-10.575116157531738
1.72949540628158e+18,-0.03276017680764198,0.03234059736132622,-10.582796096801758
1.7294954062905802e+18,-0.03600598871707916,0.013839932158589363,-10.65137767791748
1.7294954062995804e+18,-0.10535586625337601,-0.06415442377328873,-10.589112281799316
1.7294954063085806e+18,0.009619328193366528,0.06181475147604942,-10.573482513427734
1.7294954063175808e+18,-0.03348264843225479,0.08108815550804138,-10.594832420349121
1.729495406326581e+18,0.050936225801706314,0.0018677758052945137,-10.52501106262207
1.7294954063355812e+18,-0.04148118942975998,-0.0005903970450162888,-10.527336120605469
1.7294954063415813e+18,0.023046163842082024,0.03195229545235634,-10.598834991455078
1.7294954063505815e+18,-0.006946996785700321,0.008365102112293243,-10.566752433776855
1.7294954063595817e+18,-0.04554037004709244,-0.08102679997682571,-10.585687637329102
1.729495406368582e+18,-0.11821913719177246,0.04928566515445709,-10.610061645507812
1.729495406377582e+18,-0.05489759147167206,-0.007189903408288956,-10.521941184997559
1.7294954063865823e+18,0.07970234751701355,0.0611824132502079,-10.610708236694336
1.7294954063925824e+18,-0.0022273214999586344,0.0026917806826531887,-10.61318588256836
1.7294954064015826e+18,-0.07109912484884262,-0.03878926485776901,-10.64492416381836
1.7294954064105828e+18,-0.0328451469540596,-0.013114972971379757,-10.508030891418457
1.729495406419583e+18,-0.05023539811372757,0.0226180050522089,-10.550369262695312
1.729495406425583e+18,-0.03596068546175957,0.0434485487639904,-10.595078468322754
1.7294954064345833e+18,0.11292381584644318,-0.036798443645238876,-10.532169342041016
1.7294954064435835e+18,0.010961160063743591,-0.04326294735074043,-10.527791023254395
1.7294954064525837e+18,-0.005273918621242046,-0.030047982931137085,-10.52585506439209
1.729495406461584e+18,0.02431604079902172,0.06444697082042694,-10.530228614807129
1.729495406467584e+18,0.011082978919148445,0.07144861668348312,-10.613234519958496
1.7294954064765842e+18,0.06217973679304123,-0.09799598157405853,-10.647700309753418
1.7294954064855844e+18,0.042726077139377594,0.021281840279698372,-10.596270561218262
1.7294954064945846e+18,0.03459116071462631,-0.04137325659394264,-10.544682502746582
1.7294954065005847e+18,-0.07245894521474838,-0.030050097033381462,-10.534930229187012
1.729495406509585e+18,-0.023906787857413292,0.05662403628230095,-10.558732986450195
1.729495406518585e+18,0.04492925480008125,0.050539154559373856,-10.491787910461426
1.7294954065275853e+18,-0.046418819576501846,0.001066619181074202,-10.435011863708496
1.7294954065335854e+18,0.03257789835333824,0.0007074214518070221,-10.538333892822266
1.7294954065425856e+18,0.031825315207242966,-0.0002691584231797606,-10.673027992248535
1.7294954065515858e+18,-0.0163958091288805,0.02288801223039627,-10.549488067626953
1.729495406560586e+18,-0.02028418704867363,-0.05035430192947388,-10.601181983947754
1.7294954065695862e+18,0.04581594839692116,0.006834942847490311,-10.598837852478027
1.7294954065755863e+18,-0.0009247700218111277,-0.05570236220955849,-10.446370124816895
1.7294954065845865e+18,-0.041647110134363174,-0.04466266557574272,-10.482243537902832
1.7294954065935867e+18,-0.014284205622971058,0.03822994604706764,-10.532987594604492
1.729495406602587e+18,0.05888489633798599,0.04964395612478256,-10.563384056091309
1.729495406611587e+18,-0.029933329671621323,-0.07452261447906494,-10.57305908203125
1.7294954066205873e+18,-0.08411855250597,0.04646395891904831,-10.54345417022705
1.7294954066295875e+18,-0.0714898407459259,0.0294644795358181,-10.597434043884277
1.7294954066385876e+18,-0.06730975955724716,0.06878966838121414,-10.52181339263916
1.7294954066445878e+18,-0.005201738327741623,0.023222144693136215,-10.487733840942383
1.729495406653588e+18,0.0536256805062294,0.005946252960711718,-10.559635162353516
1.7294954066625882e+18,0.0049728588201105595,-0.05619698762893677,-10.489346504211426
1.7294954066715884e+18,-0.03444238379597664,-0.0566796138882637,-10.616280555725098
1.7294954066805885e+18,0.05888834968209267,-0.02616521157324314,-10.44531536102295
1.7294954066895887e+18,0.020614653825759888,0.0974481925368309,-10.508199691772461
1.729495406698589e+18,-0.009932512417435646,0.013949055224657059,-10.450325012207031
1.729495406704589e+18,-0.07142456620931625,0.022601841017603874,-10.410350799560547
1.7294954067135892e+18,0.0077947406098246574,0.022062063217163086,-10.34877872467041
1.7294954067225894e+18,-0.005636769812554121,0.05745045840740204,-10.345038414001465
1.7294954067285896e+18,0.0038662857841700315,0.09835251420736313,-10.34414005279541
1.7294954067375898e+18,-0.01668570004403591,-0.00020566597231663764,-10.27413272857666
1.72949540674659e+18,0.021699635311961174,0.050723597407341,-10.19760799407959
1.7294954067555901e+18,0.09706399589776993,-0.003137666266411543,-10.260710716247559
1.7294954067645903e+18,-0.02627086266875267,0.04223768785595894,-10.176311492919922
1.7294954067735905e+18,-0.07088170945644379,-0.022800229489803314,-10.133702278137207
1.7294954067795907e+18,0.043404970318078995,0.07021056860685349,-10.132328033447266
1.7294954067885908e+18,0.02126479707658291,0.0603591613471508,-10.138482093811035
1.729495406797591e+18,-0.03630825877189636,0.07055053859949112,-10.079605102539062
1.7294954068065912e+18,-0.0024603973142802715,-0.006560612004250288,-10.112757682800293
1.7294954068155914e+18,0.057259611785411835,-0.024414053186774254,-10.03721809387207
1.7294954068245916e+18,-0.027310704812407494,-0.015965597704052925,-9.977603912353516
1.7294954068335918e+18,0.03570209816098213,0.006502103991806507,-10.021747589111328
1.729495406839592e+18,0.08349581062793732,-0.05013993754982948,-10.026938438415527
1.7294954068485921e+18,-0.07446969300508499,0.05843683332204819,-9.95175552368164
1.7294954068575923e+18,-0.05365834757685661,0.07112857699394226,-9.931241989135742
1.7294954068665925e+18,-0.044954463839530945,0.03397563472390175,-9.878193855285645
1.7294954068755927e+18,0.021571878343820572,0.09393151849508286,-9.904531478881836
1.729495406884593e+18,0.007286316715180874,-0.04833804443478584,-9.859152793884277
1.729495406890593e+18,0.03493686765432358,0.00934506393969059,-9.787211418151855
1.7294954069025933e+18,0.0105060376226902,0.019897056743502617,-9.787881851196289
1.7294954069115935e+18,-0.002259417437016964,-0.04049063101410866,-9.822038650512695
1.7294954069175936e+18,-0.03423745930194855,-0.025054730474948883,-9.745872497558594
1.7294954069265938e+18,0.034195926040410995,0.06086176633834839,-9.676451683044434
1.729495406935594e+18,0.09443683922290802,0.008999720215797424,-9.694652557373047
1.7294954069445942e+18,-0.004960704129189253,0.02145303227007389,-9.703179359436035
1.7294954069535944e+18,-0.021405905485153198,0.07399376481771469,-9.774764060974121
1.7294954069595945e+18,-0.006038591265678406,-0.039667777717113495,-9.731355667114258
1.7294954069685947e+18,-0.017627136781811714,-0.043536003679037094,-9.76233196258545
1.729495406977595e+18,-0.044365737587213516,-0.007504092995077372,-9.714972496032715
1.729495406986595e+18,0.04300516098737717,0.011295981705188751,-9.722090721130371
1.7294954069955953e+18,-0.03902455046772957,-0.01604151353240013,-9.698974609375
1.7294954070015954e+18,0.04694606363773346,-0.0611308217048645,-9.643494606018066
1.7294954070105956e+18,-0.00854604970663786,0.0825701355934143,-9.666813850402832
1.7294954070195958e+18,0.0014105173759162426,0.012154408730566502,-9.60733699798584
1.729495407028596e+18,-0.030051395297050476,0.04167765751481056,-9.682188034057617
1.7294954070375962e+18,0.06894907355308533,-0.05089746043086052,-9.70621395111084
1.7294954070435963e+18,0.025037050247192383,-0.005562779493629932,-9.718006134033203
1.7294954070525965e+18,-0.008753622882068157,0.05012959986925125,-9.705607414245605
1.7294954070615967e+18,0.017981134355068207,-0.05049220100045204,-9.589938163757324
1.7294954070705969e+18,0.05608963221311569,-0.02090081386268139,-9.657245635986328
1.729495407079597e+18,-0.06064210087060928,-0.024898067116737366,-9.797938346862793
1.7294954070885972e+18,0.015418038703501225,-0.037423066794872284,-9.779268264770508
1.7294954070975974e+18,-0.022894036024808884,-0.005083087831735611,-9.68819808959961
1.7294954071035976e+18,-0.011064743623137474,0.02827182225883007,-9.673856735229492
1.7294954071125978e+18,-0.06864091008901596,0.04950201138854027,-9.744667053222656
1.729495407121598e+18,-0.05885322391986847,0.011892344802618027,-9.76276683807373
1.7294954071305981e+18,-0.0015756723005324602,-0.04685385525226593,-9.712265968322754
1.7294954071395983e+18,0.08117416501045227,0.022295739501714706,-9.702269554138184
1.7294954071455985e+18,0.04596877843141556,-0.03757217898964882,-9.611286163330078
1.7294954071545987e+18,0.029133103787899017,0.00817791186273098,-9.69141960144043
1.7294954071635988e+18,0.044620055705308914,-0.04154188558459282,-9.749354362487793
1.729495407172599e+18,0.06418368220329285,-0.054159101098775864,-9.677356719970703
1.7294954071815992e+18,-0.019750338047742844,-0.019484518095850945,-9.65140438079834
1.7294954071905994e+18,-0.09430965036153793,-0.01119884941726923,-9.675372123718262
1.7294954071965996e+18,0.01394212432205677,0.07005096971988678,-9.734528541564941
1.7294954072055997e+18,-0.08358824998140335,0.02359754405915737,-9.656632423400879
1.7294954072146e+18,0.027828330174088478,0.015822000801563263,-9.695146560668945
1.7294954072236e+18,0.018465034663677216,0.011381400749087334,-9.695402145385742
1.7294954072296003e+18,0.024744493886828423,0.021363651379942894,-9.660870552062988
1.7294954072386004e+18,0.08425126224756241,0.039153777062892914,-9.621195793151855
1.7294954072476006e+18,0.007977141998708248,-0.01058900821954012,-9.58363151550293
1.7294954072566008e+18,0.04602549597620964,-0.03007463365793228,-9.645647048950195
1.729495407265601e+18,-0.047545790672302246,0.07287213206291199,-9.707986831665039
1.7294954072746012e+18,-0.039873410016298294,0.06494259834289551,-9.74471378326416
1.7294954072836014e+18,0.03759244456887245,-0.049511149525642395,-9.682382583618164
1.7294954072896015e+18,-0.03311595320701599,0.007722259499132633,-9.625120162963867
1.7294954072986017e+18,0.04417373239994049,-0.0037359579000622034,-9.641955375671387
1.729495407307602e+18,0.042222049087285995,-0.04521367326378822,-9.657567977905273
1.729495407316602e+18,-0.10421720147132874,0.005623184144496918,-9.608264923095703
1.7294954073256023e+18,-0.014670198783278465,0.07061681151390076,-9.701319694519043
1.7294954073346025e+18,-0.044011324644088745,-0.01733819954097271,-9.653351783752441
1.7294954073406026e+18,0.041043657809495926,0.00023510366736445576,-9.655281066894531
1.7294954073496028e+18,-0.047578245401382446,0.033742755651474,-9.621663093566895
1.729495407358603e+18,0.033319566398859024,-0.043649446219205856,-9.674736022949219
1.7294954073676032e+18,0.001942862058058381,0.007733169011771679,-9.632802963256836
1.7294954073766034e+18,0.028590084984898567,-0.004722146317362785,-9.630305290222168
1.7294954073826035e+18,-0.02519376389682293,0.026410836726427078,-9.619757652282715
1.7294954073916037e+18,0.019748976454138756,0.00481658149510622,-9.618108749389648
1.729495407400604e+18,-0.05762782320380211,0.03142862766981125,-9.641626358032227
1.729495407409604e+18,-0.04450444504618645,-0.06667137145996094,-9.64454460144043
1.7294954074186043e+18,-0.06110038608312607,-0.03840155899524689,-9.608663558959961
1.7294954074276045e+18,-0.011408495716750622,-0.06627360731363297,-9.563373565673828
1.7294954074366047e+18,-0.10091429948806763,0.004984813742339611,-9.574895858764648
1.7294954074456049e+18,-0.020859085023403168,0.015749383717775345,-9.551042556762695
1.729495407451605e+18,0.037652306258678436,0.09790276736021042,-9.562121391296387
1.7294954074606052e+18,0.042409561574459076,0.04350001737475395,-9.602476119995117
1.7294954074696054e+18,-0.005746795795857906,-0.023865532130002975,-9.615330696105957
1.7294954074786056e+18,0.022701527923345566,-0.015986008569598198,-9.651741981506348
1.7294954074846057e+18,0.07662041485309601,0.01056681014597416,-9.633384704589844
1.729495407493606e+18,0.03036310151219368,0.012665698304772377,-9.625847816467285
1.729495407502606e+18,0.004354896955192089,0.019605727866292,-9.568777084350586
1.7294954075116063e+18,-0.007050938438624144,0.035558149218559265,-9.585426330566406
1.7294954075176064e+18,0.05389093980193138,0.003194135148078203,-9.615777015686035
1.7294954075266066e+18,-0.043957289308309555,0.031029831618070602,-9.605876922607422
1.7294954075356068e+18,0.057416580617427826,0.05364356189966202,-9.567459106445312
1.729495407544607e+18,0.0059827398508787155,-0.037799932062625885,-9.597731590270996
1.7294954075536072e+18,0.001563164172694087,0.12150589376688004,-9.600591659545898
1.7294954075596073e+18,0.02884865552186966,-0.020051972940564156,-9.579939842224121
1.7294954075686075e+18,-0.06835135817527771,0.04582558199763298,-9.535543441772461
1.7294954075776077e+18,0.053849585354328156,-0.057180583477020264,-9.597771644592285
1.7294954075866079e+18,0.01077752560377121,0.007740977220237255,-9.542620658874512
1.729495407595608e+18,0.064272440969944,-0.033075835555791855,-9.528274536132812
1.7294954076046083e+18,0.009564406238496304,-0.091214120388031,-9.614760398864746
1.7294954076106084e+18,0.00039142544846981764,-0.021467436105012894,-9.517577171325684
1.7294954076196086e+18,-0.0165499746799469,0.005527525208890438,-9.542773246765137
1.7294954076286088e+18,-0.034011419862508774,-0.02438841015100479,-9.59571361541748
1.729495407637609e+18,-0.0295477993786335,0.027814384549856186,-9.497733116149902
1.7294954076466092e+18,0.041970789432525635,-0.007843841798603535,-9.641877174377441
1.7294954076556093e+18,0.05067196860909462,-0.004934978671371937,-9.534053802490234
1.7294954076646095e+18,-0.017101438716053963,0.06985192745923996,-9.515185356140137
1.7294954076736097e+18,0.01973462477326393,0.0099104605615139,-9.477540016174316
1.72949540768261e+18,-0.0355222150683403,0.07503506541252136,-9.548432350158691
1.72949540769161e+18,0.045288462191820145,-0.031513094902038574,-9.557168960571289
1.7294954077006103e+18,0.11080297082662582,-0.037076447159051895,-9.569812774658203
1.7294954077096105e+18,-0.03513379767537117,-0.10052849352359772,-9.533556938171387
1.7294954077186107e+18,-0.00551745155826211,0.009862756356596947,-9.576811790466309
1.729495407727611e+18,0.07226692885160446,-0.003889524843543768,-9.570240020751953
1.729495407733611e+18,0.03772410377860069,0.030493130907416344,-9.546670913696289
1.7294954077426112e+18,-0.06444181501865387,-0.01776888407766819,-9.48501968383789
1.7294954077516114e+18,0.039639875292778015,0.03886633366346359,-9.469101905822754
1.7294954077606116e+18,0.061119820922613144,-0.05102625861763954,-9.502636909484863
1.7294954077696118e+18,0.03617113083600998,-0.04945142939686775,-9.515765190124512
1.729495407778612e+18,0.005466143600642681,0.026895713061094284,-9.484272003173828
1.7294954077876122e+18,-0.016229070723056793,-0.03767676278948784,-9.48378849029541
1.7294954077966124e+18,0.013082199729979038,0.026313453912734985,-9.480311393737793
1.7294954078056125e+18,-0.015091724693775177,0.00294064125046134,-9.388418197631836
1.7294954078146127e+18,0.006812221370637417,-0.03046339936554432,-9.531403541564941
1.729495407823613e+18,-0.07879560440778732,0.08827443420886993,-9.500396728515625
1.729495407829613e+18,0.03248131647706032,-0.02526984177529812,-9.553913116455078
1.7294954078386132e+18,0.023658443242311478,-0.018929289653897285,-9.48890209197998
1.7294954078476134e+18,-0.006874365732073784,0.014900043606758118,-9.526975631713867
1.7294954078566136e+18,0.02487141638994217,-0.015335066244006157,-9.527433395385742
1.7294954078656138e+18,-0.004394773859530687,-0.01304573006927967,-9.545767784118652
1.729495407874614e+18,0.030324961990118027,-0.0030442310962826014,-9.428217887878418
1.7294954078866143e+18,0.0011813119053840637,0.05123581364750862,-9.459456443786621
1.7294954078956145e+18,-0.008455890230834484,0.07757604122161865,-9.462480545043945
1.7294954079046147e+18,-0.057929590344429016,-0.00935275200754404,-9.46914291381836
1.7294954079136148e+18,-0.038109902292490005,-0.030483733862638474,-9.395581245422363
1.729495407919615e+18,0.09018881618976593,-0.05126430094242096,-9.45089054107666
1.7294954079316152e+18,0.010876212269067764,-0.06274440139532089,-9.482767105102539
1.7294954079376154e+18,-0.06967536360025406,0.06868648529052734,-9.53868579864502
1.7294954079466156e+18,-0.035435743629932404,-0.009430786594748497,-9.454087257385254
1.7294954079556157e+18,-0.018361447378993034,0.029461828991770744,-9.484524726867676
1.729495407964616e+18,-0.05127912759780884,-0.006855745799839497,-9.485250473022461
1.729495407973616e+18,0.11865503340959549,-0.021691031754016876,-9.450328826904297
1.7294954079826163e+18,-0.0007082329248078167,0.03160062059760094,-9.404047966003418
1.7294954079916165e+18,0.05900244787335396,-0.0077970316633582115,-9.42680835723877
1.7294954079976166e+18,-0.007113796658813953,0.06708373874425888,-9.546906471252441
1.7294954080066168e+18,-0.028411028906702995,-0.04757804796099663,-9.427701950073242
1.729495408015617e+18,0.03643026202917099,-0.011092840693891048,-9.4763822555542
1.7294954080276173e+18,-0.003141104243695736,-0.04689854010939598,-9.45180892944336
1.7294954080366175e+18,0.005448267795145512,-0.03275660052895546,-9.404206275939941
1.7294954080456177e+18,-0.03342720866203308,-0.10654336214065552,-9.532743453979492
1.7294954080546179e+18,0.05591340363025665,-0.04825892671942711,-9.509084701538086
1.729495408063618e+18,0.049262356013059616,-0.02300560660660267,-9.531025886535645
1.7294954080726182e+18,0.006086414679884911,0.05822135880589485,-9.527464866638184
1.7294954080816184e+18,-0.07232312858104706,-0.01634339988231659,-9.45317554473877
1.7294954080906186e+18,0.03315628692507744,-0.06833627820014954,-9.402642250061035
1.7294954080996188e+18,-0.024983016774058342,0.039503708481788635,-9.491271018981934
1.729495408108619e+18,0.05914129316806793,-0.03479396551847458,-9.415838241577148
1.7294954081176192e+18,0.02140667662024498,-0.012833138927817345,-9.372590065002441
1.7294954081266194e+18,-0.05112059786915779,-0.019057832658290863,-9.500519752502441
1.7294954081356196e+18,0.004017588682472706,-0.11221694946289062,-9.507620811462402
1.7294954081446198e+18,0.08098562061786652,-0.008710550144314766,-9.495452880859375
1.72949540815362e+18,0.011859603226184845,0.02646595612168312,-9.452260971069336
1.7294954081626202e+18,-0.02924591489136219,0.01802229695022106,-9.404163360595703
1.7294954081716204e+18,0.1369844675064087,0.007281677331775427,-9.410440444946289
1.7294954081806205e+18,-7.06777791492641e-05,-0.03282608464360237,-9.492152214050293
1.7294954081896207e+18,0.042533811181783676,0.030106747522950172,-9.4694185256958
1.729495408198621e+18,-0.04688861593604088,-0.006090291775763035,-9.407075881958008
1.729495408204621e+18,-0.024738939478993416,0.08848386257886887,-9.456437110900879
1.7294954082136212e+18,0.012389376759529114,-0.007944305427372456,-9.420666694641113
1.7294954082226214e+18,0.0010289348429068923,-0.021282389760017395,-9.443380355834961
1.7294954082316216e+18,-0.020523352548480034,-0.02104279026389122,-9.421463012695312
1.7294954082406218e+18,-0.023561865091323853,0.019422372803092003,-9.49427318572998
1.729495408246622e+18,-0.09106292575597763,0.047049086540937424,-9.442419052124023
1.7294954082586222e+18,0.0037707053124904633,-0.014583135023713112,-9.555779457092285
1.7294954082646223e+18,0.09890184551477432,0.003272515954449773,-9.564729690551758
1.7294954082736225e+18,0.02177889086306095,0.00407141400501132,-9.461163520812988
1.7294954082826227e+18,0.05669230967760086,0.0028845896013081074,-9.545534133911133
1.729495408291623e+18,0.04249359667301178,-0.07615537941455841,-9.385924339294434
1.729495408297623e+18,0.00375608098693192,-0.026856031268835068,-9.474233627319336
1.7294954083066232e+18,0.04132553189992905,0.028185127303004265,-9.389403343200684
1.7294954083156234e+18,0.01929389126598835,0.02339889481663704,-9.452519416809082
1.7294954083246236e+18,-0.017405837774276733,-0.00025181955425068736,-9.372234344482422
1.7294954083336238e+18,0.043762676417827606,-0.0287949051707983,-9.433843612670898
1.729495408342624e+18,-0.04778992012143135,-0.04711093008518219,-9.433452606201172
1.7294954083516242e+18,0.015872633084654808,0.04522320255637169,-9.41476058959961
1.7294954083576243e+18,-0.0005606855847872794,0.06558424234390259,-9.345425605773926
1.7294954083666245e+18,-0.009322871454060078,-0.011721957474946976,-9.502424240112305
1.7294954083756247e+18,-0.016416525468230247,0.027599191293120384,-9.447651863098145
1.729495408384625e+18,0.0038900647778064013,9.636777394916862e-05,-9.48187255859375
1.729495408390625e+18,0.003963272552937269,-0.020999370142817497,-9.448569297790527
1.7294954083996252e+18,0.05644146353006363,0.006136640906333923,-9.471874237060547
1.7294954084086254e+18,0.029134921729564667,-0.04645641893148422,-9.314237594604492
1.7294954084176256e+18,-0.01332708727568388,-0.015828799456357956,-9.282859802246094
1.7294954084266258e+18,0.07612187415361404,0.0800866186618805,-9.298724174499512
1.729495408435626e+18,-0.012776941992342472,0.04516272991895676,-9.290560722351074
1.729495408441626e+18,0.09111497551202774,0.034199707210063934,-9.249136924743652
1.7294954084506263e+18,-0.021111194044351578,0.007232754025608301,-9.264117240905762
1.7294954084596265e+18,0.045266300439834595,-0.03751766309142113,-9.171934127807617
1.7294954084686267e+18,0.007136395666748285,0.02538556419312954,-9.2618989944458
1.729495408477627e+18,0.003001546021550894,-0.09210726618766785,-9.164616584777832
1.729495408483627e+18,0.020461734384298325,0.026132719591259956,-9.093442916870117
1.7294954084926272e+18,0.07120057195425034,-0.043074097484350204,-9.051581382751465
1.7294954085016274e+18,-0.04532136395573616,-0.047092851251363754,-9.100679397583008
1.7294954085076275e+18,-0.039556246250867844,0.014755240641534328,-9.127604484558105
1.7294954085166277e+18,-0.018305471166968346,0.07954122126102448,-9.024584770202637
1.729495408525628e+18,0.009557369165122509,0.04314398765563965,-8.965376853942871
1.729495408534628e+18,0.02406996488571167,-0.008028760552406311,-9.0007963180542
1.7294954085436283e+18,-0.013910483568906784,0.06962253153324127,-8.963360786437988
1.7294954085526285e+18,0.030288122594356537,-0.02141524665057659,-8.952144622802734
1.7294954085616287e+18,-0.08102313429117203,-0.042209528386592865,-8.896021842956543
1.7294954085706289e+18,-0.027520570904016495,-0.019258098676800728,-8.85766887664795
1.729495408579629e+18,-0.03880142793059349,-0.07928606122732162,-8.857015609741211
1.7294954085886292e+18,0.0017578164115548134,0.042185623198747635,-8.822446823120117
1.7294954085976294e+18,0.09578804671764374,-0.04561169445514679,-8.836872100830078
1.7294954086066296e+18,-0.02847151644527912,-0.050119176506996155,-8.682862281799316
1.7294954086156298e+18,-0.03010960854589939,-0.014776558615267277,-8.626960754394531
1.72949540862163e+18,0.020493250340223312,0.02133963815867901,-8.576505661010742
1.7294954086306301e+18,-0.00244694110006094,0.04455220326781273,-8.679101943969727
1.7294954086396303e+18,-0.06528929620981216,0.004226089920848608,-8.710851669311523
1.7294954086486305e+18,0.027678687125444412,-0.008984955959022045,-8.60769271850586
1.7294954086576307e+18,0.05834363400936127,0.01934288628399372,-8.638028144836426
1.729495408666631e+18,-0.03558465465903282,0.01664689928293228,-8.722640991210938
1.729495408675631e+18,-0.0005657466826960444,0.003845452331006527,-8.619317054748535
1.7294954086846313e+18,-0.06517218053340912,0.023648720234632492,-8.770304679870605
1.7294954086936315e+18,-0.015063004568219185,-0.012472212314605713,-8.730331420898438
1.7294954087026317e+18,0.029122641310095787,0.0415312722325325,-8.656484603881836
1.729495408711632e+18,-0.025021331384778023,-0.0001302684540860355,-8.7368803024292
1.729495408720632e+18,-0.05686571076512337,0.025508025661110878,-8.661831855773926
1.7294954087296323e+18,-0.0013131031300872564,-0.010971741750836372,-8.773571968078613
1.7294954087386324e+18,0.07240772247314453,-0.0022924551740288734,-8.777280807495117
1.7294954087476326e+18,0.015154940076172352,-0.05503372475504875,-8.855103492736816
1.7294954087536328e+18,0.06083783879876137,0.04268311336636543,-8.8270263671875
1.729495408765633e+18,0.05243667960166931,0.036432038992643356,-8.73069953918457
1.7294954087746332e+18,-0.08614429086446762,0.03015696071088314,-8.866748809814453
1.7294954087836334e+18,0.03351564332842827,0.016943061724305153,-8.881063461303711
1.7294954087926336e+18,-0.040694620460271835,-0.04332392290234566,-8.789855003356934
1.7294954088016338e+18,-0.004827421624213457,0.019546406343579292,-14.014960289001465
1.729495408810634e+18,-0.06120657920837402,0.02350248210132122,-16.002214431762695
1.729495408816634e+18,0.022654566913843155,-0.0894940122961998,-16.149343490600586
1.7294954088256343e+18,0.03446958214044571,0.025747887790203094,-16.293642044067383
1.7294954088346345e+18,0.02262967824935913,-0.027350768446922302,-16.36170768737793
1.7294954088436347e+18,-0.01606176793575287,-0.02018042653799057,-16.235620498657227
1.729495408852635e+18,-0.038556456565856934,-0.006506251636892557,-16.109392166137695
1.729495408861635e+18,0.018632695078849792,0.043647103011608124,-15.915924072265625
1.7294954088706353e+18,0.0006144742947071791,0.02459857054054737,-15.816469192504883
1.7294954088796355e+18,0.009686418808996677,0.00524192675948143,-15.660929679870605
1.7294954088856356e+18,-0.05409957468509674,-0.10156790912151337,-15.60534954071045
1.7294954088946358e+18,-0.021349620074033737,0.07297705858945847,-15.500946998596191
1.729495408903636e+18,-0.03366171568632126,0.007905126549303532,-15.246859550476074
1.7294954089126362e+18,-0.02962174266576767,-0.08024436235427856,-15.281861305236816
1.7294954089216364e+18,-0.029646113514900208,-0.017813866958022118,-15.175665855407715
1.7294954089276365e+18,-0.019400550052523613,-0.007657945156097412,-14.99112319946289
1.7294954089366367e+18,0.0013710986822843552,0.08272711932659149,-14.896979331970215
1.7294954089456369e+18,0.05219174548983574,0.03603556007146835,-14.711614608764648
1.729495408954637e+18,0.02687021531164646,0.013156045228242874,-14.690971374511719
1.7294954089636372e+18,-0.011062282137572765,-0.005117361433804035,-14.544515609741211
1.7294954089726374e+18,0.016851309686899185,0.030544281005859375,-14.445206642150879
1.7294954089786376e+18,0.030233196914196014,-0.0929146409034729,-14.348759651184082
1.7294954089876378e+18,-0.0399065800011158,0.044984426349401474,-14.190804481506348
1.729495408996638e+18,0.021642979234457016,-0.028233297169208527,-14.184430122375488
1.7294954090056381e+18,0.04310427978634834,-0.023699402809143066,-14.07272720336914
1.7294954090116383e+18,-0.01635092869400978,0.036653660237789154,-13.934006690979004
1.7294954090206385e+18,0.07105445861816406,-0.04470451548695564,-13.891375541687012
1.7294954090296387e+18,0.01754789613187313,-0.018505020067095757,-13.755698204040527
1.7294954090386388e+18,-0.0048903608694672585,-0.009078571572899818,-13.659219741821289
1.729495409047639e+18,-0.051619064062833786,0.05259644240140915,-13.603832244873047
1.7294954090566392e+18,-0.023251857608556747,-0.06067410483956337,-13.481682777404785
1.7294954090656394e+18,0.05094125494360924,-0.00011263659689575434,-13.452157020568848
1.7294954090716396e+18,-0.01285325177013874,-0.07859606295824051,-13.351073265075684
1.7294954090806397e+18,0.014664349146187305,-0.004741042852401733,-13.239104270935059
1.72949540908964e+18,-0.004560586530715227,0.09158452600240707,-13.192017555236816
1.7294954090986401e+18,0.04104629531502724,0.009149482473731041,-13.053223609924316
1.7294954091076403e+18,0.029899336397647858,0.004860125482082367,-13.03126335144043
1.7294954091136404e+18,0.034676238894462585,0.028888138011097908,-13.053010940551758
1.7294954091226406e+18,-0.029118720442056656,0.025500686839222908,-13.0074462890625
1.7294954091316408e+18,-0.0013256593374535441,0.0007451348938047886,-12.842226028442383
1.729495409140641e+18,0.0052082594484090805,0.0023817128967493773,-12.784601211547852
1.7294954091496412e+18,-0.039087437093257904,-0.014228375628590584,-12.8164644241333
1.7294954091586414e+18,-0.012419130653142929,-0.044716186821460724,-12.735508918762207
1.7294954091676416e+18,0.021700484678149223,0.10889028012752533,-12.51269245147705
1.7294954091766418e+18,0.04275381192564964,-0.04395299404859543,-12.473666191101074
1.729495409182642e+18,-0.01615169458091259,-0.0026538046076893806,-12.417268753051758
1.729495409191642e+18,0.033328693360090256,0.043334707617759705,-12.427099227905273
1.7294954092006423e+18,0.00909886509180069,-0.054873909801244736,-12.457444190979004
1.7294954092096425e+18,0.018960274755954742,-0.0018151813419535756,-12.392967224121094
1.7294954092186427e+18,-0.0072410074062645435,-0.0032139760442078114,-12.278172492980957
1.7294954092246428e+18,-0.008203897625207901,0.018351063132286072,-12.152237892150879
1.729495409233643e+18,0.0004119270306546241,-0.06410524994134903,-12.160276412963867
1.7294954092426432e+18,-0.010357465595006943,-0.08410000801086426,-12.08604621887207
1.7294954092516434e+18,-0.05402858182787895,0.0210105013102293,-12.020003318786621
1.7294954092576435e+18,0.024269042536616325,0.0005302208592183888,-12.082796096801758
1.7294954092666437e+18,0.09886614978313446,0.001293848268687725,-11.959538459777832
1.729495409275644e+18,0.051099952310323715,0.010446646250784397,-12.040997505187988
1.729495409284644e+18,-0.05630723387002945,0.06676624715328217,-11.87473201751709
1.7294954092936443e+18,0.046610135585069656,0.015279348008334637,-11.890419960021973
1.7294954093026445e+18,-0.037669625133275986,0.010446995496749878,-11.77862548828125
1.7294954093086446e+18,0.006328116171061993,0.005248422734439373,-11.791975021362305
1.7294954093176448e+18,0.03147805854678154,-0.015253454446792603,-11.708135604858398
1.729495409326645e+18,-0.04087589681148529,-0.009617765434086323,-11.633469581604004
1.7294954093356452e+18,0.03237989544868469,0.023494550958275795,-11.741732597351074
1.7294954093446454e+18,-0.016005078330636024,0.024741124361753464,-11.597638130187988
1.7294954093536456e+18,-0.09120997786521912,0.003920161165297031,-11.607736587524414
1.7294954093626458e+18,0.062399156391620636,0.011074470356106758,-11.538077354431152
1.729495409371646e+18,0.017687132582068443,-0.012199904769659042,-11.497459411621094
1.729495409377646e+18,0.06049981713294983,-0.02892373315989971,-11.48742961883545
1.7294954093866463e+18,0.09878920018672943,-0.0004827131633646786,-11.334616661071777
1.7294954093956465e+18,-0.025969460606575012,0.07229205965995789,-11.300748825073242
1.7294954094046467e+18,-0.06786630302667618,0.09771743416786194,-11.392784118652344
1.7294954094136468e+18,-0.03311147168278694,0.019903359934687614,-11.356973648071289
1.729495409422647e+18,-0.07014716416597366,-0.006218171678483486,-11.254557609558105
1.7294954094286472e+18,-0.026702038943767548,0.041042111814022064,-11.277066230773926
1.7294954094376474e+18,0.02251543290913105,0.012765299528837204,-11.242880821228027
1.7294954094466476e+18,0.029843825846910477,-0.05669284239411354,-11.152156829833984
1.7294954094556477e+18,0.015138138085603714,0.016879821196198463,-11.16018295288086
1.729495409461648e+18,0.06433406472206116,0.004056318663060665,-11.155606269836426
1.729495409470648e+18,-0.028365354984998703,-0.0663934275507927,-11.166114807128906
1.7294954094796483e+18,0.05605597421526909,0.017222970724105835,-11.09467887878418
1.7294954094886484e+18,-0.08950404077768326,0.0720977857708931,-11.086679458618164
1.7294954094976486e+18,0.005643111187964678,0.014611007645726204,-11.10810375213623
1.7294954095036488e+18,-0.03066970594227314,-0.0826740711927414,-11.097026824951172
1.729495409512649e+18,-0.10103526711463928,0.03088235855102539,-11.112186431884766
1.7294954095216492e+18,-0.019089873880147934,0.012762065045535564,-10.920245170593262
1.7294954095306493e+18,0.02269686944782734,-0.03387989476323128,-10.893088340759277
1.7294954095396495e+18,0.03833295404911041,0.033139668405056,-11.009879112243652
1.7294954095486497e+18,-0.00039419770473614335,-0.04043838754296303,-10.962138175964355
1.72949540955765e+18,-0.06113915517926216,-0.06852701306343079,-10.878641128540039
1.72949540956665e+18,-0.041391726583242416,-0.026381580159068108,-10.918445587158203
1.7294954095756503e+18,0.005668748635798693,0.08945474028587341,-10.851377487182617
1.7294954095846505e+18,0.001284356927499175,-0.03393992781639099,-10.796177864074707
1.7294954095906506e+18,0.04385227710008621,0.060094594955444336,-10.799172401428223
1.7294954095996508e+18,-0.07641077041625977,0.027242839336395264,-10.827323913574219
1.729495409608651e+18,0.003151552751660347,0.00692274235188961,-10.70514965057373
1.7294954096176512e+18,0.009817870333790779,0.04426976293325424,-10.647893905639648
1.7294954096266514e+18,-0.007677691522985697,-0.05281906574964523,-10.605046272277832
1.7294954096356516e+18,-0.0581115186214447,0.036481715738773346,-10.718121528625488
1.7294954096446518e+18,-0.01716066151857376,-0.0011061779223382473,-10.61862564086914
1.729495409650652e+18,0.03627331182360649,-0.03898842632770538,-10.630199432373047
1.729495409659652e+18,0.049033187329769135,0.025867974385619164,-10.704986572265625
1.7294954096686523e+18,0.023598598316311836,0.03488490357995033,-10.618444442749023
1.7294954096776525e+18,-0.01380222849547863,-0.03353075683116913,-10.568347930908203
1.7294954096836526e+18,0.03576422855257988,-0.03194423019886017,-10.603886604309082
1.7294954096926528e+18,0.032776426523923874,-0.0217910073697567,-10.587082862854004
1.729495409701653e+18,-0.018957041203975677,-0.01977379433810711,-10.446807861328125
1.7294954097106532e+18,0.040927037596702576,0.10368044674396515,-10.547609329223633
1.7294954097196534e+18,0.038048695772886276,-0.02576717548072338,-10.612553596496582
1.7294954097286536e+18,0.019239140674471855,-0.05750603973865509,-10.492752075195312
1.7294954097376538e+18,0.012841335497796535,-0.020002856850624084,-10.480239868164062
1.729495409746654e+18,0.05577549338340759,-0.030822664499282837,-10.432001113891602
1.7294954097556541e+18,0.05866871774196625,0.011387196369469166,-10.40174674987793
1.7294954097616543e+18,-0.004122559446841478,0.07183003425598145,-10.43428897857666
1.7294954097706545e+18,-0.041607774794101715,0.06473377346992493,-10.408055305480957
1.7294954097796547e+18,-0.029166782274842262,-0.0017133719520643353,-10.415294647216797
1.7294954097886548e+18,-0.005817072466015816,-0.08133482933044434,-10.41008472442627
1.729495409794655e+18,-0.01995653472840786,0.012380219995975494,-10.393802642822266
1.7294954098036552e+18,-0.0009642324293963611,-0.005939957685768604,-10.38703727722168
1.7294954098126554e+18,0.0765393078327179,-0.007321149576455355,-10.383918762207031
1.7294954098216556e+18,-0.07058543711900711,-0.021965624764561653,-10.36934757232666
1.7294954098306557e+18,0.001851002685725689,-0.006187210790812969,-10.358806610107422
1.729495409839656e+18,0.029727915301918983,0.03650897741317749,-10.274760246276855
1.7294954098486561e+18,-0.05248924717307091,-0.026232421398162842,-10.277543067932129
1.7294954098546563e+18,-0.029207754880189896,-0.004778159782290459,-10.268905639648438
1.7294954098636564e+18,-0.06213938444852829,-0.06702199578285217,-10.251049995422363
1.7294954098726566e+18,0.014409374445676804,0.02332310378551483,-10.261445999145508
1.7294954098816568e+18,0.13833151757717133,-0.0254822988063097,-10.279831886291504
1.729495409890657e+18,0.00780055858194828,-0.0011733761057257652,-10.358582496643066
1.7294954098966572e+18,0.05370006337761879,-0.05663131922483444,-10.237255096435547
1.7294954099056573e+18,0.03664073720574379,0.016092993319034576,-10.235434532165527
1.7294954099146575e+18,0.02613251842558384,0.005273835267871618,-10.168968200683594
1.7294954099236577e+18,0.0030301581136882305,-0.05118351802229881,-10.166115760803223
1.729495409932658e+18,0.0705086886882782,0.03685317188501358,-10.219776153564453
1.729495409941658e+18,-0.07399331033229828,0.043024223297834396,-10.168163299560547
1.7294954099476582e+18,-0.07101547718048096,-0.050997573882341385,-10.142047882080078
1.7294954099566584e+18,0.0515478253364563,0.020385710522532463,-10.156975746154785
1.7294954099656586e+18,-0.01592503860592842,-0.031246069818735123,-10.112585067749023
1.7294954099716588e+18,0.015808312222361565,0.018896913155913353,-10.11614990234375
1.729495409980659e+18,-0.07220964878797531,-0.009494454599916935,-10.105463981628418
1.7294954099896591e+18,0.02264411747455597,-0.02219260297715664,-10.071584701538086
1.7294954099986593e+18,0.06809383630752563,-0.041424162685871124,-10.13245677947998
1.7294954100076595e+18,0.006506313569843769,0.029764289036393166,-10.098844528198242
1.7294954100166597e+18,0.006312858313322067,0.08074845373630524,-10.137014389038086
1.72949541002566e+18,0.05748799070715904,0.011755240149796009,-10.087797164916992
1.72949541003466e+18,-0.029299579560756683,0.012482578866183758,-10.008801460266113
1.7294954100436603e+18,-0.0686115249991417,0.03462635725736618,-10.079313278198242
1.7294954100526605e+18,0.04370738938450813,-0.009982586838304996,-10.06490421295166
1.7294954100616607e+18,-0.05182960629463196,0.04889192804694176,-10.083476066589355
1.7294954100706609e+18,0.01620163954794407,0.035158731043338776,-10.020943641662598
1.729495410079661e+18,-0.019829699769616127,-0.003214339492842555,-9.924782752990723
1.7294954100886612e+18,0.035373132675886154,0.12116477638483047,-9.978914260864258
1.7294954100976614e+18,0.030764706432819366,0.018692126497626305,-9.95541763305664
1.7294954101036616e+18,-0.050655897706747055,-0.02198152430355549,-9.940311431884766
1.7294954101126618e+18,0.013158096000552177,-0.04199577495455742,-9.977089881896973
1.729495410121662e+18,0.033459682017564774,-0.03126457706093788,-10.009310722351074
1.7294954101306621e+18,-0.07858360558748245,0.017814800143241882,-9.933540344238281
1.7294954101396623e+18,-0.01293704379349947,0.016721036285161972,-9.999289512634277
1.7294954101486625e+18,0.01328520942479372,0.027559133246541023,-9.971292495727539
1.7294954101576627e+18,0.021494440734386444,0.03792852908372879,-9.955589294433594
1.7294954101636628e+18,-0.05186380818486214,0.023892130702733994,-9.938652992248535
1.729495410175663e+18,-0.04058009758591652,0.00040342414285987616,-9.926989555358887
1.7294954101816632e+18,-0.07574298232793808,0.006052619777619839,-9.922513008117676
1.7294954101906634e+18,0.03509751707315445,0.024944212287664413,-9.909266471862793
1.7294954101996636e+18,-0.02363527938723564,-0.08051925152540207,-9.923351287841797
1.7294954102086638e+18,-0.00044676195830106735,-0.03972592577338219,-9.937488555908203
1.729495410217664e+18,-0.017674889415502548,0.056097764521837234,-9.920312881469727
1.7294954102266642e+18,-0.009141801856458187,0.07554448395967484,-9.937049865722656
1.7294954102356644e+18,0.01678330823779106,0.003281032433733344,-9.95189380645752
1.7294954102416645e+18,0.02455143630504608,-0.011260289698839188,-9.922079086303711
1.7294954102506647e+18,-0.018655672669410706,-0.015654362738132477,-9.93911361694336
1.729495410259665e+18,0.006543144583702087,-0.08978863805532455,-9.917095184326172
1.729495410268665e+18,-0.05220336094498634,0.04501242935657501,-9.97313117980957
1.7294954102776653e+18,0.01992299221456051,0.024112164974212646,-9.905759811401367
1.7294954102866655e+18,-0.03551860898733139,-0.04761654511094093,-9.949491500854492
1.7294954102956657e+18,0.015727080404758453,-0.022267606109380722,-9.919320106506348
1.7294954103016658e+18,-0.05806171894073486,-0.00020028572180308402,-9.88179874420166
1.729495410310666e+18,-0.05537014082074165,-0.015223756432533264,-9.95865249633789
1.7294954103196662e+18,0.06378422677516937,0.050397902727127075,-9.864835739135742
1.7294954103286664e+18,-0.07213522493839264,-0.03540344163775444,-9.81373405456543
1.7294954103376666e+18,0.039098337292671204,0.05380041524767876,-9.879764556884766
1.7294954103466668e+18,-0.06494651734828949,0.008094456978142262,-9.943914413452148
1.729495410355667e+18,-0.052356161177158356,-0.10418883711099625,-9.811372756958008
1.7294954103646671e+18,0.012445579282939434,-0.09608623385429382,-9.816751480102539
1.7294954103736673e+18,0.0003039436414837837,-0.0244754608720541,-9.875814437866211
1.7294954103826675e+18,0.045181501656770706,0.05565262585878372,-9.83272647857666
1.7294954103916677e+18,0.03283931314945221,-0.059428248554468155,-9.854931831359863
1.729495410400668e+18,-0.010201171040534973,0.058014001697301865,-9.875364303588867
1.729495410409668e+18,-0.0222152192145586,-0.06180432438850403,-9.863302230834961
1.7294954104186683e+18,0.055624112486839294,-0.03903445601463318,-9.84761905670166
1.7294954104276685e+18,0.014018943533301353,0.02360359951853752,-9.875088691711426
1.7294954104366687e+18,-0.035910625010728836,0.10239294171333313,-9.815864562988281
1.7294954104456689e+18,0.022929077968001366,0.07931940257549286,-9.83059310913086
1.729495410454669e+18,0.008629824966192245,-0.03037014976143837,-9.847420692443848
1.7294954104636692e+18,-0.07480401545763016,0.0782267227768898,-9.816116333007812
1.7294954104696694e+18,0.00926618929952383,-0.09055046737194061,-9.760977745056152
1.7294954104786696e+18,-0.02643091045320034,-0.026666291058063507,-9.782422065734863
1.7294954104876698e+18,0.03355655074119568,-0.04634181410074234,-9.780838012695312
1.72949541049667e+18,-0.044636622071266174,-0.0017928972374647856,-9.855093955993652
1.72949541050267e+18,-0.06278029829263687,-0.044187746942043304,-9.853017807006836
1.7294954105116703e+18,-0.05477800965309143,0.04354218393564224,-9.79850959777832
1.7294954105206705e+18,-0.035281211137771606,-0.0715361163020134,-9.77259349822998
1.7294954105296707e+18,0.002304274821653962,0.021689189597964287,-9.83071517944336
1.7294954105386708e+18,0.07977937161922455,-0.033981021493673325,-9.801509857177734
1.729495410547671e+18,0.0495556965470314,-0.04581296816468239,-9.879766464233398
1.7294954105566712e+18,0.057127758860588074,0.02258550561964512,-9.819993019104004
1.7294954105626714e+18,0.027718113735318184,-0.05112569406628609,-9.7808256149292
1.7294954105716716e+18,0.05054879188537598,-0.011571137234568596,-9.723777770996094
1.7294954105806717e+18,-5.334644811227918e-05,-0.04088912904262543,-9.767215728759766
1.729495410589672e+18,0.008307530544698238,0.023287957534193993,-9.836795806884766
1.7294954105986721e+18,0.01739947870373726,-0.040553003549575806,-9.769089698791504
1.7294954106076723e+18,0.018940912559628487,0.003538563847541809,-9.761695861816406
1.7294954106166725e+18,-0.02104821801185608,-0.061421528458595276,-9.768486022949219
1.7294954106256727e+18,0.009826526045799255,0.05752355605363846,-9.82213020324707
1.729495410634673e+18,0.011148972436785698,0.01185852475464344,-9.773310661315918
1.729495410643673e+18,0.019376756623387337,-0.03889751434326172,-9.841297149658203
1.7294954106496732e+18,-0.044812094420194626,0.09289323538541794,-9.77988052368164
1.7294954106586734e+18,0.02427087351679802,0.014767775312066078,-9.760971069335938
1.7294954106676736e+18,-0.08500940352678299,-0.0800618827342987,-9.716033935546875
1.7294954106766738e+18,0.03996938839554787,0.028430020436644554,-9.754079818725586
1.729495410685674e+18,-0.06126092001795769,-0.04917673021554947,-9.749690055847168
1.7294954106946742e+18,-0.0464065782725811,0.07921663671731949,-9.72381591796875
1.7294954107036744e+18,-0.0567447692155838,-0.08406352996826172,-9.76246452331543
1.7294954107126746e+18,-0.021456772461533546,0.007739706430584192,-9.752110481262207
1.7294954107186747e+18,0.08885382860898972,-0.013042676262557507,-9.800252914428711
1.729495410727675e+18,-0.008294078521430492,-0.04107113182544708,-9.807024955749512
1.7294954107396751e+18,-0.0048444196581840515,0.010491358116269112,-9.723004341125488
1.7294954107456753e+18,-0.029180249199271202,0.04917221516370773,-9.68895435333252
1.7294954107546755e+18,-0.027803152799606323,0.05056937411427498,-9.74362564086914
1.7294954107636756e+18,0.02232404798269272,-0.00505403708666563,-9.719866752624512
1.7294954107726758e+18,-0.007902038283646107,0.05228762328624725,-9.819730758666992
1.729495410781676e+18,0.022907551378011703,-0.00019534544844646007,-9.721089363098145
1.7294954107906762e+18,0.009652356617152691,-0.046774718910455704,-9.741124153137207
1.7294954107996764e+18,-0.08627364784479141,-0.060114093124866486,-9.730573654174805
1.7294954108056765e+18,0.04437649995088577,-0.05355503782629967,-9.778348922729492
1.7294954108146767e+18,-0.032066479325294495,0.024030743166804314,-9.70154094696045
1.729495410823677e+18,0.026287836953997612,-0.035605885088443756,-9.729256629943848
1.729495410832677e+18,0.03572496771812439,0.053456734865903854,-9.762198448181152
1.7294954108416773e+18,0.04778358340263367,-0.032444149255752563,-9.808485984802246
1.7294954108506775e+18,0.013057190924882889,0.06811382621526718,-9.79130744934082
1.7294954108596777e+18,-0.00305246957577765,0.05570204555988312,-9.882430076599121
1.7294954108656778e+18,0.14422933757305145,-0.03218653053045273,-9.774297714233398
1.729495410874678e+18,0.01145120058208704,0.028797615319490433,-9.812112808227539
1.7294954108866783e+18,-0.06158598139882088,-0.01871153526008129,-9.878931999206543
1.7294954108956785e+18,-0.013276813551783562,-0.07222896069288254,-9.83048152923584
1.7294954109046787e+18,-0.04303103685379028,-0.02901492454111576,-9.836567878723145
1.7294954109136788e+18,0.034784235060214996,-0.09102298319339752,-9.777145385742188
1.729495410922679e+18,-0.06437332928180695,-0.016145585104823112,-9.821649551391602
1.7294954109286792e+18,0.01699664629995823,-0.030070116743445396,-9.82027816772461
1.7294954109376794e+18,0.012272443622350693,0.03316605091094971,-9.798406600952148
1.7294954109466796e+18,0.006975313648581505,-0.000963707163464278,-9.817913055419922
1.7294954109556797e+18,0.019255636259913445,0.01938761956989765,-9.798158645629883
1.72949541096468e+18,0.07182789593935013,-0.07095960527658463,-9.807764053344727
1.72949541097368e+18,-0.054367147386074066,0.050868406891822815,-9.78104305267334
1.7294954109826803e+18,-0.029708148911595345,-0.010378057137131691,-9.787403106689453
1.7294954109916805e+18,0.02293672226369381,0.035790760070085526,-9.776605606079102
1.7294954110006807e+18,0.034238044172525406,-0.05389900878071785,-9.774690628051758
1.729495411009681e+18,-0.04610937833786011,-0.021135706454515457,-9.75692367553711
1.729495411018681e+18,-0.0211537666618824,0.1096913293004036,-9.748785018920898
1.7294954110246812e+18,0.03193825110793114,-0.09582214057445526,-9.754274368286133
1.7294954110366815e+18,-0.05728723481297493,-0.0399414524435997,-9.823773384094238
1.7294954110426816e+18,0.03197266906499863,0.05224360525608063,-9.818514823913574
1.7294954110516818e+18,-0.07246585190296173,-0.011504419147968292,-9.781038284301758
1.729495411063682e+18,0.03364720940589905,-0.055096305906772614,-9.784931182861328
1.7294954110726822e+18,0.041760724037885666,-0.00869681779295206,-9.845843315124512
1.7294954110816824e+18,-0.03466558828949928,-0.02635914832353592,-9.739217758178711
1.7294954110906826e+18,-0.026499077677726746,-0.03623225912451744,-9.714613914489746
1.7294954110996828e+18,-0.05707050487399101,-0.09167482703924179,-9.80212116241455
1.729495411105683e+18,-0.001460394007153809,0.03604616969823837,-9.741596221923828
1.7294954111146831e+18,0.000558695406652987,-0.03747071698307991,-9.766664505004883
1.7294954111236833e+18,0.013834265060722828,0.06599517911672592,-9.702662467956543
1.7294954111326835e+18,0.007944177836179733,-0.04340294003486633,-9.698915481567383
1.7294954111416837e+18,-0.044551849365234375,0.08742675930261612,-9.787306785583496
1.729495411150684e+18,0.032712168991565704,0.08221897482872009,-9.753477096557617
1.729495411156684e+18,0.015983985736966133,-0.015445857308804989,-9.72085189819336
1.7294954111656842e+18,-0.08280599117279053,-0.03292087838053703,-9.68525218963623
1.7294954111746844e+18,0.06434284150600433,0.021646106615662575,-9.696523666381836
1.7294954111836846e+18,-0.003219899255782366,-0.03244771063327789,-9.7779541015625
1.7294954111926848e+18,0.08267241716384888,0.004992068745195866,-9.755207061767578
1.729495411198685e+18,-0.04541036859154701,-0.030926605686545372,-9.720266342163086
1.729495411207685e+18,0.031052011996507645,0.05560353025794029,-9.72028636932373
1.7294954112166853e+18,-0.031401414424180984,-0.06611412018537521,-9.689963340759277
1.7294954112256855e+18,0.023474449291825294,0.010114956647157669,-9.737279891967773
1.7294954112346857e+18,-0.03605220466852188,0.002172010950744152,-9.700655937194824
1.729495411243686e+18,-0.020089589059352875,-0.016040679067373276,-9.763486862182617
1.729495411252686e+18,0.00317229051142931,0.07619645446538925,-9.69583797454834
1.7294954112586862e+18,0.07065842300653458,-0.03481674939393997,-9.785025596618652
1.7294954112676864e+18,0.03370911628007889,0.005240412428975105,-9.69184684753418
1.7294954112766866e+18,0.0025427336804568768,-0.020209068432450294,-9.694355010986328
1.7294954112826867e+18,-0.024510055780410767,-0.011548280715942383,-9.75563907623291
1.729495411291687e+18,-0.010281569324433804,0.027162034064531326,-9.674291610717773
1.729495411300687e+18,0.04760671779513359,0.021385008469223976,-9.791986465454102
1.7294954113096873e+18,-0.06032494455575943,-0.05365920066833496,-9.75515079498291
1.7294954113186875e+18,0.024579809978604317,-0.005168739706277847,-9.693793296813965
1.7294954113246876e+18,-0.046792805194854736,-0.012753930874168873,-9.679119110107422
1.7294954113336878e+18,0.05599375069141388,0.04608617722988129,-9.804045677185059
1.729495411342688e+18,0.052992403507232666,0.02369113825261593,-9.760136604309082
1.7294954113516882e+18,0.02151324786245823,-0.0055977050215005875,-9.718613624572754
1.7294954113576883e+18,0.0533938929438591,-0.016860073432326317,-9.79139232635498
1.7294954113666885e+18,0.010719452053308487,0.0496491976082325,-9.782685279846191
1.7294954113756887e+18,-0.0774490162730217,0.08168104290962219,-9.731476783752441
1.729495411384689e+18,0.0438765212893486,0.03764091059565544,-9.734798431396484
1.729495411393689e+18,-0.011487282812595367,0.03445577993988991,-9.728256225585938
1.7294954114026893e+18,-0.06976686418056488,0.09577204287052155,-9.718883514404297
1.7294954114086894e+18,0.022251266986131668,0.039722442626953125,-9.681848526000977
1.7294954114176896e+18,-0.027488525956869125,-0.009604041464626789,-9.732358932495117
1.7294954114266898e+18,-0.006359363440424204,-0.029007580131292343,-9.736129760742188
1.72949541143569e+18,-0.04427949711680412,-0.05362514406442642,-9.724165916442871
1.7294954114446902e+18,0.11972446739673615,0.08486314117908478,-9.75064468383789
1.7294954114506903e+18,0.04007892310619354,0.07696832716464996,-9.674199104309082
1.7294954114596905e+18,-0.01816936396062374,-0.02671552635729313,-9.707115173339844
1.7294954114686907e+18,0.04890613630414009,0.08101160824298859,-9.771623611450195
1.729495411477691e+18,0.0644540935754776,-0.02220555581152439,-9.728387832641602
1.729495411483691e+18,0.03760099783539772,-0.01532396487891674,-9.647411346435547
1.7294954114926912e+18,-0.05181288719177246,0.005702936090528965,-9.732978820800781
1.7294954115016914e+18,0.0780661478638649,-0.027203379198908806,-9.765666961669922
1.7294954115106916e+18,0.10760871320962906,0.0491095632314682,-9.735158920288086
1.7294954115166917e+18,0.012033736333251,0.027053754776716232,-9.74711799621582
1.729495411525692e+18,0.029367245733737946,-0.022209102287888527,-9.77857494354248
1.729495411534692e+18,0.05453818291425705,0.026471925899386406,-9.641314506530762
1.7294954115436923e+18,0.031685810536146164,-0.06294416636228561,-9.716275215148926
1.7294954115496924e+18,-0.004025481641292572,-0.0216530729085207,-9.78998851776123
1.7294954115586926e+18,0.043677594512701035,-0.04094020277261734,-9.606043815612793
1.7294954115676928e+18,-0.05062783882021904,-0.014329584315419197,-9.78302001953125
1.729495411576693e+18,0.012930979020893574,-0.03019721433520317,-9.724908828735352
1.729495411582693e+18,0.010337526910007,0.014958133921027184,-9.79096794128418
1.7294954115916933e+18,-0.041083868592977524,0.002241188660264015,-9.724860191345215
1.7294954116006935e+18,0.018712550401687622,-0.00449892645701766,-9.742816925048828
1.7294954116096937e+18,0.023328015580773354,0.01047586090862751,-9.761590003967285
1.729495411618694e+18,-0.0030082655139267445,0.01297465804964304,-9.711477279663086
1.729495411624694e+18,-0.019764795899391174,-0.0007255388773046434,-9.733794212341309
1.7294954116336942e+18,0.04070707783102989,-0.06762854754924774,-9.815068244934082
1.7294954116426944e+18,-0.025485249236226082,-0.03175250068306923,-9.762065887451172
1.7294954116516946e+18,0.02123689092695713,-0.02536342479288578,-9.668514251708984
1.7294954116606948e+18,0.040311552584171295,-0.10673463344573975,-9.785138130187988
1.729495411669695e+18,-0.04590591415762901,0.02246592380106449,-9.748385429382324
1.729495411675695e+18,-0.020585084334015846,-0.049113526940345764,-9.73709774017334
1.7294954116846953e+18,0.06032480299472809,0.019493309780955315,-9.783222198486328
1.7294954116936955e+18,-0.009504299610853195,0.021261021494865417,-9.723992347717285
1.7294954117026957e+18,-0.026963552460074425,-0.08486345410346985,-9.773061752319336
1.7294954117086958e+18,-0.009396107867360115,0.003587246872484684,-9.811823844909668
1.729495411717696e+18,-0.026138365268707275,0.023527881130576134,-9.701038360595703
1.7294954117296963e+18,0.03647748380899429,0.028104133903980255,-9.729410171508789
1.7294954117386964e+18,-0.015666935592889786,0.03867479786276817,-9.810606956481934
1.7294954117446966e+18,-0.05553089827299118,0.03622617945075035,-9.766841888427734
1.7294954117536968e+18,0.020846610888838768,0.06214699149131775,-9.740155220031738
1.729495411762697e+18,0.019585782662034035,0.01133664883673191,-9.749354362487793
1.7294954117716972e+18,0.02021672949194908,0.1123727485537529,-9.754501342773438
1.7294954117806973e+18,-0.005590182729065418,-0.04327670484781265,-9.657320022583008
1.7294954117866975e+18,0.054102543741464615,-0.020790480077266693,-9.76039981842041
1.7294954117956977e+18,0.0503716915845871,-0.029501348733901978,-9.691330909729004
1.7294954118046979e+18,0.0066984714940190315,0.040469691157341,-9.686546325683594
1.729495411813698e+18,0.0035225136671215296,-0.008902408182621002,-9.78659725189209
1.7294954118226982e+18,0.014088569208979607,-0.033138956874608994,-9.778836250305176
1.7294954118316984e+18,-0.046972792595624924,-0.09086774289608002,-9.733562469482422
1.7294954118406986e+18,0.01058485358953476,-0.012781250290572643,-9.78669548034668
1.7294954118496988e+18,-0.06714313477277756,-0.047470822930336,-9.753085136413574
1.729495411858699e+18,0.0020519744139164686,-0.006895662751048803,-9.840080261230469
1.7294954118676992e+18,0.06181846559047699,-0.07089284807443619,-9.750582695007324
1.7294954118766994e+18,0.06537356972694397,-0.0009681792580522597,-9.7608003616333
1.7294954118856996e+18,0.019443407654762268,0.008697197772562504,-9.726409912109375
1.7294954118946998e+18,0.055192749947309494,-0.01700596511363983,-9.787317276000977
1.7294954119037e+18,0.10504599660634995,-0.043399468064308167,-9.709210395812988
1.7294954119157002e+18,0.03719894960522652,-0.003256147261708975,-9.710171699523926
1.7294954119217004e+18,-0.0034430152736604214,-0.038711559027433395,-9.788396835327148
1.7294954119307005e+18,0.026370305567979813,-0.027681561186909676,-9.691549301147461
1.7294954119397007e+18,0.03993239998817444,0.026457253843545914,-9.885217666625977
1.729495411948701e+18,-0.01721285842359066,0.016979292035102844,-9.782114028930664
1.729495411957701e+18,0.06944867223501205,-0.06931684166193008,-9.657157897949219
1.7294954119667013e+18,-0.07572930306196213,0.015144999139010906,-9.788521766662598
1.7294954119757015e+18,-0.01929665543138981,-0.021841326728463173,-9.685468673706055
1.7294954119847017e+18,-0.005823059938848019,-0.024266941472887993,-9.694307327270508
1.729495411993702e+18,0.005646828096359968,-0.0036886632442474365,-9.66175365447998
1.729495412002702e+18,-0.012396822683513165,-0.017623940482735634,-9.730037689208984
1.7294954120117023e+18,-0.037341829389333725,0.022328253835439682,-9.686141967773438
1.7294954120207025e+18,-0.061283428221940994,-0.02386430837213993,-9.75361442565918
1.7294954120297027e+18,0.06756362318992615,-0.02028469555079937,-9.803653717041016
1.7294954120387028e+18,-0.011064860969781876,-0.001396010397002101,-9.794478416442871
1.729495412047703e+18,-0.03845614567399025,0.04068106785416603,-9.756622314453125
1.7294954120567032e+18,0.01822471246123314,-0.02721140906214714,-9.626090049743652
1.7294954120627034e+18,-0.04633608087897301,-0.015599401667714119,-9.659773826599121
1.7294954120717036e+18,-0.023107372224330902,-0.10990259051322937,-9.74629020690918
1.7294954120807037e+18,-0.03209838643670082,0.009694704785943031,-9.72385025024414
1.729495412089704e+18,0.007888462394475937,-0.0006059975130483508,-9.6974458694458
1.7294954120987041e+18,0.018667038530111313,0.0018032967345789075,-9.780965805053711
1.7294954121047043e+18,-0.052806731313467026,-0.05979248508810997,-9.750587463378906
1.7294954121137044e+18,0.003055278677493334,0.02461104840040207,-9.74466323852539
1.7294954121227046e+18,0.11162196099758148,0.06332847476005554,-9.644970893859863
1.7294954121317048e+18,-0.06518829613924026,0.03889445587992668,-9.774630546569824
1.729495412140705e+18,-0.016138162463903427,0.04806230217218399,-9.773998260498047
1.7294954121497052e+18,-0.0014886707067489624,-0.0374467559158802,-9.770613670349121
1.7294954121557053e+18,-0.09669836610555649,0.0038955234922468662,-9.676620483398438
1.7294954121647055e+18,-0.036397192627191544,-0.0258683729916811,-9.780691146850586
1.7294954121737057e+18,-0.019140692427754402,-0.023548342287540436,-9.718756675720215
1.729495412182706e+18,0.027257144451141357,0.00828126072883606,-9.70352554321289
1.729495412191706e+18,-0.01606053300201893,-0.058320190757513046,-9.7793550491333
1.7294954121977062e+18,0.01168034691363573,0.037314001470804214,-9.760980606079102
1.7294954122067064e+18,0.022841013967990875,-0.02473459206521511,-9.817886352539062
1.7294954122157066e+18,-0.0035801888443529606,0.05061998963356018,-9.762815475463867
1.7294954122247068e+18,-0.019270984455943108,-0.03706807643175125,-9.771673202514648
1.729495412233707e+18,-0.02897959202528,0.04451725259423256,-9.747282028198242
1.7294954122427072e+18,0.012125329114496708,0.03486457094550133,-9.827751159667969
1.7294954122517074e+18,0.06529052555561066,-0.14910604059696198,-9.73817253112793
1.7294954122607076e+18,-0.0031144041568040848,0.004690650850534439,-9.732537269592285
1.7294954122697078e+18,-0.031278111040592194,-0.0349937342107296,-9.8167142868042
1.729495412278708e+18,0.039724573493003845,0.02641141414642334,-9.78679370880127
1.7294954122877082e+18,-0.021235233172774315,0.010670598596334457,-9.691008567810059
1.7294954122937083e+18,-0.023740384727716446,-0.0571378730237484,-9.718273162841797
1.7294954123027085e+18,-0.03089774027466774,-0.02141914702951908,-9.787520408630371
1.7294954123117087e+18,-0.01613759621977806,0.017486494034528732,-9.720427513122559
1.7294954123207089e+18,0.01417902298271656,0.08188137412071228,-9.748985290527344
1.729495412329709e+18,-0.0022936868481338024,-0.001852381625212729,-9.781002044677734
1.7294954123387092e+18,-0.01857021450996399,0.07836038619279861,-9.758133888244629
1.7294954123477094e+18,0.0057459063827991486,0.062270671129226685,-9.737677574157715
1.7294954123567096e+18,-0.03969191014766693,0.021748974919319153,-9.80977725982666
1.7294954123657098e+18,0.041225358843803406,-0.0045667956583201885,-9.808932304382324
1.72949541237471e+18,-0.029762716963887215,-0.01967330276966095,-9.8620023727417
1.7294954123837102e+18,-0.007502906955778599,-0.01723620668053627,-9.724433898925781
1.7294954123927104e+18,-0.0004249360354151577,-0.046838466078042984,-9.796977043151855
1.7294954124017106e+18,-0.014287827536463737,-0.05220815911889076,-9.792222023010254
1.7294954124107108e+18,-0.010283214971423149,0.049803316593170166,-9.706881523132324
1.729495412419711e+18,-0.023320814594626427,-0.025256285443902016,-9.882007598876953
1.7294954124287112e+18,0.09637077152729034,-0.003633067011833191,-9.707021713256836
1.7294954124377114e+18,0.0013205849099904299,-0.07574313133955002,-9.730669975280762
1.7294954124467116e+18,-0.00961447972804308,0.02723502926528454,-9.7613525390625
1.7294954124557117e+18,-0.06699670106172562,-0.008014973253011703,-9.737122535705566
1.729495412461712e+18,0.03188570588827133,-0.03525947034358978,-9.755663871765137
1.729495412470712e+18,0.033383388072252274,0.010993498377501965,-9.750791549682617
1.7294954124827123e+18,0.05171743035316467,-0.0599694661796093,-9.729957580566406
1.7294954124887124e+18,0.021883804351091385,0.011316345073282719,-9.766594886779785
1.7294954124977126e+18,0.02289566583931446,-0.0762469694018364,-9.777832984924316
1.7294954125067128e+18,0.012528077699244022,0.00025134687894023955,-9.718114852905273
1.729495412515713e+18,-0.01817442663013935,0.014665014110505581,-9.75202465057373
1.7294954125247132e+18,-0.004911878611892462,0.046869635581970215,-9.701019287109375
1.7294954125337134e+18,-0.023579835891723633,-0.014139963313937187,-9.756637573242188
1.7294954125427136e+18,0.038439713418483734,-0.059808939695358276,-9.743109703063965
1.7294954125517138e+18,-0.03316092491149902,0.07856933772563934,-9.853669166564941
1.729495412557714e+18,-0.0919547900557518,-0.053063370287418365,-9.718846321105957
1.729495412566714e+18,-0.038028981536626816,0.018368735909461975,-9.787094116210938
1.7294954125757143e+18,0.07167688757181168,-0.013761185109615326,-9.748977661132812
1.7294954125847145e+18,-0.012196393683552742,0.02550092712044716,-9.79055118560791
1.7294954125937147e+18,-0.03274678811430931,-0.06081050634384155,-9.741177558898926
1.729495412602715e+18,-0.03236759081482887,-0.04330766201019287,-9.77170181274414
1.729495412611715e+18,0.009323002770543098,0.033697087317705154,-9.87819766998291
1.7294954126177152e+18,-0.006535816937685013,0.017708897590637207,-9.75847339630127
1.7294954126267154e+18,0.016922499984502792,0.024812476709485054,-9.820934295654297
1.7294954126357156e+18,-0.010272945277392864,-0.061486922204494476,-9.763450622558594
1.7294954126447158e+18,0.08823838084936142,0.022799581289291382,-9.845072746276855
1.729495412650716e+18,0.04433490335941315,0.06220722571015358,-9.833789825439453
1.729495412659716e+18,0.03214481100440025,-0.025559570640325546,-9.770896911621094
1.7294954126687163e+18,0.012850595638155937,-0.010304246097803116,-9.78649616241455
1.7294954126777165e+18,0.04684165120124817,0.03809872269630432,-9.806445121765137
1.7294954126837166e+18,-0.015606158412992954,0.021721480414271355,-9.810564041137695
1.7294954126927168e+18,0.024668464437127113,-0.008816201239824295,-9.777074813842773
1.729495412701717e+18,-0.002289700089022517,0.06686484068632126,-9.826269149780273
1.7294954127107172e+18,0.04611794278025627,-0.0043912166729569435,-9.778860092163086
1.7294954127197174e+18,0.04797985032200813,0.052573785185813904,-9.817234992980957
1.7294954127287176e+18,0.003923547454178333,0.02478608302772045,-9.780945777893066
1.7294954127377178e+18,0.059172119945287704,-0.026302607730031013,-9.702727317810059
1.729495412743718e+18,-0.029434390366077423,0.019731083884835243,-9.736032485961914
1.729495412752718e+18,0.029351960867643356,-5.5427750339731574e-05,-9.75472354888916
1.7294954127617183e+18,-0.012962773442268372,0.003428810741752386,-9.883313179016113
1.7294954127707185e+18,-0.02938772551715374,0.07058954983949661,-9.769105911254883
1.7294954127797187e+18,0.01149116363376379,0.01435217447578907,-9.865925788879395
1.7294954127887188e+18,-0.055374372750520706,0.007262345869094133,-9.738666534423828
1.729495412794719e+18,-0.042291589081287384,0.09630301594734192,-9.777144432067871
1.7294954128037192e+18,-0.05513838678598404,0.03360887989401817,-9.710260391235352
1.7294954128127194e+18,0.0029447712004184723,-0.05995342880487442,-9.751337051391602
1.7294954128217196e+18,-0.028567276895046234,-0.015681669116020203,-9.797009468078613
1.7294954128307197e+18,-0.024136453866958618,0.03675653412938118,-9.761927604675293
1.72949541283972e+18,-0.034430839121341705,0.020739026367664337,-9.799742698669434
1.7294954128487201e+18,0.014637368731200695,0.018467647954821587,-9.696584701538086
1.7294954128577203e+18,-0.00122743914835155,-0.028034433722496033,-9.750384330749512
1.7294954128667205e+18,-0.02569521777331829,0.030644061043858528,-9.758787155151367
1.7294954128757207e+18,-0.07361062616109848,0.02905488759279251,-9.749950408935547
1.729495412884721e+18,-0.04371771216392517,-0.03381519392132759,-9.850417137145996
1.729495412893721e+18,0.03894416615366936,0.010730496607720852,-9.820015907287598
1.7294954129027213e+18,-0.01865493319928646,-0.0393289178609848,-9.909457206726074
1.7294954129117215e+18,0.028017206117510796,-0.021149830892682076,-9.807999610900879
1.7294954129207217e+18,-0.02721523866057396,0.0320902056992054,-9.799372673034668
1.7294954129297219e+18,-0.019880179315805435,0.008532852865755558,-9.775105476379395
1.729495412938722e+18,0.02967154048383236,-0.021877815946936607,-9.778177261352539
1.7294954129477222e+18,0.048636678606271744,-0.02313685417175293,-9.726876258850098
1.7294954129537224e+18,0.005292557645589113,0.030586233362555504,-9.782231330871582
1.7294954129627226e+18,0.05938130244612694,-0.041407182812690735,-9.802897453308105
1.7294954129717228e+18,-0.009495729580521584,0.02449565753340721,-9.71584701538086
1.729495412980723e+18,-0.03539701923727989,0.027338823303580284,-9.86823844909668
1.7294954129897231e+18,-0.06330058723688126,-0.04280993714928627,-9.790907859802246
1.7294954129987233e+18,-0.01635521650314331,-0.025951070711016655,-9.795122146606445
1.7294954130077235e+18,0.03426933288574219,-0.03228702396154404,-9.792953491210938
1.7294954130167237e+18,0.07361342757940292,-0.035486478358507156,-9.844918251037598
1.7294954130227238e+18,-0.03309256210923195,0.04205117002129555,-9.740511894226074
1.729495413034724e+18,-0.011318743228912354,0.020600631833076477,-9.746465682983398
1.7294954130407242e+18,0.05650254711508751,0.0032993266358971596,-9.779562950134277
1.7294954130497244e+18,-0.008056900463998318,0.057734955102205276,-9.829949378967285
1.7294954130587246e+18,-0.03861937299370766,0.014996467158198357,-9.780904769897461
1.7294954130677248e+18,-0.005271856673061848,-0.03202877566218376,-9.788450241088867
1.729495413076725e+18,-0.07173756510019302,-0.0335003025829792,-9.782646179199219
1.7294954130857252e+18,-0.0030086440965533257,0.08336178958415985,-9.856644630432129
1.7294954130947254e+18,-0.08967526257038116,-0.03142901882529259,-9.903940200805664
1.7294954131037256e+18,0.044011931866407394,-0.004301175009459257,-9.706329345703125
1.7294954131127258e+18,0.0074692461639642715,0.0044317832216620445,-9.795747756958008
1.729495413121726e+18,0.015145810320973396,-0.0779387503862381,-9.77575397491455
1.7294954131307261e+18,-0.006508948747068644,0.06688926368951797,-9.847816467285156
1.7294954131397263e+18,-0.019488990306854248,0.08102035522460938,-9.731886863708496
1.7294954131487265e+18,-0.00966789573431015,-0.04479633644223213,-9.74461555480957
1.7294954131577267e+18,0.08069407194852829,0.04964318871498108,-9.768379211425781
1.729495413166727e+18,0.09859414398670197,0.039979349821805954,-9.789468765258789
1.729495413175727e+18,-0.024966290220618248,0.013643939048051834,-9.737082481384277
1.7294954131847273e+18,-0.019002344459295273,-0.02579244039952755,-9.781668663024902
1.7294954131937275e+18,0.01559244655072689,-0.010099547915160656,-9.70699691772461
1.7294954132027277e+18,-0.007244066335260868,-0.06815434992313385,-9.735279083251953
1.729495413211728e+18,-0.01425309106707573,0.043098848313093185,-9.78805160522461
1.729495413220728e+18,-0.037781618535518646,-0.0030152075923979282,-9.837393760681152
1.7294954132297283e+18,0.08495675027370453,0.005491259042173624,-9.807690620422363
1.7294954132357284e+18,-0.010478229261934757,0.028839847072958946,-9.77125072479248
1.7294954132447286e+18,0.058974578976631165,0.09731088578701019,-9.849660873413086
1.7294954132537288e+18,-0.004391436465084553,-0.06191938742995262,-9.736774444580078
1.729495413259729e+18,0.057284899055957794,-0.028223704546689987,-9.74935531616211
1.729495413268729e+18,0.017990717664361,-0.03500237315893173,-9.746624946594238
1.7294954132777293e+18,-0.03637031093239784,-0.044781677424907684,-9.74631118774414
1.7294954132867295e+18,0.040638722479343414,0.042628224939107895,-9.89454174041748
1.7294954132957297e+18,0.03380068391561508,0.04580622911453247,-9.676128387451172
1.7294954133047299e+18,0.029964055866003036,0.01769552379846573,-9.813404083251953
1.72949541331073e+18,-0.042764805257320404,0.022907262668013573,-9.823315620422363
1.7294954133197302e+18,0.0002833448234014213,0.011524953879415989,-9.818680763244629
1.7294954133287304e+18,-0.021331405267119408,0.046120528131723404,-9.810174942016602
1.7294954133377306e+18,-0.08131682872772217,-0.022555086761713028,-9.7975435256958
1.7294954133467308e+18,-0.040893737226724625,0.07727696001529694,-9.802483558654785
1.729495413352731e+18,0.06717725098133087,0.0031639235094189644,-9.785825729370117
1.729495413361731e+18,-0.05331279709935188,-0.05528763309121132,-9.785904884338379
1.7294954133707313e+18,0.05437418073415756,0.06022222340106964,-9.786432266235352
1.7294954133797315e+18,0.009971149265766144,-0.04387030005455017,-9.827223777770996
1.7294954133887316e+18,-0.002119277138262987,0.020751986652612686,-9.790266990661621
1.7294954133977318e+18,-0.021584942936897278,0.04114486277103424,-9.790009498596191
1.729495413403732e+18,-0.06630341708660126,-0.06182514503598213,-9.754470825195312
1.7294954134127322e+18,0.006101025268435478,-0.00962593499571085,-9.860313415527344
1.7294954134217324e+18,0.01848289556801319,0.11737988889217377,-9.848307609558105
1.7294954134307325e+18,-0.0873550996184349,0.02379167266190052,-9.692841529846191
1.7294954134397327e+18,-0.0625847652554512,0.024982746690511703,-9.829967498779297
1.729495413448733e+18,0.10169605910778046,-0.039613690227270126,-9.852391242980957
1.729495413457733e+18,0.055592652410268784,0.04440519958734512,-9.74209213256836
1.7294954134667333e+18,0.09259261190891266,-0.020456552505493164,-9.82351016998291
1.7294954134757335e+18,-0.045551467686891556,0.024470021948218346,-9.909080505371094
1.7294954134847337e+18,-0.021750863641500473,-0.004332149401307106,-9.782959938049316
1.729495413493734e+18,-0.03811029717326164,-0.016145585104823112,-9.814020156860352
1.729495413502734e+18,0.011536605656147003,-0.0008438034565187991,-9.794907569885254
1.7294954135117343e+18,-0.041373077780008316,-0.03297707065939903,-9.863064765930176
1.7294954135207345e+18,0.055009257048368454,0.01912239007651806,-9.825759887695312
1.7294954135267346e+18,0.007848059758543968,0.010054194368422031,-9.853239059448242
1.7294954135357348e+18,0.06770163774490356,-0.010485246777534485,-9.806694030761719
1.729495413544735e+18,-0.03920552879571915,-0.0315176285803318,-9.818636894226074
1.7294954135537352e+18,0.012272275052964687,0.0014187745982781053,-9.759231567382812
1.7294954135627354e+18,0.002049085684120655,-0.025979485362768173,-9.769043922424316
1.7294954135717356e+18,-4.962481034453958e-05,-0.0816875770688057,-9.761802673339844
1.7294954135807357e+18,0.019940579310059547,-0.010057194158434868,-9.7711181640625
1.729495413589736e+18,0.022312050685286522,-0.024348482489585876,-9.826814651489258
1.7294954135987361e+18,0.007320651318877935,-0.018817299976944923,-9.8528413772583
1.7294954136077363e+18,-0.03376848250627518,-0.08202642947435379,-9.843802452087402
1.7294954136167365e+18,0.0030700392089784145,-0.13295386731624603,-9.818544387817383
1.7294954136257367e+18,-0.05026431381702423,-0.0644773468375206,-9.805323600769043
1.729495413634737e+18,0.10841475427150726,-0.04477980360388756,-9.768436431884766
1.729495413643737e+18,-0.003488316899165511,-0.03372551128268242,-9.848288536071777
1.7294954136497372e+18,0.022236980497837067,0.0728289857506752,-9.875297546386719
1.7294954136617375e+18,-0.03810449317097664,0.036365870386362076,-9.894338607788086
1.7294954136707377e+18,-0.002133385743945837,0.08451829850673676,-9.813006401062012
1.7294954136767378e+18,-0.018298065289855003,-0.04428805783390999,-9.726948738098145
1.729495413685738e+18,-0.012306373566389084,-0.04435300827026367,-9.842291831970215
1.7294954136947382e+18,-0.06553623080253601,0.05388583987951279,-9.781386375427246
1.7294954137037384e+18,0.0517379529774189,-0.007091842591762543,-9.780777931213379
1.7294954137127386e+18,0.10066613554954529,0.07012779265642166,-9.87426471710205
1.7294954137217388e+18,-0.007378972135484219,0.02618933469057083,-9.812000274658203
1.729495413727739e+18,-0.04859449714422226,-0.007943728007376194,-9.886509895324707
1.729495413736739e+18,-0.0020230840891599655,-0.02169683203101158,-9.768832206726074
1.7294954137457393e+18,-0.06612662971019745,0.030406754463911057,-9.792856216430664
1.7294954137547395e+18,-0.020249463617801666,-0.05265164375305176,-9.78315544128418
1.7294954137637396e+18,0.01307510957121849,0.016468966379761696,-9.796346664428711
1.7294954137727398e+18,-0.046649180352687836,0.037191107869148254,-9.853766441345215
1.72949541378174e+18,0.012193923816084862,-0.005463704466819763,-9.85201358795166
1.7294954137907402e+18,-0.0013174429768696427,-0.001974257407709956,-9.794650077819824
1.7294954137997404e+18,0.07207964360713959,0.057353828102350235,-9.766197204589844
1.7294954138087406e+18,0.059285108000040054,0.005006934516131878,-9.804964065551758
1.7294954138177408e+18,0.04995766654610634,-0.014227405190467834,-9.790401458740234
1.729495413826741e+18,0.02764423005282879,0.08745608478784561,-9.781222343444824
1.7294954138357412e+18,-0.012251640670001507,0.03791830688714981,-9.834181785583496
1.7294954138447414e+18,0.042122215032577515,0.008766657672822475,-9.771350860595703
1.7294954138537416e+18,-0.0013496286701411009,-0.017575107514858246,-9.813756942749023
1.7294954138627418e+18,-0.08078792691230774,-0.0026888386346399784,-9.82052230834961
1.729495413871742e+18,0.03394324705004692,0.020843951031565666,-9.821415901184082
1.7294954138807421e+18,0.06733395159244537,0.0036342486273497343,-9.744844436645508
1.7294954138897423e+18,0.00017869450675789267,0.020918799564242363,-9.843597412109375
1.7294954138987425e+18,-0.019221190363168716,-0.09372389316558838,-9.780564308166504
1.7294954139077427e+18,0.0032102251425385475,0.04711851850152016,-9.761611938476562
1.729495413916743e+18,-0.012337821535766125,-0.02663719467818737,-9.786490440368652
1.729495413925743e+18,-0.057666562497615814,-0.10290434956550598,-8.83560562133789
1.7294954139347433e+18,0.011193097569048405,-0.02435659058392048,-7.721743106842041
1.7294954139437435e+18,-0.029803505167365074,0.04542723670601845,-7.579470634460449
1.7294954139497436e+18,0.003373321145772934,0.03821786120533943,-7.6947407722473145
1.7294954139587438e+18,-0.055580854415893555,0.028203874826431274,-8.479142189025879
1.729495413967744e+18,-0.04931969195604324,-0.0011782795190811157,-8.468721389770508
1.7294954139767442e+18,-0.05651358887553215,0.06719174236059189,-8.389992713928223
1.7294954139827443e+18,-0.07405504584312439,0.11447958648204803,-8.410001754760742
1.7294954139917445e+18,-0.07171183824539185,0.12263388931751251,-8.484601020812988
1.7294954140007447e+18,0.03681037575006485,0.0761258453130722,-8.542572021484375
1.729495414009745e+18,0.029935896396636963,0.04061933606863022,-8.242424964904785
1.729495414018745e+18,-0.1059122309088707,0.052783917635679245,-8.124063491821289
1.7294954140247452e+18,-0.04538087174296379,0.0900154858827591,-7.971148490905762
1.7294954140337454e+18,-0.15164802968502045,0.024475399404764175,-7.956815719604492
1.7294954140427456e+18,-0.03295629099011421,0.1052883118391037,-7.929040908813477
1.7294954140517458e+18,0.025755293667316437,0.10905569791793823,-7.90247917175293
1.729495414060746e+18,-0.08666451275348663,0.1298075020313263,-8.045940399169922
1.7294954140697462e+18,-0.05078141391277313,0.06111714243888855,-7.635818958282471
1.7294954140787464e+18,0.04623415321111679,0.025535935536026955,-7.579740047454834
1.7294954140877466e+18,-0.06326016783714294,0.07124382257461548,-7.668223857879639
1.7294954140967468e+18,-0.004131639376282692,0.11171723902225494,-7.6728434562683105
1.729495414102747e+18,-0.014546138234436512,-0.002950552850961685,-7.747121810913086
1.729495414111747e+18,-0.05583080276846886,0.055629514157772064,-7.631102561950684
1.7294954141207473e+18,-0.031086985021829605,0.058036934584379196,-7.632620334625244
1.7294954141297475e+18,0.013169202953577042,0.020115645602345467,-7.677091598510742
1.7294954141387476e+18,0.03340189531445503,0.03824811428785324,-7.429126262664795
1.7294954141447478e+18,0.062238872051239014,-0.017693236470222473,-7.438591003417969
1.729495414153748e+18,-0.01795351877808571,0.08809782564640045,-7.407329082489014
1.7294954141627482e+18,-0.015547387301921844,-0.02458450198173523,-7.518474578857422
1.7294954141717484e+18,0.040957726538181305,0.05639375001192093,-7.683437347412109
1.7294954141777485e+18,-0.0036471905186772346,-0.06411903351545334,-7.464714527130127
1.7294954141867487e+18,-0.07390480488538742,-0.004170902073383331,-7.507099151611328
1.7294954141957489e+18,-0.04046683385968208,-0.046950627118349075,-7.318131446838379
1.729495414204749e+18,-0.11190741509199142,0.0029288693331182003,-7.299943447113037
1.7294954142107492e+18,0.06263714283704758,0.03497222810983658,-7.407049655914307
1.7294954142197494e+18,-0.020291343331336975,0.0460473857820034,-7.468296527862549
1.7294954142287496e+18,-0.03152017667889595,0.004721926059573889,-7.496901988983154
1.7294954142377498e+18,0.00694377301260829,0.03753407672047615,-7.525249004364014
1.72949541424675e+18,0.04384045675396919,-0.012220589444041252,-7.462464809417725
1.7294954142557501e+18,0.002332862466573715,0.017226113006472588,-7.655822277069092
1.7294954142647503e+18,-0.02639053948223591,-0.004378977231681347,-7.665313720703125
1.7294954142737505e+18,0.017029479146003723,-0.04398529604077339,-7.613326549530029
1.7294954142827507e+18,-0.017964687198400497,-0.03833778202533722,-7.657981872558594
1.729495414291751e+18,0.030697662383317947,-0.07078515738248825,-7.5958147048950195
1.7294954143037512e+18,-0.06146101653575897,0.006859986111521721,-7.566697120666504
1.7294954143127514e+18,0.06027468666434288,0.03087029606103897,-7.621549129486084
1.7294954143247516e+18,-0.05359042063355446,0.05371211841702461,-7.686074256896973
1.7294954143337518e+18,-0.012459289282560349,-0.08002928644418716,-7.722619533538818
1.729495414345752e+18,-0.0535355806350708,0.00752856582403183,-7.744741439819336
1.7294954143547523e+18,-0.0621146559715271,0.03928741067647934,-7.838569641113281
1.7294954143637524e+18,-0.035472508519887924,0.02774060145020485,-7.785853862762451
1.7294954143727526e+18,-0.008590510115027428,0.03454893082380295,-7.844995975494385
1.7294954143817528e+18,0.130100280046463,0.05439642071723938,-7.910063743591309
1.729495414390753e+18,-0.05087939649820328,0.01911521889269352,-8.02615737915039
1.7294954143997532e+18,0.06479667127132416,-0.06652480363845825,-7.99196195602417
1.7294954144087534e+18,2.6046764105558395e-05,-0.04047387093305588,-7.8879714012146
1.7294954144177536e+18,0.0023455889895558357,0.022642362862825394,-7.932936668395996
1.7294954144267538e+18,-0.028288550674915314,-0.08055134862661362,-7.877267837524414
1.729495414435754e+18,-0.03393915668129921,0.040306709706783295,-7.960962295532227
1.7294954144447542e+18,0.011302357539534569,-0.04929308965802193,-8.039472579956055
1.7294954144537544e+18,-0.04917016997933388,-0.019377820193767548,-8.13657283782959
1.7294954144627546e+18,-0.002856409177184105,-0.012815665453672409,-8.103610038757324
1.7294954144717548e+18,-0.021165475249290466,-0.0016920319758355618,-8.135852813720703
1.729495414480755e+18,-0.07287762314081192,0.01759215071797371,-8.144942283630371
1.7294954144897551e+18,-0.05631238594651222,-0.02478664182126522,-8.212383270263672
1.7294954144987553e+18,-0.0029160412959754467,0.049973562359809875,-8.215588569641113
1.7294954145077555e+18,-0.08014189451932907,-0.044050365686416626,-8.321333885192871
1.7294954145167557e+18,0.08985871076583862,0.006343292072415352,-8.251852989196777
1.729495414528756e+18,0.04741822928190231,-0.007997974753379822,-8.363556861877441
1.7294954145377562e+18,-0.02503090910613537,0.040187571197748184,-8.307005882263184
1.7294954145467564e+18,-0.0311555415391922,-0.08521004021167755,-8.400419235229492
1.7294954145527565e+18,-0.03186263144016266,-0.13762153685092926,-8.401410102844238
1.7294954145617567e+18,-0.041778966784477234,0.017346734181046486,-8.445487976074219
1.7294954145707569e+18,-0.06434113532304764,0.0435231514275074,-8.462663650512695
1.729495414582757e+18,0.046877820044755936,8.002185495570302e-05,-8.554019927978516
1.7294954145917573e+18,0.008566080592572689,-0.023954929783940315,-8.483386993408203
1.7294954146007575e+18,0.0552741140127182,0.04239988327026367,-8.562383651733398
1.7294954146097577e+18,-0.02760208398103714,0.0032312108669430017,-8.49039363861084
1.729495414618758e+18,-0.007593485061079264,-0.02613767795264721,-8.55057144165039
1.729495414627758e+18,0.03274980187416077,0.06439808011054993,-8.616081237792969
1.7294954146367583e+18,0.0370122566819191,0.014847957529127598,-8.690400123596191
1.7294954146457585e+18,-0.006666454952210188,0.0015688310377299786,-8.647336959838867
1.7294954146547587e+18,-0.027902355417609215,-0.08683570474386215,-8.777756690979004
1.7294954146637588e+18,0.031477637588977814,0.013592734932899475,-8.692011833190918
1.729495414672759e+18,0.01304670050740242,-0.034548766911029816,-8.738819122314453
1.7294954146817592e+18,-0.0037784946616739035,0.02420266717672348,-8.799997329711914
1.7294954146907594e+18,0.030109208077192307,0.042553506791591644,-8.86242961883545
1.7294954146997596e+18,-0.05621473491191864,0.020092971622943878,-8.887439727783203
1.7294954147087598e+18,0.018644291907548904,0.07558687776327133,-8.90040111541748
1.72949541471476e+18,0.05688545107841492,-0.007166488096117973,-8.865739822387695
1.72949541472376e+18,-0.08718669414520264,0.08433355391025543,-8.916812896728516
1.7294954147327603e+18,-0.05884803831577301,0.06702804565429688,-9.000635147094727
1.7294954147417605e+18,-0.005804651416838169,0.04955771192908287,-9.00033950805664
1.7294954147507607e+18,-0.012104757130146027,-0.0631435215473175,-9.014615058898926
1.729495414759761e+18,-0.037725433707237244,-0.03249213472008705,-9.027310371398926
1.729495414768761e+18,-0.059980325400829315,-0.02876681461930275,-9.020984649658203
1.7294954147777613e+18,-0.0372319221496582,0.10543819516897202,-9.002689361572266
1.7294954147867615e+18,-0.08255372941493988,0.025484643876552582,-9.077227592468262
1.7294954147957617e+18,-0.011367094703018665,0.03633929789066315,-9.152347564697266
1.7294954148047619e+18,-0.023177729919552803,-0.05890386551618576,-9.100440979003906
1.729495414813762e+18,0.012081021443009377,-0.03482934832572937,-9.193835258483887
1.7294954148227622e+18,0.05307157337665558,0.00897279940545559,-9.214666366577148
1.7294954148317624e+18,0.029281195253133774,0.09088053554296494,-9.169570922851562
1.7294954148407626e+18,-0.0160667821764946,-0.048174478113651276,-9.167059898376465
1.7294954148497628e+18,0.013703163713216782,0.04675731807947159,-9.205228805541992
1.729495414858763e+18,-0.02409568428993225,0.024786394089460373,-9.314824104309082
1.7294954148677632e+18,-0.04743710160255432,0.049339473247528076,-9.414337158203125
1.7294954148767634e+18,-0.018031608313322067,-0.052686907351017,-9.378524780273438
1.7294954148857636e+18,-0.03948979824781418,0.07967400550842285,-9.334174156188965
1.7294954148947638e+18,-0.03543747216463089,0.11263889074325562,-9.39583969116211
1.729495414903764e+18,-0.08712119609117508,0.013703415170311928,-9.42025089263916
1.7294954149127642e+18,-0.015987355262041092,0.00227249413728714,-9.48991584777832
1.7294954149217644e+18,-0.107943594455719,0.07918509095907211,-9.511399269104004
1.7294954149307645e+18,-0.022447604686021805,-0.013846520334482193,-9.488868713378906
1.7294954149397647e+18,-0.012446403503417969,0.002694427967071533,-9.479591369628906
1.729495414948765e+18,0.06304597854614258,0.010176179930567741,-9.518064498901367
1.729495414957765e+18,-0.019980862736701965,0.0329788438975811,-9.547067642211914
1.7294954149667653e+18,-0.04365761578083038,-0.030643507838249207,-9.598369598388672
1.7294954149757655e+18,-0.02104833349585533,0.045153338462114334,-9.61062240600586
1.7294954149847657e+18,-0.03387560695409775,0.02247399091720581,-9.622271537780762
1.729495414993766e+18,0.0381409116089344,0.012997597455978394,-9.637537956237793
1.729495415002766e+18,-0.015598285011947155,-0.009753681719303131,-9.714923858642578
1.7294954150117663e+18,-0.0853421539068222,0.010966591536998749,-9.675237655639648
1.7294954150207665e+18,-0.01329915039241314,0.0727885290980339,-9.690666198730469
1.7294954150297667e+18,-0.10264576971530914,0.025480622425675392,-9.684891700744629
1.7294954150387668e+18,-0.026698267087340355,-0.016328848898410797,-9.716707229614258
1.729495415047767e+18,0.010688833892345428,0.10442811250686646,-9.724431991577148
1.7294954150567672e+18,-0.05638539046049118,0.0637115091085434,-9.729434967041016
1.7294954150657674e+18,-0.054639145731925964,0.077852264046669,-9.767813682556152
1.7294954150747676e+18,0.00315726175904274,0.052675120532512665,-9.84272575378418
1.7294954150837678e+18,-0.0163485836237669,0.015531890094280243,-9.808695793151855
1.729495415092768e+18,-0.07911785691976547,0.044093791395425797,-9.79432487487793
1.7294954150987681e+18,-0.08137131482362747,0.013789985328912735,-9.923977851867676
1.7294954151107684e+18,0.0458986759185791,0.038224026560783386,-9.853973388671875
1.7294954151167685e+18,-0.05337640643119812,0.08307220041751862,-9.926267623901367
1.7294954151257687e+18,0.005853131413459778,0.035451292991638184,-9.952101707458496
1.729495415134769e+18,-0.07965381443500519,-0.0038418881595134735,-10.002686500549316
1.729495415143769e+18,-0.09447550773620605,0.16426998376846313,-9.957233428955078
1.7294954151527693e+18,-0.019640538841485977,0.1072324812412262,-9.948441505432129
1.7294954151617695e+18,-0.09093359112739563,0.049147896468639374,-9.999505043029785
1.7294954151707697e+18,-0.0664399117231369,0.13041052222251892,-10.02018928527832
1.7294954151797699e+18,-0.07226558029651642,0.07648704946041107,-10.099899291992188
1.72949541518877e+18,-0.08631903678178787,0.048983968794345856,-9.996307373046875
1.7294954151977702e+18,-0.002649907022714615,0.04977795481681824,-10.132390975952148
1.7294954152067704e+18,0.04861605167388916,0.11244413256645203,-10.18111515045166
1.7294954152157706e+18,-0.07473966479301453,0.08538199961185455,-10.043461799621582
1.7294954152247708e+18,-0.07306627929210663,0.0839875265955925,-10.146281242370605
1.729495415233771e+18,-0.053170427680015564,0.05351729691028595,-10.203730583190918
1.7294954152427712e+18,-0.03945412486791611,0.04103563725948334,-10.19508171081543
1.7294954152517714e+18,0.0075447894632816315,0.06082683429121971,-10.204939842224121
1.7294954152607716e+18,-0.021077973768115044,0.10234928131103516,-10.217358589172363
1.7294954152697718e+18,-0.03624555096030235,0.0599917471408844,-10.17171859741211
1.729495415278772e+18,0.02930086851119995,0.0787815973162651,-10.27743911743164
1.7294954152877722e+18,-0.03073715604841709,0.02543068677186966,-10.250614166259766
1.7294954152967724e+18,-0.05451786890625954,0.09070602804422379,-10.236127853393555
1.7294954153057725e+18,-0.08532638102769852,0.08860071003437042,-10.290546417236328
1.7294954153147727e+18,-0.08158354461193085,0.07965151965618134,-10.29224681854248
1.729495415323773e+18,-0.04939715936779976,0.042660996317863464,-10.365944862365723
1.729495415332773e+18,-0.032001812011003494,0.06682399660348892,-10.387224197387695
1.7294954153417733e+18,-0.01904575154185295,0.10015079379081726,-10.44533634185791
1.7294954153537736e+18,-0.03529041260480881,0.09112796187400818,-10.345993995666504
1.7294954153627738e+18,-0.03488149866461754,0.07942294329404831,-10.424886703491211
1.729495415371774e+18,0.002703394740819931,0.09355505555868149,-10.460677146911621
1.7294954153837742e+18,0.014789875596761703,0.07246033102273941,-10.433755874633789
1.7294954153927744e+18,-0.04151623696088791,0.1575719714164734,-10.499979972839355
1.7294954153987745e+18,-0.01723330095410347,0.07681386172771454,-10.406201362609863
1.7294954154077747e+18,-0.03950657323002815,0.10871873050928116,-10.509004592895508
1.729495415416775e+18,-0.06050831824541092,0.09947964549064636,-10.559706687927246
1.729495415425775e+18,-0.037925995886325836,0.1069951206445694,-10.601749420166016
1.7294954154347753e+18,-0.07172981649637222,0.044681329280138016,-10.656968116760254
1.7294954154437755e+18,-0.09025266021490097,0.09510578215122223,-10.610285758972168
1.7294954154527757e+18,-0.020647158846259117,0.10367611050605774,-10.68028736114502
1.729495415461776e+18,-0.10644309967756271,0.11743848025798798,-10.624663352966309
1.729495415467776e+18,-0.00872492790222168,0.08222879469394684,-10.575645446777344
1.7294954154767762e+18,-0.05607252195477486,0.08947800099849701,-10.669751167297363
1.7294954154857764e+18,-0.03456052020192146,0.0599668063223362,-10.66164493560791
1.7294954154947766e+18,-0.08874936401844025,0.09854230284690857,-10.727062225341797
1.7294954155037768e+18,-0.037208013236522675,0.15039466321468353,-10.685771942138672
1.729495415512777e+18,-0.003596663475036621,0.17045700550079346,-10.75848388671875
1.7294954155217772e+18,-0.053497981280088425,0.13880111277103424,-10.801385879516602
1.7294954155307773e+18,-0.034874528646469116,0.09038128703832626,-10.702242851257324
1.7294954155397775e+18,-0.08395311236381531,0.12830248475074768,-10.738301277160645
1.7294954155487777e+18,-0.125687375664711,0.2008901685476303,-10.847823143005371
1.729495415557778e+18,-0.09775775671005249,0.09835515916347504,-10.677143096923828
1.729495415566778e+18,-0.07124227285385132,0.1558927446603775,-10.86025333404541
1.7294954155757783e+18,-0.08368644118309021,0.08369167149066925,-10.895366668701172
1.7294954155847785e+18,-0.0696604996919632,0.052580490708351135,-10.862581253051758
1.7294954155937787e+18,-0.01407475396990776,0.15957577526569366,-10.749129295349121
1.729495415602779e+18,-0.04971194267272949,0.17414766550064087,-10.866835594177246
1.729495415611779e+18,-0.044679757207632065,0.1063622534275055,-10.916546821594238
1.7294954156207793e+18,-0.003533966839313507,0.06888516247272491,-10.882355690002441
1.7294954156297795e+18,-0.021717527881264687,0.07507336139678955,-10.926511764526367
1.7294954156387796e+18,-0.06337234377861023,0.1407473087310791,-10.896943092346191
1.7294954156477798e+18,-0.03758998215198517,0.12932439148426056,-10.8679780960083
1.72949541565678e+18,0.009182274341583252,0.1933310180902481,-10.877094268798828
1.7294954156657802e+18,-0.06028367578983307,0.14916138350963593,-11.028621673583984
1.7294954156747804e+18,-0.014878656715154648,0.18458543717861176,-11.022196769714355
1.7294954156837806e+18,-0.08229576051235199,0.129468634724617,-11.027192115783691
1.7294954156927808e+18,-0.09189945459365845,0.11830390989780426,-10.966650009155273
1.729495415701781e+18,-0.025193169713020325,0.17692241072654724,-10.99096965789795
1.729495415707781e+18,-0.02110894024372101,0.14230653643608093,-10.905523300170898
1.7294954157167813e+18,-0.06305882334709167,0.16476519405841827,-11.014923095703125
1.7294954157257815e+18,-0.01864546164870262,0.11325759440660477,-11.044620513916016
1.7294954157377818e+18,-0.01972050964832306,0.11143925786018372,-11.10019302368164
