timestamp,accel_x,accel_y,accel_z
1.7294960603615334e+18,0.019483093172311783,0.020845497027039528,-9.845132827758789
1.7294960603705336e+18,0.05208640918135643,-0.014982514083385468,-9.794820785522461
1.7294960603765338e+18,0.04757135733962059,0.03247368708252907,-9.817633628845215
1.729496060385534e+18,0.05952903628349304,-0.11280704289674759,-9.771329879760742
1.729496060391534e+18,-0.09703361988067627,0.04451402649283409,-9.861452102661133
1.7294960604005343e+18,-0.0738503485918045,-0.002161189680919051,-9.80479907989502
1.7294960604065344e+18,-0.03122677095234394,-0.07031352072954178,-9.77120590209961
1.7294960604155346e+18,-0.009988238103687763,-0.00522649846971035,-9.873200416564941
1.7294960604215347e+18,-0.0012674523750320077,0.09251101315021515,-9.844796180725098
1.729496060430535e+18,-0.0014479896053671837,0.006060832645744085,-9.806071281433105
1.729496060439535e+18,-0.027105459943413734,0.020673608407378197,-9.767866134643555
1.7294960604485353e+18,-0.03285631537437439,0.013989278115332127,-9.806663513183594
1.7294960604545354e+18,0.06263138353824615,-0.026290984824299812,-9.833367347717285
1.7294960604665357e+18,-0.08459445089101791,-0.010759719647467136,-9.840408325195312
1.729496060478536e+18,-0.010240375995635986,-0.02597147971391678,-9.89631175994873
1.729496060484536e+18,-0.0020234647672623396,0.0034076678566634655,-9.822534561157227
1.7294960604935363e+18,0.024653028696775436,0.07220948487520218,-9.733067512512207
1.7294960605025364e+18,-0.03569542244076729,-0.06474421173334122,-9.857416152954102
1.7294960605085366e+18,-0.02932306006550789,0.029257575049996376,-9.81423568725586
1.7294960605175368e+18,0.011405053548514843,-0.01764683611690998,-9.8082857131958
1.729496060523537e+18,-0.05671104043722153,-0.027439860627055168,-9.916145324707031
1.729496060532537e+18,0.06633061170578003,0.01783420518040657,-9.869895935058594
1.7294960605415373e+18,0.0068442742340266705,0.048167046159505844,-9.763833999633789
1.7294960605475374e+18,0.0014463757397606969,-0.023449242115020752,-9.704113006591797
1.7294960605565376e+18,0.016632115468382835,-0.029437704011797905,-9.80270004272461
1.7294960605625377e+18,0.05230186879634857,0.056523874402046204,-9.83544921875
1.729496060571538e+18,-0.03756837919354439,-0.033470336347818375,-9.834659576416016
1.729496060580538e+18,0.008759524673223495,0.004827175755053759,-9.694226264953613
1.7294960605865382e+18,-0.004622634034603834,-0.00201891059987247,-9.835577964782715
1.7294960605955384e+18,-0.027294395491480827,0.018083840608596802,-9.736513137817383
1.7294960606015386e+18,-0.0038756546564400196,0.014340635389089584,-9.794689178466797
1.7294960606105388e+18,0.014231305569410324,-0.04356585070490837,-9.7843656539917
1.729496060619539e+18,-0.01902664639055729,-0.05306401476264,-9.898284912109375
1.729496060625539e+18,0.036405786871910095,0.059230510145425797,-9.830892562866211
1.7294960606345393e+18,0.04254738986492157,0.0015543336048722267,-9.770954132080078
1.7294960606405394e+18,0.04539695009589195,0.026462547481060028,-9.790443420410156
1.7294960606495396e+18,-0.07818864285945892,-0.06642192602157593,-9.873918533325195
1.7294960606555397e+18,0.05167553946375847,0.02171078324317932,-9.658344268798828
1.72949606066454e+18,-0.04967231675982475,0.0010800164891406894,-9.79925537109375
1.72949606067354e+18,0.052791327238082886,-0.048546891659498215,-9.765992164611816
1.7294960606795402e+18,-0.07058495283126831,-0.0061814566142857075,-9.804136276245117
1.7294960606885404e+18,0.052503615617752075,-0.058169376105070114,-9.77781867980957
1.7294960606945405e+18,0.026296066120266914,-0.017314763739705086,-9.81995964050293
1.7294960607035407e+18,-0.021837087348103523,0.017086314037442207,-9.830567359924316
1.729496060712541e+18,-0.08017740398645401,-0.01894497498869896,-9.796161651611328
1.729496060718541e+18,0.15756627917289734,0.0007641391712240875,-9.81004810333252
1.7294960607275412e+18,0.0014095506630837917,-0.0746077224612236,-9.861512184143066
1.7294960607335414e+18,0.016703175380825996,0.023565413430333138,-9.856778144836426
1.7294960607425416e+18,0.05569080263376236,0.08689386397600174,-9.796881675720215
1.7294960607485417e+18,-0.009703056886792183,-0.03332165256142616,-9.829520225524902
1.729496060757542e+18,0.023503439500927925,0.04775753244757652,-9.853023529052734
1.729496060766542e+18,0.021429259330034256,0.018640033900737762,-9.81063461303711
1.7294960607725422e+18,-0.023894356563687325,0.023972049355506897,-9.788695335388184
1.7294960607815424e+18,-0.03607144579291344,-0.015709450468420982,-9.779993057250977
1.7294960607875425e+18,-0.02561328373849392,-0.04150940105319023,-9.814399719238281
1.7294960607965427e+18,0.005589719396084547,-0.010850192978978157,-9.797505378723145
1.7294960608025428e+18,-0.00028102731448598206,-0.06589065492153168,-9.852638244628906
1.729496060811543e+18,0.039702579379081726,-0.006064808461815119,-9.818573951721191
1.7294960608205432e+18,0.027933141216635704,-0.04862109571695328,-9.837623596191406
1.7294960608265434e+18,0.03351251035928726,0.003205452347174287,-9.816943168640137
1.7294960608355436e+18,-0.013864121399819851,0.02276054583489895,-9.814725875854492
1.7294960608415437e+18,-0.024257643148303032,0.07585056871175766,-9.804882049560547
1.7294960608505439e+18,0.021244559437036514,0.011100316420197487,-9.869024276733398
1.729496060856544e+18,0.06706877797842026,0.06262365728616714,-9.8363676071167
1.7294960608655442e+18,-0.022790327668190002,-0.046415913850069046,-9.8037691116333
1.7294960608715443e+18,-0.005134197883307934,0.03870868682861328,-9.760051727294922
1.7294960608805445e+18,-0.06500211358070374,-0.05447559058666229,-9.791266441345215
1.7294960608895447e+18,0.005806318484246731,0.0199198629707098,-9.822595596313477
1.7294960608955448e+18,-0.02039041556417942,0.0142354192212224,-9.792129516601562
1.729496060904545e+18,-0.051401153206825256,-0.047689612954854965,-9.870598793029785
1.7294960609135452e+18,0.02515721693634987,-0.007405408192425966,-9.855499267578125
1.7294960609195453e+18,-0.007838234305381775,-0.042691025882959366,-9.785058975219727
1.7294960609285455e+18,0.05847959592938423,-0.05447803810238838,-9.837501525878906
1.7294960609375457e+18,-0.001130542834289372,0.028812063857913017,-9.833600044250488
1.7294960609435459e+18,0.045777782797813416,-0.02570064179599285,-9.90114688873291
1.729496060952546e+18,0.03337107226252556,0.1333240568637848,-9.727593421936035
1.7294960609615462e+18,-0.030271634459495544,-0.014679922722280025,-9.785520553588867
1.7294960609675464e+18,-0.050759922713041306,-0.024916069582104683,-9.78567123413086
1.7294960609765466e+18,0.014596370048820972,0.010895375162363052,-9.837644577026367
1.7294960609855468e+18,0.023010404780507088,-0.04093422740697861,-9.77869701385498
1.729496060994547e+18,0.08136650919914246,0.005733048543334007,-9.80711555480957
1.729496061000547e+18,-0.011154375970363617,0.03508354723453522,-9.73552417755127
1.7294960610095473e+18,0.015376660041511059,0.07777463644742966,-9.74693775177002
1.7294960610155474e+18,-0.07953371852636337,-0.019062384963035583,-9.84577465057373
1.7294960610245476e+18,-0.021653326228260994,-0.057650692760944366,-9.766382217407227
1.7294960610335478e+18,0.02709197998046875,-0.026468418538570404,-9.833534240722656
1.729496061039548e+18,0.03629568964242935,0.060158148407936096,-9.753657341003418
1.729496061048548e+18,0.02331250160932541,-0.04569145292043686,-9.694706916809082
1.7294960610545482e+18,0.08238058537244797,-0.03707994148135185,-9.80453872680664
1.7294960610635484e+18,-0.05509597435593605,0.06623169034719467,-9.821772575378418
1.7294960610695485e+18,-0.0035317903384566307,-0.018552236258983612,-9.770885467529297
1.7294960610785487e+18,-0.10674236714839935,-0.0023519552778452635,-9.786467552185059
1.7294960610845489e+18,0.020846784114837646,0.09131298214197159,-9.75839900970459
1.729496061093549e+18,0.014384021982550621,0.012041389010846615,-9.781859397888184
1.7294960610995492e+18,0.026893259957432747,0.026095466688275337,-9.803644180297852
1.7294960611085494e+18,-0.016548341140151024,0.017201479524374008,-9.83060359954834
1.7294960611175496e+18,-0.062342751771211624,-0.08896995335817337,-9.775764465332031
1.7294960611265498e+18,-0.02577798441052437,0.06620217859745026,-9.76619815826416
1.72949606113255e+18,-0.01701056957244873,-0.04437907412648201,-9.808777809143066
1.72949606114155e+18,-0.05823066830635071,-0.042571984231472015,-9.793041229248047
1.7294960611505503e+18,-0.031142013147473335,-0.026739971712231636,-9.774482727050781
1.7294960611595505e+18,-0.041634708642959595,-0.008406483568251133,-9.817499160766602
1.7294960611655506e+18,-0.07943271100521088,0.0021889579948037863,-9.824227333068848
1.7294960611745508e+18,0.06169259175658226,0.049405038356781006,-9.804722785949707
1.729496061183551e+18,0.025077590718865395,0.032856885343790054,-9.840754508972168
1.7294960611925512e+18,-0.015497366897761822,0.03045346960425377,-9.85392951965332
1.7294960612015514e+18,0.0017386809922754765,-0.026580866426229477,-9.778009414672852
1.7294960612075515e+18,0.0076737492345273495,0.0291060209274292,-9.77087688446045
1.7294960612165517e+18,0.03057929128408432,0.016528531908988953,-9.828535079956055
1.729496061225552e+18,0.022655535489320755,-0.02676795795559883,-9.784822463989258
1.729496061231552e+18,-0.030706770718097687,-0.007797339931130409,-9.792342185974121
1.7294960612405522e+18,0.037334054708480835,0.04695699363946915,-9.719844818115234
1.7294960612465523e+18,0.09047368168830872,-0.05055456981062889,-9.8733549118042
1.7294960612555525e+18,0.01022770069539547,0.018072493374347687,-9.787259101867676
1.7294960612645527e+18,0.03081698901951313,-0.07078149169683456,-9.833595275878906
1.729496061273553e+18,0.029702311381697655,0.009150562807917595,-9.796135902404785
1.729496061279553e+18,-0.028840914368629456,0.013175247237086296,-9.814207077026367
1.7294960612885532e+18,-0.03681011125445366,0.00032908699358813465,-9.77592658996582
1.7294960612945533e+18,-0.005789655726402998,0.019368521869182587,-9.762842178344727
1.7294960613035535e+18,-0.034583915024995804,0.023086808621883392,-9.815844535827637
1.7294960613125537e+18,-0.022456932812929153,0.028990255668759346,-9.868180274963379
1.729496061321554e+18,0.031681183725595474,-0.007564591243863106,-9.71656322479248
1.729496061327554e+18,0.057493820786476135,-7.389687380054966e-05,-9.889284133911133
1.7294960613365542e+18,0.091102235019207,-0.0005160992732271552,-9.750123023986816
1.7294960613455544e+18,-0.0241039227694273,0.001032328582368791,-9.745044708251953
1.7294960613515546e+18,0.03465493395924568,0.0018597852904349566,-9.856411933898926
1.7294960613605548e+18,0.00663576927036047,-0.0007081616786308587,-9.768815994262695
1.729496061369555e+18,-0.033163923770189285,-0.09296569973230362,-9.829455375671387
1.7294960613785551e+18,-0.014994563534855843,0.027174467220902443,-9.801459312438965
1.7294960613845553e+18,0.059240397065877914,-0.040531620383262634,-9.886993408203125
1.7294960613935555e+18,-0.02938717044889927,-0.031920161098241806,-9.836040496826172
1.7294960614025556e+18,0.03831446170806885,-0.04569093510508537,-9.807870864868164
1.7294960614085558e+18,0.03237631544470787,-0.010740009136497974,-9.740193367004395
1.729496061417556e+18,-0.0006288214935921133,-0.0007895060116425157,-9.794569969177246
1.7294960614265562e+18,-0.05338175967335701,0.022854693233966827,-9.80781078338623
1.7294960614325563e+18,0.016936738044023514,0.005392482969909906,-9.843449592590332
1.7294960614415565e+18,-0.01609666459262371,-0.010114453732967377,-9.889557838439941
1.7294960614475566e+18,0.011628078296780586,-0.06780903786420822,-9.78318977355957
1.7294960614565568e+18,0.005238973535597324,0.03425063192844391,-9.848176956176758
1.729496061465557e+18,0.12048310041427612,0.03133976086974144,-9.7604398727417
1.729496061471557e+18,-0.021680669859051704,-0.01013853494077921,-9.899456977844238
1.7294960614805573e+18,0.03388110548257828,-0.030670955777168274,-9.724401473999023
1.7294960614895575e+18,-0.06735240668058395,0.04771925136446953,-9.821088790893555
1.7294960614955576e+18,-0.060002148151397705,-0.05551399663090706,-9.902108192443848
1.7294960615045578e+18,0.002614291850477457,-0.07429252564907074,-9.856379508972168
1.729496061510558e+18,0.03831833600997925,-0.03531450778245926,-9.778374671936035
1.7294960615195581e+18,0.06694541871547699,0.001302930642850697,-9.809173583984375
1.7294960615255583e+18,0.04952515289187431,-0.003334974404424429,-9.75159740447998
1.7294960615345585e+18,0.055930208414793015,-0.01931084133684635,-9.775270462036133
1.7294960615435587e+18,-0.031302738934755325,0.02091917395591736,-9.819050788879395
1.7294960615495588e+18,0.06622987240552902,0.008441106416285038,-9.792250633239746
1.729496061558559e+18,0.05323902890086174,-0.07492485642433167,-9.774788856506348
1.729496061564559e+18,0.01146432850509882,0.002176252193748951,-9.833091735839844
1.7294960615735593e+18,-0.011013718321919441,-0.04035688564181328,-9.831094741821289
1.7294960615825595e+18,0.033176060765981674,-0.025062348693609238,-9.795324325561523
1.7294960615885596e+18,0.046864770352840424,0.049575623124837875,-9.797396659851074
1.7294960615975598e+18,0.08151131868362427,0.07793784886598587,-9.828498840332031
1.72949606160656e+18,0.05037006363272667,0.00768672488629818,-9.811408996582031
1.7294960616125601e+18,0.005526338703930378,0.04135432466864586,-9.864103317260742
1.7294960616215603e+18,0.05445920303463936,-0.03823889419436455,-9.814297676086426
1.7294960616275604e+18,0.08756955713033676,0.06799083948135376,-9.839057922363281
1.7294960616365606e+18,0.021317852661013603,-0.0019068839028477669,-9.877043724060059
1.7294960616425608e+18,0.042551469057798386,0.07625112682580948,-9.777358055114746
1.729496061651561e+18,-0.029252519831061363,0.005811951123178005,-9.79990291595459
1.7294960616605612e+18,-0.0010369170922785997,-0.060594022274017334,-9.877924919128418
1.7294960616665613e+18,0.08954518288373947,-0.0005421151872724295,-9.92640495300293
1.7294960616755615e+18,-0.05658292770385742,0.04564093425869942,-9.784673690795898
1.7294960616845617e+18,-0.05423177778720856,-0.032913822680711746,-9.85592269897461
1.7294960616905618e+18,0.08450227230787277,0.008486579172313213,-9.763999938964844
1.729496061699562e+18,0.08643395453691483,-0.03045450523495674,-9.792126655578613
1.729496061705562e+18,0.028560055419802666,0.015286878682672977,-9.745478630065918
1.7294960617145623e+18,-0.011882861144840717,0.04287172481417656,-9.840058326721191
1.7294960617235625e+18,0.013108364306390285,-0.012427382171154022,-9.799671173095703
1.7294960617325627e+18,0.01819462701678276,0.015869785100221634,-9.793779373168945
1.7294960617385628e+18,-0.008063513785600662,0.05738133564591408,-9.784635543823242
1.729496061747563e+18,-0.04197108373045921,0.0423969142138958,-9.803060531616211
1.7294960617535631e+18,0.038569461554288864,0.04869164898991585,-9.865537643432617
1.7294960617625633e+18,-0.04141087457537651,0.01821477897465229,-9.809761047363281
1.7294960617715635e+18,-0.017639892175793648,-0.03107382357120514,-9.781536102294922
1.7294960617805637e+18,-0.01845044270157814,-0.07936644554138184,-9.809015274047852
1.7294960617865638e+18,0.017520982772111893,-0.05849190056324005,-9.904726028442383
1.729496061795564e+18,-0.031496819108724594,-0.0063553848303854465,-9.862386703491211
1.7294960618045642e+18,-0.011507886461913586,-0.002787170931696892,-9.807845115661621
1.7294960618105644e+18,0.044323839247226715,-0.069746233522892,-9.826703071594238
1.7294960618195645e+18,0.01886705495417118,0.01772245392203331,-9.766258239746094
1.7294960618255647e+18,-0.03512180596590042,-0.029576443135738373,-9.804584503173828
1.7294960618345649e+18,-0.007422653958201408,0.04077249765396118,-9.830846786499023
1.729496061843565e+18,-0.042387694120407104,-0.0847262516617775,-9.797479629516602
1.7294960618495652e+18,0.005685420706868172,0.001569046056829393,-9.805188179016113
1.7294960618585654e+18,0.031500332057476044,-0.03804049640893936,-9.864047050476074
1.7294960618675656e+18,-0.03145264461636543,0.042245980352163315,-9.882070541381836
1.7294960618765658e+18,-0.07179076969623566,0.01960141398012638,-9.823004722595215
1.729496061882566e+18,-0.00023640660219825804,0.019270041957497597,-9.83250617980957
1.729496061891566e+18,0.03356442600488663,-0.059282902628183365,-9.818950653076172
1.7294960619005663e+18,0.0340116024017334,0.018087122589349747,-9.838981628417969
1.7294960619065664e+18,-0.026206018403172493,-0.010112479329109192,-9.771078109741211
1.7294960619155666e+18,-0.030583206564188004,-0.025752825662493706,-9.907852172851562
1.7294960619215667e+18,0.06620679795742035,0.006544837262481451,-9.760929107666016
1.729496061930567e+18,0.0012048722710460424,0.030772214755415916,-9.78756332397461
1.729496061939567e+18,-0.05250828340649605,-0.10919877886772156,-9.817609786987305
1.7294960619485673e+18,-0.018452053889632225,0.027386819943785667,-9.79417896270752
1.7294960619545674e+18,0.013398678973317146,-0.015397232957184315,-9.801166534423828
1.7294960619635676e+18,-0.02842288464307785,-0.0381334163248539,-9.744545936584473
1.7294960619725678e+18,-0.02511284314095974,-0.016865046694874763,-9.835604667663574
1.729496061978568e+18,0.01749170385301113,0.048670027405023575,-9.881193161010742
1.729496061987568e+18,0.07477574795484543,-0.0020494635682553053,-9.731982231140137
1.7294960619935683e+18,-0.016291415318846703,-0.0321490652859211,-9.930572509765625
1.7294960620025684e+18,-0.014167760498821735,0.025958901271224022,-9.799665451049805
1.7294960620115686e+18,-0.045463647693395615,0.010324088856577873,-9.798491477966309
1.7294960620205688e+18,0.03582451492547989,0.00460447371006012,-9.761613845825195
1.729496062026569e+18,0.0018806151347234845,-0.050854939967393875,-9.80912971496582
1.7294960620355692e+18,0.05273156985640526,-0.031493037939071655,-9.824997901916504
1.7294960620445693e+18,0.05647573992609978,-0.07203947752714157,-9.796835899353027
1.7294960620535695e+18,0.06315773725509644,0.007653013337403536,-9.861759185791016
1.7294960620595697e+18,0.05802657827734947,-0.04756679758429527,-9.828303337097168
1.7294960620685699e+18,-0.024455830454826355,0.026488667353987694,-9.819799423217773
1.72949606207457e+18,-0.043010927736759186,-0.04832219332456589,-9.792201042175293
1.7294960620835702e+18,0.03217703476548195,-0.022482890635728836,-9.817490577697754
1.7294960620895703e+18,-0.0219750814139843,0.018978305160999298,-9.731545448303223
1.7294960620985705e+18,0.1265961080789566,0.03672168403863907,-9.828214645385742
1.7294960621045706e+18,0.04219311103224754,-0.02066739834845066,-9.87014389038086
1.7294960621135708e+18,-0.04108063131570816,0.01813037507236004,-9.744461059570312
1.729496062122571e+18,0.03920638561248779,0.023094451054930687,-9.83499526977539
1.7294960621315712e+18,0.04243305325508118,0.03584937006235123,-9.858882904052734
1.7294960621375713e+18,-0.03614925220608711,0.01331440731883049,-9.738314628601074
1.7294960621465715e+18,-0.017996009439229965,0.05801565572619438,-9.77759838104248
1.7294960621525716e+18,-0.0008778639021329582,0.008258313871920109,-9.77925968170166
1.7294960621615718e+18,-0.0026529307942837477,-0.015119925141334534,-9.799509048461914
1.729496062167572e+18,-0.020003667101264,0.07858593016862869,-9.72042179107666
1.7294960621765722e+18,-0.0061852592043578625,3.861062214127742e-05,-9.804487228393555
1.7294960621855724e+18,-0.008262591436505318,-0.0432039350271225,-9.876272201538086
1.7294960621915725e+18,-0.005464859772473574,0.09419822692871094,-9.758477210998535
1.7294960622005727e+18,0.026951510459184647,0.08007391542196274,-9.849678993225098
1.7294960622095729e+18,-0.052705004811286926,-0.005668113008141518,-9.787959098815918
1.729496062215573e+18,0.036467425525188446,0.010017942637205124,-9.790679931640625
1.7294960622245732e+18,0.008873877115547657,0.00855033565312624,-9.78642463684082
1.7294960622335734e+18,-0.056529924273490906,-0.07044129073619843,-9.803666114807129
1.7294960622395735e+18,-0.05036401376128197,0.034211721271276474,-9.717510223388672
1.7294960622485737e+18,-0.009759118780493736,-0.013856151141226292,-9.857685089111328
1.7294960622545738e+18,0.013307411223649979,0.006522040348500013,-9.740286827087402
1.729496062263574e+18,0.019909512251615524,0.06635254621505737,-9.823786735534668
1.7294960622725742e+18,-0.10292981564998627,-0.03727518767118454,-9.771705627441406
1.7294960622785743e+18,0.005479827057570219,0.012185870669782162,-9.752077102661133
1.7294960622875745e+18,-0.0003807918110396713,0.021726008504629135,-9.769498825073242
1.7294960622965747e+18,0.04577789083123207,-0.014070695266127586,-9.8693265914917
1.7294960623025748e+18,-0.04732175171375275,0.08874277770519257,-9.892326354980469
1.729496062311575e+18,0.018876196816563606,-0.010174880735576153,-9.863863945007324
1.7294960623175752e+18,-0.009160642512142658,0.005246521905064583,-9.967561721801758
1.7294960623265754e+18,0.010030250996351242,0.00028549577109515667,-9.96029281616211
1.7294960623355756e+18,0.06550507247447968,-0.08618789911270142,-9.957698822021484
1.7294960623415757e+18,0.02738220803439617,-0.02172621712088585,-9.918426513671875
1.7294960623505759e+18,0.029492640867829323,-0.02352983132004738,-9.909872055053711
1.729496062356576e+18,0.007837032899260521,-0.05973196029663086,-10.042587280273438
1.7294960623715763e+18,0.0049954187124967575,0.055813588201999664,-10.046028137207031
1.7294960623805765e+18,0.016491321846842766,-0.049573034048080444,-9.947239875793457
1.7294960623895767e+18,-0.04840925335884094,-0.010468479245901108,-10.00853443145752
1.7294960623955768e+18,0.045684877783060074,0.06522027403116226,-10.10037899017334
1.729496062404577e+18,-0.0354389026761055,-0.013957198709249496,-10.046517372131348
1.7294960624135772e+18,-0.04047464579343796,-0.06879586726427078,-10.06859302520752
1.7294960624195773e+18,-0.02391016110777855,-0.017526859417557716,-10.054880142211914
1.7294960624285775e+18,-0.02463798224925995,-0.07872495800256729,-10.244855880737305
1.7294960624375777e+18,0.026008643209934235,-0.055913858115673065,-10.452557563781738
1.7294960624435779e+18,-0.007728855591267347,0.03181517496705055,-10.467148780822754
1.729496062452578e+18,0.0003210370778106153,0.012888661585748196,-10.505643844604492
1.7294960624585782e+18,0.0433267243206501,0.024207696318626404,-10.482352256774902
1.7294960624675784e+18,0.04771986976265907,0.009112433530390263,-10.494097709655762
1.7294960624765786e+18,-0.037955738604068756,-0.042202383279800415,-10.50061321258545
1.7294960624825787e+18,-0.066459059715271,-0.011890393681824207,-10.481378555297852
1.729496062491579e+18,0.049616020172834396,0.0919056162238121,-10.458198547363281
1.729496062500579e+18,0.010233168490231037,0.016331952065229416,-10.48620319366455
1.7294960625065792e+18,0.02055896632373333,0.03175994008779526,-10.441055297851562
1.7294960625155794e+18,-0.006419028155505657,-0.033076997846364975,-10.442601203918457
1.7294960625245796e+18,-0.017727967351675034,0.012448722496628761,-10.506457328796387
1.7294960625305797e+18,0.0182246845215559,0.0020916941575706005,-10.534330368041992
1.72949606253958e+18,-0.0627768337726593,-0.02522268518805504,-10.510732650756836
1.72949606254558e+18,-0.029410455375909805,-0.04440600425004959,-10.574398040771484
1.7294960625545802e+18,0.026330145075917244,-0.01978839747607708,-10.52829647064209
1.7294960625605804e+18,0.08054760843515396,0.020734144374728203,-10.536783218383789
1.7294960625695805e+18,-0.06562625616788864,-0.03409837931394577,-10.521958351135254
1.7294960625785807e+18,-0.018782617524266243,0.04586043208837509,-10.495786666870117
1.7294960625845809e+18,0.03570777177810669,-0.030653607100248337,-10.523655891418457
1.729496062593581e+18,-0.05728425085544586,0.01712101511657238,-10.548674583435059
1.7294960626025812e+18,0.10101153701543808,0.015047979541122913,-10.595674514770508
1.7294960626085814e+18,-0.03319502994418144,0.05614545941352844,-10.556136131286621
1.7294960626175816e+18,-0.05380477011203766,-0.07988232374191284,-10.49885082244873
1.7294960626235817e+18,0.022563526406884193,0.03890765830874443,-10.521544456481934
1.729496062632582e+18,0.03196738287806511,-0.07614526897668839,-10.516692161560059
1.729496062641582e+18,-0.017045266926288605,-0.025228513404726982,-10.558316230773926
1.7294960626475822e+18,0.03231267258524895,-0.06769713759422302,-10.563177108764648
1.7294960626565824e+18,-0.027785329148173332,0.10486841946840286,-10.614346504211426
1.7294960626655826e+18,0.096656933426857,-0.06328041106462479,-10.599200248718262
1.7294960626715827e+18,-0.028541935607790947,0.047917161136865616,-10.597992897033691
1.729496062680583e+18,0.0030184125062078238,-0.010906185023486614,-10.577108383178711
1.729496062689583e+18,-0.0031840417068451643,-0.01552419550716877,-10.517820358276367
1.7294960626985833e+18,-0.014121975749731064,-0.016133852303028107,-10.659048080444336
1.7294960627045834e+18,0.0009989191312342882,-0.018824394792318344,-10.483985900878906
1.7294960627135836e+18,0.09169024974107742,-0.02278193272650242,-10.546878814697266
1.7294960627195837e+18,0.01839524880051613,0.010941307060420513,-10.60291576385498
1.729496062728584e+18,0.017928145825862885,0.008161434903740883,-10.584405899047852
1.729496062737584e+18,0.056901413947343826,-0.06655208766460419,-10.561680793762207
1.7294960627495844e+18,0.035126131027936935,-0.012514130212366581,-10.543610572814941
1.7294960627555845e+18,0.07558093219995499,-0.06216074153780937,-10.594650268554688
1.7294960627645847e+18,0.06744461506605148,-0.019798828288912773,-10.559863090515137
1.7294960627705848e+18,-0.021961746737360954,-0.04671388864517212,-10.577858924865723
1.729496062779585e+18,-0.01769544743001461,-0.032937150448560715,-10.530611991882324
1.7294960627855852e+18,0.06702820211648941,-0.026084547862410545,-10.601576805114746
1.7294960627945853e+18,0.11290111392736435,-0.0227588452398777,-10.55348014831543
1.7294960628035855e+18,-0.0025073704309761524,-0.048408087342977524,-10.578649520874023
1.7294960628095857e+18,-0.07614713162183762,0.008430047892034054,-10.58996868133545
1.7294960628185859e+18,0.0004439844051375985,0.03409441560506821,-10.633033752441406
1.729496062824586e+18,-0.011791436932981014,0.03485618904232979,-10.517690658569336
1.7294960628335862e+18,-0.08956309407949448,-0.026581382378935814,-10.619918823242188
1.7294960628425864e+18,-0.037409815937280655,-0.030221449211239815,-10.594015121459961
1.7294960628515866e+18,0.004481607582420111,0.03392450511455536,-10.674652099609375
1.7294960628575867e+18,0.018930688500404358,-0.020996391773223877,-10.633127212524414
1.729496062866587e+18,-0.01954527571797371,-0.06126181036233902,-10.607197761535645
1.729496062875587e+18,-0.09662540256977081,-0.05102018639445305,-10.626291275024414
1.7294960628845873e+18,0.047550879418849945,-0.022728856652975082,-10.567623138427734
1.7294960628905874e+18,0.011314566247165203,-0.09729272127151489,-10.55347728729248
1.7294960628995876e+18,0.09300143271684647,-0.004550350829958916,-10.647829055786133
1.7294960629085878e+18,-0.01885068044066429,-0.06945829093456268,-10.549412727355957
1.729496062917588e+18,0.058208052068948746,0.018585123121738434,-10.5802583694458
1.7294960629265882e+18,-0.004629336763173342,-0.01069645769894123,-10.526339530944824
1.7294960629325883e+18,0.06355292350053787,-0.0491105318069458,-10.609989166259766
1.7294960629415885e+18,-0.10392697155475616,-0.04499661177396774,-10.539094924926758
1.7294960629505887e+18,0.07555712014436722,0.08322755247354507,-10.550007820129395
1.729496062962589e+18,0.014002282172441483,-0.021444091573357582,-10.572609901428223
1.729496062968589e+18,-0.04275736212730408,0.026529669761657715,-10.523040771484375
1.7294960629775892e+18,-0.01861598715186119,-0.04826332628726959,-10.609651565551758
1.7294960629835894e+18,0.018182704225182533,0.008388030342757702,-10.618986129760742
1.7294960629925896e+18,-0.006386621855199337,-0.07353833317756653,-10.569727897644043
1.7294960629985897e+18,-0.04165027290582657,-0.03023429773747921,-10.623550415039062
1.72949606300759e+18,-0.009349859319627285,0.015479015186429024,-10.594741821289062
1.72949606301659e+18,0.034321293234825134,-0.016907628625631332,-10.582392692565918
1.7294960630255903e+18,0.05000455304980278,0.014100683853030205,-10.566324234008789
1.7294960630345905e+18,0.011642295867204666,-0.049238305538892746,-10.598036766052246
1.7294960630435907e+18,0.008615936152637005,0.01369975320994854,-10.573168754577637
1.7294960630495908e+18,-0.03193701058626175,-0.03642584756016731,-10.494494438171387
1.729496063061591e+18,-0.00592413917183876,-0.0625000074505806,-10.547818183898926
1.7294960630705912e+18,-0.07095734030008316,-0.03974965214729309,-10.534847259521484
1.7294960630795914e+18,-0.03875650838017464,-0.04515485838055611,-10.634005546569824
1.7294960630855916e+18,-0.0077280402183532715,-0.007786641828715801,-10.603636741638184
1.7294960630945917e+18,0.061248693615198135,0.013477404601871967,-10.538657188415527
1.729496063103592e+18,-0.005917850416153669,-0.03857983276247978,-10.612532615661621
1.729496063109592e+18,0.0027357188519090414,-0.0208745077252388,-10.642024040222168
1.7294960631185923e+18,-0.013389462605118752,-0.06524907797574997,-10.563422203063965
1.7294960631275924e+18,-0.020105017349123955,0.08111605793237686,-10.591176986694336
1.7294960631335926e+18,-0.08261676132678986,-0.03662820905447006,-10.559473991394043
1.7294960631425928e+18,0.027865422889590263,0.02350107580423355,-10.619943618774414
1.729496063151593e+18,-0.025114433839917183,0.029642026871442795,-10.601493835449219
1.729496063157593e+18,0.003399007022380829,0.00688590295612812,-10.563693046569824
1.7294960631665933e+18,-0.03897958621382713,0.0587661974132061,-10.559247970581055
1.7294960631755935e+18,-0.03603512793779373,0.052081089466810226,-10.658934593200684
1.7294960631815936e+18,0.027207471430301666,-0.00016723197768442333,-10.597304344177246
1.7294960631905938e+18,0.01902901940047741,0.04332488402724266,-10.618660926818848
1.729496063199594e+18,0.10104741901159286,0.048924241214990616,-10.632919311523438
1.7294960632085942e+18,0.031979531049728394,0.03064241260290146,-10.592802047729492
1.7294960632145943e+18,-0.03925136476755142,-0.01548686157912016,-10.635117530822754
1.7294960632235945e+18,0.03817904368042946,-0.051664505153894424,-10.657347679138184
1.7294960632325947e+18,-0.022511962801218033,-0.02397284470498562,-10.638699531555176
1.729496063241595e+18,-0.05281752347946167,-0.03219767287373543,-10.585806846618652
1.729496063250595e+18,0.05957116186618805,-0.02695354074239731,-10.634206771850586
1.7294960632595953e+18,0.005185036454349756,-0.02764938399195671,-10.675697326660156
1.7294960632685955e+18,-0.0270351804792881,0.06510493159294128,-10.499381065368652
1.7294960632745956e+18,-0.023892231285572052,-0.007487263530492783,-10.589180946350098
1.7294960632835958e+18,0.028688406571745872,-0.022858384996652603,-10.593443870544434
1.729496063289596e+18,-0.052100758999586105,0.015425153076648712,-10.618681907653809
1.729496063298596e+18,-0.12027625739574432,-0.016373012214899063,-10.564567565917969
1.7294960633075963e+18,0.00488227279856801,-0.01809833198785782,-10.566661834716797
1.7294960633135964e+18,0.06066850200295448,-0.05806425213813782,-10.591827392578125
1.7294960633225966e+18,0.040506258606910706,0.03313058614730835,-10.519009590148926
1.7294960633285967e+18,0.030975956469774246,-0.04825446382164955,-10.601957321166992
1.729496063337597e+18,-0.028418563306331635,-0.021371416747570038,-10.599808692932129
1.729496063346597e+18,-0.06704926490783691,-0.060908202081918716,-10.528788566589355
1.7294960633525972e+18,0.07205577939748764,0.05391138046979904,-10.668997764587402
1.7294960633645975e+18,0.008133573457598686,-0.06087179109454155,-10.519609451293945
1.7294960633705976e+18,0.021925996989011765,-0.08296871185302734,-10.566475868225098
1.7294960633795978e+18,0.08168374001979828,-0.05999313294887543,-10.525195121765137
1.729496063385598e+18,-0.08018940687179565,0.03339603543281555,-10.573159217834473
1.7294960633945981e+18,0.02897661179304123,0.06730349361896515,-10.648271560668945
1.7294960634035983e+18,0.08593355119228363,-0.05704367160797119,-10.602766990661621
1.7294960634095985e+18,-0.06973034143447876,0.02502339333295822,-10.576047897338867
1.7294960634185987e+18,0.06257940083742142,-0.013687791302800179,-10.555667877197266
1.7294960634275988e+18,0.013769084587693214,-0.03968441113829613,-10.561478614807129
1.729496063433599e+18,-0.01991679146885872,-0.05650363489985466,-10.521003723144531
1.7294960634455992e+18,-0.006859447341412306,-0.0017823020461946726,-10.531959533691406
1.7294960634575995e+18,0.05708595737814903,-0.013320592232048512,-10.669342994689941
1.7294960634695997e+18,0.03316216915845871,-0.0019048777176067233,-10.480403900146484
1.7294960634786e+18,-0.04821101948618889,-0.05346430838108063,-10.526626586914062
1.7294960634846e+18,-0.04133009538054466,-0.022930163890123367,-10.619780540466309
1.7294960634936003e+18,-0.013286584056913853,-0.09459254890680313,-10.604147911071777
1.7294960634996004e+18,0.009897388517856598,0.037762708961963654,-10.537213325500488
1.7294960635086006e+18,0.0569034181535244,0.06091070547699928,-10.517990112304688
1.7294960635176008e+18,-0.05544097721576691,-0.029366932809352875,-10.617944717407227
1.729496063523601e+18,-0.0002492645871825516,0.0014414864126592875,-10.527870178222656
1.729496063532601e+18,0.056982461363077164,0.020226478576660156,-10.579134941101074
1.7294960635386012e+18,0.04327980428934097,0.06545931845903397,-10.606877326965332
1.7294960635476014e+18,-0.026310015469789505,-0.02996942400932312,-10.629622459411621
1.7294960635566016e+18,0.024125244468450546,0.0007320226286537945,-10.58674144744873
1.7294960635626017e+18,-0.05046044662594795,-0.00033615416032262146,-10.468341827392578
1.729496063571602e+18,0.05355845391750336,-0.05732594430446625,-10.565009117126465
1.729496063577602e+18,0.01785891503095627,0.03285413980484009,-10.488842010498047
1.7294960635866022e+18,-0.012011134065687656,0.04563875123858452,-10.528769493103027
1.7294960635956024e+18,-0.026339542120695114,-0.0023240414448082447,-10.62911319732666
1.7294960636016026e+18,0.019496304914355278,-0.006563275121152401,-10.571369171142578
1.7294960636106028e+18,0.014028185978531837,0.0199482049793005,-10.520134925842285
1.729496063619603e+18,-0.047276679426431656,-0.010515131056308746,-10.490646362304688
1.7294960636286031e+18,-0.024259939789772034,-0.04196144640445709,-10.534473419189453
1.7294960636376033e+18,0.04584910720586777,-0.03912568837404251,-10.57468318939209
1.7294960636466035e+18,0.04464787617325783,-0.048294730484485626,-10.551072120666504
1.7294960636556037e+18,-0.0637284442782402,-0.018091188743710518,-10.535035133361816
1.7294960636616038e+18,-0.03373315557837486,-0.020020093768835068,-10.54941177368164
1.729496063670604e+18,0.0933353379368782,0.014669670723378658,-10.4558687210083
1.7294960636796042e+18,0.04763531684875488,-0.05904030054807663,-10.614581108093262
1.7294960636856044e+18,0.0024333116598427296,0.00621681148186326,-10.481003761291504
1.7294960636946045e+18,-0.05583401769399643,0.02676955610513687,-10.503283500671387
1.7294960637036047e+18,0.07874996215105057,-0.014291542582213879,-10.532002449035645
1.7294960637096049e+18,-0.011985847726464272,-0.04418226704001427,-10.514344215393066
1.729496063718605e+18,0.04115252196788788,0.03679725527763367,-10.587448120117188
1.7294960637276052e+18,-0.02339247800409794,0.052666403353214264,-10.519329071044922
1.7294960637336054e+18,0.056001193821430206,0.02908342331647873,-10.490523338317871
1.7294960637426056e+18,-0.04070105403661728,-0.0022401458118110895,-10.508896827697754
1.7294960637516058e+18,-0.02176094986498356,0.009008479304611683,-10.484601974487305
1.729496063757606e+18,-0.004679521545767784,0.017817679792642593,-10.441561698913574
1.729496063766606e+18,0.07634587585926056,-0.03370879590511322,-10.363165855407715
1.7294960637756063e+18,-0.06290791928768158,0.005024538841098547,-10.392627716064453
1.7294960637816064e+18,-0.004661747254431248,0.019111281260848045,-10.426604270935059
1.7294960637906066e+18,-0.046423669904470444,-0.00799152348190546,-10.409436225891113
1.7294960637966067e+18,-0.07849982380867004,-0.027111651375889778,-10.308449745178223
1.729496063805607e+18,0.10805746167898178,-0.051511771976947784,-10.238690376281738
1.729496063814607e+18,0.04641001671552658,-0.004489862360060215,-10.269156455993652
1.7294960638206072e+18,0.007271520793437958,0.0011076750233769417,-10.19124984741211
1.7294960638296074e+18,0.0340549573302269,-0.02865125797688961,-10.194626808166504
1.7294960638386076e+18,0.022595452144742012,0.017545625567436218,-10.111226081848145
1.7294960638476078e+18,-0.039848923683166504,0.013411556370556355,-10.137136459350586
1.729496063856608e+18,0.02983863651752472,-0.049479007720947266,-10.162382125854492
1.7294960638656082e+18,-0.01687309518456459,-0.026629334315657616,-10.055994033813477
1.7294960638746084e+18,-0.07414093613624573,-0.04824754595756531,-10.094184875488281
1.7294960638836086e+18,0.03689253330230713,0.008840925991535187,-10.066122055053711
1.7294960638926088e+18,-0.04777275398373604,0.04631474241614342,-10.035148620605469
1.729496063901609e+18,0.04046313837170601,-0.02463674359023571,-9.994854927062988
1.729496063907609e+18,0.009866531006991863,-0.033309925347566605,-9.980310440063477
1.7294960639166093e+18,0.013532469980418682,0.0694158598780632,-10.01645278930664
1.7294960639226094e+18,0.000501201138831675,0.033312443643808365,-9.973806381225586
1.7294960639316096e+18,-0.05191751569509506,-0.011624244041740894,-9.837029457092285
1.7294960639406098e+18,-0.014190729707479477,-0.024375319480895996,-9.822190284729004
1.72949606394661e+18,-0.029355326667428017,-0.01589481346309185,-9.897367477416992
1.72949606395561e+18,-0.06536709517240524,-0.024570811539888382,-9.858410835266113
1.7294960639646103e+18,-0.024861404672265053,0.047480508685112,-9.792817115783691
1.7294960639706104e+18,0.03534320741891861,-0.08211367577314377,-9.766464233398438
1.7294960639796106e+18,0.0023324647918343544,0.06904421001672745,-9.732463836669922
1.7294960639856108e+18,0.014567012898623943,-0.113151416182518,-9.690068244934082
1.729496063994611e+18,0.04712294787168503,-0.1018233373761177,-9.748797416687012
1.729496064000611e+18,-0.04901961237192154,-0.05766068398952484,-9.648859024047852
1.7294960640096113e+18,0.02670513466000557,0.0014151961077004671,-9.717268943786621
1.7294960640186115e+18,-0.001489902031607926,0.034708019345998764,-9.70750904083252
1.7294960640246116e+18,0.013972079381346703,-0.028162231668829918,-9.75619888305664
1.7294960640336118e+18,0.004804733209311962,-0.02301192097365856,-9.693017959594727
1.729496064042612e+18,-0.009596197865903378,-0.035327035933732986,-9.693918228149414
1.7294960640516122e+18,0.028905771672725677,0.042000990360975266,-9.633213996887207
1.7294960640576123e+18,0.019889360293745995,0.04371027648448944,-9.77491569519043
1.7294960640666125e+18,0.015501342713832855,0.041503455489873886,-9.682028770446777
1.7294960640726126e+18,0.04939401149749756,0.06333114206790924,-9.626726150512695
1.7294960640816128e+18,0.03819594532251358,-0.06938568502664566,-9.604196548461914
1.729496064090613e+18,-0.018757587298750877,0.005529680289328098,-9.712688446044922
1.729496064096613e+18,-0.05755738168954849,0.033944420516490936,-9.705790519714355
1.7294960641056133e+18,-0.08037561923265457,0.03801573067903519,-9.70430850982666
1.7294960641146135e+18,0.020013518631458282,0.045179031789302826,-9.605056762695312
1.7294960641206136e+18,0.001558613614179194,0.017420200631022453,-9.667401313781738
1.7294960641296138e+18,0.016823861747980118,-0.01786588691174984,-9.713115692138672
1.729496064135614e+18,-0.012601925991475582,-0.0007995011983439326,-9.717497825622559
1.7294960641446141e+18,0.01898008957505226,-0.023330314084887505,-9.633064270019531
1.7294960641536143e+18,0.032919153571128845,-0.01672455109655857,-9.727923393249512
1.7294960641596145e+18,0.031507644802331924,-0.058169011026620865,-9.713716506958008
1.7294960641686147e+18,0.08196094632148743,0.019959164783358574,-9.645759582519531
1.7294960641776148e+18,-0.05492958053946495,0.012619010172784328,-9.665260314941406
1.729496064183615e+18,0.0011260664323344827,-0.044978827238082886,-9.646254539489746
1.7294960641926152e+18,-0.11875054985284805,0.00332026113756001,-9.709495544433594
1.7294960642016154e+18,-0.03834574297070503,-0.00012067356146872044,-9.727561950683594
1.7294960642106156e+18,0.05697306990623474,-0.004648298490792513,-9.61980152130127
1.7294960642196157e+18,-0.03194847330451012,0.04456644505262375,-9.628772735595703
1.729496064225616e+18,-0.008150426670908928,-0.02736271545290947,-9.66124439239502
1.729496064234616e+18,0.06194636598229408,-0.060779087245464325,-9.665511131286621
1.7294960642436163e+18,-0.01375368982553482,0.12082025408744812,-9.706718444824219
1.7294960642496164e+18,-0.04681874439120293,0.053476303815841675,-9.710134506225586
1.7294960642586166e+18,0.014399254694581032,0.013070277869701385,-9.700262069702148
1.7294960642676168e+18,-0.0033788271248340607,0.07262303680181503,-9.63643741607666
1.729496064273617e+18,0.014410000294446945,-0.0656997486948967,-9.700572967529297
1.729496064282617e+18,0.0003339463728480041,0.026825686916708946,-9.705609321594238
1.7294960642886172e+18,0.007281304802745581,-0.030301960185170174,-9.597009658813477
1.7294960642976174e+18,-0.05839209258556366,-0.01805565133690834,-9.741803169250488
1.7294960643066176e+18,0.022985832765698433,-0.08877816051244736,-9.608170509338379
1.7294960643126177e+18,0.03141176700592041,-0.058239828795194626,-9.622294425964355
1.729496064321618e+18,0.05677938833832741,-0.00513940304517746,-9.551310539245605
1.729496064327618e+18,0.05695893242955208,0.016691904515028,-9.723820686340332
1.7294960643366182e+18,0.046578310430049896,-0.00849844515323639,-9.632545471191406
1.7294960643456184e+18,-0.0037135863676667213,-0.017042094841599464,-9.675504684448242
1.7294960643516186e+18,0.009271394461393356,-0.09322939813137054,-9.576193809509277
1.7294960643606188e+18,-0.07796565443277359,0.023191120475530624,-9.6727876663208
1.729496064369619e+18,-0.03061133250594139,-0.067642442882061,-9.587154388427734
1.729496064375619e+18,0.02787519432604313,0.004148893523961306,-9.618647575378418
1.7294960643846193e+18,0.038287315517663956,-0.043020814657211304,-9.75847339630127
1.7294960643936195e+18,0.030815407633781433,-0.020116567611694336,-9.574214935302734
1.7294960643996196e+18,0.06692122668027878,0.06023668125271797,-9.655999183654785
1.7294960644086198e+18,-0.02485922910273075,0.0467708446085453,-9.601510047912598
1.72949606441762e+18,-0.006553719285875559,-0.0467669740319252,-9.610676765441895
1.7294960644266202e+18,0.0219336599111557,0.017074035480618477,-9.573205947875977
1.7294960644356204e+18,-0.012240896932780743,0.0620054230093956,-9.628520965576172
1.7294960644446205e+18,-0.04720539227128029,0.0225770752876997,-9.663714408874512
1.7294960644506207e+18,0.05441181734204292,-0.034923918545246124,-9.586810111999512
1.7294960644596209e+18,-0.0177597738802433,0.02707633003592491,-9.586782455444336
1.729496064465621e+18,-0.03639357164502144,0.030650630593299866,-9.613428115844727
1.7294960644746212e+18,-0.007377901580184698,0.04177014157176018,-9.643183708190918
1.7294960644836214e+18,0.04877689108252525,-0.01609761454164982,-9.664469718933105
1.7294960644896215e+18,0.042594049125909805,0.01647724211215973,-9.641946792602539
1.7294960644986217e+18,0.028819367289543152,-0.003286800580099225,-9.63937759399414
1.729496064507622e+18,-0.0017305822111666203,0.07472335547208786,-9.604232788085938
1.729496064513622e+18,-0.10330542922019958,0.031217504292726517,-9.53249740600586
1.7294960645226222e+18,-0.07891160994768143,0.021570643410086632,-9.62211799621582
1.7294960645316224e+18,0.010237322188913822,0.06747134029865265,-9.526144981384277
1.7294960645376225e+18,-0.03854366019368172,-0.07658372074365616,-9.622844696044922
1.7294960645466227e+18,-0.05273956432938576,0.07715529948472977,-9.606572151184082
1.7294960645526228e+18,0.044452354311943054,-0.008354061283171177,-9.620351791381836
1.729496064561623e+18,0.05928345024585724,0.013879239559173584,-9.594198226928711
1.7294960645706232e+18,-0.05488008260726929,0.02082507312297821,-9.575521469116211
1.7294960645766234e+18,-0.013360473327338696,-0.02354738861322403,-9.587381362915039
1.7294960645856236e+18,-0.05807529389858246,-0.00017797389591578394,-9.575247764587402
1.7294960645946237e+18,-0.013055803254246712,-0.017325012013316154,-9.539932250976562
1.729496064603624e+18,-0.009948060847818851,0.013256321661174297,-9.50084114074707
1.729496064609624e+18,0.05219545215368271,0.0026094834320247173,-9.603652954101562
1.7294960646186243e+18,0.06498754024505615,0.02652743086218834,-9.611448287963867
1.7294960646246244e+18,0.0669083446264267,0.05812219902873039,-9.61489486694336
1.7294960646336246e+18,-0.002772459527477622,0.0738196074962616,-9.563706398010254
1.7294960646426248e+18,-0.01818801648914814,0.014299205504357815,-9.519978523254395
1.729496064648625e+18,0.006048397161066532,0.01629701443016529,-9.583916664123535
1.729496064657625e+18,-0.0422373004257679,0.002782626310363412,-9.537965774536133
1.7294960646666253e+18,0.04241737350821495,0.0704730972647667,-9.544581413269043
1.7294960646726254e+18,-0.001989787444472313,0.02606736309826374,-9.425433158874512
1.7294960646816256e+18,0.00947125069797039,0.014732125215232372,-9.508209228515625
1.7294960646906258e+18,0.05509829521179199,-0.027300342917442322,-9.505914688110352
1.729496064696626e+18,0.011071408167481422,-0.056578971445560455,-9.5774507522583
1.729496064705626e+18,-0.06223839893937111,0.054549816995859146,-9.490418434143066
1.7294960647116262e+18,-0.05994151905179024,0.05962253361940384,-9.502968788146973
1.7294960647206264e+18,0.004408575594425201,-0.03389381244778633,-9.549514770507812
1.7294960647296266e+18,0.07660725712776184,-0.050982389599084854,-9.548500061035156
1.7294960647356268e+18,-0.02232549525797367,0.03894400969147682,-9.55378532409668
1.729496064744627e+18,0.010407019406557083,-0.047251146286726,-9.498201370239258
1.7294960647536271e+18,-0.05811791867017746,-0.07342565059661865,-9.529982566833496
1.7294960647596273e+18,-0.08483640849590302,0.016469204798340797,-9.549470901489258
1.7294960647686275e+18,-0.0415177047252655,0.016464149579405785,-9.520278930664062
1.7294960647746276e+18,0.08523894846439362,0.01758238673210144,-9.520366668701172
1.7294960647836278e+18,0.014210015535354614,-0.03668743744492531,-9.453241348266602
1.729496064792628e+18,-0.11502142250537872,-0.036862581968307495,-9.44766902923584
1.729496064798628e+18,-0.037312865257263184,-0.06767218559980392,-9.422760963439941
1.7294960648076283e+18,-0.029405558481812477,0.03879287466406822,-9.55260181427002
1.7294960648166285e+18,0.0038058413192629814,0.0075566875748336315,-9.546181678771973
1.7294960648226286e+18,-0.0028446190990507603,0.054126955568790436,-9.522382736206055
1.7294960648316288e+18,0.06208091601729393,-0.015797335654497147,-9.522744178771973
1.729496064840629e+18,0.0465133897960186,0.04409286007285118,-9.506624221801758
1.729496064846629e+18,0.07516688853502274,-0.020581144839525223,-9.53256607055664
1.7294960648556293e+18,-0.01515432819724083,-0.04226445406675339,-9.494504928588867
1.7294960648616294e+18,-0.07589882612228394,0.005856890231370926,-9.464665412902832
1.7294960648706296e+18,0.058593541383743286,0.0497080534696579,-9.516002655029297
1.7294960648796298e+18,0.0009779833490028977,0.04643356427550316,-9.490935325622559
1.72949606488563e+18,0.03767244145274162,0.03196178376674652,-9.492385864257812
1.7294960648946301e+18,0.036025289446115494,-0.13003531098365784,-9.539090156555176
1.7294960649036303e+18,-0.036572813987731934,-0.07919163256883621,-9.528470039367676
1.7294960649096305e+18,0.09313613921403885,0.029361842200160027,-9.523118019104004
1.7294960649186307e+18,0.016834869980812073,0.041921380907297134,-9.52071762084961
1.7294960649246308e+18,0.0341588631272316,-0.06824235618114471,-9.449433326721191
1.729496064933631e+18,0.030879929661750793,0.009338153526186943,-9.53343677520752
1.7294960649426312e+18,-0.00281334831379354,-0.008167853578925133,-9.404594421386719
1.7294960649486313e+18,-0.014149435795843601,-0.026081841439008713,-9.524115562438965
1.7294960649576315e+18,0.023814328014850616,-0.006571422331035137,-9.493148803710938
1.7294960649666317e+18,0.039187707006931305,0.05143022909760475,-9.458423614501953
1.7294960649726318e+18,-0.04346499592065811,-0.03988523408770561,-9.453518867492676
1.729496064981632e+18,0.08545234799385071,0.006917869206517935,-9.457831382751465
1.7294960649906322e+18,0.005472822114825249,0.0036017554812133312,-9.44674301147461
1.7294960649966323e+18,-0.060931067913770676,-0.00460667721927166,-9.402933120727539
1.7294960650056325e+18,-0.08667008578777313,0.02365560457110405,-9.42770004272461
1.7294960650146327e+18,-0.035905204713344574,0.0689009428024292,-9.484150886535645
1.7294960650206328e+18,-0.010925295762717724,0.021424023434519768,-9.564748764038086
1.729496065029633e+18,-0.008476871065795422,-0.10058314353227615,-9.448453903198242
1.7294960650386332e+18,0.013423040509223938,0.017239132896065712,-9.390199661254883
1.7294960650476334e+18,-0.03233494237065315,0.007674836087971926,-9.486990928649902
1.7294960650536335e+18,0.049142275005578995,-0.02522764354944229,-9.509376525878906
1.7294960650626337e+18,0.005094336345791817,-0.014004449360072613,-9.501699447631836
1.729496065071634e+18,-0.05742138624191284,0.13230359554290771,-9.429145812988281
1.729496065080634e+18,-0.1059194877743721,0.0474461130797863,-9.509424209594727
1.7294960650866342e+18,0.021827252581715584,-0.05094895884394646,-9.46696662902832
1.7294960650956344e+18,0.02561837062239647,-0.023620909079909325,-9.469087600708008
1.7294960651046346e+18,0.00316959572955966,-0.03510039672255516,-9.462457656860352
1.7294960651106348e+18,0.04272525757551193,0.03258136287331581,-9.501890182495117
1.729496065119635e+18,-0.017053958028554916,0.025564566254615784,-9.396479606628418
1.729496065125635e+18,-0.0499008409678936,0.0059786392375826836,-9.45517635345459
1.7294960651346353e+18,0.014267468824982643,-0.01980631612241268,-9.422812461853027
1.7294960651406354e+18,-0.030899250879883766,0.04983416199684143,-9.440730094909668
1.7294960651496356e+18,0.06067686527967453,-0.02233298495411873,-9.402944564819336
1.7294960651586358e+18,0.045081350952386856,-0.047496333718299866,-9.500822067260742
1.729496065164636e+18,0.04338233917951584,0.019754011183977127,-9.538314819335938
1.729496065173636e+18,0.014719616621732712,0.023650094866752625,-9.46194076538086
1.7294960651826363e+18,-0.03760366514325142,0.07868494093418121,-9.425466537475586
1.7294960651916365e+18,0.0014103911817073822,-0.008811774663627148,-9.418457984924316
1.7294960651976366e+18,0.022770090028643608,-0.0654439926147461,-9.428235054016113
1.7294960652066368e+18,0.03653642535209656,0.0009840605780482292,-9.471038818359375
1.729496065215637e+18,0.09839914739131927,0.029073920100927353,-9.425105094909668
1.729496065221637e+18,-0.040668047964572906,0.09991849958896637,-9.563776016235352
1.7294960652306373e+18,-0.0724378451704979,0.036870598793029785,-9.45577621459961
1.7294960652366374e+18,-0.12684988975524902,0.059906039386987686,-9.427257537841797
1.7294960652456376e+18,0.08710622042417526,0.0341801643371582,-9.483192443847656
1.7294960652516378e+18,0.00038363225758075714,0.016016634181141853,-9.487552642822266
1.729496065260638e+18,-0.011074956506490707,-0.04372100904583931,-9.442947387695312
1.7294960652696381e+18,0.04661500081419945,-0.008531574159860611,-9.43850326538086
1.7294960652756383e+18,0.026398276910185814,0.03590984269976616,-9.426615715026855
1.7294960652846385e+18,0.016872571781277657,0.005109278950840235,-9.348203659057617
1.7294960652906386e+18,-0.02038648910820484,0.007593043148517609,-9.50194263458252
1.7294960652996388e+18,0.048897288739681244,-0.009150462225079536,-9.477264404296875
1.729496065308639e+18,0.07598324865102768,-0.028088361024856567,-9.398602485656738
1.729496065314639e+18,0.021859439089894295,-0.002160599222406745,-9.430524826049805
1.7294960653236393e+18,-0.031302839517593384,0.00842377170920372,-9.406035423278809
1.7294960653326395e+18,-0.0069466265849769115,0.05370119586586952,-9.425015449523926
1.7294960653386396e+18,-0.036040715873241425,0.06885286420583725,-9.452913284301758
1.7294960653476398e+18,-0.01350144762545824,-0.04646198824048042,-9.466719627380371
1.72949606535664e+18,0.021916890516877174,0.017653463408350945,-9.494637489318848
1.7294960653626401e+18,-0.09349910914897919,-0.0072616166435182095,-9.4180269241333
1.7294960653716403e+18,-0.05863950401544571,0.038233689963817596,-9.461935997009277
1.7294960653776404e+18,0.032895028591156006,0.07227771729230881,-9.471661567687988
1.7294960653866406e+18,0.005746186710894108,0.002028613816946745,-9.438834190368652
1.7294960653926408e+18,0.019634345546364784,-0.06570480018854141,-9.436564445495605
1.729496065401641e+18,-0.022251809015870094,-0.01092405617237091,-9.465473175048828
1.7294960654106412e+18,-0.01020901370793581,-0.016477206721901894,-9.488398551940918
1.7294960654196413e+18,0.017101509496569633,0.016513492912054062,-9.446585655212402
1.7294960654286415e+18,0.02294539287686348,-0.0719008818268776,-9.451623916625977
1.7294960654376417e+18,0.006719325669109821,0.03030516393482685,-9.42245101928711
1.7294960654436419e+18,-0.01733415015041828,0.0053944094106554985,-9.400836944580078
1.729496065452642e+18,0.04555602744221687,0.002093598945066333,-9.391279220581055
1.7294960654616422e+18,-0.006912407465279102,-0.012046257965266705,-9.346761703491211
1.7294960654706424e+18,0.0012996940640732646,-0.051402270793914795,-9.355291366577148
1.7294960654766426e+18,-0.042743463069200516,0.0024067899212241173,-9.31698226928711
1.7294960654856428e+18,-0.03739437460899353,0.015364355407655239,-9.198094367980957
1.729496065494643e+18,0.0608246773481369,-0.03344491496682167,-9.33366870880127
1.729496065500643e+18,0.043956853449344635,-0.015597207471728325,-9.249555587768555
1.7294960655096433e+18,0.005114213563501835,0.00130720273591578,-9.252789497375488
1.7294960655186435e+18,0.07589667290449142,-0.044249676167964935,-9.15151309967041
1.7294960655276436e+18,-0.044241469353437424,0.04193086177110672,-9.18802547454834
1.7294960655366438e+18,0.019383838400244713,-0.027194974943995476,-9.164710998535156
1.729496065545644e+18,-0.04731990769505501,-0.009769642725586891,-9.189465522766113
1.7294960655546442e+18,0.056952714920043945,-0.012517066672444344,-9.073960304260254
1.7294960655606444e+18,0.01868317276239395,-0.023482272401452065,-9.072985649108887
1.7294960655696445e+18,0.004634099081158638,0.007045305799692869,-9.003561973571777
1.7294960655786447e+18,0.07966287434101105,-0.012467057444155216,-9.046018600463867
1.7294960655846449e+18,-0.03060133568942547,0.06367480754852295,-8.969684600830078
1.729496065593645e+18,0.017102954909205437,-0.0035835716407746077,-8.962472915649414
1.7294960656026452e+18,-0.0075347088277339935,-0.021898040547966957,-8.9959077835083
1.7294960656116454e+18,-0.06725253164768219,-0.08159779757261276,-8.880038261413574
1.7294960656176456e+18,-0.058009155094623566,-0.0056128776632249355,-8.886595726013184
1.7294960656266458e+18,0.04876149818301201,-0.006618631072342396,-8.883963584899902
1.729496065635646e+18,-0.03690765053033829,-0.050597045570611954,-8.825790405273438
1.7294960656446461e+18,-0.06336592137813568,-0.03638841211795807,-8.76628589630127
1.7294960656506463e+18,0.04056818410754204,0.033345069736242294,-8.881410598754883
1.7294960656596465e+18,0.036570992320775986,-0.05518212541937828,-8.730881690979004
1.7294960656686467e+18,0.04219357669353485,0.0004584293928928673,-8.677900314331055
1.7294960656776468e+18,0.02848205529153347,0.029244374483823776,-8.661456108093262
1.729496065683647e+18,-0.028696568682789803,0.005226811394095421,-8.65085506439209
1.7294960656926472e+18,0.016120173037052155,0.016260607168078423,-8.715184211730957
1.7294960657016474e+18,-0.039682935923337936,0.07348449528217316,-8.615798950195312
1.7294960657076475e+18,0.04977191612124443,0.03258395940065384,-8.64359188079834
1.7294960657166477e+18,-0.009050869382917881,-0.005947238765656948,-8.656376838684082
1.729496065725648e+18,-0.03935232758522034,0.06544791907072067,-8.68553638458252
1.729496065731648e+18,0.018814289942383766,-0.149274542927742,-8.688045501708984
1.7294960657406482e+18,-0.015777966007590294,0.06351538002490997,-8.727787971496582
1.7294960657496484e+18,-0.021853046491742134,0.010099370963871479,-8.614893913269043
1.7294960657556485e+18,-0.0005763538647443056,0.005806283559650183,-8.695545196533203
1.7294960657646487e+18,-0.008657285943627357,0.03386405482888222,-8.699339866638184
1.7294960657706488e+18,0.1023259088397026,-0.010471534915268421,-8.71061897277832
1.729496065779649e+18,0.04441558197140694,0.00041050883010029793,-8.749692916870117
1.7294960657886492e+18,0.013813524506986141,-0.00841275230050087,-8.73292350769043
1.7294960657946493e+18,0.0015546535141766071,-0.023156441748142242,-8.706332206726074
1.7294960658036495e+18,-0.005607857368886471,-0.03168395534157753,-8.856316566467285
1.7294960658126497e+18,0.07402187585830688,0.04069504141807556,-8.759705543518066
1.7294960658186499e+18,-0.0707620233297348,-0.03500105440616608,-8.81093978881836
1.72949606582765e+18,-0.05709059163928032,0.011492250487208366,-8.888094902038574
1.7294960658336502e+18,-0.02513374201953411,-0.04270685091614723,-8.793785095214844
1.7294960658426504e+18,0.04495696350932121,0.0012888917699456215,-12.133912086486816
1.7294960658516506e+18,-0.052455008029937744,-0.04009334743022919,-15.517963409423828
1.7294960658606508e+18,0.012694193050265312,-0.0004575129132717848,-16.14371681213379
1.729496065866651e+18,0.006572473328560591,-0.030740540474653244,-16.22126007080078
1.729496065875651e+18,0.07757754623889923,0.04878074303269386,-16.339691162109375
1.7294960658816512e+18,0.016937145963311195,-0.022639308124780655,-16.337947845458984
1.7294960658906514e+18,-0.022722987458109856,0.023858223110437393,-16.192232131958008
1.7294960658966515e+18,0.06029451638460159,0.025240354239940643,-16.250675201416016
1.7294960659056517e+18,0.0748865008354187,0.017815962433815002,-15.962387084960938
1.729496065914652e+18,-0.021626215428113937,-0.07133226841688156,-15.801538467407227
1.729496065920652e+18,0.0531732477247715,-0.004940846469253302,-15.786799430847168
1.7294960659296522e+18,0.021198339760303497,0.022352587431669235,-15.524550437927246
1.7294960659356524e+18,-0.006126889958977699,-0.05617242678999901,-15.524097442626953
1.7294960659446525e+18,0.06678035855293274,-0.01583310402929783,-15.380037307739258
1.7294960659536527e+18,-0.058765847235918045,-0.02617204561829567,-15.279358863830566
1.7294960659596529e+18,0.023700587451457977,-0.017420051619410515,-15.126111030578613
1.729496065968653e+18,-0.07879066467285156,0.026876457035541534,-15.049212455749512
1.7294960659776532e+18,0.01615329645574093,-0.03693963959813118,-14.936708450317383
1.7294960659836534e+18,0.0575813353061676,-0.004872558172792196,-14.763409614562988
1.7294960659926536e+18,0.05790740251541138,-0.013316241092979908,-14.713566780090332
1.7294960659986537e+18,0.052910517901182175,-0.04867558926343918,-14.589884757995605
1.729496066007654e+18,0.05559730529785156,-0.009373040869832039,-14.627339363098145
1.729496066016654e+18,-0.0157584510743618,-0.024644838646054268,-14.391213417053223
1.7294960660226542e+18,-0.009162303991615772,0.015363053418695927,-14.348134994506836
1.7294960660346545e+18,0.008073738776147366,0.04089318588376045,-14.177691459655762
1.7294960660436547e+18,-0.043533362448215485,-0.03757811337709427,-14.11202621459961
1.7294960660526548e+18,-0.07141982018947601,0.11614452302455902,-13.894918441772461
1.7294960660676552e+18,-0.016649281606078148,0.06729932874441147,-13.809700965881348
1.7294960660766554e+18,-0.03200462833046913,-0.027823450043797493,-13.738402366638184
1.7294960660826555e+18,0.006276673637330532,-0.013020813465118408,-13.668601036071777
1.7294960660916557e+18,0.05820896849036217,-0.043257445096969604,-13.590767860412598
1.7294960661006559e+18,-0.02956576831638813,0.026524607092142105,-13.42216682434082
1.729496066109656e+18,0.06866586208343506,-0.015187150798738003,-13.349030494689941
1.7294960661156562e+18,-0.012519731186330318,0.040402602404356,-13.382326126098633
1.7294960661246564e+18,0.03561188653111458,0.019134100526571274,-13.145719528198242
1.7294960661336566e+18,0.05635751783847809,-0.044201117008924484,-13.166253089904785
1.7294960661426568e+18,0.0007348082144744694,-0.03534919023513794,-13.099793434143066
1.729496066151657e+18,0.050560422241687775,0.030801448971033096,-13.041879653930664
1.729496066157657e+18,0.02764344960451126,-0.005980867892503738,-13.029687881469727
1.7294960661666573e+18,0.017535530030727386,-0.01656169258058071,-12.885873794555664
1.7294960661756575e+18,0.0007037617615424097,-0.0003284865524619818,-12.807062149047852
1.7294960661846577e+18,0.04577723890542984,0.04292101040482521,-12.79397201538086
1.7294960661936579e+18,0.0027859648689627647,0.002315227873623371,-12.73021411895752
1.729496066202658e+18,0.008395246230065823,0.017371809110045433,-12.586562156677246
1.7294960662086582e+18,-0.0298437662422657,-0.05954273045063019,-12.583749771118164
1.7294960662176584e+18,0.06748843938112259,0.0742088258266449,-12.51069450378418
1.7294960662266586e+18,0.027997223660349846,0.060553327202796936,-12.47842025756836
1.7294960662356588e+18,0.014990117400884628,-0.00839429534971714,-12.387341499328613
1.729496066244659e+18,-0.05247025191783905,-0.00757296197116375,-12.326667785644531
1.7294960662536591e+18,0.01538460236042738,0.05249542370438576,-12.248902320861816
1.7294960662596593e+18,0.05332953482866287,-0.02591428905725479,-12.205025672912598
1.7294960662686595e+18,0.0043062069453299046,0.019366424530744553,-12.21261215209961
1.7294960662776596e+18,0.0653916597366333,0.049791883677244186,-12.209251403808594
1.7294960662866598e+18,0.07064889371395111,-0.040058694779872894,-12.195181846618652
1.72949606629566e+18,-0.07770742475986481,-0.04994563013315201,-12.127368927001953
1.7294960663016602e+18,0.007496928796172142,-0.024538015946745872,-11.96481704711914
1.7294960663106604e+18,-0.07067575305700302,-0.009470492601394653,-12.001285552978516
1.7294960663196605e+18,0.026957105845212936,0.042794119566679,-11.9472017288208
1.7294960663286607e+18,-0.05415506660938263,-0.006605923175811768,-11.854801177978516
1.7294960663346609e+18,-0.020390275865793228,0.07588372379541397,-11.856003761291504
1.729496066343661e+18,-0.026792803779244423,-0.019199522212147713,-11.856586456298828
1.7294960663526612e+18,-0.052747491747140884,-0.018616389483213425,-11.739370346069336
1.7294960663586614e+18,-0.05454089865088463,-0.080561563372612,-11.661011695861816
1.7294960663676616e+18,0.025584440678358078,0.02969730645418167,-11.70108699798584
1.7294960663766618e+18,-0.06400155276060104,-0.06966811418533325,-11.618279457092285
1.729496066385662e+18,-0.029365243390202522,0.04528786614537239,-11.658950805664062
1.7294960663946621e+18,-0.026438575237989426,0.06070207804441452,-11.525683403015137
1.7294960664036623e+18,0.02058561146259308,0.035440657287836075,-11.554193496704102
1.7294960664096625e+18,-0.002640416845679283,0.007840997539460659,-11.564248085021973
1.7294960664186627e+18,0.030842013657093048,-0.004043938126415014,-11.47192096710205
1.7294960664276628e+18,0.022353339940309525,-0.04929595813155174,-11.493806838989258
1.729496066433663e+18,-0.06257621198892593,0.009279466234147549,-11.349026679992676
1.7294960664426632e+18,0.01568286493420601,-0.08837990462779999,-11.367204666137695
1.7294960664516634e+18,-0.0016204561106860638,0.015356636606156826,-11.343160629272461
1.7294960664576635e+18,-0.03795121982693672,0.0047918567433953285,-11.415458679199219
1.7294960664666637e+18,0.0044516813941299915,0.02853410877287388,-11.250405311584473
1.7294960664726638e+18,-0.01596222259104252,-0.03015846014022827,-11.216694831848145
1.729496066484664e+18,-0.01631542667746544,-0.08997827023267746,-11.221229553222656
1.7294960664936643e+18,0.05453977361321449,-0.009495051577687263,-11.257538795471191
1.7294960665026644e+18,0.038369495421648026,-0.06656485050916672,-11.197613716125488
1.7294960665116646e+18,0.04674377664923668,-0.012443060986697674,-11.175341606140137
1.7294960665176648e+18,-0.016827335581183434,0.029320931062102318,-11.092535018920898
1.729496066526665e+18,-0.011987028643488884,-0.01026760321110487,-11.104682922363281
1.729496066532665e+18,0.061456725001335144,0.038784466683864594,-11.114082336425781
1.7294960665416653e+18,0.03517189621925354,-0.016850927844643593,-11.009509086608887
1.7294960665506655e+18,-0.0415794737637043,0.07058808952569962,-11.080414772033691
1.7294960665566656e+18,-0.015355419367551804,0.019046850502490997,-11.025740623474121
1.7294960665656658e+18,0.0021640805061906576,0.002078420715406537,-10.854679107666016
1.729496066574666e+18,0.04825618490576744,-0.03974564000964165,-10.90380573272705
1.729496066580666e+18,0.008393099531531334,0.023155413568019867,-10.954740524291992
1.7294960665896663e+18,-0.03794251009821892,-0.044754758477211,-10.909820556640625
1.7294960665956664e+18,-0.038732707500457764,0.04314447566866875,-10.921462059020996
1.7294960666046666e+18,-0.033352840691804886,0.02131175436079502,-10.835587501525879
1.7294960666106668e+18,0.009188937954604626,-0.025735504925251007,-10.872426986694336
1.729496066619667e+18,-0.0576435923576355,0.014924291521310806,-10.93001651763916
1.7294960666286671e+18,0.009355474263429642,0.12140639871358871,-10.784475326538086
1.7294960666346673e+18,0.004909318406134844,0.025056861340999603,-10.806928634643555
1.7294960666436675e+18,0.006953093688935041,-0.007454228587448597,-10.737576484680176
1.7294960666496676e+18,0.013630963861942291,-0.06993742287158966,-10.759252548217773
1.7294960666586678e+18,-0.08436288684606552,0.013121843338012695,-10.772183418273926
1.729496066664668e+18,0.05095265433192253,-0.09623841196298599,-10.703370094299316
1.7294960666766682e+18,-0.08074791729450226,-0.01378743164241314,-10.632728576660156
1.7294960666826683e+18,-0.027146166190505028,0.021004609763622284,-10.73060131072998
1.7294960666916685e+18,-0.02373969927430153,0.033676669001579285,-10.685314178466797
1.7294960667006687e+18,0.08481074124574661,-0.029958002269268036,-10.5580415725708
1.7294960667096689e+18,0.09966104477643967,-0.0314541831612587,-10.679293632507324
1.729496066715669e+18,-0.0037113118451088667,-0.04989510029554367,-10.593303680419922
1.7294960667246692e+18,-0.030884945765137672,0.008375564590096474,-10.582280158996582
1.7294960667306693e+18,0.02300204709172249,-0.0136024821549654,-10.589585304260254
1.7294960667396695e+18,0.036622513085603714,0.058746349066495895,-10.634614944458008
1.7294960667486697e+18,-0.0015099374577403069,-0.05263764411211014,-10.527091026306152
1.7294960667546698e+18,-0.026135636493563652,0.046631742268800735,-10.468367576599121
1.72949606676367e+18,-0.02690638229250908,0.009399200789630413,-10.500226020812988
1.7294960667726702e+18,0.028321683406829834,-0.05773515626788139,-10.487984657287598
1.7294960667786703e+18,0.02766619250178337,-0.028008274734020233,-10.55079174041748
1.7294960667876705e+18,0.05538763105869293,-0.00391427194699645,-10.52818775177002
1.7294960667966707e+18,0.021054286509752274,0.006945725064724684,-10.490842819213867
1.729496066805671e+18,0.026317009702324867,-0.018573423847556114,-10.520014762878418
1.729496066811671e+18,-0.06295060366392136,0.06392086297273636,-10.453060150146484
1.7294960668206712e+18,0.0078009506687521935,0.010976812802255154,-10.417414665222168
1.7294960668296714e+18,-0.03933178633451462,0.012352826073765755,-10.356378555297852
1.7294960668356716e+18,0.022522160783410072,0.031323254108428955,-10.397432327270508
1.7294960668446717e+18,0.02585086040198803,0.02017492800951004,-10.372580528259277
1.7294960668506719e+18,-0.00873971451073885,0.02699405886232853,-10.355428695678711
1.729496066859672e+18,0.026896528899669647,0.03494591638445854,-10.438522338867188
1.7294960668656722e+18,-0.010701135732233524,0.017533795908093452,-10.355691909790039
1.7294960668746724e+18,0.0440814234316349,0.00449327239766717,-10.380486488342285
1.7294960668806725e+18,0.009857363067567348,-0.05300236865878105,-10.339860916137695
1.7294960668896727e+18,0.08941734582185745,0.01820392720401287,-10.327494621276855
1.729496066898673e+18,0.007844527252018452,-0.0217044185847044,-10.293837547302246
1.729496066904673e+18,-0.03480440005660057,0.04212753102183342,-10.2039213180542
1.7294960669136732e+18,0.053366564214229584,-0.07450860738754272,-10.343133926391602
1.7294960669226734e+18,-0.0004905472742393613,-0.02279362641274929,-10.289066314697266
1.7294960669286735e+18,0.02244592271745205,0.005785242188721895,-10.24147891998291
1.7294960669436739e+18,0.03048512153327465,-0.05958728864789009,-10.204581260681152
1.729496066952674e+18,-0.05046287551522255,0.010354799218475819,-10.1923828125
1.7294960669616742e+18,0.0035704681649804115,-0.017790384590625763,-10.147697448730469
1.7294960669706744e+18,0.03490748256444931,0.007743862923234701,-10.25644302368164
1.7294960669796746e+18,0.006943938788026571,0.09232611209154129,-10.198905944824219
1.7294960669856748e+18,-0.06740770488977432,-0.041829172521829605,-10.148104667663574
1.729496066994675e+18,0.023762831464409828,-0.01002574060112238,-10.139718055725098
1.7294960670036751e+18,-0.015620018355548382,-0.0014467139262706041,-10.131843566894531
1.7294960670126753e+18,0.03991079702973366,-0.011552082374691963,-10.121678352355957
1.7294960670216755e+18,-0.009942293167114258,0.047213006764650345,-10.177972793579102
1.7294960670276756e+18,0.009893262758851051,0.010392235592007637,-10.119945526123047
1.7294960670366758e+18,-0.0360211543738842,-0.018893564119935036,-10.093012809753418
1.729496067045676e+18,0.029887164011597633,-0.12181110680103302,-10.056597709655762
1.7294960670546762e+18,0.07081856578588486,-0.01686716452240944,-10.116662979125977
1.7294960670606764e+18,-0.01198429986834526,0.01679873652756214,-10.147225379943848
1.7294960670696765e+18,-0.029338523745536804,0.024650277569890022,-10.085805892944336
1.7294960670786767e+18,-0.012003843672573566,-0.034483615309000015,-10.112693786621094
1.729496067087677e+18,-0.05115901306271553,0.03298654779791832,-10.09935474395752
1.729496067096677e+18,0.08258315920829773,-0.0015510147204622626,-10.045544624328613
1.7294960671026772e+18,0.017321161925792694,0.040147677063941956,-10.063218116760254
1.7294960671116774e+18,0.0520486943423748,0.00643781665712595,-10.040579795837402
1.7294960671206776e+18,-0.01462949812412262,-0.009871698915958405,-10.02940559387207
1.7294960671266778e+18,-0.01055749412626028,-0.0007652701460756361,-9.988730430603027
1.729496067135678e+18,-0.0721830353140831,0.02417607605457306,-10.00186538696289
1.7294960671446781e+18,0.018400877714157104,-0.014863545075058937,-10.073396682739258
1.7294960671536783e+18,-0.1013091504573822,-0.05446114018559456,-10.033334732055664
1.7294960671596785e+18,0.010518906638026237,0.03633098304271698,-9.998031616210938
1.7294960671686787e+18,-0.03683590888977051,0.05257198214530945,-9.982535362243652
1.7294960671776788e+18,0.03593550622463226,-0.009078933857381344,-10.040657997131348
1.729496067183679e+18,0.007897074334323406,-0.000810830038972199,-9.952106475830078
1.7294960671926792e+18,0.02264188975095749,0.0829494372010231,-9.939529418945312
1.7294960672016794e+18,0.036601610481739044,-0.03748299926519394,-9.954742431640625
1.7294960672076795e+18,0.03150002658367157,0.14616569876670837,-10.013216972351074
1.7294960672166797e+18,-0.05054057389497757,0.06767848879098892,-9.966967582702637
1.72949606722568e+18,-0.00142251281067729,-0.05269676074385643,-9.916855812072754
1.72949606723468e+18,-0.035531021654605865,-0.001814810442738235,-9.944112777709961
1.7294960672406802e+18,-0.017656251788139343,-0.004920193925499916,-9.962244987487793
1.7294960672496804e+18,-0.06601394712924957,-0.04784979671239853,-9.902105331420898
1.7294960672586806e+18,-0.03381944075226784,0.021035941317677498,-9.924891471862793
1.7294960672676808e+18,0.004469466395676136,-0.09381967782974243,-9.948416709899902
1.729496067276681e+18,0.0033448701724410057,-0.04623417556285858,-9.899332046508789
1.729496067282681e+18,0.03168827295303345,0.016229402273893356,-9.94367790222168
1.7294960672916813e+18,-0.012750096619129181,0.0312524139881134,-9.905479431152344
1.7294960673006815e+18,-0.04268113896250725,-0.009835369884967804,-9.909834861755371
1.7294960673066816e+18,-0.013035154901444912,0.037754617631435394,-9.920114517211914
1.7294960673156818e+18,0.008976266719400883,0.009195828810334206,-9.948799133300781
1.729496067324682e+18,-0.01610928773880005,0.0008054936770349741,-9.927230834960938
1.729496067330682e+18,0.056313954293727875,-0.03059263527393341,-9.89838981628418
1.7294960673396823e+18,-0.051598697900772095,0.06419649720191956,-9.881326675415039
1.7294960673486825e+18,-0.009014486335217953,0.03244457393884659,-9.88988971710205
1.7294960673546826e+18,-0.024859275668859482,-0.02476460672914982,-9.942703247070312
1.7294960673636828e+18,0.004730550106614828,-0.02257741615176201,-9.916617393493652
1.729496067375683e+18,-0.014388026669621468,-0.0699351355433464,-9.819515228271484
1.7294960673816832e+18,0.022441431879997253,-0.02425166219472885,-9.865335464477539
1.7294960673906834e+18,0.0033806422725319862,-0.06830044090747833,-9.847796440124512
1.7294960673996836e+18,-0.05212394520640373,0.048264142125844955,-9.838927268981934
1.7294960674056837e+18,0.03966372087597847,-0.0667559951543808,-9.861193656921387
1.729496067414684e+18,-0.008047183975577354,0.06618333607912064,-9.842583656311035
1.729496067420684e+18,0.06341507285833359,-0.0004007683601230383,-9.857773780822754
1.7294960674296842e+18,0.07758090645074844,-0.04044273868203163,-9.863753318786621
1.7294960674386844e+18,-0.08195391297340393,0.060441531240940094,-9.82401180267334
1.7294960674476846e+18,-0.012417932972311974,0.06314996629953384,-9.839895248413086
1.7294960674566848e+18,-0.0036707338877022266,-0.0271608829498291,-9.793136596679688
1.729496067462685e+18,0.06646763533353806,0.011473609134554863,-9.788477897644043
1.729496067471685e+18,0.07772143930196762,0.06392931938171387,-9.822150230407715
1.7294960674806853e+18,-0.022692397236824036,0.012873503379523754,-9.794463157653809
1.7294960674866854e+18,-0.10410857200622559,-0.04154001176357269,-9.81792163848877
1.7294960674956856e+18,0.012217573821544647,-0.03423929959535599,-9.805301666259766
1.7294960675046858e+18,0.008969497866928577,0.012260965071618557,-9.879673957824707
1.729496067510686e+18,0.06560196727514267,0.01377122849225998,-9.814742088317871
1.7294960675196861e+18,0.04833775386214256,-0.029303671792149544,-9.810585021972656
1.7294960675286863e+18,-0.021626250818371773,0.03136938437819481,-9.808228492736816
1.7294960675376865e+18,0.03918857127428055,0.014003180898725986,-9.837813377380371
1.7294960675436867e+18,-0.03715145215392113,-0.005445574410259724,-9.76716136932373
1.7294960675526868e+18,-0.04010367393493652,-0.039184555411338806,-9.748109817504883
1.729496067558687e+18,-0.042038701474666595,-0.021001756191253662,-9.705303192138672
1.7294960675676872e+18,0.01782701537013054,-0.04687207564711571,-9.67739486694336
1.7294960675766874e+18,0.0013978952774778008,-0.0275766272097826,-9.726293563842773
1.7294960675856876e+18,-0.0278945155441761,0.07074412703514099,-9.706279754638672
1.7294960675916877e+18,0.03752279654145241,-0.009189272299408913,-9.783339500427246
1.7294960676006879e+18,-0.01291176863014698,0.020593147724866867,-9.767219543457031
1.729496067609688e+18,-0.014652450568974018,0.02449447475373745,-9.779151916503906
1.7294960676156882e+18,0.021126380190253258,0.0155650544911623,-9.774394989013672
1.7294960676246884e+18,-0.0030509824864566326,0.014520780183374882,-9.753955841064453
1.7294960676336886e+18,-0.0004079914651811123,0.020109158009290695,-9.832984924316406
1.7294960676396887e+18,0.019703228026628494,0.005407208111137152,-9.80630874633789
1.729496067648689e+18,0.00485797505825758,0.0006353201461024582,-9.822032928466797
1.729496067657689e+18,-0.009075317531824112,-0.0005049086757935584,-9.799203872680664
1.7294960676666893e+18,0.019968761131167412,0.08584354817867279,-9.799074172973633
1.7294960676726894e+18,-0.05629933625459671,-0.02970327064394951,-9.754950523376465
1.7294960676816896e+18,0.05207081139087677,0.021554240956902504,-9.790907859802246
1.7294960676876897e+18,0.035226862877607346,-0.021847384050488472,-9.82755184173584
1.72949606769669e+18,-0.04092724621295929,-0.04298974573612213,-9.741043090820312
1.72949606770269e+18,0.03305225819349289,-0.08367784321308136,-9.81987476348877
1.7294960677116902e+18,-0.01666628196835518,-0.038344062864780426,-9.742452621459961
1.7294960677206904e+18,-0.009992478415369987,0.009635861031711102,-9.746888160705566
1.7294960677296906e+18,-0.0006848571938462555,-0.10206451267004013,-9.819330215454102
1.7294960677356908e+18,0.027449117973446846,0.01794298179447651,-9.729267120361328
1.729496067744691e+18,0.03021416999399662,0.027328645810484886,-9.689957618713379
1.7294960677566912e+18,0.0007219827966764569,-0.001406536321155727,-9.704439163208008
1.7294960677626913e+18,-0.07458372414112091,-0.033352237194776535,-9.739246368408203
1.7294960677716915e+18,0.022118566557765007,0.03129695728421211,-9.70877456665039
1.7294960677806917e+18,-0.009526657871901989,0.07751744240522385,-9.810453414916992
1.729496067792692e+18,-0.02573620155453682,0.040755655616521835,-9.711666107177734
1.7294960678016922e+18,-0.009585869498550892,0.0638788565993309,-9.758578300476074
1.7294960678106924e+18,0.028525151312351227,0.016419667750597,-9.73413372039795
1.7294960678196925e+18,-0.02108067460358143,-0.0212247371673584,-9.679577827453613
1.7294960678286927e+18,-0.067781463265419,-0.05100608617067337,-9.62038803100586
1.7294960678346929e+18,0.04879124462604523,0.010648214258253574,-9.698413848876953
1.729496067843693e+18,0.03005490079522133,0.01748494990170002,-9.754743576049805
1.7294960678496932e+18,-0.0611371211707592,-0.024264762178063393,-9.784029006958008
1.7294960678586934e+18,-0.022153504192829132,-0.044811684638261795,-9.753710746765137
1.7294960678676936e+18,0.03074677661061287,0.009496486745774746,-9.787107467651367
1.7294960678736937e+18,0.01647164113819599,-0.003537800395861268,-9.776196479797363
1.729496067882694e+18,-0.05382605642080307,0.0394861176609993,-9.798567771911621
1.729496067888694e+18,0.02345196343958378,-0.00465797632932663,-9.797565460205078
1.7294960678976942e+18,0.03467932343482971,-0.07839538156986237,-9.892642974853516
1.7294960679066944e+18,0.058157771825790405,0.016862448304891586,-9.820584297180176
1.7294960679156946e+18,0.006003448739647865,-0.012411586940288544,-9.877253532409668
1.7294960679216947e+18,0.015427936799824238,0.00023479433730244637,-9.859811782836914
1.729496067930695e+18,0.03338782861828804,-0.05273851752281189,-9.957247734069824
1.729496067939695e+18,0.031506914645433426,-0.028341280296444893,-9.805272102355957
1.7294960679456952e+18,0.051286738365888596,-0.0061095887795090675,-9.782238960266113
1.7294960679546954e+18,0.03104131668806076,0.04483473300933838,-9.790475845336914
1.7294960679636956e+18,-0.04795759916305542,-0.05421396344900131,-9.801569938659668
1.7294960679726958e+18,0.015191213227808475,0.06082018464803696,-9.824872016906738
1.729496067981696e+18,0.07944761961698532,-0.00035813249996863306,-9.769518852233887
1.7294960679906962e+18,-0.05882580950856209,0.07018274813890457,-9.757142066955566
1.7294960679996964e+18,0.0011622786987572908,-0.02478323131799698,-9.854439735412598
1.7294960680086966e+18,-0.02389264665544033,-0.05669242516160011,-9.715940475463867
1.7294960680176968e+18,-0.02488788031041622,0.04617612063884735,-9.821086883544922
1.729496068023697e+18,0.016174672171473503,0.044710662215948105,-9.768775939941406
1.729496068032697e+18,-0.01983707956969738,-0.026560025289654732,-9.736979484558105
1.7294960680416973e+18,-0.007910018786787987,0.08973845094442368,-9.737146377563477
1.7294960680506975e+18,-0.0790398046374321,0.05400903895497322,-9.82995891571045
1.7294960680596977e+18,-0.009743559174239635,-0.03656359016895294,-9.789518356323242
1.7294960680686979e+18,-0.003536357544362545,-0.017325878143310547,-9.738908767700195
1.729496068077698e+18,-0.006445019505918026,-0.0068533774465322495,-9.758779525756836
1.7294960680866982e+18,-0.03455154225230217,-0.070633165538311,-9.72365665435791
1.7294960680956984e+18,0.04074859991669655,0.06417236477136612,-9.759886741638184
1.7294960681046986e+18,-0.008871578611433506,-0.01321767084300518,-9.797774314880371
1.7294960681136988e+18,-0.0027482437435537577,-0.026608312502503395,-9.77348518371582
1.729496068119699e+18,0.007210937794297934,0.03450360149145126,-9.743666648864746
1.7294960681286991e+18,-0.038496628403663635,-0.011027499102056026,-9.841846466064453
1.7294960681376993e+18,0.006183234043419361,-0.018033843487501144,-9.785114288330078
1.7294960681496996e+18,-0.054425910115242004,0.011419987305998802,-9.773884773254395
1.7294960681586998e+18,-0.029841456562280655,0.0010632546618580818,-9.78108024597168
1.7294960681677e+18,-0.01841871440410614,0.08834418654441833,-9.7499418258667
1.7294960681767002e+18,-0.041974689811468124,0.016312619671225548,-9.698447227478027
1.7294960681857004e+18,0.05085054785013199,0.002705807564780116,-9.681476593017578
1.7294960681947005e+18,0.13412727415561676,0.011885660700500011,-9.719603538513184
1.7294960682037007e+18,-0.02126293256878853,-0.0086292689666152,-9.727787971496582
1.7294960682097009e+18,-0.0678541511297226,-0.03644152358174324,-9.731164932250977
1.729496068218701e+18,0.044394105672836304,-0.060646507889032364,-9.718273162841797
1.7294960682247012e+18,0.08485142141580582,-0.06043777987360954,-9.69688892364502
1.7294960682337014e+18,0.02437591552734375,0.005326259881258011,-9.63684368133545
1.7294960682397015e+18,-0.02209368161857128,-0.03124229796230793,-9.658173561096191
1.7294960682487017e+18,-0.010237623006105423,0.005973198916763067,-9.771707534790039
1.729496068257702e+18,-0.05101604759693146,0.0091042909771204,-9.780200004577637
1.729496068263702e+18,-0.04415854066610336,0.08005627989768982,-9.815376281738281
1.7294960682727022e+18,-0.06890491396188736,0.005987879820168018,-9.749405860900879
1.7294960682817024e+18,-0.09587410092353821,0.07571836560964584,-9.67841625213623
1.7294960682877025e+18,0.04474842548370361,-0.016516953706741333,-9.76758861541748
1.7294960682967027e+18,0.0007051333086565137,-0.05923926457762718,-9.771428108215332
1.729496068305703e+18,0.03595148026943207,0.09041191637516022,-9.730430603027344
1.729496068314703e+18,0.05316198244690895,-0.03510443866252899,-9.7871675491333
1.7294960683237033e+18,-0.015610478818416595,0.003056758549064398,-9.69870376586914
1.7294960683297034e+18,-0.0012748620938509703,0.12501713633537292,-9.596441268920898
1.7294960683387036e+18,0.10592334717512131,-0.05823901668190956,-9.752812385559082
1.7294960683447037e+18,0.023063188418745995,0.0046676285564899445,-9.721885681152344
1.729496068353704e+18,0.05066798999905586,-0.009535370394587517,-9.794278144836426
1.7294960683627041e+18,-0.008907568641006947,-0.03691515326499939,-9.684491157531738
1.7294960683687043e+18,-0.06222769245505333,-0.006099623627960682,-9.696337699890137
1.7294960683777044e+18,-0.05906150862574577,0.0327439047396183,-9.67247486114502
1.7294960683867046e+18,-0.07442059367895126,-0.018865510821342468,-9.805607795715332
1.7294960683927048e+18,0.002706215949729085,0.009486175142228603,-9.764272689819336
1.729496068401705e+18,-0.07405099272727966,-0.001687900978140533,-9.783447265625
1.729496068407705e+18,-0.040498584508895874,-0.09014897793531418,-9.690300941467285
1.7294960684167053e+18,0.0340522937476635,0.03897419199347496,-9.714436531066895
1.7294960684257055e+18,-0.03310048580169678,0.003125191666185856,-9.732114791870117
1.7294960684317056e+18,0.014984304085373878,-0.005359293892979622,-9.702436447143555
1.7294960684407058e+18,-0.020348085090517998,0.01907050423324108,-9.685579299926758
1.729496068449706e+18,-0.02913355827331543,-0.05349801108241081,-9.762531280517578
1.729496068455706e+18,0.08628921210765839,0.026902178302407265,-9.709066390991211
1.7294960684647063e+18,0.06373459845781326,0.011824985966086388,-9.707488059997559
1.7294960684707064e+18,-0.0012643751688301563,0.07576599717140198,-9.688615798950195
1.7294960684797066e+18,-0.045115746557712555,0.02354271337389946,-9.742178916931152
1.7294960684887068e+18,0.03764282912015915,0.04339253902435303,-9.776368141174316
1.729496068494707e+18,0.019831283017992973,0.016819193959236145,-9.803969383239746
1.7294960685037071e+18,-0.07116908580064774,0.03407292068004608,-9.784201622009277
1.7294960685127073e+18,-0.0173885989934206,0.0775688886642456,-9.719968795776367
1.7294960685187075e+18,0.06725464761257172,-0.018173005431890488,-9.73807144165039
1.7294960685277076e+18,-0.04612315818667412,-0.006442616693675518,-9.767021179199219
1.7294960685367078e+18,0.07184970378875732,0.03093607909977436,-9.75838851928711
1.729496068542708e+18,0.017267800867557526,0.017660394310951233,-9.684929847717285
1.7294960685517082e+18,0.050888147205114365,0.0366632454097271,-9.785245895385742
1.7294960685577083e+18,0.054638076573610306,0.035706304013729095,-9.781092643737793
1.7294960685667085e+18,0.01602819375693798,0.014899681322276592,-9.701005935668945
1.7294960685757087e+18,-0.023518305271863937,-0.011094995774328709,-9.725129127502441
1.7294960685817088e+18,-0.01189359650015831,-0.021795276552438736,-9.771042823791504
1.729496068590709e+18,-0.029573198407888412,0.05183020606637001,-9.754049301147461
1.7294960685997092e+18,-0.10716380178928375,-0.0006010620854794979,-9.798151016235352
1.7294960686087094e+18,-0.037731219083070755,-0.06116902455687523,-9.762649536132812
1.7294960686147095e+18,-0.0880548283457756,-0.07889798283576965,-9.758410453796387
1.7294960686237097e+18,-0.0077485195361077785,-0.023566074669361115,-9.79203987121582
1.72949606863271e+18,-0.08572608232498169,-0.0259307362139225,-9.770230293273926
1.72949606863871e+18,0.10741468518972397,0.004292933735996485,-9.697314262390137
1.7294960686477102e+18,-0.0041883885860443115,0.006020961329340935,-9.732093811035156
1.7294960686567104e+18,0.0342535600066185,0.07089097052812576,-9.713289260864258
1.7294960686627105e+18,-0.02267603948712349,-0.04394787177443504,-9.73235034942627
1.7294960686717107e+18,-0.03798719495534897,-0.02237103506922722,-9.766807556152344
1.729496068680711e+18,0.02207382768392563,0.07320134341716766,-9.737826347351074
1.729496068686711e+18,0.03727461397647858,0.03526869788765907,-9.753453254699707
1.7294960686957112e+18,0.0442085787653923,0.008329703472554684,-9.783028602600098
1.7294960687047114e+18,-0.06911929696798325,0.015592442825436592,-9.767112731933594
1.7294960687137116e+18,0.0031409889925271273,0.011787050403654575,-9.717972755432129
1.7294960687197117e+18,-0.072743259370327,0.07022389769554138,-9.754499435424805
1.729496068728712e+18,0.008140705525875092,-0.01778971403837204,-9.785243034362793
1.729496068734712e+18,-0.030685849487781525,0.026905730366706848,-9.680362701416016
1.7294960687437123e+18,0.0007596791256219149,0.022838721051812172,-9.715166091918945
1.7294960687527124e+18,-0.053942810744047165,-0.014212911948561668,-9.77165412902832
1.7294960687587126e+18,0.04157350957393646,0.03934762626886368,-9.695079803466797
1.7294960687677128e+18,-0.05875229090452194,-0.03373134136199951,-9.738577842712402
1.729496068776713e+18,0.012560173869132996,-0.027912838384509087,-9.78215503692627
1.7294960687857132e+18,-0.026892224326729774,0.030179960653185844,-9.734770774841309
1.7294960687947133e+18,0.045784175395965576,0.03235200420022011,-9.72342586517334
1.7294960688037135e+18,-0.028237810358405113,-0.018889162689447403,-9.793986320495605
1.7294960688097137e+18,-0.05759182199835777,-0.04100815951824188,-9.75068473815918
1.7294960688187139e+18,-0.053917232900857925,0.0179421566426754,-9.74145221710205
1.729496068827714e+18,-0.0392698310315609,0.04078488424420357,-9.77946949005127
1.7294960688367142e+18,0.08142941445112228,-0.03362298756837845,-9.715953826904297
1.7294960688427144e+18,-0.03053247556090355,-0.028102606534957886,-9.762240409851074
1.7294960688517146e+18,-0.012696816585958004,-0.016396118327975273,-9.804178237915039
1.7294960688607148e+18,0.011655634269118309,0.028034325689077377,-9.756121635437012
1.729496068869715e+18,-0.0015184113290160894,-0.03871069476008415,-9.831887245178223
1.729496068875715e+18,-0.006344888359308243,0.01369620580226183,-9.720348358154297
1.7294960688847153e+18,-0.040636658668518066,0.006989721674472094,-9.714244842529297
1.7294960688937155e+18,0.00012198824697406963,-0.07977867126464844,-9.775749206542969
1.7294960688997156e+18,0.02955186739563942,0.011011545546352863,-9.733911514282227
1.7294960689087158e+18,-0.0650421604514122,0.009566566906869411,-9.806512832641602
1.729496068914716e+18,0.0333411879837513,0.007464621681720018,-9.759753227233887
1.729496068923716e+18,-0.06759492307901382,0.010143261402845383,-9.669809341430664
1.7294960689327163e+18,-0.0016915886662900448,-0.028132956475019455,-9.726751327514648
1.7294960689417165e+18,-0.03749822825193405,0.04229194298386574,-9.71254825592041
1.7294960689477166e+18,-0.08922979235649109,0.05302421748638153,-9.682718276977539
1.7294960689567168e+18,0.019193731248378754,0.024615800008177757,-9.746977806091309
1.729496068965717e+18,0.07851984351873398,0.022130712866783142,-9.775792121887207
1.729496068971717e+18,-0.01092845480889082,-0.04566732048988342,-9.812149047851562
1.7294960689807173e+18,-0.006522197276353836,-0.006288069300353527,-9.746147155761719
1.7294960689867174e+18,-0.021463435143232346,0.045369792729616165,-9.73589038848877
1.7294960689957176e+18,0.04951253905892372,-0.037159666419029236,-9.771977424621582
1.7294960690047178e+18,-0.0004900495405308902,-0.01655256748199463,-9.813384056091309
1.729496069010718e+18,-0.029321124777197838,0.02887081168591976,-9.664712905883789
1.7294960690197181e+18,0.01807309500873089,-0.020229587331414223,-9.752761840820312
1.7294960690257183e+18,-0.04431162402033806,0.015798665583133698,-9.79898738861084
1.7294960690347185e+18,-0.03981959447264671,0.039845164865255356,-9.754735946655273
1.7294960690407186e+18,0.000970369263086468,0.00032516170176677406,-9.746018409729004
1.7294960690497188e+18,0.029724812135100365,-0.030069921165704727,-9.761463165283203
1.729496069055719e+18,0.009061235934495926,-0.0028151539154350758,-9.743844985961914
1.729496069064719e+18,-0.0391111746430397,-0.058518897742033005,-9.820755004882812
1.7294960690737193e+18,-0.021191168576478958,0.03903185576200485,-9.763594627380371
1.7294960690827195e+18,-0.0016779120778664947,-0.007162529043853283,-9.659041404724121
1.7294960690917197e+18,-0.0167585089802742,-0.04217508062720299,-9.771286010742188
1.7294960690977198e+18,0.027885479852557182,0.02513970620930195,-9.682352066040039
1.72949606910672e+18,0.01636137068271637,0.036106232553720474,-9.780402183532715
1.7294960691157202e+18,-0.0022477491293102503,-0.024583177641034126,-9.734382629394531
1.7294960691217203e+18,0.038945939391851425,-0.02855195291340351,-9.817296028137207
1.7294960691307205e+18,0.0948520377278328,-0.017832249402999878,-9.74977970123291
1.7294960691367206e+18,0.005043013487011194,-0.030753243714571,-9.770546913146973
1.7294960691457208e+18,0.018544672057032585,0.04690136760473251,-9.765421867370605
1.729496069154721e+18,-0.03468773141503334,-0.019473472610116005,-9.672001838684082
1.7294960691607212e+18,-0.0021446591708809137,-0.006225442513823509,-9.70945930480957
1.7294960691697213e+18,-0.019103821367025375,0.04524596408009529,-9.73869800567627
1.7294960691787215e+18,0.007030301261693239,0.028175024315714836,-9.759392738342285
1.7294960691877217e+18,0.0025414330884814262,-0.008515937253832817,-9.771635055541992
1.7294960691937219e+18,-0.0836404487490654,-0.06438945978879929,-9.776684761047363
1.729496069202722e+18,-0.026016509160399437,0.00667952373623848,-9.82014274597168
1.7294960692087222e+18,0.03164727985858917,0.05098540335893631,-9.724061012268066
1.7294960692177224e+18,-0.002272586803883314,0.10842279344797134,-9.77878189086914
1.7294960692237225e+18,-0.055168069899082184,0.022443322464823723,-9.805169105529785
1.7294960692327227e+18,0.03122030571103096,0.03329858556389809,-9.70605182647705
1.729496069241723e+18,-0.024968033656477928,0.04027825593948364,-9.815372467041016
1.729496069247723e+18,0.019274136051535606,-0.06035678833723068,-9.7522611618042
1.7294960692567232e+18,-0.03770586475729942,0.024141905829310417,-9.712994575500488
1.7294960692657234e+18,-0.06004681810736656,-0.009254546836018562,-9.820588111877441
1.7294960692717235e+18,0.02115284465253353,0.036860764026641846,-9.70610523223877
1.7294960692807237e+18,-0.019903725013136864,-0.06609105318784714,-9.784071922302246
1.729496069289724e+18,0.007779387291520834,0.0021746824495494366,-9.67155647277832
1.729496069298724e+18,-0.07585758715867996,-0.04077834263443947,-9.830585479736328
1.7294960693047242e+18,0.051894232630729675,-0.027985289692878723,-9.741363525390625
1.7294960693137244e+18,-0.08140578866004944,0.020828301087021828,-9.82983112335205
1.7294960693197245e+18,0.01777777262032032,-0.03655259311199188,-9.781304359436035
1.7294960693317248e+18,0.08837917447090149,0.05320664867758751,-9.784777641296387
1.729496069340725e+18,0.0789479985833168,-0.06361385434865952,-9.81989574432373
1.7294960693497252e+18,0.06155481934547424,0.008589520119130611,-9.78750991821289
1.7294960693557253e+18,-0.007456131279468536,0.00550746638327837,-9.763864517211914
1.7294960693647255e+18,0.05555234104394913,-0.04251881316304207,-9.770939826965332
1.7294960693737257e+18,-0.01695069670677185,-0.0460330955684185,-9.693256378173828
1.7294960693797258e+18,0.025787880644202232,-0.033607203513383865,-9.717073440551758
1.729496069388726e+18,0.02181343547999859,-0.031855374574661255,-9.770644187927246
1.7294960693977262e+18,-0.03350590541958809,0.042323339730501175,-9.737740516662598
1.7294960694067264e+18,0.018726298585534096,0.07903234660625458,-9.858512878417969
1.7294960694157266e+18,-0.04570068046450615,-0.05343562737107277,-9.81666374206543
1.7294960694217267e+18,0.041895732283592224,-0.08383748680353165,-9.766132354736328
1.729496069430727e+18,-0.0013108522398397326,0.08996757119894028,-9.755112648010254
1.729496069439727e+18,0.015103904530405998,0.01571458950638771,-9.790009498596191
1.7294960694487273e+18,0.07052605599164963,-0.08119677007198334,-9.813773155212402
1.7294960694577275e+18,0.031207261607050896,0.01801239512860775,-9.76944351196289
1.7294960694667277e+18,-0.060657136142253876,0.021997863426804543,-9.78636360168457
1.729496069475728e+18,0.07638125121593475,0.056650858372449875,-9.753788948059082
1.729496069484728e+18,-0.03586660698056221,0.022915778681635857,-9.789300918579102
1.7294960694937283e+18,-0.10069279372692108,0.018475981429219246,-9.76097583770752
1.7294960695027284e+18,0.006870592944324017,-0.01584424264729023,-9.780019760131836
1.7294960695087286e+18,-0.10872888565063477,-0.009146371856331825,-9.796029090881348
1.7294960695177288e+18,-0.020935844630002975,0.009164378046989441,-9.74697494506836
1.729496069526729e+18,0.02072164975106716,-0.02127646468579769,-9.700651168823242
1.7294960695357292e+18,0.034390874207019806,0.001268421416170895,-9.783134460449219
1.7294960695417293e+18,-0.08774102479219437,-0.028560705482959747,-9.767716407775879
1.7294960695507295e+18,-0.04566046968102455,0.02687503583729267,-9.755172729492188
1.7294960695597297e+18,0.023562515154480934,-0.013332296162843704,-9.80713939666748
1.7294960695687299e+18,0.051022399216890335,-0.034645359963178635,-9.80137825012207
1.72949606957773e+18,-0.00695893494412303,0.0241974089294672,-9.778076171875
1.7294960695867302e+18,-0.005494390148669481,0.007579791825264692,-9.83653736114502
1.7294960695957304e+18,-0.0320717953145504,0.010269740596413612,-9.735269546508789
1.7294960696047306e+18,0.04985629394650459,0.015167901292443275,-9.803070068359375
1.7294960696137308e+18,0.010920942761003971,-0.08818797022104263,-9.77570629119873
1.729496069622731e+18,0.02092006430029869,0.004821691662073135,-9.760746002197266
1.7294960696317312e+18,-0.024336986243724823,-0.05335362255573273,-9.822850227355957
1.7294960696407314e+18,0.09780196845531464,0.04364108294248581,-9.70158863067627
1.7294960696497316e+18,-0.009780053980648518,0.014275702647864819,-9.853157043457031
1.7294960696557317e+18,-0.044351473450660706,-0.056055910885334015,-9.825674057006836
1.729496069664732e+18,0.027188483625650406,-0.022737177088856697,-9.753521919250488
1.729496069673732e+18,0.025484852492809296,0.049508173018693924,-9.724987983703613
1.7294960696827323e+18,-0.025657635182142258,-0.04684152826666832,-9.76961612701416
1.7294960696917325e+18,-0.03471381589770317,-0.03730455040931702,-9.76590347290039
1.7294960697007327e+18,-0.024901801720261574,-0.004417031072080135,-9.835943222045898
1.7294960697097329e+18,-0.01576891727745533,0.1021120697259903,-9.826560974121094
1.729496069718733e+18,0.03165307268500328,-0.03671316057443619,-9.838408470153809
1.7294960697277332e+18,-0.038849812000989914,-0.03939954563975334,-9.808693885803223
1.7294960697367334e+18,-0.008443263359367847,-0.023039167746901512,-9.761313438415527
1.7294960697457336e+18,0.01365646068006754,0.04242667183279991,-9.842735290527344
1.7294960697547338e+18,0.02348233014345169,0.03364415466785431,-9.855984687805176
1.729496069763734e+18,-0.005439226049929857,-0.03394528478384018,-9.830347061157227
1.7294960697727342e+18,-0.013989323750138283,0.013403323478996754,-9.772492408752441
1.7294960697817344e+18,-0.06554722785949707,-0.07733327895402908,-9.796331405639648
1.7294960697907346e+18,0.09331696480512619,0.009687688201665878,-9.819780349731445
1.7294960697967347e+18,-0.02027728781104088,0.010856512933969498,-9.81402587890625
1.729496069805735e+18,0.021920815110206604,-0.010599697940051556,-9.71340560913086
1.729496069814735e+18,-0.04112496227025986,-0.024438651278614998,-9.791810035705566
1.7294960698237353e+18,-0.08779893070459366,-0.02710040472447872,-9.753822326660156
1.7294960698327355e+18,-0.08561744540929794,-0.004455186426639557,-9.79416275024414
1.7294960698417357e+18,-0.018427427858114243,-0.009882727637887001,-9.745844841003418
1.7294960698507359e+18,0.020674755796790123,0.023349054157733917,-9.79852294921875
1.729496069856736e+18,0.02894551493227482,-0.007380969822406769,-9.812803268432617
1.7294960698657362e+18,0.024108506739139557,0.04331054911017418,-9.799026489257812
1.7294960698747364e+18,0.006933751981705427,-0.06984163075685501,-9.783790588378906
1.7294960698837366e+18,0.017558462917804718,-0.051056914031505585,-9.801497459411621
1.7294960698927368e+18,-0.024983325973153114,0.02857046015560627,-9.845328330993652
1.729496069898737e+18,0.009407847188413143,-0.05095123499631882,-9.847658157348633
1.729496069907737e+18,-0.008818361908197403,-0.06821954995393753,-9.738646507263184
1.7294960699167373e+18,0.0008295938023366034,0.10194101929664612,-9.813909530639648
1.7294960699257375e+18,-0.030804723501205444,0.01078232191503048,-9.864603996276855
1.7294960699347377e+18,-0.014446258544921875,-0.01114439032971859,-9.765399932861328
1.7294960699437379e+18,0.011020718142390251,-0.04922401160001755,-9.815485954284668
1.729496069949738e+18,0.0067153200507164,0.040362607687711716,-9.776758193969727
1.7294960699587382e+18,0.12309326976537704,-0.007428912911564112,-9.806262969970703
1.7294960699677384e+18,-0.02537132427096367,-0.035507675260305405,-9.82722282409668
1.7294960699767386e+18,-0.12101593613624573,0.024366851896047592,-9.835993766784668
1.7294960699857388e+18,-0.01883329264819622,0.02275901660323143,-9.788084983825684
1.729496069994739e+18,-0.025368284434080124,-0.005240737460553646,-9.743233680725098
1.7294960700037391e+18,0.012759537436068058,-0.006405725609511137,-9.780874252319336
1.7294960700127393e+18,0.07270125299692154,0.06407494097948074,-9.809831619262695
1.7294960700217395e+18,-0.057149890810251236,-0.07026729732751846,-9.766839027404785
1.7294960700307397e+18,0.02324542962014675,0.010275045409798622,-9.776071548461914
1.72949607003974e+18,-0.008284252136945724,-0.05116843059659004,-9.813758850097656
1.72949607004874e+18,0.003784464905038476,-0.03341645374894142,-9.753764152526855
1.7294960700577403e+18,-0.034017935395240784,-0.0521908774971962,-9.741841316223145
1.7294960700697405e+18,-0.002683699829503894,0.055058304220438004,-9.712204933166504
1.7294960700757407e+18,0.1464288830757141,-0.02809138409793377,-9.782880783081055
1.729496070087741e+18,-0.057954028248786926,-0.06571610271930695,-9.758318901062012
1.729496070093741e+18,0.030004283413290977,-0.020701928064227104,-9.833333015441895
1.7294960701027412e+18,-0.009916768409311771,-0.01490145642310381,-9.8330078125
1.7294960701117414e+18,-0.011093376204371452,0.02373192459344864,-9.73102855682373
1.7294960701207416e+18,-0.01281128078699112,-0.038473282009363174,-9.784758567810059
1.7294960701297418e+18,0.06427547335624695,-0.01771729253232479,-9.781695365905762
1.729496070138742e+18,-0.07812892645597458,0.15238012373447418,-9.806550025939941
1.7294960701477422e+18,0.04012838006019592,-0.07134820520877838,-9.810016632080078
1.7294960701537423e+18,-0.017687534913420677,0.037741776555776596,-9.829957008361816
1.7294960701657426e+18,-0.004163662903010845,0.057809989899396896,-9.870040893554688
1.7294960701717427e+18,-0.01460626907646656,0.02708483301103115,-9.81185245513916
1.729496070180743e+18,0.011713413521647453,0.019399812445044518,-9.833901405334473
1.729496070189743e+18,0.05965384468436241,-0.03365170955657959,-9.821126937866211
1.7294960701987433e+18,0.010757102631032467,0.040434740483760834,-9.891082763671875
1.7294960702077435e+18,0.02923247404396534,-0.004914015997201204,-9.849525451660156
1.7294960702167437e+18,-0.000263296184130013,-0.13320283591747284,-9.839219093322754
1.729496070225744e+18,-0.0704948827624321,0.026333507150411606,-9.77840805053711
1.729496070234744e+18,-0.010800452902913094,-0.05825188383460045,-9.815783500671387
1.7294960702407442e+18,0.05663663521409035,-0.029589470475912094,-9.773404121398926
1.7294960702497444e+18,0.037610460072755814,-0.0016120849177241325,-9.666610717773438
1.7294960702587446e+18,0.054732322692871094,0.020951492711901665,-9.814061164855957
1.7294960702677448e+18,-0.020844466984272003,0.02264169417321682,-9.876555442810059
1.729496070276745e+18,-0.051287442445755005,-0.07138609886169434,-9.821006774902344
1.7294960702857452e+18,0.004606887698173523,-0.005553110036998987,-9.866325378417969
1.7294960702947453e+18,-0.007792353164404631,-0.002201551105827093,-9.790858268737793
1.7294960703037455e+18,-0.005060405004769564,0.015463661402463913,-9.782709121704102
1.7294960703127457e+18,0.00699961930513382,-0.04151112213730812,-9.722672462463379
1.729496070321746e+18,0.006583250127732754,-0.07910368591547012,-9.810098648071289
1.729496070330746e+18,-0.02738712914288044,0.0032361496705561876,-9.812207221984863
1.7294960703397463e+18,0.07945407927036285,-0.047346875071525574,-9.783926963806152
1.7294960703457464e+18,0.027066867798566818,0.0649355947971344,-9.800973892211914
1.7294960703547466e+18,0.0014408036367967725,-0.02917562983930111,-9.804279327392578
1.7294960703637468e+18,0.022676797583699226,-0.03852982074022293,-9.780945777893066
1.729496070372747e+18,-0.008750434033572674,-0.08438292145729065,-9.826986312866211
1.7294960703817472e+18,-0.015577711164951324,0.00025309078046120703,-9.783204078674316
1.7294960703907474e+18,-0.042128853499889374,-0.08341137319803238,-9.80161190032959
1.7294960703997476e+18,0.051261331886053085,-0.011827602982521057,-9.75696086883545
1.7294960704087478e+18,-0.026802020147442818,0.010523021221160889,-9.7847900390625
1.729496070417748e+18,0.014924324117600918,-0.03562966734170914,-9.748705863952637
1.729496070423748e+18,0.033328454941511154,0.02299484983086586,-9.831104278564453
1.7294960704357484e+18,0.01726655103266239,0.1033536046743393,-9.845961570739746
1.7294960704417485e+18,0.015292865224182606,-0.042214278131723404,-9.848044395446777
1.7294960704507487e+18,0.029633181169629097,-0.006769899278879166,-9.806756019592285
1.729496070462749e+18,-0.047401390969753265,-0.053744837641716,-9.759185791015625
1.729496070471749e+18,-0.03577005863189697,-0.005058668553829193,-9.744894981384277
1.7294960704807493e+18,0.06452029198408127,-0.052152588963508606,-9.71030330657959
1.7294960704897495e+18,0.019452713429927826,0.035523392260074615,-9.798946380615234
1.7294960704987497e+18,-0.031730204820632935,0.007741236127912998,-9.789714813232422
1.7294960705047498e+18,0.06320185959339142,-0.07523273676633835,-9.846161842346191
1.72949607051675e+18,-0.038382403552532196,0.029306476935744286,-9.803956985473633
1.7294960705257503e+18,0.031860172748565674,0.0031333966180682182,-9.879253387451172
1.7294960705347505e+18,0.0024094698019325733,-0.03926648944616318,-9.693839073181152
1.7294960705407506e+18,0.0639883354306221,-0.0018912805244326591,-9.76952838897705
1.7294960705527508e+18,-0.06135091558098793,-0.013768481090664864,-9.898136138916016
1.729496070558751e+18,0.0603332445025444,0.023312803357839584,-9.801861763000488
1.7294960705677512e+18,-0.031772684305906296,-0.0017947269370779395,-9.84363842010498
1.7294960705767514e+18,0.02510986663401127,-0.029760900884866714,-9.810803413391113
1.7294960705857516e+18,0.04517553374171257,-0.013645910657942295,-9.838827133178711
1.7294960705947517e+18,0.04711375758051872,-0.045196857303380966,-9.815943717956543
1.729496070603752e+18,0.004491059575229883,0.015490945428609848,-9.789654731750488
1.7294960706127521e+18,0.008079246617853642,0.003566622966900468,-9.753469467163086
1.7294960706217523e+18,0.03536755219101906,0.006902904715389013,-9.840731620788574
1.7294960706307525e+18,0.033431921154260635,0.04885948449373245,-9.90417766571045
1.7294960706397527e+18,-0.018752802163362503,-0.006400010548532009,-9.820626258850098
1.729496070648753e+18,0.010140927508473396,-0.06131525710225105,-9.853076934814453
1.729496070654753e+18,0.0032422575168311596,0.028966231271624565,-9.801203727722168
1.7294960706637532e+18,0.04043588042259216,0.016886906698346138,-9.675116539001465
1.7294960706727534e+18,0.05260494723916054,0.0007928756531327963,-9.757580757141113
1.7294960706817536e+18,-0.04290856793522835,0.007013607770204544,-9.846837997436523
1.7294960706877537e+18,-0.0667320191860199,-0.05210727080702782,-9.788335800170898
1.729496070696754e+18,0.013182569295167923,0.013758181594312191,-9.73745346069336
1.729496070705754e+18,-0.059731002897024155,-0.07999607920646667,-9.84192943572998
1.7294960707117542e+18,-0.03217661753296852,0.0638640820980072,-9.83840274810791
1.7294960707207544e+18,-0.086895652115345,-0.004910917021334171,-9.856654167175293
1.7294960707297546e+18,0.029673416167497635,0.02843453362584114,-9.715126991271973
1.7294960707387548e+18,-0.018540188670158386,0.05278879031538963,-9.750545501708984
1.729496070744755e+18,-0.03079524263739586,0.08214820921421051,-9.806204795837402
1.7294960707537551e+18,0.02115374058485031,0.014383398927748203,-9.847809791564941
1.7294960707597553e+18,0.029873810708522797,0.06513012945652008,-9.790632247924805
1.7294960707687555e+18,0.06301793456077576,0.0853545218706131,-9.8212251663208
1.7294960707777556e+18,0.051771871745586395,0.025355679914355278,-9.858098030090332
1.7294960707837558e+18,-0.023407673463225365,0.024656645953655243,-9.808839797973633
1.729496070792756e+18,-0.034453198313713074,0.0010277184192091227,-9.77818775177002
1.7294960708017562e+18,-0.07928813248872757,-0.00238626915961504,-9.807330131530762
1.7294960708107564e+18,-0.09192817658185959,0.06162494793534279,-9.738009452819824
1.7294960708197565e+18,0.0742800384759903,-0.03295576572418213,-9.699931144714355
1.7294960708317568e+18,-0.0030047993641346693,-0.02269013412296772,-9.842899322509766
1.729496070840757e+18,-0.007745969574898481,0.012622268870472908,-9.682658195495605
1.7294960708497572e+18,0.007052603643387556,-0.011860220693051815,-9.762141227722168
1.7294960708587574e+18,-0.039667997509241104,-0.0013587258290499449,-9.78879451751709
1.7294960708707576e+18,0.06214292347431183,-0.09818537533283234,-9.824382781982422
1.7294960708797578e+18,-0.02264293283224106,0.029767071828246117,-9.824963569641113
1.729496070891758e+18,0.03608483821153641,-0.029076309874653816,-9.825340270996094
1.7294960709007583e+18,-0.014670870266854763,-0.013482482172548771,-9.80160903930664
1.7294960709097585e+18,-0.005770106799900532,0.06002568081021309,-9.776721954345703
1.7294960709217587e+18,0.03333324193954468,0.04891107976436615,-9.801274299621582
1.729496070930759e+18,0.03799505904316902,0.038850605487823486,-9.823290824890137
1.7294960709427592e+18,-0.07442161440849304,-0.00039945123717188835,-9.790070533752441
1.7294960709517594e+18,0.002476406516507268,0.06108628585934639,-9.874407768249512
1.7294960709607596e+18,0.10113555938005447,-0.02001255750656128,-9.804604530334473
1.7294960709667597e+18,0.022761624306440353,0.11088915169239044,-9.861893653869629
1.72949607097576e+18,-0.009581263177096844,0.03326534107327461,-9.791055679321289
1.72949607098176e+18,-0.012950379401445389,0.022185014560818672,-9.829488754272461
1.7294960709907602e+18,-0.05894411355257034,0.01678142324090004,-9.853446960449219
1.7294960709997604e+18,0.08011975884437561,-0.00382358580827713,-9.847494125366211
1.7294960710057605e+18,-0.009308559820055962,0.001887420192360878,-9.886445045471191
1.7294960710147607e+18,0.011809245683252811,0.07251335680484772,-9.827921867370605
1.729496071023761e+18,0.0034244479611516,0.0073621817864477634,-9.839179039001465
1.729496071032761e+18,-0.048823077231645584,-0.06976212561130524,-9.797224044799805
1.7294960710387612e+18,-0.06257587671279907,0.041046492755413055,-9.773236274719238
1.7294960710477614e+18,0.04084092378616333,0.008532941341400146,-8.530025482177734
1.7294960710567616e+18,-0.04269006848335266,0.07794170081615448,-8.421296119689941
1.7294960710657618e+18,-0.0574057400226593,0.044069793075323105,-8.450263977050781
1.729496071071762e+18,0.005586981773376465,0.05852045118808746,-8.354093551635742
1.729496071080762e+18,0.02805209904909134,0.08594337850809097,-7.913735866546631
1.7294960710897623e+18,0.04030735045671463,0.15082451701164246,-7.912603855133057
1.7294960710987625e+18,-0.05225545912981033,0.07639939337968826,-7.924583435058594
1.7294960711077627e+18,0.008349275216460228,0.011880040168762207,-7.841495513916016
1.729496071116763e+18,0.04494456946849823,0.19532296061515808,-7.830610275268555
1.729496071125763e+18,-0.05292494222521782,0.09130247682332993,-7.658215522766113
1.7294960711377633e+18,-0.013436566106975079,-0.037149958312511444,-7.736341953277588
1.7294960711437635e+18,0.12036558985710144,0.05345502495765686,-7.655702590942383
1.7294960711527636e+18,-0.05888618528842926,0.10071341693401337,-7.707845211029053
1.7294960711617638e+18,0.06125956028699875,0.07268944382667542,-7.594924449920654
1.729496071170764e+18,-0.04642901569604874,0.10898759216070175,-7.394766330718994
1.7294960711797642e+18,-0.06889226287603378,-0.002794373780488968,-7.1385273933410645
1.7294960711887644e+18,-0.028574349358677864,0.03412937372922897,-7.114256858825684
1.7294960711977646e+18,-0.03406715765595436,0.02446223981678486,-7.050175666809082
1.7294960712067648e+18,-0.06962741911411285,0.061808377504348755,-7.229455947875977
1.729496071215765e+18,0.003530619665980339,0.0538678839802742,-7.326751708984375
1.7294960712247652e+18,-0.029132841154932976,0.09330938756465912,-7.196794509887695
1.7294960712337654e+18,0.08313623815774918,0.02079770155251026,-7.063531875610352
1.7294960712427656e+18,-0.006157322786748409,0.11847680807113647,-7.174205780029297
1.7294960712517658e+18,0.05399330332875252,0.06260722875595093,-6.997472763061523
1.729496071260766e+18,0.03610437735915184,-0.006368344649672508,-7.022594928741455
1.7294960712697661e+18,-0.02344980090856552,0.08257289230823517,-7.082719326019287
1.7294960712787663e+18,0.07641936838626862,0.05307231843471527,-7.17047643661499
1.7294960712877665e+18,0.04882550984621048,0.10193564742803574,-7.1325507164001465
1.7294960712967667e+18,0.005976498126983643,0.019538555294275284,-7.144779205322266
1.729496071305767e+18,0.005622203461825848,0.04504469409584999,-7.224837303161621
1.729496071314767e+18,-0.03422122821211815,-0.029208410531282425,-7.260365962982178
1.7294960713237673e+18,-0.042256634682416916,0.011565622873604298,-7.381899356842041
1.7294960713327675e+18,-0.046577922999858856,0.011589335277676582,-7.116387844085693
1.7294960713417677e+18,0.008545768447220325,-0.0019033693242818117,-7.2087626457214355
1.7294960713507679e+18,-0.025245176628232002,0.0134396031498909,-7.011483192443848
1.729496071359768e+18,-0.0493830144405365,0.004712915048003197,-7.166585445404053
1.7294960713657682e+18,-0.043386854231357574,0.010550257749855518,-7.1932878494262695
1.7294960713777684e+18,0.032562196254730225,0.006267965771257877,-7.251076698303223
1.7294960713867686e+18,0.013642800971865654,0.04222907871007919,-7.331200122833252
1.7294960713957688e+18,0.02382477931678295,0.035982660949230194,-7.229835510253906
1.729496071404769e+18,0.05648045614361763,-0.09805897623300552,-7.307670593261719
1.7294960714137692e+18,-0.01475410908460617,0.04337308555841446,-7.283219337463379
1.7294960714227694e+18,0.010630697011947632,-0.051896825432777405,-7.302277088165283
1.7294960714317696e+18,-0.01452053152024746,0.04648203030228615,-7.393446922302246
1.7294960714407698e+18,0.03892437368631363,0.05309472978115082,-7.41763162612915
1.72949607144977e+18,-0.03506287932395935,-0.028343748301267624,-7.496276378631592
1.7294960714587702e+18,-0.056175585836172104,0.03449763357639313,-7.575211048126221
1.7294960714677704e+18,-0.05365769937634468,0.02933405339717865,-7.451382637023926
1.7294960714767706e+18,-0.0631980448961258,-0.036704402416944504,-7.497775077819824
1.7294960714857708e+18,0.026238618418574333,-0.03703794628381729,-7.5238165855407715
1.729496071491771e+18,-0.046759139746427536,-0.009954150766134262,-7.529701232910156
1.729496071500771e+18,0.0591052770614624,0.04837411269545555,-7.663409233093262
1.7294960715097713e+18,0.03749744966626167,-0.04929884150624275,-7.619259834289551
1.7294960715157714e+18,0.001442951732315123,-0.009309384040534496,-6.866145133972168
1.7294960715247716e+18,0.05798906460404396,0.06273841857910156,-6.120675086975098
1.7294960715337718e+18,0.0748390406370163,0.0492589995265007,-6.008540153503418
1.729496071539772e+18,0.049354586750268936,-0.04623384773731232,-5.982624530792236
1.729496071548772e+18,0.04909639433026314,-0.011995410546660423,-6.073791980743408
1.7294960715577723e+18,-0.059141382575035095,-0.0713057890534401,-6.221754550933838
1.7294960715667725e+18,0.07059821486473083,-0.03364136815071106,-6.312983989715576
1.7294960715757727e+18,-0.03284468501806259,-0.042859215289354324,-6.433437347412109
1.7294960715817728e+18,-0.05563708767294884,0.02201440930366516,-6.441568374633789
1.729496071590773e+18,0.0683756098151207,-0.06875932216644287,-6.6512131690979
1.729496071596773e+18,-0.002805656287819147,-0.002074098912999034,-6.783411026000977
1.7294960716057733e+18,0.023649584501981735,-0.015461857430636883,-6.829328536987305
1.7294960716147735e+18,0.033786557614803314,-0.031118540093302727,-6.95055627822876
1.7294960716207736e+18,0.09397333860397339,0.08118006587028503,-6.984891414642334
1.7294960716297738e+18,-0.01097150519490242,0.002805686090141535,-7.0805158615112305
1.729496071638774e+18,-0.034396372735500336,0.084156334400177,-7.165435314178467
1.7294960716447741e+18,0.0471116378903389,-0.04870685935020447,-7.25366735458374
1.7294960716537743e+18,-0.03537531942129135,0.06605063378810883,-7.32798433303833
1.7294960716597745e+18,0.029894893988966942,-0.009530368261039257,-7.365246772766113
1.7294960716687747e+18,-0.026567131280899048,0.004049112554639578,-7.502553462982178
1.7294960716777748e+18,-0.010628145188093185,-0.041857946664094925,-7.554131507873535
1.729496071683775e+18,-0.028026089072227478,-0.07815860956907272,-7.564901351928711
1.7294960716927752e+18,0.043666038662195206,-0.02610255777835846,-7.647806644439697
1.7294960717017754e+18,0.03175848722457886,0.008442905731499195,-7.72614860534668
1.7294960717077755e+18,-0.06973433494567871,-0.005164004862308502,-7.766117572784424
1.7294960717167757e+18,-0.008277373388409615,-0.02052122913300991,-7.805050849914551
1.729496071725776e+18,-0.015272121876478195,0.014020070433616638,-8.006627082824707
1.729496071734776e+18,-0.016946008428931236,-0.04303189739584923,-7.969419479370117
1.7294960717437763e+18,0.039793360978364944,-0.02372017130255699,-8.056434631347656
1.7294960717497764e+18,-0.04149965941905975,0.09476010501384735,-8.1336030960083
1.7294960717587766e+18,-0.00131818070076406,0.06817373633384705,-8.209593772888184
1.7294960717677768e+18,0.010836991481482983,0.026253800839185715,-8.16462516784668
1.729496071773777e+18,-0.021252229809761047,0.023661568760871887,-8.176188468933105
1.729496071782777e+18,-0.022734658792614937,-0.00998290441930294,-8.384407043457031
1.7294960717887772e+18,0.023681428283452988,0.004707694984972477,-8.300238609313965
1.7294960717977774e+18,-0.005091374274343252,0.022211981937289238,-8.417387008666992
1.7294960718067776e+18,-0.001121654873713851,-0.013618700206279755,-8.476058006286621
1.7294960718127777e+18,-0.03388502448797226,0.06769135594367981,-8.437727928161621
1.729496071821778e+18,-0.03465837612748146,0.043367646634578705,-8.511354446411133
1.729496071830778e+18,0.0077202110551297665,-0.008523978292942047,-8.556446075439453
1.7294960718367782e+18,0.05989927425980568,0.028803596273064613,-8.631141662597656
1.7294960718457784e+18,-0.014937371015548706,0.03244742751121521,-8.67285442352295
1.7294960718547786e+18,-0.020759455859661102,0.0036507081240415573,-8.669569969177246
1.7294960718637788e+18,0.028735937550663948,-0.006197623908519745,-8.733113288879395
1.729496071869779e+18,0.08765648305416107,0.10119768977165222,-8.679640769958496
1.7294960718787791e+18,0.045871179550886154,0.09969206899404526,-8.645509719848633
1.7294960718877793e+18,0.04177604243159294,0.005386015400290489,-8.824373245239258
1.7294960718967795e+18,0.03017127700150013,0.019074061885476112,-8.815837860107422
1.7294960719057797e+18,-0.006612553261220455,-0.04144429415464401,-8.945887565612793
1.7294960719117798e+18,-0.008295801468193531,0.010102503001689911,-8.881166458129883
1.72949607192378e+18,0.03362657502293587,0.05460669845342636,-8.976787567138672
1.7294960719297802e+18,0.07520973682403564,0.028838222846388817,-9.013439178466797
1.7294960719387804e+18,-0.010798664763569832,0.08100365102291107,-9.034913063049316
1.7294960719477806e+18,-0.014414485543966293,0.045048244297504425,-8.96441650390625
1.7294960719537807e+18,-0.0050496323965489864,0.04872257262468338,-9.072059631347656
1.729496071962781e+18,-0.02230188623070717,-0.028638355433940887,-9.00998306274414
1.729496071971781e+18,-0.004102528560906649,0.10430171340703964,-9.102216720581055
1.7294960719807813e+18,-0.03691782057285309,-0.04078030586242676,-9.208988189697266
1.7294960719867814e+18,-0.00544867804273963,0.0942707359790802,-9.160160064697266
1.7294960719957816e+18,0.022582991048693657,0.011317528784275055,-9.151717185974121
1.7294960720047818e+18,-0.062211014330387115,0.05257131904363632,-9.227121353149414
1.729496072013782e+18,0.04952995479106903,0.09473416209220886,-9.211743354797363
1.7294960720197821e+18,-0.045899491757154465,0.060765594244003296,-9.247505187988281
1.7294960720287823e+18,-0.038063760846853256,0.08614511787891388,-9.332669258117676
1.7294960720377825e+18,0.046446215361356735,0.03732394799590111,-9.256037712097168
1.7294960720467827e+18,0.012546082958579063,0.07622732222080231,-9.34856128692627
1.7294960720527828e+18,-0.018568070605397224,0.026883810758590698,-9.336833953857422
1.729496072061783e+18,-0.009865921922028065,0.12135275453329086,-9.422513008117676
1.7294960720707832e+18,-0.0022240423131734133,0.056297093629837036,-9.340728759765625
1.7294960720797834e+18,0.0192040354013443,0.028969451785087585,-9.374452590942383
1.7294960720887836e+18,-0.047022126615047455,0.04540842026472092,-9.428812026977539
1.7294960720947837e+18,-0.04930476099252701,0.04798879101872444,-9.437454223632812
1.729496072103784e+18,0.021355167031288147,0.0685327872633934,-9.41224193572998
