timestamp,gyro_x,gyro_y,gyro_z
1.7294960603615334e+18,0.0007021183846518397,9.495372069068253e-05,-0.0019583951216191053
1.7294960603705336e+18,0.0010860528564080596,0.0005573722301051021,0.0030569678638130426
1.7294960603765338e+18,0.0028215195052325726,0.0007845918298698962,-0.0016007188241928816
1.729496060385534e+18,-0.0013734037056565285,-0.00023269520897883922,0.0008201588061638176
1.729496060391534e+18,0.0021019051782786846,-0.0007151372847147286,-0.0020923486445099115
1.7294960604005343e+18,0.0013295705430209637,0.00012773615890182555,0.0032442740630358458
1.7294960604065344e+18,-0.00016787979984655976,0.0012355021899566054,-0.0006166797829791903
1.7294960604155346e+18,-0.0021781795658171177,0.000200283044250682,0.00031972472788766026
1.7294960604215347e+18,-0.0006639424245804548,-0.0025673413183540106,-0.0026575999800115824
1.729496060430535e+18,0.001900788745842874,-0.00019579805666580796,-0.0029151872731745243
1.729496060439535e+18,-0.0028356804978102446,0.0024788929149508476,-0.0013723436277359724
1.7294960604485353e+18,0.001397427055053413,-0.0032510363962501287,-0.0012704250402748585
1.7294960604545354e+18,0.00022736690880265087,0.001193306059576571,0.0012479375582188368
1.7294960604665357e+18,-0.0027595253195613623,-0.0013734832173213363,-0.002592636737972498
1.729496060478536e+18,0.0012627296382561326,0.0011059565003961325,0.0010060315253213048
1.729496060484536e+18,-0.00011403758981032297,0.0025504836812615395,-0.0011796621838584542
1.7294960604935363e+18,-0.0020459650550037622,0.00011412169988034293,-0.0037492739502340555
1.7294960605025364e+18,0.0012951369863003492,-0.003173965960741043,-0.0011209894437342882
1.7294960605085366e+18,-0.0013989071594551206,0.0021811749320477247,4.782969426742056e-06
1.7294960605175368e+18,0.00038257709820754826,-4.0625651308801025e-05,-0.0008569078054279089
1.729496060523537e+18,0.0027472907677292824,-0.002391265006735921,0.0014089193427935243
1.729496060532537e+18,0.002472654916346073,-0.00013531702279578894,-0.0019097082549706101
1.7294960605415373e+18,-0.003666225355118513,-0.00015150586841627955,-0.0008370601572096348
1.7294960605475374e+18,-0.0026918400544673204,-0.0009172793361358345,-0.0019001992186531425
1.7294960605565376e+18,0.001565315411426127,-0.000276370468782261,-0.0018006515456363559
1.7294960605625377e+18,-0.0005810512811876833,0.0008497654926031828,-0.0005621068994514644
1.729496060571538e+18,-0.001327470294199884,0.001983995782211423,-0.000739671231713146
1.729496060580538e+18,-0.0016065476229414344,-0.0029510902240872383,-8.132883522193879e-05
1.7294960605865382e+18,0.001304212724789977,-0.0005797662888653576,-0.0005391901941038668
1.7294960605955384e+18,0.0009800203843042254,9.524014603812248e-05,-0.00022228562738746405
1.7294960606015386e+18,-0.0007440344779752195,-0.0013297165278345346,-3.283961268607527e-05
1.7294960606105388e+18,0.0011577921686694026,-0.0007251210045069456,0.0025818003341555595
1.729496060619539e+18,0.0018104036571457982,-0.0013742167502641678,-0.0005435046623460948
1.729496060625539e+18,-0.0007499504717998207,0.0032239144202321768,-0.0006555715808644891
1.7294960606345393e+18,0.0009783953428268433,0.001635221648029983,0.0007653760258108377
1.7294960606405394e+18,-0.000791963015217334,0.0009234558092430234,-0.003953212406486273
1.7294960606495396e+18,0.0010668309405446053,0.0028285400476306677,7.088631832630199e-07
1.7294960606555397e+18,0.0006643584929406643,8.98646394489333e-05,0.0013785132905468345
1.72949606066454e+18,-0.0008286834345199168,0.0016208278248086572,0.002224288647994399
1.72949606067354e+18,-0.0008656606078147888,0.000845468370243907,0.0014064677525311708
1.7294960606795402e+18,-0.0020364827942103148,0.0013303973246365786,-0.0007122594979591668
1.7294960606885404e+18,-0.0018755232449620962,-0.0014287204248830676,-0.0015404154546558857
1.7294960606945405e+18,0.0004510407743509859,-0.0019229622557759285,-0.0012749219313263893
1.7294960607035407e+18,-0.0013678098330274224,0.00027417385717853904,-0.001442406210117042
1.729496060712541e+18,0.0012627500109374523,0.00019540726498235017,-0.0031040010508149862
1.729496060718541e+18,0.00036674743751063943,-0.00027806026628240943,-0.0009856860851868987
1.7294960607275412e+18,0.0008444316335953772,-0.00043156903120689094,-0.0008013072656467557
1.7294960607335414e+18,-0.0013012704439461231,-7.466549050150206e-06,-0.0010171561734750867
1.7294960607425416e+18,-0.0021938453428447247,0.0025260706897825003,0.00033547490602359176
1.7294960607485417e+18,0.002588724484667182,0.0009094602428376675,-0.0014092730125412345
1.729496060757542e+18,-0.00032730685779824853,-0.0010163758415728807,-0.0005490517942234874
1.729496060766542e+18,-0.001574595458805561,0.0005873704794794321,-0.0015560101019218564
1.7294960607725422e+18,0.0010941345244646072,0.0025798347778618336,-0.0018493573879823089
1.7294960607815424e+18,-0.002904126886278391,0.0015545283677056432,-0.00313670770265162
1.7294960607875425e+18,0.00047047692351043224,-0.002407381311058998,-0.00020564021542668343
1.7294960607965427e+18,0.0016691943164914846,-0.0003526107466313988,0.003639287780970335
1.7294960608025428e+18,0.0006516605499200523,0.002161388983950019,-0.0005607883795164526
1.729496060811543e+18,0.0032005750108510256,-0.0010357860010117292,0.0016510477289557457
1.7294960608205432e+18,0.0007927175611257553,-0.0013993052998557687,-0.0014713607961311936
1.7294960608265434e+18,-0.0007505646208301187,0.0009067626670002937,-4.104892286704853e-05
1.7294960608355436e+18,-0.0007281673606485128,0.00025677753728814423,4.465062738745473e-05
1.7294960608415437e+18,-0.0010126038687303662,0.0017804232193157077,-0.00250352849252522
1.7294960608505439e+18,-0.0006920635350979865,0.000542554073035717,-0.00019867176888510585
1.729496060856544e+18,0.00019705519662238657,-0.0012933199759572744,-0.0028237244114279747
1.7294960608655442e+18,0.0011077539529651403,0.0013137566857039928,-0.0024202328640967607
1.7294960608715443e+18,-0.002020451705902815,0.0016113887540996075,0.001475040102377534
1.7294960608805445e+18,-0.001903439755551517,0.0034746991004794836,-0.0003616501053329557
1.7294960608895447e+18,0.0026566768065094948,0.000416150112869218,-0.00035747341462410986
1.7294960608955448e+18,-0.0005490032490342855,0.0003601431963033974,-0.0014443960972130299
1.729496060904545e+18,0.0009376287343911827,-0.001679481822066009,-0.0003342609270475805
1.7294960609135452e+18,0.0016666918527334929,-0.0013619575183838606,0.0010473983129486442
1.7294960609195453e+18,-0.002171283820644021,0.0012260125949978828,-0.001173857832327485
1.7294960609285455e+18,-0.0003559314936865121,-0.0024001593701541424,0.0007960122311487794
1.7294960609375457e+18,-0.0020290662068873644,-0.0011631716042757034,0.0008083402062766254
1.7294960609435459e+18,-0.00021473472588695586,-0.0003311482141725719,-0.0009241109946742654
1.729496060952546e+18,-0.0022078384645283222,0.00036993547109887004,-0.0019160433439537883
1.7294960609615462e+18,-0.0002397668722551316,3.743375054909848e-05,-0.0016535561298951507
1.7294960609675464e+18,0.0012957662111148238,0.0005588989588432014,-0.0031019363086670637
1.7294960609765466e+18,0.0008189872605726123,0.00047554756747558713,0.0037257028743624687
1.7294960609855468e+18,-0.0026861552614718676,0.001074518309906125,-0.0017050651367753744
1.729496060994547e+18,-0.0011429012520238757,0.00208399910479784,-0.001079436857253313
1.729496061000547e+18,0.0014536097878590226,-0.0005731065175496042,0.0007147113210521638
1.7294960610095473e+18,0.0037768231704831123,-0.0026700645685195923,0.0006473704124800861
1.7294960610155474e+18,0.0002450529718771577,0.0018935499247163534,-6.939122977200896e-05
1.7294960610245476e+18,0.0006820647977292538,-0.00011041576362913474,-0.002573540899902582
1.7294960610335478e+18,-0.00037134799640625715,0.002833510283380747,-0.001800274127162993
1.729496061039548e+18,-0.00055027159396559,0.0033514159731566906,0.0004184513527434319
1.729496061048548e+18,-0.0005826701526530087,-0.003917161375284195,0.0014636525884270668
1.7294960610545482e+18,-0.001531943678855896,0.001022657030262053,-0.0004845966468565166
1.7294960610635484e+18,0.0014808245468884706,-0.0007026187959127128,0.0019364501349627972
1.7294960610695485e+18,0.0028991722501814365,0.002184047130867839,0.0021716225892305374
1.7294960610785487e+18,0.00039493798976764083,-0.0011421453673392534,-0.00010130250302609056
1.7294960610845489e+18,0.0005838010110892355,0.00012953700206708163,0.0016162680694833398
1.729496061093549e+18,-5.3752115491079167e-05,0.0012871174840256572,-0.0005548328044824302
1.7294960610995492e+18,-0.0004955208860337734,3.761620246223174e-05,0.001655402360484004
1.7294960611085494e+18,0.0016587850404903293,-0.001323459087871015,0.0011895623756572604
1.7294960611175496e+18,-0.001795358955860138,7.166911382228136e-05,6.45747350063175e-05
1.7294960611265498e+18,-0.0005858109798282385,0.001136715174652636,0.0008761279750615358
1.72949606113255e+18,0.0007064257515594363,-0.002089732326567173,0.0009634785237722099
1.72949606114155e+18,-0.0014663469046354294,0.0013398980954661965,-0.0017192910891026258
1.7294960611505503e+18,-0.0012388969771564007,0.00044365579378791153,0.0013245297595858574
1.7294960611595505e+18,-0.0010490634012967348,0.0010945452377200127,-0.0007569729350507259
1.7294960611655506e+18,-0.0015833756187930703,0.0008997806580737233,0.0018450323259457946
1.7294960611745508e+18,-0.0018783252453431487,-0.002039034850895405,0.003468147711828351
1.729496061183551e+18,-0.0023212237283587456,-0.0013959896750748158,0.0007896746974438429
1.7294960611925512e+18,0.00099940097425133,0.0012611298589035869,0.00042535344255156815
1.7294960612015514e+18,0.0009796946542337537,0.0021302043460309505,0.000521113455761224
1.7294960612075515e+18,-0.002553831785917282,-0.0006633206503465772,0.0013369331136345863
1.7294960612165517e+18,0.0025077741593122482,-0.0024578922893851995,-0.002647349378094077
1.729496061225552e+18,-0.001964189577847719,0.002891898388043046,0.002243906958028674
1.729496061231552e+18,-0.001094022998586297,-0.0009378339746035635,-0.0024402239359915257
1.7294960612405522e+18,0.001793986652046442,-0.00022548463311977684,0.0007940441719256341
1.7294960612465523e+18,-0.0017447909340262413,0.0014475799398496747,-0.0027894340455532074
1.7294960612555525e+18,-0.002672824775800109,-0.00037796166725456715,-0.00030586065258830786
1.7294960612645527e+18,-0.0002427477011224255,0.0007290649227797985,-0.0002285628142999485
1.729496061273553e+18,3.320132236694917e-05,-0.0017305724322795868,-0.0006249157013371587
1.729496061279553e+18,0.00027432729257270694,0.0017047426663339138,-0.0006289504817686975
1.7294960612885532e+18,0.00035050875158049166,0.0023539348039776087,-0.0007814159616827965
1.7294960612945533e+18,0.002610379597172141,-0.0009758672094903886,-0.0012808433966711164
1.7294960613035535e+18,0.0008282142807729542,-0.00181873538531363,0.00018563817138783634
1.7294960613125537e+18,0.0006104431231506169,0.0014709326205775142,0.0040598297491669655
1.729496061321554e+18,-0.0010307205375283957,0.0016183103434741497,-0.0003134265716653317
1.729496061327554e+18,0.0002487966266926378,0.0018092304235324264,0.0003330926119815558
1.7294960613365542e+18,-0.00022869107488077134,0.000494461739435792,-0.0006023916066624224
1.7294960613455544e+18,0.0010136017808690667,0.0005408880533650517,-0.0015005773166194558
1.7294960613515546e+18,-0.0007459641783498228,-0.0001711781951598823,-0.0001468984701205045
1.7294960613605548e+18,0.0007691117352806032,0.00010982355161104351,0.000167240941664204
1.729496061369555e+18,-0.0001566199935041368,-2.470259823894594e-05,-0.000457042915513739
1.7294960613785551e+18,0.0013677773531526327,-0.0001938556379172951,-0.0008105982560664415
1.7294960613845553e+18,-0.0009282208047807217,-0.0008821869269013405,6.822174327680841e-05
1.7294960613935555e+18,0.0018194543663412333,-0.0005118285189382732,0.0035162828862667084
1.7294960614025556e+18,-0.002447075443342328,0.001920350012369454,0.0011787759140133858
1.7294960614085558e+18,-0.00014133055810816586,-0.0017263308400288224,-0.00027162491460330784
1.729496061417556e+18,-0.002616976387798786,0.0018506805645301938,0.0020037805661559105
1.7294960614265562e+18,0.00018996921426150948,-0.002662378130480647,0.00038361953920684755
1.7294960614325563e+18,0.00016079861961770803,-0.00022206749417819083,0.001022947602905333
1.7294960614415565e+18,0.0004337569116614759,0.00023218906426336616,-0.003903841134160757
1.7294960614475566e+18,0.002597526181489229,-0.001971230609342456,-0.000359860947355628
1.7294960614565568e+18,-0.002201839117333293,0.0011976520763710141,0.0007082205265760422
1.729496061465557e+18,0.00021598133025690913,-0.0020624876488000154,-0.0024151806719601154
1.729496061471557e+18,0.0008443324477411807,0.00039844997809268534,-0.0029897806234657764
1.7294960614805573e+18,-0.0010746214538812637,-0.00238204188644886,0.0030523997265845537
1.7294960614895575e+18,7.914815796539187e-05,-0.0011879127705469728,-0.002340504201129079
1.7294960614955576e+18,-0.0001510536385467276,0.0017752611311152577,0.00029719399753957987
1.7294960615045578e+18,-0.0025663834530860186,-0.0018523941980674863,0.0018404426518827677
1.729496061510558e+18,-1.2625403542187996e-05,-0.0011971888598054647,0.00045460578985512257
1.7294960615195581e+18,-0.0002366981643717736,-0.0010429185349494219,0.0002727740502450615
1.7294960615255583e+18,-0.000711204600520432,0.0013806336792185903,-0.00023235414118971676
1.7294960615345585e+18,0.0006536685978062451,-0.0005562292644754052,-0.00043426197953522205
1.7294960615435587e+18,0.0018207381945103407,-0.0021694242022931576,0.0005013833288103342
1.7294960615495588e+18,-0.0025086773093789816,0.006304700393229723,-0.0004938376368954778
1.729496061558559e+18,-0.0007255036034621298,0.0003347917227074504,-0.0008687778026796877
1.729496061564559e+18,-0.0002389589644735679,0.0017193491803482175,0.003093286883085966
1.7294960615735593e+18,0.0023599290288984776,-0.0022828143555670977,0.0008420989033766091
1.7294960615825595e+18,0.0016161242965608835,-0.0014900622190907598,0.00025348723283968866
1.7294960615885596e+18,-0.0005796654149889946,-0.0012752133188769221,-0.0003560409531928599
1.7294960615975598e+18,-0.00048788709682412446,-0.002895468845963478,-0.00016188241716008633
1.72949606160656e+18,0.0025627606082707644,-0.0007706323522143066,-0.0003114826395176351
1.7294960616125601e+18,0.0014845349360257387,0.00045578621211461723,0.00011877372890012339
1.7294960616215603e+18,0.00015252464800141752,0.0007286635809578001,0.002150406828150153
1.7294960616275604e+18,6.615105667151511e-05,-0.0032915982883423567,5.1256269216537476e-05
1.7294960616365606e+18,0.002184501150622964,0.0006660299259237945,-0.00024164290516637266
1.7294960616425608e+18,-0.0002806042321026325,0.0011850239243358374,-0.00046474873670376837
1.729496061651561e+18,-0.0020334143191576004,0.0022147432900965214,-0.00036063004517927766
1.7294960616605612e+18,0.0015797349624335766,0.000998550676740706,0.0003184096422046423
1.7294960616665613e+18,0.0009621894569136202,0.0006865771138109267,-0.0004098460776731372
1.7294960616755615e+18,-0.0006246828124858439,-0.001250699395313859,-0.0009282430983148515
1.7294960616845617e+18,-0.0009645525715313852,0.0002859927772078663,0.000691987166646868
1.7294960616905618e+18,0.0008523910073563457,0.0006296318024396896,-2.249655153718777e-06
1.729496061699562e+18,-0.0029486259445548058,0.0018505180487409234,-0.0015096187125891447
1.729496061705562e+18,0.000793549872469157,-0.0006718373624607921,-0.001660619629547
1.7294960617145623e+18,-0.000512407161295414,-0.0028195539489388466,-0.001871634740382433
1.7294960617235625e+18,-0.002377254655584693,0.000827496056444943,0.00044948578579351306
1.7294960617325627e+18,-0.00022564336541108787,0.0004348666116129607,8.289767720270902e-05
1.7294960617385628e+18,-0.002123272279277444,-0.0005835664342157543,-0.0032028211280703545
1.729496061747563e+18,-0.0011366669787093997,-0.003748777788132429,-0.0020157555118203163
1.7294960617535631e+18,0.0017191587248817086,0.004105201922357082,0.00021580759494099766
1.7294960617625633e+18,-0.0032144554425030947,0.00036362488754093647,0.0006808783509768546
1.7294960617715635e+18,-0.00063036271603778,-0.0009221074287779629,0.0012124055065214634
1.7294960617805637e+18,0.0016723508015275002,0.001416216604411602,-0.0008737886091694236
1.7294960617865638e+18,-0.0015019059646874666,0.0021539286244660616,-0.0006137638702057302
1.729496061795564e+18,0.0008557364926673472,-0.0008775776368565857,0.001028935657814145
1.7294960618045642e+18,-0.0001460172497900203,-0.00025145645486190915,0.001747195259667933
1.7294960618105644e+18,-0.0024632145650684834,0.0027055805549025536,0.002222723327577114
1.7294960618195645e+18,-0.001044643810018897,-0.002089068526402116,-3.315028880024329e-05
1.7294960618255647e+18,0.0012959723826497793,-0.001652544946409762,-0.002621833235025406
1.7294960618345649e+18,-0.0021083999890834093,-0.0011345308739691973,0.002350314287468791
1.729496061843565e+18,0.0016845704521983862,0.0019401655299589038,0.00040393846575170755
1.7294960618495652e+18,-0.002749702660366893,-0.00182677514385432,-0.0005209625232964754
1.7294960618585654e+18,-0.00031841531745158136,-0.001796914846636355,0.0002475748478900641
1.7294960618675656e+18,0.0028233083430677652,-4.7006909881019965e-05,0.001953389961272478
1.7294960618765658e+18,-0.0006225285469554365,-0.0011556190438568592,-0.0014479666715487838
1.729496061882566e+18,-0.0013240962289273739,0.0013716684188693762,0.0009257132187485695
1.729496061891566e+18,-0.0004391086404211819,0.002117257798090577,-0.001963902497664094
1.7294960619005663e+18,-0.0007620904361829162,1.5898987840046175e-05,0.0011101677082479
1.7294960619065664e+18,-0.0020444889087229967,0.0008247203659266233,0.0006619318737648427
1.7294960619155666e+18,0.00034870029776357114,-0.00029382194043137133,3.819594712695107e-05
1.7294960619215667e+18,0.0014056427171453834,0.0002920927945524454,-0.0002869620220735669
1.729496061930567e+18,-0.0017231658566743135,-0.0003806095046456903,0.00194835034199059
1.729496061939567e+18,-0.0005397122586145997,-0.0021849041804671288,0.00030988812795840204
1.7294960619485673e+18,5.297690586303361e-05,-0.0002596277336124331,0.0017908272566273808
1.7294960619545674e+18,-0.001334315282292664,-0.0019359714351594448,0.0029852709267288446
1.7294960619635676e+18,-0.0010166990105062723,-0.000832526246085763,0.0010236925445497036
1.7294960619725678e+18,0.0020728101953864098,0.0010978676145896316,0.0013114522444084287
1.729496061978568e+18,0.0026634125970304012,0.0012798792449757457,0.0028810419607907534
1.729496061987568e+18,0.0005557830445468426,0.0024277193006128073,0.000727442791685462
1.7294960619935683e+18,-0.0012414808152243495,-0.00014106249727774411,0.0006679896614514291
1.7294960620025684e+18,-0.0003081472823396325,0.0027289697900414467,-0.0031800903379917145
1.7294960620115686e+18,-0.00010001653572544456,0.00031624711118638515,0.00104625360108912
1.7294960620205688e+18,0.0008773012668825686,0.00033190890098921955,-0.0017422335222363472
1.729496062026569e+18,-0.0016280949348583817,0.001718473737128079,0.0007529256399720907
1.7294960620355692e+18,0.004080147948116064,0.00010285899770678952,-0.0023599823471158743
1.7294960620445693e+18,0.00018410962366033345,0.0023174143861979246,0.00015387008897960186
1.7294960620535695e+18,-0.00207947613671422,-0.0053486572578549385,0.0006895808037370443
1.7294960620595697e+18,-0.0022285208106040955,0.0008215847192332149,0.002158230636268854
1.7294960620685699e+18,0.0022093444131314754,-0.00100868777371943,0.002351165981963277
1.72949606207457e+18,0.0001276286639040336,0.0011552817886695266,0.0009969061939045787
1.7294960620835702e+18,0.00028265800210647285,-0.00024711480364203453,-0.0003467404458206147
1.7294960620895703e+18,0.0016900260234251618,0.0017867826391011477,-0.0005143279558978975
1.7294960620985705e+18,-0.0010813017142936587,0.004409126006066799,-0.0014794657472521067
1.7294960621045706e+18,-0.0019126851111650467,0.0005798222264274955,-0.0014131100615486503
1.7294960621135708e+18,-0.0016579621005803347,0.0005795544711872935,0.0015157100278884172
1.729496062122571e+18,-0.0018185896333307028,0.0035831728018820286,-0.00020865636179223657
1.7294960621315712e+18,-0.00047929625725373626,-0.0007220546249300241,0.0012694093165919185
1.7294960621375713e+18,-0.0009370167972519994,-0.002439728006720543,-0.0016564468387514353
1.7294960621465715e+18,-0.00038395420415326953,1.2608295037352946e-05,-0.0007585021667182446
1.7294960621525716e+18,0.0005838274373672903,-0.003544603707268834,-0.0006830535130575299
1.7294960621615718e+18,-0.000869915122166276,-0.0031972669530659914,-0.0014767834218218923
1.729496062167572e+18,-0.0003857235424220562,0.00036933113005943596,-0.0019039693288505077
1.7294960621765722e+18,-0.0005593789974227548,-0.0011757217580452561,0.0005872828769497573
1.7294960621855724e+18,0.0011704311473295093,0.002154394518584013,-0.0006933383992873132
1.7294960621915725e+18,0.002434780355542898,0.00326557201333344,1.4401471162273083e-05
1.7294960622005727e+18,-0.0010103621752932668,0.000276645936537534,0.0004721268778666854
1.7294960622095729e+18,0.0009679387439973652,9.213076555170119e-05,0.0036509402561932802
1.729496062215573e+18,-0.0021934763062745333,-0.0014964225701987743,0.001252638059668243
1.7294960622245732e+18,0.0023372177965939045,-0.001987059134989977,0.0012295459164306521
1.7294960622335734e+18,0.003205729415640235,0.0007751269149594009,-0.003334763925522566
1.7294960622395735e+18,-0.00121027952991426,0.00029815142625011504,-0.0019415379501879215
1.7294960622485737e+18,-0.0032309868838638067,-0.0037475235294550657,-0.0012979672756046057
1.7294960622545738e+18,0.000738280126824975,0.001123068737797439,0.0018326230347156525
1.729496062263574e+18,-0.0017904015257954597,-0.0022774958051741123,-0.0018879709532484412
1.7294960622725742e+18,0.0013592863688245416,-0.0011448346776887774,-0.0007953729946166277
1.7294960622785743e+18,-0.0010581357637420297,-0.0004650140181183815,0.0016253513749688864
1.7294960622875745e+18,0.0021907142363488674,0.0008112296927720308,0.0019385276827961206
1.7294960622965747e+18,0.00466564204543829,0.004534310661256313,-0.0019702257122844458
1.7294960623025748e+18,0.025290144607424736,0.016079038381576538,0.00013683989527635276
1.729496062311575e+18,0.0518951378762722,0.03344779834151268,0.0022395325358957052
1.7294960623175752e+18,0.07140976190567017,0.049673885107040405,0.0021591822151094675
1.7294960623265754e+18,0.09079207479953766,0.06431281566619873,0.0026771456468850374
1.7294960623355756e+18,0.09365948289632797,0.06695985794067383,0.0003556117881089449
1.7294960623415757e+18,0.08561894297599792,0.06375622749328613,0.004724719561636448
1.7294960623505759e+18,0.07029244303703308,0.05814964324235916,0.0026536663062870502
1.729496062356576e+18,0.05482073128223419,0.05563613027334213,0.005328587256371975
1.7294960623715763e+18,0.054115042090415955,0.048151880502700806,0.005947944708168507
1.7294960623805765e+18,0.06282645463943481,0.05073404684662819,0.004219868686050177
1.7294960623895767e+18,0.07390625774860382,0.056488484144210815,0.002166592050343752
1.7294960623955768e+18,0.07304129749536514,0.05760273337364197,0.003271808149293065
1.729496062404577e+18,0.0726616382598877,0.056641045957803726,0.0020725561771541834
1.7294960624135772e+18,0.06180858239531517,0.05024024844169617,0.004273560363799334
1.7294960624195773e+18,0.050776805728673935,0.0450732558965683,0.0074259694665670395
1.7294960624285775e+18,0.03293633833527565,0.03840632364153862,0.006178633775562048
1.7294960624375777e+18,0.025407155975699425,0.0321514718234539,0.008595447987318039
1.7294960624435779e+18,0.0251903235912323,0.03172963857650757,0.007150748278945684
1.729496062452578e+18,0.026867369189858437,0.030983053147792816,0.00792105495929718
1.7294960624585782e+18,0.03136931732296944,0.027439173310995102,0.008004534989595413
1.7294960624675784e+18,0.03760325536131859,0.024326015263795853,0.006603405810892582
1.7294960624765786e+18,0.031884681433439255,0.0161301139742136,0.010837838985025883
1.7294960624825787e+18,0.025843298062682152,0.017383810132741928,0.008883265778422356
1.729496062491579e+18,0.012026810087263584,0.012108685448765755,0.007753242738544941
1.729496062500579e+18,0.002809599507600069,0.007321528624743223,0.008054583333432674
1.7294960625065792e+18,-0.005535567179322243,0.004596173297613859,0.004821441601961851
1.7294960625155794e+18,-0.005994982551783323,0.002504988107830286,0.008600722998380661
1.7294960625245796e+18,-0.0049950480461120605,-0.005818752571940422,0.011540590785443783
1.7294960625305797e+18,-0.0009975109715014696,-0.0023221157025545835,0.01063530519604683
1.72949606253958e+18,-0.0003749087918549776,-0.008533900603652,0.008271539583802223
1.72949606254558e+18,-6.591709097847342e-05,-0.010509856045246124,0.0036997420247644186
1.7294960625545802e+18,-0.00749311363324523,-0.010114643722772598,0.007084771059453487
1.7294960625605804e+18,-0.010757419280707836,-0.011493047699332237,0.005676675122231245
1.7294960625695805e+18,-0.01767396554350853,-0.01367951650172472,0.007570976857095957
1.7294960625785807e+18,-0.026381826028227806,-0.01894748955965042,0.007316006347537041
1.7294960625845809e+18,-0.026502585038542747,-0.021929318085312843,0.0033750291913747787
1.729496062593581e+18,-0.022952988743782043,-0.022491883486509323,0.004367258865386248
1.7294960626025812e+18,-0.02257877215743065,-0.022378813475370407,0.005627189762890339
1.7294960626085814e+18,-0.021114161238074303,-0.022025205194950104,0.0022209370508790016
1.7294960626175816e+18,-0.017763134092092514,-0.023386873304843903,0.004716463387012482
1.7294960626235817e+18,-0.019833890721201897,-0.024017801508307457,0.00922954548150301
1.729496062632582e+18,-0.026469703763723373,-0.02423672005534172,0.007537318393588066
1.729496062641582e+18,-0.03317255526781082,-0.0225982666015625,0.006796685978770256
1.7294960626475822e+18,-0.030077897012233734,-0.02662253938615322,0.009018566459417343
1.7294960626565824e+18,-0.029121747240424156,-0.02569933980703354,0.0033349059522151947
1.7294960626655826e+18,-0.03011898696422577,-0.029147466644644737,0.006670691538602114
1.7294960626715827e+18,-0.02699212171137333,-0.027593811973929405,0.004303883295506239
1.729496062680583e+18,-0.025543196126818657,-0.026057925075292587,0.008802300319075584
1.729496062689583e+18,-0.025852389633655548,-0.02338951826095581,0.004888630006462336
1.7294960626985833e+18,-0.02432660385966301,-0.024441251531243324,0.002629439579322934
1.7294960627045834e+18,-0.02810833789408207,-0.01961766555905342,0.006362380925565958
1.7294960627135836e+18,-0.028006406500935555,-0.02488052099943161,0.00651292921975255
1.7294960627195837e+18,-0.030844254419207573,-0.022448847070336342,0.009585155174136162
1.729496062728584e+18,-0.030126145109534264,-0.023369474336504936,0.005129706580191851
1.729496062737584e+18,-0.029159504920244217,-0.0206264927983284,0.007053324952721596
1.7294960627495844e+18,-0.02455941028892994,-0.022755373269319534,0.004635660909116268
1.7294960627555845e+18,-0.025812895968556404,-0.019960695877671242,0.007115899585187435
1.7294960627645847e+18,-0.02415025234222412,-0.01970001310110092,0.006558545865118504
1.7294960627705848e+18,-0.023894580081105232,-0.02196577936410904,0.005336416885256767
1.729496062779585e+18,-0.025507599115371704,-0.02089744247496128,0.006052744574844837
1.7294960627855852e+18,-0.027373960241675377,-0.01938406005501747,0.001866328064352274
1.7294960627945853e+18,-0.027132045477628708,-0.01898215524852276,0.003134168218821287
1.7294960628035855e+18,-0.027752062305808067,-0.014344622381031513,0.0038132937625050545
1.7294960628095857e+18,-0.024930689483880997,-0.018143240362405777,0.002913731150329113
1.7294960628185859e+18,-0.021871307864785194,-0.015195619314908981,0.005904083140194416
1.729496062824586e+18,-0.018078913912177086,-0.015384582802653313,0.005649080965667963
1.7294960628335862e+18,-0.01913454942405224,-0.012538116425275803,0.0036554851103574038
1.7294960628425864e+18,-0.01693088747560978,-0.014905043877661228,0.006180362775921822
1.7294960628515866e+18,-0.0189273189753294,-0.01596716046333313,0.002701469697058201
1.7294960628575867e+18,-0.02001224458217621,-0.014356901869177818,0.005007266998291016
1.729496062866587e+18,-0.015960417687892914,-0.015188653953373432,0.003130440367385745
1.729496062875587e+18,-0.015888124704360962,-0.015725163742899895,0.0037646472919732332
1.7294960628845873e+18,-0.01687309332191944,-0.013101287186145782,0.0024038064293563366
1.7294960628905874e+18,-0.016121726483106613,-0.012899515219032764,0.0010654490906745195
1.7294960628995876e+18,-0.016914401203393936,-0.010813213884830475,0.0028315803501755
1.7294960629085878e+18,-0.0140272481366992,-0.011137071065604687,0.0025904362555593252
1.729496062917588e+18,-0.016160108149051666,-0.016578635200858116,0.0013578094076365232
1.7294960629265882e+18,-0.017441190779209137,-0.013119030743837357,0.0009589504916220903
1.7294960629325883e+18,-0.018527230247855186,-0.01586812362074852,0.006030953489243984
1.7294960629415885e+18,-0.01937083899974823,-0.013939573429524899,0.0038307751528918743
1.7294960629505887e+18,-0.015131675638258457,-0.011067059822380543,0.004653919488191605
1.729496062962589e+18,-0.010416146367788315,-0.011734572239220142,0.0017451606690883636
1.729496062968589e+18,-0.01551899779587984,-0.008602599613368511,-6.600795313715935e-05
1.7294960629775892e+18,-0.009930378757417202,-0.010812540538609028,0.002349318005144596
1.7294960629835894e+18,-0.011782477609813213,-0.009471154771745205,0.000914721458684653
1.7294960629925896e+18,-0.013389223255217075,-0.007943621836602688,0.0035398253239691257
1.7294960629985897e+18,-0.01437484472990036,-0.00672910176217556,0.0031533981673419476
1.72949606300759e+18,-0.014890393242239952,-0.008582139387726784,0.0032681450247764587
1.72949606301659e+18,-0.017450211569666862,-0.009416613727807999,0.0009898804128170013
1.7294960630255903e+18,-0.014683349058032036,-0.00721481628715992,0.002407942432910204
1.7294960630345905e+18,-0.011352884583175182,-0.007667544763535261,0.001993731129914522
1.7294960630435907e+18,-0.007887134328484535,-0.0016795629635453224,9.88990068435669e-05
1.7294960630495908e+18,-0.011655638925731182,-0.003571542678400874,0.0001151328906416893
1.729496063061591e+18,-0.009431269019842148,-0.003478290745988488,0.0026214877143502235
1.7294960630705912e+18,-0.013600041158497334,-0.007904615253210068,-0.002346617402508855
1.7294960630795914e+18,-0.013513162732124329,-0.00712604122236371,0.0006277621723711491
1.7294960630855916e+18,-0.01563645713031292,-0.0059243557043373585,-0.00028821665910072625
1.7294960630945917e+18,-0.01108758058398962,-0.005744521506130695,0.002753770910203457
1.729496063103592e+18,-0.007456870283931494,-0.006334479432553053,0.00020689735538326204
1.729496063109592e+18,-0.0064702108502388,-0.005293228197842836,-0.0005809316062368453
1.7294960631185923e+18,-0.005586871411651373,-0.009772303514182568,0.0003957551089115441
1.7294960631275924e+18,-0.0069344257935881615,-0.00928704347461462,0.0013130917213857174
1.7294960631335926e+18,-0.01094816718250513,-0.0064837196841835976,0.000835409271530807
1.7294960631425928e+18,-0.01255867537111044,-0.006353618111461401,-0.002080273348838091
1.729496063151593e+18,-0.008159254677593708,-0.006410788744688034,-0.006240934133529663
1.729496063157593e+18,-0.009793054312467575,-0.0054184384644031525,-0.0009888208005577326
1.7294960631665933e+18,-0.009736322797834873,-0.00683631282299757,-0.004074805416166782
1.7294960631755935e+18,-0.008785407990217209,-0.005007968284189701,-0.002979458309710026
1.7294960631815936e+18,-0.008379178121685982,-0.006396216340363026,-0.003084296127781272
1.7294960631905938e+18,-0.007994468323886395,-0.007173582911491394,-0.00528723793104291
1.729496063199594e+18,-0.010611088015139103,-0.008023499511182308,6.815139204263687e-05
1.7294960632085942e+18,-0.012724646367132664,-0.0057793278247118,-0.0034252479672431946
1.7294960632145943e+18,-0.013544389046728611,-0.0049526020884513855,-2.092914655804634e-05
1.7294960632235945e+18,-0.011926038190722466,-0.00427301786839962,-0.000878416933119297
1.7294960632325947e+18,-0.0078967260196805,-0.0068250298500061035,-0.0018073652172461152
1.729496063241595e+18,-0.009282409213483334,-0.0035391044802963734,-0.004261828027665615
1.729496063250595e+18,-0.008354736492037773,-0.0010766873601824045,-0.0025348917115479708
1.7294960632595953e+18,-0.008956599049270153,-0.005030930507928133,-0.00015146424993872643
1.7294960632685955e+18,-0.010580029338598251,-0.004886834882199764,-0.004540301859378815
1.7294960632745956e+18,-0.00925249420106411,-0.0028771397192031145,-0.0052823470905423164
1.7294960632835958e+18,-0.011541713960468769,-0.0016801959136500955,-0.0014910753816366196
1.729496063289596e+18,-0.008677778765559196,-0.002449181629344821,-0.004573347046971321
1.729496063298596e+18,-0.009999390691518784,-0.00599199952557683,-0.004611001815646887
1.7294960633075963e+18,-0.008065548725426197,-0.003197996411472559,-0.0031600422225892544
1.7294960633135964e+18,-0.007715944666415453,-0.0029027473647147417,-0.0046617453917860985
1.7294960633225966e+18,-0.008195387199521065,-0.0020678164437413216,-0.005917338654398918
1.7294960633285967e+18,-0.010952887125313282,-0.004522362723946571,-0.005913079716265202
1.729496063337597e+18,-0.013680528849363327,-0.00657891808077693,-0.0056309932842850685
1.729496063346597e+18,-0.014227715320885181,-0.003966981545090675,-0.0077319154515862465
1.7294960633525972e+18,-0.011157791130244732,-0.00540110282599926,-0.005525693763047457
1.7294960633645975e+18,-0.006654383614659309,-0.0026349639520049095,-0.003419702174142003
1.7294960633705976e+18,-0.007635371759533882,-0.0018586067017167807,-0.006228385493159294
1.7294960633795978e+18,-0.0065698991529643536,-0.0057122353464365005,-0.006509323138743639
1.729496063385598e+18,-0.007018723525106907,-0.0023026196286082268,-0.005449279211461544
1.7294960633945981e+18,-0.007052198052406311,-0.002757858484983444,-0.006355477962642908
1.7294960634035983e+18,-0.006400820799171925,-0.0023026817943900824,-0.0044845836237072945
1.7294960634095985e+18,-0.00812484696507454,-0.006114991847425699,-0.0064025926403701305
1.7294960634185987e+18,-0.007779922802001238,-0.006952377501875162,-0.007834208197891712
1.7294960634275988e+18,-0.0073320819064974785,-0.005386451259255409,-0.005607493221759796
1.729496063433599e+18,-0.005995588842779398,-0.008454227820038795,-0.005825931206345558
1.7294960634455992e+18,-0.0051121036522090435,-0.004138078540563583,-0.007945161312818527
1.7294960634575995e+18,-0.004769633524119854,-0.002386942273005843,-0.006127598229795694
1.7294960634695997e+18,-0.008840386755764484,0.0013337067794054747,-0.0036997180432081223
1.7294960634786e+18,-0.006698152981698513,-0.0024940581060945988,-0.010286174714565277
1.7294960634846e+18,-0.00416354788467288,0.0011052542831748724,-0.00971918273717165
1.7294960634936003e+18,-0.004331021104007959,-0.0008974469965323806,-0.011181911453604698
1.7294960634996004e+18,-0.003976024221628904,-0.0024751487653702497,-0.0076364148408174515
1.7294960635086006e+18,-0.0014704675413668156,-0.005411512218415737,-0.009483938105404377
1.7294960635176008e+18,-0.005746966693550348,-0.0033185326028615236,-0.007414153777062893
1.729496063523601e+18,-0.0019513973966240883,-0.0017637016717344522,-0.007517979014664888
1.729496063532601e+18,-0.0068067749962210655,-0.0038940939120948315,-0.012246066704392433
1.7294960635386012e+18,-0.004972976632416248,-0.0023789943661540747,-0.009141817688941956
1.7294960635476014e+18,-0.0036283517256379128,0.00040993280708789825,-0.011938285082578659
1.7294960635566016e+18,-0.0042605092748999596,-0.00047392910346388817,-0.007075418718159199
1.7294960635626017e+18,-0.0005935558583587408,-0.003185942769050598,-0.009442735463380814
1.729496063571602e+18,0.001223710016347468,-0.004346832167357206,-0.010620003566145897
1.729496063577602e+18,3.533525159582496e-05,-7.734564132988453e-05,-0.011319909244775772
1.7294960635866022e+18,0.0010582724353298545,-0.003123987466096878,-0.00914708897471428
1.7294960635956024e+18,-0.0018405665177851915,-0.0016509077977389097,-0.008272115141153336
1.7294960636016026e+18,-0.006172836758196354,0.0005810026777908206,-0.011406110599637032
1.7294960636106028e+18,-0.00425591878592968,0.0006996034062467515,-0.007234557997435331
1.729496063619603e+18,-0.001565422397106886,-0.0004327100468799472,-0.009437433443963528
1.7294960636286031e+18,0.0024028108455240726,-0.002153073437511921,-0.006938324775546789
1.7294960636376033e+18,0.0036896176170557737,-0.0045621078461408615,-0.0124555928632617
1.7294960636466035e+18,-0.0014012933243066072,-0.004308631643652916,-0.008309314027428627
1.7294960636556037e+18,0.0002102505532093346,0.0007868178654462099,-0.006173558533191681
1.7294960636616038e+18,-0.00045233062701299787,-0.002324060769751668,-0.008964617736637592
1.729496063670604e+18,-0.0018584576901048422,-0.0010243573924526572,-0.01228951197117567
1.7294960636796042e+18,-0.0024718421045690775,-0.0001921231159940362,-0.007939175702631474
1.7294960636856044e+18,0.000466297147795558,-0.000810683355666697,-0.006892738863825798
1.7294960636946045e+18,-0.0011655929265543818,-0.0013853718992322683,-0.008402598090469837
1.7294960637036047e+18,0.0015546254580840468,-0.004080471582710743,-0.007339918054640293
1.7294960637096049e+18,0.0013054171577095985,-0.0003249356523156166,-0.006069683935493231
1.729496063718605e+18,-0.00018282979726791382,-0.001853068475611508,-0.009679907001554966
1.7294960637276052e+18,0.0010776349809020758,-0.0015285159461200237,-0.011574222706258297
1.7294960637336054e+18,0.0011961080599576235,0.0009106193901970983,-0.011644134297966957
1.7294960637426056e+18,-0.00211423565633595,-0.0039144232869148254,-0.009624534286558628
1.7294960637516058e+18,-0.0014886973658576608,-0.0017132501816377044,-0.005826161243021488
1.729496063757606e+18,-0.00023000233341008425,-0.0008788795676082373,-0.009137592278420925
1.729496063766606e+18,-0.0026464792899787426,0.0012034871615469456,-0.007742663845419884
1.7294960637756063e+18,-0.00014458547229878604,0.0006335492944344878,-0.00830080360174179
1.7294960637816064e+18,-0.0007067304104566574,-0.0015134100103750825,-0.009078308008611202
1.7294960637906066e+18,0.0005104817100800574,-0.0008493053028360009,-0.010960953310132027
1.7294960637966067e+18,0.003671556944027543,0.0010795809794217348,-0.010542014613747597
1.729496063805607e+18,0.00024314294569194317,-0.00031638561631552875,-0.009044974111020565
1.729496063814607e+18,0.000762778043281287,0.0011426969431340694,-0.007977168075740337
1.7294960638206072e+18,-7.91191851021722e-05,-0.0009517944417893887,-0.009856953285634518
1.7294960638296074e+18,-0.0027333064936101437,0.0019901092164218426,-0.008369945921003819
1.7294960638386076e+18,-0.0005077117821201682,-0.0013705516466870904,-0.01124938577413559
1.7294960638476078e+18,-0.0049162860959768295,-0.0021122184116393328,-0.009470806457102299
1.729496063856608e+18,-0.00405619852244854,-0.005255372263491154,-0.006480096373707056
1.7294960638656082e+18,-0.003759531769901514,-0.0037965893279761076,-0.01018991507589817
1.7294960638746084e+18,-0.0009790417971089482,-0.004128308035433292,-0.008503234013915062
1.7294960638836086e+18,-0.001116619328968227,-0.00042478006798774004,-0.00731392577290535
1.7294960638926088e+18,-0.004761805757880211,0.0007409140234813094,-0.00739735784009099
1.729496063901609e+18,-0.00225423788651824,-0.0015216669999063015,-0.009181978181004524
1.729496063907609e+18,-0.0023550561163574457,0.005171126686036587,-0.009946100413799286
1.7294960639166093e+18,-0.0021755013149231672,0.0003419598797336221,-0.006368780508637428
1.7294960639226094e+18,-0.0016622027615085244,-2.0748411770910025e-05,-0.009097518399357796
1.7294960639316096e+18,0.0027711791917681694,-0.0037275729700922966,-0.011620094999670982
1.7294960639406098e+18,0.0024551984388381243,-0.0032450594007968903,-0.007589282933622599
1.72949606394661e+18,-9.983987547457218e-05,-0.0020945523865520954,-0.008521550334990025
1.72949606395561e+18,0.002584788016974926,-0.002986582927405834,-0.009852049872279167
1.7294960639646103e+18,0.002207533223554492,0.0002278484171256423,-0.007448006421327591
1.7294960639706104e+18,0.0027143594343215227,-0.0025165225379168987,-0.005525963846594095
1.7294960639796106e+18,-0.0005760339554399252,-0.001352796913124621,-0.009417148306965828
1.7294960639856108e+18,0.0006692398455925286,-0.001417691819369793,-0.0060123782604932785
1.729496063994611e+18,0.0013647152809426188,-0.001623449381440878,-0.006539402529597282
1.729496064000611e+18,0.00016172684263437986,0.0014545839512720704,-0.007397887296974659
1.7294960640096113e+18,0.0007357803988270462,-0.0006823948351666331,-0.0089236069470644
1.7294960640186115e+18,0.0038737126160413027,-0.002037158003076911,-0.0076658036559820175
1.7294960640246116e+18,0.0023477179929614067,-0.002671737689524889,-0.006793391425162554
1.7294960640336118e+18,0.005904359742999077,-6.848527118563652e-05,-0.0059343501925468445
1.729496064042612e+18,0.002823237329721451,-0.0038045330438762903,-0.005676614120602608
1.7294960640516122e+18,0.005184052512049675,-0.002471406478434801,-0.009206367656588554
1.7294960640576123e+18,0.005051882937550545,0.0015278344508260489,-0.00577146140858531
1.7294960640666125e+18,-0.001156690064817667,-5.952300853095949e-05,-0.005908740218728781
1.7294960640726126e+18,-0.0014606560580432415,-0.0005477805389091372,-0.0031337658874690533
1.7294960640816128e+18,-0.0031295684166252613,-0.0008234935230575502,-0.0028525921516120434
1.729496064090613e+18,0.00015923648606985807,-0.00046147199464030564,-0.006778242997825146
1.729496064096613e+18,0.0012378832325339317,-0.0018281000666320324,-0.007233251817524433
1.7294960641056133e+18,0.0024173124693334103,-0.0027466025203466415,-0.005620506592094898
1.7294960641146135e+18,0.0020538107492029667,-0.0014936550287529826,-0.004855006001889706
1.7294960641206136e+18,0.0008289378602057695,-0.005152108147740364,-0.007183084264397621
1.7294960641296138e+18,-0.00024556578136980534,0.0012208232656121254,-0.006708537228405476
1.729496064135614e+18,0.0008218040456995368,0.00010538818605709821,-0.0020842673256993294
1.7294960641446141e+18,-0.002071484923362732,0.0009550135582685471,-0.002706723753362894
1.7294960641536143e+18,-0.002082202583551407,0.00035295431734994054,-0.0054328725673258305
1.7294960641596145e+18,0.0013581921812146902,0.0006893521640449762,-0.0021837432868778706
1.7294960641686147e+18,0.00023713731206953526,-0.0038447503466159105,-0.0026065295096486807
1.7294960641776148e+18,-0.000556561048142612,2.696877345442772e-05,-0.006277464795857668
1.729496064183615e+18,0.0009079989395104349,-0.0024941889569163322,-0.00541180232539773
1.7294960641926152e+18,-0.002485894598066807,-0.0007892132271081209,-0.0008282279595732689
1.7294960642016154e+18,0.001318640075623989,0.0014104439178481698,-0.004808069672435522
1.7294960642106156e+18,0.0017272812547162175,0.0015276450430974364,-0.0035357519518584013
1.7294960642196157e+18,-0.0011596677359193563,0.0008434044430032372,-0.00424781022593379
1.729496064225616e+18,0.005502309184521437,0.0043352823704481125,-0.006105778273195028
1.729496064234616e+18,0.00695256981998682,0.0030186765361577272,-0.00449926545843482
1.7294960642436163e+18,0.002428274368867278,3.636197652667761e-05,-0.004449181258678436
1.7294960642496164e+18,0.0030690322164446115,0.002622645813971758,-0.006198372691869736
1.7294960642586166e+18,0.002995077520608902,0.002492941450327635,-0.004397648852318525
1.7294960642676168e+18,0.002210089936852455,0.003347195917740464,-0.00471419608220458
1.729496064273617e+18,0.004494931548833847,0.0019116265466436744,-0.003588407300412655
1.729496064282617e+18,0.003410812932997942,0.0005624603945761919,-0.003229532390832901
1.7294960642886172e+18,0.001679434790275991,-0.0018566153012216091,-0.0038827727548778057
1.7294960642976174e+18,0.00202684523537755,0.002692336216568947,-0.004008743911981583
1.7294960643066176e+18,0.004437792114913464,-0.0005068506579846144,-0.005318815354257822
1.7294960643126177e+18,0.004246743395924568,-0.002439585980027914,-0.0035446067340672016
1.729496064321618e+18,0.0009985866490751505,-0.0033728000707924366,-0.0038353356067091227
1.729496064327618e+18,0.0005885461578145623,-0.0008154702372848988,-0.004215575754642487
1.7294960643366182e+18,0.003218166995793581,0.003252398455515504,-0.006507353391498327
1.7294960643456184e+18,0.0029722724575549364,0.002285877475515008,-0.003219770034775138
1.7294960643516186e+18,0.00391685776412487,0.0028767508920282125,-0.005250945221632719
1.7294960643606188e+18,0.0023067877627909184,0.0011420948430895805,-0.003396329702809453
1.729496064369619e+18,0.004264259710907936,0.0037022666074335575,-0.004684685729444027
1.729496064375619e+18,0.00603566924110055,0.001662795664742589,-0.0018711963202804327
1.7294960643846193e+18,0.0020941582042723894,0.0004893947625532746,-0.0011284626089036465
1.7294960643936195e+18,0.0017506703734397888,-0.0025738286785781384,-0.0036641093902289867
1.7294960643996196e+18,0.0016495238523930311,0.0014582654694095254,-0.006938354577869177
1.7294960644086198e+18,0.003634484950453043,0.005871524102985859,-0.004248241428285837
1.72949606441762e+18,0.0019090583082288504,0.004310368560254574,-0.0008909963071346283
1.7294960644266202e+18,0.0044832476414740086,0.001752095646224916,-0.005382732953876257
1.7294960644356204e+18,0.0042602079920470715,0.002615936566144228,-0.0024422393180429935
1.7294960644446205e+18,0.008442998863756657,0.002067753579467535,-0.0004621467087417841
1.7294960644506207e+18,0.007210021372884512,0.005313411355018616,-0.004451107233762741
1.7294960644596209e+18,0.004543024580925703,0.00251957681030035,-0.0006706379354000092
1.729496064465621e+18,0.0024426309391856194,0.002039528451859951,-0.004383987281471491
1.7294960644746212e+18,0.0016090492717921734,0.0032290141098201275,-0.005173855926841497
1.7294960644836214e+18,0.00013050355482846498,0.002971840323880315,-0.004446530714631081
1.7294960644896215e+18,-0.000179799972102046,0.004953363910317421,-0.003470237134024501
1.7294960644986217e+18,0.0061969151720404625,0.003919253591448069,-0.001152616459876299
1.729496064507622e+18,0.007610265165567398,0.004867243114858866,-0.006036641076207161
1.729496064513622e+18,0.0064117684960365295,0.004777112975716591,-0.004559874068945646
1.7294960645226222e+18,0.007218947634100914,0.0014706000220030546,-0.005003055557608604
1.7294960645316224e+18,0.005777203012257814,0.003046659752726555,-0.0036816224455833435
1.7294960645376225e+18,0.0011583799496293068,0.0016385337803512812,-0.003995101433247328
1.7294960645466227e+18,0.0006240471266210079,0.0031657516956329346,-0.0041285911574959755
1.7294960645526228e+18,6.944680353626609e-05,0.004036820027977228,-0.004443101119250059
1.729496064561623e+18,0.0027109708171337843,0.0035148172173649073,-0.0029780485201627016
1.7294960645706232e+18,0.004000421147793531,-0.00018720864318311214,-0.003963242284953594
1.7294960645766234e+18,0.004433050286024809,0.002516425447538495,-0.0007773761171847582
1.7294960645856236e+18,0.006135782226920128,0.0019929064437747,-0.004678840283304453
1.7294960645946237e+18,-0.00043216138146817684,0.002079144585877657,-0.003631411585956812
1.729496064603624e+18,-0.0006716254283674061,0.003961769863963127,-0.0028853032272309065
1.729496064609624e+18,-0.0011280435137450695,0.002101072110235691,-0.00157132837921381
1.7294960646186243e+18,-0.0014367189723998308,0.0027983742766082287,-0.00860325526446104
1.7294960646246244e+18,-0.004863216541707516,0.004995168652385473,-0.018034659326076508
1.7294960646336246e+18,0.0030301278457045555,0.004277538508176804,-0.028280068188905716
1.7294960646426248e+18,-0.0002818144566845149,0.005311310291290283,-0.03357534110546112
1.729496064648625e+18,0.0009892078815028071,0.00629082228988409,-0.03596767783164978
1.729496064657625e+18,-0.0028263884596526623,0.004697076044976711,-0.036780256778001785
1.7294960646666253e+18,-0.002630866365507245,0.009143954142928123,-0.034258849918842316
1.7294960646726254e+18,-0.00177854357752949,0.005722927860915661,-0.03890611231327057
1.7294960646816256e+18,-0.0025629689916968346,0.004598718602210283,-0.03706442937254906
1.7294960646906258e+18,-0.004656778648495674,0.0049974313005805016,-0.03589300811290741
1.729496064696626e+18,-0.005220584571361542,0.0059364959597587585,-0.03322777897119522
1.729496064705626e+18,-0.0010990479495376348,0.002310228068381548,-0.03440593183040619
1.7294960647116262e+18,-8.557230466976762e-05,0.004566774237900972,-0.036114465445280075
1.7294960647206264e+18,-0.0017150132916867733,0.005758822895586491,-0.0387677438557148
1.7294960647296266e+18,-0.0010907825781032443,0.003786786226555705,-0.038172122091054916
1.7294960647356268e+18,0.0027011530473828316,0.005118421744555235,-0.03440229594707489
1.729496064744627e+18,0.004271489102393389,0.003389272838830948,-0.03705141320824623
1.7294960647536271e+18,0.0004606543807312846,0.0018041824223473668,-0.03514294698834419
1.7294960647596273e+18,0.00020873463654424995,0.00271798949688673,-0.03749075531959534
1.7294960647686275e+18,-0.0017876196652650833,0.0027115740813314915,-0.038071393966674805
1.7294960647746276e+18,0.001005643978714943,0.0035601689014583826,-0.0356169119477272
1.7294960647836278e+18,0.001294869463890791,0.004055543802678585,-0.03922499716281891
1.729496064792628e+18,0.0040852976962924,0.005101047921925783,-0.032497674226760864
1.729496064798628e+18,0.008357219398021698,0.003846200183033943,-0.03593790903687477
1.7294960648076283e+18,0.005641669500619173,0.002661017933860421,-0.03696786239743233
1.7294960648166285e+18,0.006490196567028761,-0.00015814928337931633,-0.035677794367074966
1.7294960648226286e+18,-0.0008020245004445314,0.0008749290136620402,-0.037492379546165466
1.7294960648316288e+18,-7.812923286110163e-06,0.0012124544009566307,-0.03360958769917488
1.729496064840629e+18,0.0011355590540915728,0.003953784704208374,-0.038812242448329926
1.729496064846629e+18,0.0036634013522416353,0.0026517584919929504,-0.03903762996196747
1.7294960648556293e+18,0.00648309662938118,-0.00033474070369265974,-0.03883427381515503
1.7294960648616294e+18,0.006850018166005611,0.0011986455647274852,-0.03554524853825569
1.7294960648706296e+18,0.006501269526779652,-0.002148932311683893,-0.037331752479076385
1.7294960648796298e+18,0.003177063073962927,-0.0020575737580657005,-0.03771064057946205
1.72949606488563e+18,0.00023564905859529972,-0.0018762488616630435,-0.03640228137373924
1.7294960648946301e+18,-0.0004961660015396774,0.0035570450127124786,-0.03351235389709473
1.7294960649036303e+18,-0.0011767144314944744,0.0005604381440207362,-0.036571625620126724
1.7294960649096305e+18,-0.00036863842979073524,-9.534461423754692e-05,-0.036625977605581284
1.7294960649186307e+18,-0.001292042899876833,0.0012042736634612083,-0.03659232705831528
1.7294960649246308e+18,0.0012115363497287035,-0.0014714386779814959,-0.03751402348279953
1.729496064933631e+18,0.0013983554672449827,-0.0025908842217177153,-0.03800560534000397
1.7294960649426312e+18,0.008196977898478508,0.0005523808649741113,-0.03224264457821846
1.7294960649486313e+18,0.005641643889248371,-0.003583243815228343,-0.035920146852731705
1.7294960649576315e+18,0.002786624012514949,-0.0030384166166186333,-0.035476092249155045
1.7294960649666317e+18,0.006335175130516291,0.0006888873176649213,-0.034612834453582764
1.7294960649726318e+18,0.0016710319323465228,-0.0021415171213448048,-0.0343601293861866
1.729496064981632e+18,0.0023024927359074354,0.0033371387980878353,-0.033589787781238556
1.7294960649906322e+18,0.001550075365230441,-0.002081870101392269,-0.03142674267292023
1.7294960649966323e+18,0.0038588177412748337,0.00022170913871377707,-0.03281012177467346
1.7294960650056325e+18,0.004734388552606106,0.0007279623532667756,-0.032838374376297
1.7294960650146327e+18,0.0059499554336071014,0.0011311389971524477,-0.03268174082040787
1.7294960650206328e+18,0.0036428540479391813,-0.0002825835545081645,-0.03092382475733757
1.729496065029633e+18,0.0046213530004024506,-0.000649415364023298,-0.029238706454634666
1.7294960650386332e+18,0.0008905430440790951,-0.0007796930149197578,-0.030153688043355942
1.7294960650476334e+18,0.0016249238979071379,-0.0022848322987556458,-0.026861559599637985
1.7294960650536335e+18,0.004154853988438845,-0.004502464085817337,-0.027602694928646088
1.7294960650626337e+18,0.00140022998675704,-0.003464292734861374,-0.028443917632102966
1.729496065071634e+18,0.006391970440745354,-0.0023912040051072836,-0.024591701105237007
1.729496065080634e+18,0.007660413160920143,-0.0030936216935515404,-0.025360558182001114
1.7294960650866342e+18,0.007178002502769232,-0.0013228344032540917,-0.02247396856546402
1.7294960650956344e+18,0.007856540381908417,-0.001529461471363902,-0.02481503039598465
1.7294960651046346e+18,0.0025810315273702145,-0.0009294060873799026,-0.02280511148273945
1.7294960651106348e+18,0.003714223625138402,-0.001664206851273775,-0.023090435191988945
1.729496065119635e+18,0.001442981418222189,-0.0032410782296210527,-0.02331276424229145
1.729496065125635e+18,-0.002940451493486762,-0.0042436919175088406,-0.01532348245382309
1.7294960651346353e+18,6.252664024941623e-05,-0.003416384570300579,-0.018991779536008835
1.7294960651406354e+18,0.0012798005482181907,-0.004766036756336689,-0.018396297469735146
1.7294960651496356e+18,0.00738213025033474,-0.004524433985352516,-0.014801409095525742
1.7294960651586358e+18,0.006955267861485481,-2.2218795493245125e-05,-0.015049602836370468
1.729496065164636e+18,0.008862282149493694,-0.0016434574499726295,-0.014800041913986206
1.729496065173636e+18,0.004227647557854652,0.0023241760209202766,-0.015447886660695076
1.7294960651826363e+18,0.004117786884307861,8.101970888674259e-05,-0.013783792965114117
1.7294960651916365e+18,0.001022661803290248,0.0024821599945425987,-0.014134248718619347
1.7294960651976366e+18,0.00135007593780756,0.00016678367683198303,-0.008855877444148064
1.7294960652066368e+18,0.007338684983551502,0.00015539216110482812,-0.009376146830618382
1.729496065215637e+18,0.002988021820783615,0.0004464756930246949,-0.008206404745578766
1.729496065221637e+18,0.007065821439027786,0.0017636456759646535,-0.009385445155203342
1.7294960652306373e+18,0.0051999203860759735,0.004188128747045994,-0.008529397659003735
1.7294960652366374e+18,0.007573580835014582,0.0015005730092525482,-0.007288028486073017
1.7294960652456376e+18,0.004062552936375141,0.001696527237072587,-0.007149072363972664
1.7294960652516378e+18,0.005877764895558357,0.002562121255323291,-0.0034983374644070864
1.729496065260638e+18,0.0030911751091480255,0.003868072759360075,-0.002478476846590638
1.7294960652696381e+18,-0.0007143736584112048,0.0028267507441341877,-0.004140613134950399
1.7294960652756383e+18,0.002306745620444417,0.007252024952322245,-0.001763167791068554
1.7294960652846385e+18,0.0014745390508323908,0.002366136759519577,0.0020156563259661198
1.7294960652906386e+18,0.001508124521933496,0.00208507408387959,0.0006492044776678085
1.7294960652996388e+18,0.002283031353726983,0.0030998438596725464,0.0002238780725747347
1.729496065308639e+18,0.004001636058092117,0.0016869747778400779,0.0014428496360778809
1.729496065314639e+18,0.004419626668095589,0.0019442741759121418,0.0014031785540282726
1.7294960653236393e+18,0.0060071819461882114,0.0033790289890021086,0.0046481117606163025
1.7294960653326395e+18,0.0073875426314771175,0.001683179521933198,0.007152955513447523
1.7294960653386396e+18,0.002922737505286932,0.0025492566637694836,0.006597230210900307
1.7294960653476398e+18,0.004755871370434761,0.004664957523345947,0.010315006598830223
1.72949606535664e+18,0.003111313795670867,0.0010340245207771659,0.013264159671962261
1.7294960653626401e+18,0.0032516338396817446,-0.0009355545043945312,0.014046290889382362
1.7294960653716403e+18,0.0026534423232078552,0.00026486790738999844,0.017028894275426865
1.7294960653776404e+18,0.0039556147530674934,0.0021684812381863594,0.01474838424474001
1.7294960653866406e+18,0.002265067072585225,0.003579005366191268,0.016589127480983734
1.7294960653926408e+18,0.005693191662430763,0.002847757190465927,0.017201349139213562
1.729496065401641e+18,0.008245636709034443,0.0029602134600281715,0.019054275006055832
1.7294960654106412e+18,0.005381543189287186,0.0033113202080130577,0.022917818278074265
1.7294960654196413e+18,0.00569915072992444,0.002656077267602086,0.020996838808059692
1.7294960654286415e+18,0.006143661215901375,0.001137842540629208,0.02088260091841221
1.7294960654376417e+18,0.0027496113907545805,0.0016323793679475784,0.023625915870070457
1.7294960654436419e+18,0.0059559582732617855,0.005247133783996105,0.024073245003819466
1.729496065452642e+18,0.004176162648946047,-0.00038756243884563446,0.026557454839348793
1.7294960654616422e+18,0.006861499045044184,0.0010308031924068928,0.02809000015258789
1.7294960654706424e+18,0.006288636941462755,0.00144242774695158,0.024394629523158073
1.7294960654766426e+18,0.004189754836261272,0.0011869127629324794,0.026078909635543823
1.7294960654856428e+18,0.004445056430995464,0.00039500556886196136,0.028160473331809044
1.729496065494643e+18,0.005303629674017429,0.0010256859241053462,0.02772800251841545
1.729496065500643e+18,0.005080723203718662,-0.0008139493875205517,0.02793373167514801
1.7294960655096433e+18,0.007807424291968346,0.0007713857921771705,0.028518564999103546
1.7294960655186435e+18,0.004047399386763573,0.002934214659035206,0.031899888068437576
1.7294960655276436e+18,0.007372386287897825,0.0020262987818568945,0.032179705798625946
1.7294960655366438e+18,0.009891432709991932,-0.0009070991072803736,0.031183460727334023
1.729496065545644e+18,0.009700476191937923,-0.001119257532991469,0.03422540798783302
1.7294960655546442e+18,0.008402523584663868,0.00153770437464118,0.03528597578406334
1.7294960655606444e+18,0.009989382699131966,-0.0032895368058234453,0.03371022269129753
1.7294960655696445e+18,0.007268400397151709,8.419284131377935e-05,0.03708720952272415
1.7294960655786447e+18,0.007073572836816311,-0.0003993849968537688,0.03827562555670738
1.7294960655846449e+18,0.00445483298972249,0.0016749127535149455,0.036308471113443375
1.729496065593645e+18,0.003277166048064828,-0.005057360045611858,0.037800826132297516
1.7294960656026452e+18,0.005923383869230747,0.0023334152065217495,0.03829015791416168
1.7294960656116454e+18,0.0070786201395094395,-0.00031405233312398195,0.03807105869054794
1.7294960656176456e+18,0.007348929066210985,-1.282768789678812e-05,0.04044727981090546
1.7294960656266458e+18,0.005170843098312616,0.0012918554712086916,0.037835124880075455
1.729496065635646e+18,0.005426453892141581,-0.0017898292280733585,0.043110717087984085
1.7294960656446461e+18,0.0008439677767455578,0.0031247634906321764,0.04107467457652092
1.7294960656506463e+18,0.0017331124981865287,-0.0011013367911800742,0.042742252349853516
1.7294960656596465e+18,0.001812869100831449,0.001983311492949724,0.041224900633096695
1.7294960656686467e+18,0.004490415565669537,0.00268185930326581,0.041475553065538406
1.7294960656776468e+18,0.0056658159010112286,0.0034879744052886963,0.043392255902290344
1.729496065683647e+18,0.005307614337652922,0.003245031461119652,0.0425788015127182
1.7294960656926472e+18,0.0031739561818540096,0.002452438697218895,0.0441579706966877
1.7294960657016474e+18,0.0028928713873028755,0.0030920226126909256,0.04479650780558586
1.7294960657076475e+18,0.004333968739956617,0.0007769872900098562,0.04530688747763634
1.7294960657166477e+18,0.005034119822084904,0.004013947676867247,0.04444030299782753
1.729496065725648e+18,-0.0002692637499421835,0.0030890367925167084,0.044564004987478256
1.729496065731648e+18,0.0021300979424268007,0.0008828471763990819,0.04478033632040024
1.7294960657406482e+18,-0.0020713503472507,0.00032639031996950507,0.047125231474637985
1.7294960657496484e+18,-0.0009818144608289003,0.0005621871096082032,0.04777977243065834
1.7294960657556485e+18,-0.0013865564251318574,-1.6765552572906017e-05,0.047397539019584656
1.7294960657646487e+18,0.0006830219645053148,0.0019527825061231852,0.047801390290260315
1.7294960657706488e+18,0.002258960623294115,0.0035396632738411427,0.05148407071828842
1.729496065779649e+18,0.005108669400215149,0.004357491619884968,0.0495665967464447
1.7294960657886492e+18,0.001940025482326746,0.00535636255517602,0.048931315541267395
1.7294960657946493e+18,0.003364164149388671,0.006483722012490034,0.05297800898551941
1.7294960658036495e+18,0.001372980303131044,0.0015726079000160098,0.049232158809900284
1.7294960658126497e+18,-0.001525159808807075,0.0018626248929649591,0.05255168303847313
1.7294960658186499e+18,-0.002303139539435506,-0.0016853585839271545,0.049023713916540146
1.72949606582765e+18,-0.0017688455991446972,0.00038711854722350836,0.05066704377532005
1.7294960658336502e+18,-0.0015230507124215364,0.002514126244932413,0.051092956215143204
1.7294960658426504e+18,0.0016217095544561744,0.002782948547974229,0.05182947963476181
1.7294960658516506e+18,0.005321919452399015,0.004879518412053585,0.0513194315135479
1.7294960658606508e+18,0.014204333536326885,0.009840164333581924,0.05089840665459633
1.729496065866651e+18,0.020076364278793335,0.013855877332389355,0.05232148617506027
1.729496065875651e+18,0.02055068500339985,0.01708521507680416,0.0471438467502594
1.7294960658816512e+18,0.025235693901777267,0.015102695673704147,0.04922652244567871
1.7294960658906514e+18,0.02068265713751316,0.016385044902563095,0.04812069237232208
1.7294960658966515e+18,0.017688466235995293,0.017153194174170494,0.04725674167275429
1.7294960659056517e+18,0.017326856032013893,0.015365430153906345,0.04837684705853462
1.729496065914652e+18,0.015271720476448536,0.01603160798549652,0.04292435571551323
1.729496065920652e+18,0.01905861683189869,0.0174240842461586,0.04738477244973183
1.7294960659296522e+18,0.0227578803896904,0.01563059538602829,0.04597453773021698
1.7294960659356524e+18,0.029377151280641556,0.019131038337945938,0.04400049149990082
1.7294960659446525e+18,0.02978847734630108,0.02021661214530468,0.044554952532052994
1.7294960659536527e+18,0.023670688271522522,0.01790381595492363,0.041417788714170456
1.7294960659596529e+18,0.025719640776515007,0.018525151535868645,0.039362482726573944
1.729496065968653e+18,0.018795300275087357,0.017857041209936142,0.042402174323797226
1.7294960659776532e+18,0.018793674185872078,0.017205530777573586,0.03901850804686546
1.7294960659836534e+18,0.019909044727683067,0.015224955976009369,0.04202112555503845
1.7294960659926536e+18,0.01919701136648655,0.012480931356549263,0.03860138729214668
1.7294960659986537e+18,0.015271621756255627,0.010542919859290123,0.03591255843639374
1.729496066007654e+18,0.01876397803425789,0.012268914841115475,0.03689943253993988
1.729496066016654e+18,0.020587347447872162,0.01233321987092495,0.036590758711099625
1.7294960660226542e+18,0.02173168957233429,0.011690289713442326,0.03684476017951965
1.7294960660346545e+18,0.01568750850856304,0.00927274115383625,0.03663573041558266
1.7294960660436547e+18,0.014146499335765839,0.009238584898412228,0.03753596916794777
1.7294960660526548e+18,0.009366333484649658,0.010324199683964252,0.03590073809027672
1.7294960660676552e+18,0.005667896009981632,0.009686073288321495,0.03241359442472458
1.7294960660766554e+18,0.01002680603414774,0.008159532211720943,0.03303714096546173
1.7294960660826555e+18,0.00838228315114975,0.009012183174490929,0.032604534178972244
1.7294960660916557e+18,0.012827632948756218,0.009963308461010456,0.03293242305517197
1.7294960661006559e+18,0.014254228211939335,0.007101941853761673,0.030615733936429024
1.729496066109656e+18,0.00932850781828165,0.004369799979031086,0.03378058969974518
1.7294960661156562e+18,0.008639641106128693,0.004908552393317223,0.028412869200110435
1.7294960661246564e+18,0.0018352523911744356,0.001565086073242128,0.029591888189315796
1.7294960661336566e+18,0.0018347144359722733,0.0028946520760655403,0.030366405844688416
1.7294960661426568e+18,0.005168627947568893,0.002725670114159584,0.03136821836233139
1.729496066151657e+18,0.0025081136263906956,-0.0013840366154909134,0.028002692386507988
1.729496066157657e+18,0.006245126016438007,-0.000240121444221586,0.026233375072479248
1.7294960661666573e+18,0.005084718577563763,0.0003151734417770058,0.027401043102145195
1.7294960661756575e+18,0.0024448824115097523,0.0029653524979948997,0.02218683436512947
1.7294960661846577e+18,0.0008631506934762001,0.003515064250677824,0.02875392511487007
1.7294960661936579e+18,-0.004173613619059324,-0.0009253538446500897,0.026485204696655273
1.729496066202658e+18,-0.006632051896303892,-0.004260190296918154,0.027706235647201538
1.7294960662086582e+18,-0.009592551738023758,-0.0043588662520051,0.026549791917204857
1.7294960662176584e+18,-0.0032997732050716877,-0.0023075060453265905,0.026811804622411728
1.7294960662266586e+18,-0.005130987148731947,-0.003346964716911316,0.02457304112613201
1.7294960662356588e+18,-0.0031644722912460566,-0.001983985770493746,0.021897073835134506
1.729496066244659e+18,-0.002551223151385784,-0.00041904812678694725,0.023472880944609642
1.7294960662536591e+18,-0.0019424372585490346,0.00319590768776834,0.021895218640565872
1.7294960662596593e+18,-0.00116928038187325,0.0022232825867831707,0.023255301639437675
1.7294960662686595e+18,-0.0062487320974469185,-0.0023729733657091856,0.02143096923828125
1.7294960662776596e+18,-0.004147548694163561,-0.0007021023193374276,0.02096218429505825
1.7294960662866598e+18,-0.002887678798288107,-0.003087584162130952,0.0211626086384058
1.72949606629566e+18,-0.003629172220826149,-0.0019539417698979378,0.0203194972127676
1.7294960663016602e+18,-0.0034797065891325474,-0.001081465044990182,0.01679844595491886
1.7294960663106604e+18,-0.003214465919882059,-0.00020125997252762318,0.015506187453866005
1.7294960663196605e+18,-0.0034612417221069336,0.0013669857289642096,0.018817082047462463
1.7294960663286607e+18,-0.00922505185008049,0.0027694678865373135,0.019535470753908157
1.7294960663346609e+18,-0.006939994171261787,0.002424451056867838,0.017763618379831314
1.729496066343661e+18,-0.007378941401839256,0.0002565524191595614,0.014293747022747993
1.7294960663526612e+18,-0.006419421173632145,-0.0005439996020868421,0.018743697553873062
1.7294960663586614e+18,-0.002728697843849659,-0.0016015067230910063,0.02135423570871353
1.7294960663676616e+18,-0.003457257291302085,-0.0038288538344204426,0.01700117066502571
1.7294960663766618e+18,-0.0046303062699735165,-0.00551646389067173,0.015109345316886902
1.729496066385662e+18,-0.004549173638224602,-0.0051575759425759315,0.017675818875432014
1.7294960663946621e+18,-0.0074152396991848946,-0.0030433102510869503,0.016624348238110542
1.7294960664036623e+18,-0.008245818316936493,-0.0046610780991613865,0.017033834010362625
1.7294960664096625e+18,-0.006757412571460009,-0.0018989430973306298,0.012560738250613213
1.7294960664186627e+18,-0.0026391707360744476,-0.004361673723906279,0.017018897458910942
1.7294960664276628e+18,-0.0030170262325555086,-0.0055161030031740665,0.01763349398970604
1.729496066433663e+18,-0.004790003411471844,-0.00315837818197906,0.01694055274128914
1.7294960664426632e+18,-0.0060470374301075935,-0.0005652934778481722,0.014693045988678932
1.7294960664516634e+18,-0.0071730585768818855,-0.0009236958576366305,0.013558761216700077
1.7294960664576635e+18,-0.004159892909228802,-0.00273520452901721,0.0130354268476367
1.7294960664666637e+18,-0.003939138725399971,-0.0020569299813359976,0.01703650876879692
1.7294960664726638e+18,-0.005304427817463875,-0.000590356532484293,0.015357966534793377
1.729496066484664e+18,-0.00046686746645718813,0.0005903255078010261,0.014261242933571339
1.7294960664936643e+18,0.0007334112888202071,0.002878898289054632,0.01650051213800907
1.7294960665026644e+18,-0.0033465041778981686,0.0007290925132110715,0.0158102847635746
1.7294960665116646e+18,-0.004114166833460331,-0.0003609517589211464,0.014681749977171421
1.7294960665176648e+18,-0.005684990435838699,0.001000960823148489,0.01288675144314766
1.729496066526665e+18,-0.004122613463550806,-0.0010106246918439865,0.01377919688820839
1.729496066532665e+18,-0.00370013271458447,-0.00257913488894701,0.01515319012105465
1.7294960665416653e+18,-0.0049845329485833645,-0.0017631127266213298,0.010960527695715427
1.7294960665506655e+18,-0.007198568433523178,-0.00032615603413432837,0.011090789921581745
1.7294960665566656e+18,-0.004852217622101307,-0.003573282388970256,0.014057879336178303
1.7294960665656658e+18,-0.0027745538391172886,0.00034279338433407247,0.010725107043981552
1.729496066574666e+18,-0.0029793924186378717,-0.00016474541916977614,0.013988126069307327
1.729496066580666e+18,-0.00515734450891614,-0.0024163410998880863,0.011486911214888096
1.7294960665896663e+18,-0.003764709457755089,-0.0005060009425505996,0.013074182905256748
1.7294960665956664e+18,-0.008242780342698097,-0.00246606906875968,0.009042395278811455
1.7294960666046666e+18,-0.007606978062540293,-0.0019266775343567133,0.010822759941220284
1.7294960666106668e+18,-0.010310962796211243,-0.0046789925545454025,0.010910539887845516
1.729496066619667e+18,-0.006240439601242542,-0.0007071908912621439,0.008582310751080513
1.7294960666286671e+18,-0.008882090449333191,0.0007470595301128924,0.01181865856051445
1.7294960666346673e+18,-0.006924246437847614,0.0032535986974835396,0.010808508843183517
1.7294960666436675e+18,-0.006622001063078642,-0.0021918239071965218,0.011975172907114029
1.7294960666496676e+18,-0.002708751941099763,0.000358032644726336,0.008607003837823868
1.7294960666586678e+18,-0.003760784864425659,-0.0021081131417304277,0.00916083250194788
1.729496066664668e+18,-0.004313570447266102,-0.002182665280997753,0.011136231943964958
1.7294960666766682e+18,-0.0033235116861760616,-0.003914971370249987,0.008874214254319668
1.7294960666826683e+18,-0.007620862685143948,0.002196153160184622,0.011495961807668209
1.7294960666916685e+18,-0.0045144096948206425,0.00017131067579612136,0.005764420609921217
1.7294960667006687e+18,-0.004523809999227524,0.0011707749217748642,0.0055679576471447945
1.7294960667096689e+18,-0.0073120687156915665,-0.0007804876076988876,0.00910094752907753
1.729496066715669e+18,-0.003388584591448307,-0.0017234275583177805,0.008461814373731613
1.7294960667246692e+18,-0.0034232004545629025,-0.005521091632544994,0.009467480704188347
1.7294960667306693e+18,-0.005679435096681118,-0.0033416354563087225,0.00696486746892333
1.7294960667396695e+18,-0.004746056627482176,-0.0007955362088978291,0.009451664052903652
1.7294960667486697e+18,-0.004710335284471512,-0.002200643066316843,0.009060529991984367
1.7294960667546698e+18,-0.0020227828063070774,-0.002293903613463044,0.0035934471525251865
1.72949606676367e+18,-0.003249085508286953,0.001258922042325139,0.0053818197920918465
1.7294960667726702e+18,-0.00737411342561245,0.0002994315873365849,0.009461257606744766
1.7294960667786703e+18,-0.004631565883755684,-0.0014300417387858033,0.008622384630143642
1.7294960667876705e+18,-0.007064314559102058,-0.002068594330921769,0.008955620229244232
1.7294960667966707e+18,-0.006546952296048403,-0.004459833260625601,0.006762998178601265
1.729496066805671e+18,-0.005246806889772415,-0.0028714234940707684,0.008577806875109673
1.729496066811671e+18,-0.004353831987828016,-0.006598273292183876,0.00536743737757206
1.7294960668206712e+18,-0.007309109903872013,-0.0030476488173007965,0.004115288611501455
1.7294960668296714e+18,-0.008358778432011604,-0.006659279111772776,0.004582615569233894
1.7294960668356716e+18,-0.007160344161093235,-0.0016746812034398317,0.007416769862174988
1.7294960668446717e+18,-0.009621444158256054,-0.0041148047894239426,0.011111806146800518
1.7294960668506719e+18,-0.008592328056693077,-0.0015186986420303583,0.005524938460439444
1.729496066859672e+18,-0.007913111709058285,0.0012541115283966064,0.004090139642357826
1.7294960668656722e+18,-0.0038403342477977276,-0.0002864300040528178,0.005549611058086157
1.7294960668746724e+18,-0.004553524311631918,-0.0023878621868789196,0.008094222284853458
1.7294960668806725e+18,-0.004391623195260763,-0.00023225101176649332,0.006554419174790382
1.7294960668896727e+18,-0.006562414579093456,-0.00029648421332240105,0.005877042189240456
1.729496066898673e+18,-0.006629615090787411,-0.0038036878686398268,0.00558779202401638
1.729496066904673e+18,-0.007858982309699059,-0.003284356789663434,0.0056549422442913055
1.7294960669136732e+18,-0.00851960014551878,-0.006109910551458597,0.005239072721451521
1.7294960669226734e+18,-0.00464488985016942,-0.002629512455314398,0.007110527250915766
1.7294960669286735e+18,-0.0027968818321824074,-0.001106402138248086,0.003978089429438114
1.7294960669436739e+18,0.00023759400937706232,0.001490290742367506,0.005380701273679733
1.729496066952674e+18,-0.0012526704231277108,0.0004055200843140483,0.005577778909355402
1.7294960669616742e+18,-0.0007975503103807569,0.005218318197876215,0.005681645590811968
1.7294960669706744e+18,-0.006078455597162247,-0.0010599899105727673,0.003989863209426403
1.7294960669796746e+18,-0.005608415696769953,0.0004220718110445887,0.0056101130321621895
1.7294960669856748e+18,-0.006725547835230827,-0.00026321469340473413,0.004058434162288904
1.729496066994675e+18,-0.005347602069377899,-0.00044581363908946514,0.0035225702449679375
1.7294960670036751e+18,-0.006490549072623253,0.00019559875363484025,0.002194922650232911
1.7294960670126753e+18,-0.005868541542440653,-0.0012033411767333746,0.00521674333140254
1.7294960670216755e+18,-0.0027964001055806875,-0.0021889337804168463,0.0052097998559474945
1.7294960670276756e+18,-0.0048119500279426575,-0.0019533021841198206,0.006349477451294661
1.7294960670366758e+18,-0.003630206687375903,-0.004341816995292902,0.003121335990726948
1.729496067045676e+18,-0.004879724234342575,-0.0023928785230964422,0.006294122897088528
1.7294960670546762e+18,-0.007084956858307123,-0.0008077748352661729,0.0035211406648159027
1.7294960670606764e+18,-0.005227575544267893,-0.0002215057611465454,0.003519679419696331
1.7294960670696765e+18,-0.004456225782632828,0.0006459547439590096,0.004451539367437363
1.7294960670786767e+18,-0.007598511874675751,-0.0017227008938789368,0.002422595862299204
1.729496067087677e+18,-0.005495597142726183,-0.0006701013771817088,0.0031380360014736652
1.729496067096677e+18,-0.0026716773863881826,-0.00195947359316051,0.00030792830511927605
1.7294960671026772e+18,-0.005675296764820814,0.00012570328544825315,0.001178401056677103
1.7294960671116774e+18,-0.003622549120336771,-3.4956843592226505e-05,0.004459300544112921
1.7294960671206776e+18,-0.00583433685824275,-0.0038675377145409584,0.004234013147652149
1.7294960671266778e+18,-0.006810733582824469,-0.0009127481607720256,3.5099219530820847e-05
1.729496067135678e+18,-0.0066392989829182625,-0.0023253336548805237,0.0031043938361108303
1.7294960671446781e+18,-0.005574214272201061,4.9209047574549913e-05,0.0047340053133666515
1.7294960671536783e+18,-0.007191171403974295,-0.0011467351578176022,0.0016632676124572754
1.7294960671596785e+18,-0.006528839934617281,-0.0026550889015197754,0.002833750331774354
1.7294960671686787e+18,-0.004958721809089184,0.0013771465746685863,0.00279220100492239
1.7294960671776788e+18,-0.007658534683287144,5.779042840003967e-05,0.0031281248666346073
1.729496067183679e+18,-0.005961881950497627,0.00026727071963250637,0.003516626777127385
1.7294960671926792e+18,-0.004229448735713959,-0.0002391753951087594,0.00028802501037716866
1.7294960672016794e+18,-0.004298909567296505,0.0005495110526680946,0.0023272649850696325
1.7294960672076795e+18,-0.0065341670997440815,-0.0028713024221360683,0.0012986160581931472
1.7294960672166797e+18,-0.004717123694717884,-0.002525253454223275,0.0012138568563386798
1.72949606722568e+18,-0.009519217535853386,-0.003705377923324704,0.0015771518228575587
1.72949606723468e+18,-0.012548443861305714,-0.005668326746672392,-1.3182638213038445e-05
1.7294960672406802e+18,-0.008375611156225204,-0.006741725839674473,0.0011627161875367165
1.7294960672496804e+18,-0.010118079371750355,-0.006134112365543842,0.0011309204855933785
1.7294960672586806e+18,-0.011140914633870125,-0.005441160406917334,0.00615263357758522
1.7294960672676808e+18,-0.006159586366266012,0.0006048035575076938,0.002516357693821192
1.729496067276681e+18,-0.005640608724206686,-8.891336619853973e-06,0.004031016491353512
1.729496067282681e+18,-0.0043007927015423775,-0.0037582397926598787,0.0029124757274985313
1.7294960672916813e+18,-0.00855787843465805,-0.004978438839316368,0.003711406607180834
1.7294960673006815e+18,-0.008886365219950676,-0.0005148705095052719,0.004652922973036766
1.7294960673066816e+18,-0.010118651203811169,-0.005165447946637869,0.0011448846198618412
1.7294960673156818e+18,-0.012151116505265236,-0.00611176947131753,-0.0009535183198750019
1.729496067324682e+18,-0.008146277628839016,-0.006263613235205412,0.0019567415583878756
1.729496067330682e+18,-0.009774157777428627,-0.006632683333009481,0.0015984138008207083
1.7294960673396823e+18,-0.003377904649823904,-0.005395912565290928,-0.0012183560756966472
1.7294960673486825e+18,-0.005295898299664259,-0.004290312062948942,0.0007724070455878973
1.7294960673546826e+18,-0.0031361973378807306,-0.005450618453323841,0.0020356958266347647
1.7294960673636828e+18,-0.0004574593622237444,-0.0014433462638407946,0.0046831401996314526
1.729496067375683e+18,-0.005766006652265787,-0.0023187112528830767,0.0016302758594974875
1.7294960673816832e+18,-0.0068819960579276085,-0.003037273185327649,-0.0009633221197873354
1.7294960673906834e+18,-0.007788288407027721,-0.002177831484004855,0.001384816481731832
1.7294960673996836e+18,-0.00785047933459282,-0.001375071587972343,0.0013262013671919703
1.7294960674056837e+18,-0.007853361777961254,-0.00109159667044878,-0.0006602318026125431
1.729496067414684e+18,-0.003777869511395693,-0.00242422497831285,0.002165393903851509
1.729496067420684e+18,-0.003150945296511054,-0.0027472793590277433,0.0021335298661142588
1.7294960674296842e+18,-0.0010344114853069186,-0.001623698160983622,-0.002341899089515209
1.7294960674386844e+18,0.0007107368437573314,-0.0032003591768443584,0.001452911295928061
1.7294960674476846e+18,-0.004141038749366999,-0.001372562488541007,-0.0006021553417667747
1.7294960674566848e+18,-0.00434292946010828,-0.00475928233936429,0.004083476960659027
1.729496067462685e+18,-0.00648440420627594,-0.002667362568899989,0.0002617094723973423
1.729496067471685e+18,-0.005407217890024185,-0.001487962668761611,0.00019044431974180043
1.7294960674806853e+18,-0.007396809756755829,0.0003194548189640045,-0.0014752608258277178
1.7294960674866854e+18,-0.0048584588803350925,0.0022022915072739124,-0.0004326641792431474
1.7294960674956856e+18,-0.0032559658866375685,0.0004357194702606648,-0.0007922265212982893
1.7294960675046858e+18,-0.002571903169155121,-0.001009455998428166,-0.0020579807460308075
1.729496067510686e+18,-0.002594796009361744,0.0013648783788084984,0.000873092794790864
1.7294960675196861e+18,-0.006664265878498554,0.0018677429761737585,-0.0018797519151121378
1.7294960675286863e+18,-0.008052576333284378,0.0027184048667550087,-0.00021713657770305872
1.7294960675376865e+18,-0.006697419099509716,-0.0013034276198595762,-0.0003004017926286906
1.7294960675436867e+18,-0.006740201730281115,0.001843577716499567,0.000532716338057071
1.7294960675526868e+18,-0.0067368363961577415,-0.0004279536660760641,-0.00028694712091237307
1.729496067558687e+18,-0.0068643828853964806,-7.722462760284543e-05,-0.0008771093562245369
1.7294960675676872e+18,-0.004426053259521723,0.0006816094974055886,-0.002542908303439617
1.7294960675766874e+18,-0.007045777980238199,0.002075159689411521,0.00011532481585163623
1.7294960675856876e+18,-0.004782977048307657,0.00515956524759531,0.0023479126393795013
1.7294960675916877e+18,-0.0060410648584365845,0.005234317854046822,-0.0004689359338954091
1.7294960676006879e+18,-0.0057647693902254105,0.003949709236621857,0.002475002547726035
1.729496067609688e+18,-0.009473060257732868,0.0005932654021307826,-0.0009015294490382075
1.7294960676156882e+18,-0.004207083024084568,0.0012519258307293057,0.0032957291696220636
1.7294960676246884e+18,-0.005666571203619242,-0.0007828489178791642,0.00035075307823717594
1.7294960676336886e+18,-0.001528409542515874,5.0994218327105045e-05,-0.0010930063435807824
1.7294960676396887e+18,0.0004302982706576586,0.000108949257992208,0.00014317079330794513
1.729496067648689e+18,0.0009549998794682324,-0.0008006902644410729,0.0009425351163372397
1.729496067657689e+18,-0.0021820291876792908,5.5970216635614634e-05,0.0007894584559835494
1.7294960676666893e+18,-0.003989837598055601,-0.0006765506695955992,0.0021799318492412567
1.7294960676726894e+18,-0.00528893293812871,-0.003459797240793705,-0.00047650080523453653
1.7294960676816896e+18,-0.008423269726336002,-0.00010134631884284317,0.0017821633955463767
1.7294960676876897e+18,-0.007738223299384117,0.0024648383259773254,0.00172155792824924
1.72949606769669e+18,-0.004656624514609575,0.00011350202839821577,-0.0020857886411249638
1.72949606770269e+18,-0.003925686702132225,0.0018084216862916946,-0.0011825542896986008
1.7294960677116902e+18,-7.204432040452957e-05,-0.0023569592740386724,0.0005533915827982128
1.7294960677206904e+18,-0.002537178574129939,-0.0047413017600774765,0.0006124144420027733
1.7294960677296906e+18,-0.0046400222927331924,-3.309303428977728e-05,0.0015959691954776645
1.7294960677356908e+18,-0.008524813689291477,-0.0016971073346212506,0.0001242243015440181
1.729496067744691e+18,-0.003537415526807308,-0.0008193847024813294,0.00010015004954766482
1.7294960677566912e+18,-0.0008729742839932442,0.0006032564560882747,0.001234210329130292
1.7294960677626913e+18,0.0005829888395965099,-0.0009310522000305355,0.001156585873104632
1.7294960677716915e+18,0.0002359146747039631,0.0006335737416520715,-0.0006653898162767291
1.7294960677806917e+18,-0.0003332953492645174,-2.647994551807642e-05,-0.0019115377217531204
1.729496067792692e+18,-0.002913625678047538,-0.002373060677200556,0.0018360089743509889
1.7294960678016922e+18,-0.006326061207801104,-0.0030951870139688253,-0.0005105675663799047
1.7294960678106924e+18,-0.0025700486730784178,-0.0016801318852230906,0.0008770982385613024
1.7294960678196925e+18,-5.085952579975128e-06,-0.0022624388802796602,-0.00170994084328413
1.7294960678286927e+18,-0.00038494484033435583,-0.001428149756975472,0.001036360627040267
1.7294960678346929e+18,0.004699396900832653,-0.0010870734695345163,-0.0008940936531871557
1.729496067843693e+18,5.400559166446328e-05,6.705437044729479e-06,-0.00032512727193534374
1.7294960678496932e+18,-0.0009112473926506937,0.0036003352142870426,-0.0011266727233305573
1.7294960678586934e+18,-0.005190744064748287,0.0012807250022888184,0.0006931812968105078
1.7294960678676936e+18,-0.0039631701074540615,0.0009863025043159723,0.0029991527553647757
1.7294960678736937e+18,-0.007578229997307062,-0.0016330369981005788,0.0023674899712204933
1.729496067882694e+18,-0.0038802633062005043,-0.002258935710415244,0.0007350924424827099
1.729496067888694e+18,-0.0016505729872733355,-0.006488454528152943,-0.0024691633880138397
1.7294960678976942e+18,0.001136405044235289,-0.004103536251932383,-0.001813196111470461
1.7294960679066944e+18,-0.00020871625747531652,-0.0033793174661695957,-0.004638378974050283
1.7294960679156946e+18,0.0014085668371990323,-0.002250328194350004,-0.0016739660641178489
1.7294960679216947e+18,0.001325623830780387,0.0013673452194780111,0.001501868013292551
1.729496067930695e+18,-0.004451166372746229,-0.003505739849060774,-0.001936126034706831
1.729496067939695e+18,-0.004799681715667248,-0.002894665114581585,0.0011184675386175513
1.7294960679456952e+18,-0.003981238696724176,-0.003536429489031434,0.0017703662160784006
1.7294960679546954e+18,-0.004196527414023876,-0.0007052597356960177,-0.00019376999989617616
1.7294960679636956e+18,-0.0008600984583608806,-0.0018122454639524221,-0.0002563071029726416
1.7294960679726958e+18,0.0014405446127057076,-0.00046908651711419225,-0.0017077554948627949
1.729496067981696e+18,-0.00013454287545755506,-0.00014629855286329985,0.0007310254732146859
1.7294960679906962e+18,-0.0030912132933735847,-0.0018453584052622318,-0.000797066546510905
1.7294960679996964e+18,0.0002658829325810075,-0.0018912643427029252,-0.00196113926358521
1.7294960680086966e+18,0.0004849915858358145,-0.0015822843415662646,-0.004581632558256388
1.7294960680176968e+18,-0.000617822865024209,-0.005495919845998287,0.0019563452806323767
1.729496068023697e+18,-0.0014422632521018386,-0.005473122000694275,-0.001507355598732829
1.729496068032697e+18,0.00011581671424210072,-0.0006159658078104258,-0.004270333331078291
1.7294960680416973e+18,-0.0032528331503272057,-0.003035458503291011,0.001541993347927928
1.7294960680506975e+18,-0.004530424252152443,-0.00011061667464673519,-0.0009219782659783959
1.7294960680596977e+18,0.0011007555294781923,-0.0009593603317625821,-0.0018566291546449065
1.7294960680686979e+18,-0.0007511215517297387,-0.0030682189390063286,-0.0014776058960705996
1.729496068077698e+18,-0.0023575900122523308,-0.002518224762752652,0.0027480004355311394
1.7294960680866982e+18,-0.0036161746829748154,-0.005742855370044708,0.0008589053759351373
1.7294960680956984e+18,-0.000926194479689002,-0.0066637941636145115,0.001534123090095818
1.7294960681046986e+18,-0.003382042981684208,-0.0040233139880001545,0.001409034477546811
1.7294960681136988e+18,-0.005839881021529436,-4.91878017783165e-05,0.0010831214021891356
1.729496068119699e+18,-0.004321828484535217,-0.001772716990672052,-0.0001158982195192948
1.7294960681286991e+18,-0.005086150486022234,-0.0021463027223944664,-0.0020859153009951115
1.7294960681376993e+18,0.0016128168208524585,-0.0015517540741711855,0.0019679612014442682
1.7294960681496996e+18,-0.0001906155957840383,-0.001631119754165411,0.00016262329882010818
1.7294960681586998e+18,-0.0015648306580260396,-0.0018731469754129648,0.0023550617042928934
1.7294960681677e+18,-0.0029491297900676727,-0.0018252111040055752,0.0001336384448222816
1.7294960681767002e+18,-0.003605528734624386,-0.001752432668581605,-0.0032245656475424767
1.7294960681857004e+18,-0.003294886089861393,-0.0015363011043518782,0.0015978995943441987
1.7294960681947005e+18,-0.001921078423038125,-0.0048000626266002655,0.0002458792005199939
1.7294960682037007e+18,0.001002511358819902,-0.005656984634697437,-0.000799936184193939
1.7294960682097009e+18,0.00023355602752417326,-0.005818610079586506,-0.0032003186643123627
1.729496068218701e+18,-0.001105062896385789,-0.005973254330456257,-0.0007095987093634903
1.7294960682247012e+18,-0.002612942596897483,-0.007247617468237877,-0.0006130592664703727
1.7294960682337014e+18,-0.0037961313501000404,-0.004189168103039265,0.0009605896193534136
1.7294960682397015e+18,-0.007239386904984713,-0.004238964058458805,-0.0018338803201913834
1.7294960682487017e+18,-0.0017567010363563895,-0.0038078678771853447,0.0005102701252326369
1.729496068257702e+18,0.00048371986486017704,-0.0059951310977339745,0.00048405490815639496
1.729496068263702e+18,-0.001820622244849801,-0.0061411927454173565,0.004563997033983469
1.7294960682727022e+18,0.0007569071021862328,-0.004985772538930178,-0.00034103356301784515
1.7294960682817024e+18,0.002720477059483528,-0.004084107466042042,0.002061791718006134
1.7294960682877025e+18,-0.0005414355546236038,-0.002347141271457076,-0.0016171884490177035
1.7294960682967027e+18,0.0023703358601778746,-0.002539396286010742,0.0010726258624345064
1.729496068305703e+18,-0.003620197530835867,-0.004208932630717754,-0.0027903029695153236
1.729496068314703e+18,-0.004901495762169361,-0.002364488784223795,3.818271216005087e-05
1.7294960683237033e+18,-0.00438308110460639,-0.0060638305731117725,-0.001246806001290679
1.7294960683297034e+18,-0.005950506776571274,-0.005954255349934101,0.00027517243870534003
1.7294960683387036e+18,-0.0036106605548411608,-0.007218554150313139,0.0008856802596710622
1.7294960683447037e+18,-0.0017327165696769953,-0.0020742849446833134,0.0007466236129403114
1.729496068353704e+18,0.0019987630657851696,-0.0061471667140722275,-0.0014519920805469155
1.7294960683627041e+18,-0.0008099229307845235,-0.0013077757321298122,-0.0012458224082365632
1.7294960683687043e+18,-0.0005611342494376004,-5.8299279771745205e-05,-0.0019155940972268581
1.7294960683777044e+18,-0.001955081708729267,-0.0023684559855610132,0.002333248732611537
1.7294960683867046e+18,-0.002822381677106023,-0.0020506177097558975,-0.0011436083586886525
1.7294960683927048e+18,-0.004075329285115004,-0.0029276052955538034,-0.0023038906510919333
1.729496068401705e+18,-0.0012773162452504039,-0.003920058719813824,0.0008038681698963046
1.729496068407705e+18,0.00017198844579979777,-0.0016765433829277754,-0.005415553692728281
1.7294960684167053e+18,-0.0008441500831395388,-0.0037316414527595043,0.0003637531481217593
1.7294960684257055e+18,0.004213974345475435,-0.004591305740177631,-0.0006162523059174418
1.7294960684317056e+18,0.0024605020880699158,-0.003618924878537655,0.0015228681731969118
1.7294960684407058e+18,0.0002526007010601461,0.0002181223826482892,-0.000716526061296463
1.729496068449706e+18,-0.0018697468331083655,-0.0038658962585031986,-0.0001202126732096076
1.729496068455706e+18,0.00015900563448667526,0.0014186266344040632,-0.0021822184789925814
1.7294960684647063e+18,-0.0025287424214184284,-0.002546385396271944,-0.0007677576504647732
1.7294960684707064e+18,-0.0030299690552055836,-0.00374171556904912,-0.0015737356152385473
1.7294960684797066e+18,0.0017195219406858087,-0.0023514004424214363,0.00036872303462587297
1.7294960684887068e+18,0.00402947049587965,-0.0022148247808218002,0.00032418768387287855
1.729496068494707e+18,0.003595297457650304,-0.0028915824368596077,0.0022249193862080574
1.7294960685037071e+18,0.00646293954923749,0.0007042570505291224,-0.0002807467244565487
1.7294960685127073e+18,0.0054309251718223095,-0.0009610565612092614,-0.0028232992626726627
1.7294960685187075e+18,0.004301790148019791,-0.0027061256114393473,-0.00238553574308753
1.7294960685277076e+18,-0.0005793017335236073,-0.0033584788907319307,-0.0006137769669294357
1.7294960685367078e+18,-0.0004496694600675255,-0.0023765238001942635,-0.0008419693913310766
1.729496068542708e+18,0.0020309409592300653,-0.0008244700729846954,-0.0019098783377557993
1.7294960685517082e+18,-0.00028281714185141027,-0.002664237981662154,-0.0028061154298484325
1.7294960685577083e+18,0.0009009101777337492,-0.005962812807410955,-0.0023412571754306555
1.7294960685667085e+18,0.0020466609857976437,0.0007224933942779899,0.0011591061484068632
1.7294960685757087e+18,0.004067394882440567,-0.002810252830386162,-0.0025928481481969357
1.7294960685817088e+18,0.00340779940597713,-0.0034982538782060146,-0.0027948825154453516
1.729496068590709e+18,0.004385028965771198,0.001432399614714086,-0.002356847282499075
1.7294960685997092e+18,0.005648236721754074,-0.0005263136699795723,-0.0010154920164495707
1.7294960686087094e+18,0.0028085794765502214,0.0010118763893842697,-0.0005136850522831082
1.7294960686147095e+18,0.001422131434082985,0.0004561525129247457,0.0003687976277433336
1.7294960686237097e+18,0.001447023474611342,0.0007724182214587927,-0.00018664005619939417
1.72949606863271e+18,-0.004087434150278568,-0.0014857142232358456,-0.000669127213768661
1.72949606863871e+18,-0.0009125372162088752,-0.002923519816249609,-0.00022148161951918155
1.7294960686477102e+18,0.003414011560380459,-0.0034509068354964256,-0.00044230453204363585
1.7294960686567104e+18,0.004263702780008316,-0.004543859977275133,-0.001069263438694179
1.7294960686627105e+18,0.00582955963909626,-0.001243859762325883,0.0009909269865602255
1.7294960686717107e+18,0.005100735928863287,0.00101576023735106,-0.0025677811354398727
1.729496068680711e+18,0.0059541622176766396,-0.004972635768353939,0.001852958812378347
1.729496068686711e+18,0.0006111413240432739,-0.0009283826220780611,-0.0010410812683403492
1.7294960686957112e+18,1.4441204257309437e-05,-0.0038346927613019943,0.0012770320754498243
1.7294960687047114e+18,0.0013196023646742105,0.0007634512148797512,-0.0012843477306887507
1.7294960687137116e+18,0.0011703276541084051,0.0013858204474672675,0.0008119176491163671
1.7294960687197117e+18,7.454282604157925e-05,-0.002700448501855135,-0.003941055852919817
1.729496068728712e+18,0.005743610672652721,-0.0018452919321134686,-0.0007349051302298903
1.729496068734712e+18,0.005013799760490656,-0.003430434502661228,-0.001074303174391389
1.7294960687437123e+18,0.002919180318713188,-0.0012269733706489205,-0.0037354151718318462
1.7294960687527124e+18,0.0007249086629599333,-0.0024051929358392954,7.669036858715117e-05
1.7294960687587126e+18,0.0009869884233921766,0.0009916680864989758,-0.0021975457202643156
1.7294960687677128e+18,-0.0015431531937792897,0.0013072695583105087,-0.0018512937240302563
1.729496068776713e+18,0.0009397229878231883,0.0002914125216193497,0.0016153298784047365
1.7294960687857132e+18,0.00113571691326797,-0.001292387256398797,0.0032899263314902782
1.7294960687947133e+18,0.0034757531248033047,-0.0027930992655456066,-0.0010157671058550477
1.7294960688037135e+18,0.0015117648290470243,0.0014088662574067712,-0.0003932823601644486
1.7294960688097137e+18,0.0012558477465063334,-0.0006368299946188927,0.0018470888026058674
1.7294960688187139e+18,0.0016067627584561706,-0.004515881184488535,-0.00021953183750156313
1.729496068827714e+18,-0.0005468156887218356,-0.003829655237495899,-0.000751860614400357
1.7294960688367142e+18,0.0006852318765595555,0.0024737128987908363,-0.0026268165092915297
1.7294960688427144e+18,5.9373152907937765e-05,-0.0003634214517660439,-0.0021049175411462784
1.7294960688517146e+18,0.0012437808327376842,-0.00048441850231029093,0.0007242428255267441
1.7294960688607148e+18,0.00487333070486784,-0.001106612733565271,0.0004956931807100773
1.729496068869715e+18,0.002225619275122881,0.0019370272057130933,-0.0016976918559521437
1.729496068875715e+18,0.002641132799908519,-0.00015932426322251558,0.0010903547517955303
1.7294960688847153e+18,0.0029084966517984867,0.0006472741952165961,0.0032907328568398952
1.7294960688937155e+18,-0.0004775153938680887,0.0024116223212331533,-0.0011040213285014033
1.7294960688997156e+18,-0.0011024645064026117,-0.0005163205205462873,0.0021822024136781693
1.7294960689087158e+18,2.0861101802438498e-05,-0.0004486781544983387,-0.0022889019455760717
1.729496068914716e+18,-0.002052073134109378,0.00319836032576859,0.0010193230118602514
1.729496068923716e+18,0.0018506166525185108,-0.0002736840979196131,0.0026729877572506666
1.7294960689327163e+18,0.004163491539657116,-0.0012879091082140803,-0.0023066760040819645
1.7294960689417165e+18,0.0025102971121668816,-0.0031821043230593204,-0.0016348629724234343
1.7294960689477166e+18,0.0016152668977156281,-0.001749918912537396,-0.0008645865018479526
1.7294960689567168e+18,0.005024363752454519,-0.0008986422326415777,0.0007725076284259558
1.729496068965717e+18,0.00539458729326725,-0.0034111631102859974,-0.0015731067396700382
1.729496068971717e+18,0.0037874814588576555,-1.801876351237297e-06,-0.0011871285969391465
1.7294960689807173e+18,0.002655049553140998,-0.0055901543237268925,-0.0012546859215945005
1.7294960689867174e+18,0.0014074136270210147,-0.004997224546968937,0.0013868584064766765
1.7294960689957176e+18,0.0016989985015243292,-0.0020650667138397694,0.0012304463889449835
1.7294960690047178e+18,0.002646662527695298,-0.0012990941759198904,-0.0005248258821666241
1.729496069010718e+18,6.54545146971941e-05,0.001545910257846117,-0.0014574549859389663
1.7294960690197181e+18,0.0007074124296195805,0.0014771476853638887,-0.00044017063919454813
1.7294960690257183e+18,0.0012724754633381963,0.00013695070811081678,0.0011169681092724204
1.7294960690347185e+18,-0.0002780354116111994,-0.002343791536986828,0.00039497180841863155
1.7294960690407186e+18,-0.00046595660387538373,-0.002605673624202609,-0.0026408599223941565
1.7294960690497188e+18,-0.0015875915996730328,-0.00107923848554492,-0.0009230553405359387
1.729496069055719e+18,-0.0014208866050466895,-0.0002651079557836056,-0.0007739083375781775
1.729496069064719e+18,0.0030017555691301823,-0.0005150432698428631,-0.0008406287524849176
1.7294960690737193e+18,0.0018531836103647947,0.001659913221374154,0.001459616469219327
1.7294960690827195e+18,0.0009660840732976794,-0.0004037536564283073,0.0018088946817442775
1.7294960690917197e+18,-0.0006805695593357086,0.0004573145415633917,-0.0021477520931512117
1.7294960690977198e+18,-0.0030429516918957233,0.0010529605206102133,0.0002474285720381886
1.72949606910672e+18,0.000717463088221848,-0.0022417688742280006,8.606721530668437e-05
1.7294960691157202e+18,-0.00011105422163382173,-0.002231393940746784,-0.002577291801571846
1.7294960691217203e+18,0.002164022298529744,-0.005814430303871632,0.00011789670679718256
1.7294960691307205e+18,0.004389072768390179,-0.0022924933582544327,-0.0015085001941770315
1.7294960691367206e+18,0.0018410758348181844,0.002478444715961814,0.00017650870722718537
1.7294960691457208e+18,0.0020243304315954447,-0.0017583834705874324,0.002157708862796426
1.729496069154721e+18,-0.0026384578086435795,0.002473358064889908,-0.0017363999504595995
1.7294960691607212e+18,-0.0008990823407657444,0.0006631676224060357,-0.0035434947349131107
1.7294960691697213e+18,0.0014362409710884094,-0.0004500842187553644,0.0022399835288524628
1.7294960691787215e+18,0.0027342350222170353,0.00040205265395343304,-0.0013089405838400126
1.7294960691877217e+18,0.005066881887614727,0.0017463616095483303,-0.0009683961980044842
1.7294960691937219e+18,0.0055488706566393375,0.0037880195304751396,0.0007261543069034815
1.729496069202722e+18,0.005146711133420467,0.0034204856492578983,0.0019651881884783506
1.7294960692087222e+18,0.0011741421185433865,0.0027369526214897633,0.0013676746748387814
1.7294960692177224e+18,-0.003303258679807186,0.0019081493373960257,0.0003318704548291862
1.7294960692237225e+18,-0.002113648224622011,0.002215348184108734,-0.00023551826598122716
1.7294960692327227e+18,-0.0010637068189680576,0.0014574714004993439,0.0018464084714651108
1.729496069241723e+18,0.004016546532511711,-0.0003034608671441674,-0.0017696500290185213
1.729496069247723e+18,0.005320483352988958,0.0024138716980814934,-0.0009909507352858782
1.7294960692567232e+18,0.005080739036202431,0.0016529938438907266,0.002932117786258459
1.7294960692657234e+18,0.005108837503939867,-0.00014239281881600618,0.0021686581894755363
1.7294960692717235e+18,0.0025208487641066313,0.0018313693581148982,-0.0008654950652271509
1.7294960692807237e+18,-0.0011170473881065845,0.0008041681721806526,-0.000678925309330225
1.729496069289724e+18,0.00018553028348833323,-0.0019163396209478378,-0.002812526421621442
1.729496069298724e+18,0.002415762050077319,-0.00020055624190717936,-0.0014313423307612538
1.7294960693047242e+18,0.003816494718194008,0.003279837779700756,-0.0012854041997343302
1.7294960693137244e+18,0.005021877121180296,0.0002910942130256444,-0.0016252261120826006
1.7294960693197245e+18,0.0037871061358600855,0.0011434175539761782,-0.00114893086720258
1.7294960693317248e+18,0.006287690252065659,0.0017036549979820848,1.9073268049396574e-05
1.729496069340725e+18,0.0021540410816669464,0.0007723387680016458,0.0012155333533883095
1.7294960693497252e+18,8.387723937630653e-05,-0.0013663845602422953,0.0006199443596415222
1.7294960693557253e+18,0.002959118690341711,0.0010397571604698896,0.00047423847718164325
1.7294960693647255e+18,0.005197848193347454,0.0006969572277739644,-0.0006796653615310788
1.7294960693737257e+18,0.006872049532830715,0.0028702665586024523,-0.0003632548323366791
1.7294960693797258e+18,0.00433225417509675,0.0030639939941465855,0.002418889431282878
1.729496069388726e+18,0.002733425935730338,0.0016126512782648206,0.0007306154002435505
1.7294960693977262e+18,0.008566147647798061,0.0044525377452373505,-0.0015341750113293529
1.7294960694067264e+18,0.001643857453018427,0.001983067486435175,0.0011157310800626874
1.7294960694157266e+18,0.004968690685927868,0.0011386815458536148,-0.000736112124286592
1.7294960694217267e+18,0.005420226603746414,0.0019254805520176888,0.0018101123860105872
1.729496069430727e+18,0.008834526874125004,0.0023697882425040007,-0.0016887797974050045
1.729496069439727e+18,0.006216040812432766,0.004243885632604361,-0.001550111104734242
1.7294960694487273e+18,0.007604298181831837,0.004415282513946295,-0.0011242313776165247
1.7294960694577275e+18,0.003952064551413059,0.005563219077885151,-0.0005600610747933388
1.7294960694667277e+18,0.002762537682428956,-0.00022433861158788204,-0.0012953343102708459
1.729496069475728e+18,0.004107182379812002,0.0009217166807502508,-0.0012359482934698462
1.729496069484728e+18,0.0020904322154819965,0.0029773912392556667,-0.0007601486868225038
1.7294960694937283e+18,0.009996538050472736,0.0030917804688215256,-0.0028685154393315315
1.7294960695027284e+18,0.009309093467891216,0.00676463870331645,-0.0016803806647658348
1.7294960695087286e+18,0.008267514407634735,0.004544401541352272,-0.0005494617507793009
1.7294960695177288e+18,0.0044050030410289764,0.010269854217767715,0.0022102834191173315
1.729496069526729e+18,0.00020127723109908402,0.004960739053785801,-0.0024389009922742844
1.7294960695357292e+18,-0.001729358802549541,0.008003986440598965,0.0030719335190951824
1.7294960695417293e+18,-0.002764074131846428,0.002170199528336525,-0.0006693827454000711
1.7294960695507295e+18,-0.00399024598300457,0.0042427824810147285,0.0007427370292134583
1.7294960695597297e+18,-0.0008145272149704397,0.0039315009489655495,0.00012203591177240014
1.7294960695687299e+18,0.002084536012262106,0.005143636837601662,-0.002728955587372184
1.72949606957773e+18,0.005060103256255388,0.0021622031927108765,-0.0015086226630955935
1.7294960695867302e+18,0.005640015471726656,-8.372124284505844e-05,-0.0010934501187875867
1.7294960695957304e+18,0.0028537618927657604,-0.0013092587469145656,0.0002361317747272551
1.7294960696047306e+18,-0.00037496411823667586,0.001732907723635435,0.0003585710364859551
1.7294960696137308e+18,-0.0018691511359065771,0.0030997637659311295,-0.00024875771487131715
1.729496069622731e+18,0.0022494769655168056,0.0041790371760725975,-0.001173985656350851
1.7294960696317312e+18,0.00014808936975896358,0.0015582344494760036,0.00031402899185195565
1.7294960696407314e+18,0.0023247937206178904,0.000781757291406393,0.0013000167673453689
1.7294960696497316e+18,0.007243533153086901,0.0010839621536433697,-0.0012109437957406044
1.7294960696557317e+18,0.007339612580835819,0.0020137920510023832,-0.001863064244389534
1.729496069664732e+18,0.004416653886437416,0.004864766728132963,-0.0009867348708212376
1.729496069673732e+18,0.004463070072233677,0.0058922236785292625,0.0018470326904207468
1.7294960696827323e+18,0.0019317255355417728,0.0017263437621295452,-0.0007473473087884486
1.7294960696917325e+18,0.0031746418680995703,0.006258896552026272,-0.00022435415303334594
1.7294960697007327e+18,0.00451974431052804,0.007995326071977615,-0.0032483995892107487
1.7294960697097329e+18,0.0033040086273103952,0.0028089461848139763,-2.5254470529034734e-05
1.729496069718733e+18,0.005924041382968426,0.0029621438588947058,0.000327953661326319
1.7294960697277332e+18,0.008593495935201645,0.0017561092972755432,-0.0007849086541682482
1.7294960697367334e+18,0.004781488329172134,0.006004948168992996,-0.0004174997447989881
1.7294960697457336e+18,0.00819159485399723,0.004143658559769392,0.0017808307893574238
1.7294960697547338e+18,0.004827678203582764,0.0036598634906113148,-0.0006037550047039986
1.729496069763734e+18,0.00260947342030704,0.0033731996081769466,-0.00031875254353508353
1.7294960697727342e+18,0.002137798350304365,0.004390973597764969,-0.001949536264874041
1.7294960697817344e+18,0.004601588472723961,0.003509444883093238,-0.0015364887658506632
1.7294960697907346e+18,0.007260963320732117,0.004723358899354935,0.0011410904116928577
1.7294960697967347e+18,0.0068456814624369144,0.003980256617069244,0.0003221845254302025
1.729496069805735e+18,0.007717039901763201,0.005007813684642315,-0.0007484866073355079
1.729496069814735e+18,0.005047934595495462,0.0025765211321413517,-0.00035320670576766133
1.7294960698237353e+18,0.00570840947329998,-0.0005084315198473632,-0.0020494861528277397
1.7294960698327355e+18,0.001630073064006865,0.00026194268139079213,8.607289055362344e-05
1.7294960698417357e+18,0.000802721653599292,-0.003988165408372879,0.0002547168987803161
1.7294960698507359e+18,-2.726912498474121e-06,0.0002095830423058942,-0.00265536829829216
1.729496069856736e+18,0.0014709343668073416,0.0008382750675082207,-0.0017987035680562258
1.7294960698657362e+18,0.005807330831885338,-0.00042571662925183773,-0.0016264687292277813
1.7294960698747364e+18,0.006910692434757948,0.0012710090959444642,0.0003871516673825681
1.7294960698837366e+18,0.006436603609472513,-0.00156185042578727,0.0020024962723255157
1.7294960698927368e+18,0.00689554400742054,-0.0004662151914089918,0.0003044336917810142
1.729496069898737e+18,0.003271152963861823,-0.0022392512764781713,-0.0025333529338240623
1.729496069907737e+18,0.0026262456085532904,-0.003974592313170433,-0.0009829967748373747
1.7294960699167373e+18,0.002252639038488269,-4.6316999942064285e-06,-0.0013561740051954985
1.7294960699257375e+18,0.002296873601153493,-0.0051703182980418205,-3.938388545066118e-06
1.7294960699347377e+18,0.003886821446940303,0.0005057009402662516,-0.0007393717532977462
1.7294960699437379e+18,0.006848676595836878,0.0018731257878243923,0.001558482414111495
1.729496069949738e+18,0.005131780169904232,-0.0014935833169147372,-0.0019014781573787332
1.7294960699587382e+18,0.0018191684503108263,0.0009201416396535933,0.002217428060248494
1.7294960699677384e+18,-0.0017551255878061056,0.00481378473341465,0.0008609979413449764
1.7294960699767386e+18,0.0013604065170511603,-0.000982118071988225,0.00014373817248269916
1.7294960699857388e+18,-0.0005887519801035523,-0.0018506217747926712,0.0008130904752761126
1.729496069994739e+18,-0.0009750514291226864,0.0006556854350492358,-0.0008889182354323566
1.7294960700037391e+18,0.004482146352529526,0.003154133213683963,-0.0010268823243677616
1.7294960700127393e+18,0.004693448543548584,0.0013199117965996265,0.00016193871852010489
1.7294960700217395e+18,0.003933879546821117,-0.0029632742516696453,-0.0020020748488605022
1.7294960700307397e+18,0.003277192125096917,0.00015621664351783693,-0.0016295367386192083
1.72949607003974e+18,7.866098894737661e-05,0.0012062110472470522,0.0005959515692666173
1.72949607004874e+18,-0.0031415352132171392,-0.001041041105054319,0.0016124085523188114
1.7294960700577403e+18,0.00030061628785915673,-0.002314765937626362,-0.00033250803244300187
1.7294960700697405e+18,0.0010995599441230297,0.0014687611255794764,-0.0009408598416484892
1.7294960700757407e+18,0.005702636204659939,0.0018061804585158825,-0.0005157612031325698
1.729496070087741e+18,0.004122039768844843,-0.0016034620348364115,-0.002767892088741064
1.729496070093741e+18,0.0023091831244528294,-0.0004232819192111492,-0.0017269703093916178
1.7294960701027412e+18,0.0022830450907349586,-0.0002762521617114544,-0.0017219155561178923
1.7294960701117414e+18,0.003172463271766901,-0.0014052552869543433,0.00013363600010052323
1.7294960701207416e+18,-0.001361830160021782,-0.0011122882133349776,-0.0007856953889131546
1.7294960701297418e+18,0.00244874507188797,-0.0002276127052027732,-7.607502629980445e-05
1.729496070138742e+18,0.005121850408613682,2.139026764780283e-05,-0.0008126739994622767
1.7294960701477422e+18,0.004648552276194096,0.0024900324642658234,-0.0007002159836702049
1.7294960701537423e+18,0.0033527615014463663,0.0034481966868042946,-0.002754061948508024
1.7294960701657426e+18,0.0071538714691996574,0.0007458789041265845,-0.00017434445908293128
1.7294960701717427e+18,0.0025347371120005846,0.0008214347762987018,-0.0013435324653983116
1.729496070180743e+18,0.0019510167185217142,-0.0028815283440053463,-0.00013815492275170982
1.729496070189743e+18,-0.0010059801861643791,-0.0027466462925076485,-0.0005499943508766592
1.7294960701987433e+18,-0.003122755093500018,0.000817064312286675,0.0010699231643229723
1.7294960702077435e+18,-0.0025313410442322493,-0.003516544820740819,-0.0011102603748440742
1.7294960702167437e+18,-0.001307083060964942,0.0023043244145810604,0.00026726885698735714
1.729496070225744e+18,0.0022386587224900723,-0.0017331917770206928,0.0011287033557891846
1.729496070234744e+18,0.0020833476446568966,0.0007868934771977365,-0.00385146401822567
1.7294960702407442e+18,0.004953671246767044,-0.0014108765171840787,0.0013412280241027474
1.7294960702497444e+18,0.0007573786424472928,-0.0017917307559400797,-0.0025744461454451084
1.7294960702587446e+18,-0.00040162878576666117,-0.0005800261860713363,-0.004551336169242859
1.7294960702677448e+18,-0.0010819807648658752,-0.0004655581433326006,-0.00015583483036607504
1.729496070276745e+18,0.00048377574421465397,-0.000426806858740747,-0.0020571888890117407
1.7294960702857452e+18,0.00226290849968791,0.004925618413835764,0.00047931825974956155
1.7294960702947453e+18,0.004147500265389681,0.0012937745777890086,0.0014418716309592128
1.7294960703037455e+18,0.003073535393923521,0.001971065765246749,-0.002758043585345149
1.7294960703127457e+18,0.005342700518667698,0.0009018198470585048,0.0003874853136949241
1.729496070321746e+18,0.005301726050674915,0.0023032373283058405,-0.00233651977032423
1.729496070330746e+18,0.002084414940327406,-0.001578235998749733,0.001194927841424942
1.7294960703397463e+18,0.0018873458029702306,0.0009136985754594207,0.0014682570472359657
1.7294960703457464e+18,-0.00019267003517597914,-0.001403325004503131,-0.0027700637001544237
1.7294960703547466e+18,0.0026384396478533745,-0.00037759827682748437,-0.0004398869350552559
1.7294960703637468e+18,0.004243446979671717,7.910243584774435e-05,0.00044446095125749707
1.729496070372747e+18,0.004981292877346277,-0.0013291400391608477,0.002974824281409383
1.7294960703817472e+18,0.0038220477290451527,0.00520166615024209,-0.002139616757631302
1.7294960703907474e+18,0.006209918297827244,0.00408051535487175,-0.00163954624440521
1.7294960703997476e+18,0.003184640547260642,0.0061763133853673935,0.0010360382730141282
1.7294960704087478e+18,0.0022367904894053936,0.002288254676386714,-0.0009370766347274184
1.729496070417748e+18,0.0030328931752592325,-0.0003507969668135047,0.0003364389413036406
1.729496070423748e+18,0.0032864485401660204,-0.004701295867562294,0.0013278918340802193
1.7294960704357484e+18,0.005159180611371994,-0.0018288049614056945,0.0019754264503717422
1.7294960704417485e+18,0.003066509496420622,-0.003514318261295557,-0.0007828442030586302
1.7294960704507487e+18,0.008480224758386612,0.0017157159745693207,4.965689731761813e-05
1.729496070462749e+18,0.007396860048174858,-0.0013086345279589295,-0.0007123305113054812
1.729496070471749e+18,0.0018747427966445684,0.0027330624870955944,0.0008625980117358267
1.7294960704807493e+18,0.001958266133442521,-0.0019678352400660515,-0.0004371905524749309
1.7294960704897495e+18,0.002844942966476083,-0.00447798240929842,-0.0028630003798753023
1.7294960704987497e+18,0.0006571030244231224,-0.0019319863058626652,-0.0008649601368233562
1.7294960705047498e+18,0.005880638025701046,-0.0025180212687700987,0.00175478623714298
1.72949607051675e+18,0.003014054149389267,0.003955497406423092,-0.0034006598871201277
1.7294960705257503e+18,0.0024757005739957094,0.003738594241440296,-0.002356596291065216
1.7294960705347505e+18,0.005788351874798536,0.007176806218922138,-8.034397615119815e-05
1.7294960705407506e+18,0.0028763548471033573,-0.0017694905400276184,-0.003789981361478567
1.7294960705527508e+18,0.0012221020879223943,0.00018641131464391947,-0.0005866941646672785
1.729496070558751e+18,0.002900676801800728,-3.358922549523413e-05,-0.0019951998256146908
1.7294960705677512e+18,0.0019627052824944258,0.0014229441294446588,0.0006488763028755784
1.7294960705767514e+18,0.008877106010913849,0.001014898531138897,0.0005293199792504311
1.7294960705857516e+18,0.004703116603195667,0.0027950098738074303,-0.0037925743963569403
1.7294960705947517e+18,0.0033783339895308018,0.005442206747829914,-0.00204401183873415
1.729496070603752e+18,0.005733264610171318,0.002567581832408905,-0.001386200194247067
1.7294960706127521e+18,0.0037604626268148422,0.0038274386897683144,0.0005041067488491535
1.7294960706217523e+18,0.0032714754343032837,0.0017719853203743696,-0.0006324666901491582
1.7294960706307525e+18,0.006642740685492754,0.0012541651958599687,-0.002985022496432066
1.7294960706397527e+18,0.007632190827280283,0.001361322938464582,-0.00011657114373520017
1.729496070648753e+18,0.008287034928798676,0.002790300641208887,-0.0003629811108112335
1.729496070654753e+18,0.008728431537747383,0.00264366390183568,0.002051529474556446
1.7294960706637532e+18,0.00480079697445035,-0.00041884882375597954,-0.0012990889372304082
1.7294960706727534e+18,0.0022467821836471558,0.004883927758783102,-0.0004226320597808808
1.7294960706817536e+18,0.0021114323753863573,0.005965221673250198,-0.001183506683446467
1.7294960706877537e+18,0.0029258085414767265,0.003874216228723526,-0.001823146129027009
1.729496070696754e+18,0.004253371153026819,0.003345184726640582,-0.002213176805526018
1.729496070705754e+18,0.003680839901790023,0.005113954655826092,-0.003857180243358016
1.7294960707117542e+18,0.0068520596250891685,0.004148282576352358,0.0008817516500130296
1.7294960707207544e+18,0.004702974110841751,0.0017130374908447266,-0.002559046261012554
1.7294960707297546e+18,0.0040964423678815365,0.0038754683919250965,0.00024857072276063263
1.7294960707387548e+18,0.004849771969020367,0.0016014357097446918,0.0017813958693295717
1.729496070744755e+18,0.006195382215082645,0.003615608438849449,-0.0015942319296300411
1.7294960707537551e+18,0.005226993001997471,-0.0003638109192252159,-0.002098002005368471
1.7294960707597553e+18,0.0012535630958154798,0.0013913856819272041,-0.0025834646075963974
1.7294960707687555e+18,0.004496894311159849,0.002128337975591421,-0.0017539372202008963
1.7294960707777556e+18,0.0018623555079102516,0.003093681065365672,0.0006316645303741097
1.7294960707837558e+18,0.0030844470020383596,0.0025746312458068132,-0.0013024185318499804
1.729496070792756e+18,-0.0004452290595509112,0.0035049510188400745,-0.0006377828540280461
1.7294960708017562e+18,0.0033569415099918842,0.001365728909149766,-0.001294116722419858
1.7294960708107564e+18,0.0005661473260261118,0.0022609890438616276,-0.0013844466302543879
1.7294960708197565e+18,-0.00019691151101142168,0.0033778103534132242,0.003571317996829748
1.7294960708317568e+18,-0.0038393710274249315,0.004320741165429354,-7.705489406362176e-05
1.729496070840757e+18,-0.0020424528047442436,0.004093265160918236,-0.0004035447782371193
1.7294960708497572e+18,0.0013580245431512594,0.0038426110986620188,0.0017134457593783736
1.7294960708587574e+18,-0.001563078723847866,0.002424916485324502,-0.0020398942288011312
1.7294960708707576e+18,0.00045975338434800506,0.001337640918791294,0.003166859271004796
1.7294960708797578e+18,0.0008694857824593782,0.0009554994758218527,-0.00031410896917805076
1.729496070891758e+18,0.001206030952744186,0.002509604673832655,-0.0029301727190613747
1.7294960709007583e+18,0.0014578348491340876,0.0029060463421046734,0.0008493626955896616
1.7294960709097585e+18,-0.0002293429570272565,0.00438910536468029,-0.0009808841859921813
1.7294960709217587e+18,0.002344935666769743,0.0005621758755296469,0.002848680829629302
1.729496070930759e+18,0.003261999459937215,0.0034677020739763975,0.0002771964354906231
1.7294960709427592e+18,-8.39306740090251e-05,0.0032141106203198433,0.0017433444736525416
1.7294960709517594e+18,0.00200450187548995,0.002315191552042961,0.0004887409741058946
1.7294960709607596e+18,0.0017172374064102769,-0.00041358242742717266,0.001403533504344523
1.7294960709667597e+18,-2.7431320631876588e-05,0.0021855433005839586,-0.0013897576136514544
1.72949607097576e+18,0.001689957920461893,-0.0012973853154107928,0.0033205230720341206
1.72949607098176e+18,0.002621690509840846,0.0024936068803071976,-0.001204971456900239
1.7294960709907602e+18,-0.003296950366348028,0.0019659623503684998,0.00093892338918522
1.7294960709997604e+18,-0.002077000215649605,0.00219627283513546,0.0006183941150084138
1.7294960710057605e+18,-0.005557011812925339,0.003355797380208969,-0.001301148091442883
1.7294960710147607e+18,-0.0029911166056990623,-0.0006367024034261703,-0.0016327695921063423
1.729496071023761e+18,-0.0015397947281599045,0.002804417861625552,-0.0006915769190527499
1.729496071032761e+18,-0.0007757830899208784,0.0021433024667203426,0.0007175494101829827
1.7294960710387612e+18,-0.0021669846028089523,-0.0005026829312555492,0.00315690110437572
1.7294960710477614e+18,-0.6080256104469299,-0.1096796914935112,-0.0037952084094285965
1.7294960710567616e+18,-1.6414873600006104,-0.3093838691711426,-0.003587973304092884
1.7294960710657618e+18,-2.699906826019287,-0.5126152634620667,-0.007147744297981262
1.729496071071762e+18,-3.269798994064331,-0.6209093928337097,-0.009282335638999939
1.729496071080762e+18,-3.6320483684539795,-0.7064498662948608,-0.01840111054480076
1.7294960710897623e+18,-3.4729044437408447,-0.7061207890510559,-0.022560767829418182
1.7294960710987625e+18,-3.055582046508789,-0.6480847597122192,-0.028706055134534836
1.7294960711077627e+18,-2.765016555786133,-0.5994724035263062,-0.034255996346473694
1.729496071116763e+18,-2.82342267036438,-0.5811799764633179,-0.035361532121896744
1.729496071125763e+18,-3.2332262992858887,-0.6071462631225586,-0.0373854897916317
1.7294960711377633e+18,-3.8530848026275635,-0.6556291580200195,-0.04460509493947029
1.7294960711437635e+18,-4.002201080322266,-0.6673269271850586,-0.04590184614062309
1.7294960711527636e+18,-3.8835153579711914,-0.6591197848320007,-0.05265296623110771
1.7294960711617638e+18,-3.4433751106262207,-0.615132749080658,-0.054779499769210815
1.729496071170764e+18,-2.878418445587158,-0.5541157126426697,-0.06103125587105751
1.7294960711797642e+18,-2.442591428756714,-0.4962978661060333,-0.05762838199734688
1.7294960711887644e+18,-2.30139422416687,-0.4537470042705536,-0.0652887374162674
1.7294960711977646e+18,-2.3974058628082275,-0.42781010270118713,-0.06786921620368958
1.7294960712067648e+18,-2.5530662536621094,-0.41361990571022034,-0.0692937821149826
1.729496071215765e+18,-2.575448989868164,-0.3943936228752136,-0.07238183915615082
1.7294960712247652e+18,-2.3697826862335205,-0.3675142824649811,-0.07387939840555191
1.7294960712337654e+18,-1.9510412216186523,-0.3261316418647766,-0.07616230845451355
1.7294960712427656e+18,-1.501542091369629,-0.27751192450523376,-0.07603372633457184
1.7294960712517658e+18,-1.1634513139724731,-0.23862728476524353,-0.07719483226537704
1.729496071260766e+18,-1.038812279701233,-0.20522090792655945,-0.07364362478256226
1.7294960712697661e+18,-1.0675829648971558,-0.17999616265296936,-0.07433619350194931
1.7294960712787663e+18,-1.148807406425476,-0.1590554267168045,-0.07733672112226486
1.7294960712877665e+18,-1.1301064491271973,-0.13823392987251282,-0.07934078574180603
1.7294960712967667e+18,-0.9669305682182312,-0.11626756936311722,-0.0746384933590889
1.729496071305767e+18,-0.681091845035553,-0.09384294599294662,-0.07622010260820389
1.729496071314767e+18,-0.38354960083961487,-0.06661964952945709,-0.07820559293031693
1.7294960713237673e+18,-0.1723620444536209,-0.039432428777217865,-0.07358691096305847
1.7294960713327675e+18,-0.10184948146343231,-0.02148979902267456,-0.07371874898672104
1.7294960713417677e+18,-0.1461603045463562,-0.007232690695673227,-0.07224102318286896
1.7294960713507679e+18,-0.2126995027065277,0.0062667811289429665,-0.0730491653084755
1.729496071359768e+18,-0.20951582491397858,0.01675749011337757,-0.07494080066680908
1.7294960713657682e+18,-0.15325409173965454,0.02448851615190506,-0.07335218042135239
1.7294960713777684e+18,0.059926241636276245,0.036954496055841446,-0.07257253676652908
1.7294960713867686e+18,0.2355886995792389,0.04701867327094078,-0.06946486979722977
1.7294960713957688e+18,0.34475094079971313,0.059272635728120804,-0.07092362642288208
1.729496071404769e+18,0.3594965636730194,0.06416617333889008,-0.06511266529560089
1.7294960714137692e+18,0.31408241391181946,0.07189702987670898,-0.06962018460035324
1.7294960714227694e+18,0.2540503144264221,0.07432565838098526,-0.06341858208179474
1.7294960714317696e+18,0.24730375409126282,0.07992147654294968,-0.06350559741258621
1.7294960714407698e+18,0.2919733226299286,0.08397206664085388,-0.05813135951757431
1.72949607144977e+18,0.3905428946018219,0.08942070603370667,-0.0630977526307106
1.7294960714587702e+18,0.4827028214931488,0.09031939506530762,-0.06200680881738663
1.7294960714677704e+18,0.5380947589874268,0.09316960722208023,-0.057802796363830566
1.7294960714767706e+18,0.5264822840690613,0.09502717107534409,-0.053482044488191605
