timestamp,gyro_x,gyro_y,gyro_z
1.7294957455348173e+18,-0.00023217304260469973,0.0010401508770883083,0.0003546225489117205
1.7294957455408174e+18,0.0011098156683146954,-0.0008402637322433293,-0.00042783652315847576
1.7294957455498176e+18,-0.0001071012593456544,-0.0004956707707606256,-0.0008423933177255094
1.7294957455588178e+18,0.0005321043427102268,0.0024360374081879854,0.0010006135562434793
1.729495745564818e+18,0.0023679963778704405,0.00171585101634264,-0.00240715011022985
1.729495745573818e+18,-0.0014035837957635522,-0.0013144651893526316,-0.0003597118775360286
1.7294957455828183e+18,0.0013867872767150402,-0.0003590770938899368,0.002181725110858679
1.7294957455918185e+18,-0.000983947655186057,0.000270912132691592,-0.002346704015508294
1.7294957455978186e+18,0.001408844254910946,0.001362306415103376,0.0020519266836345196
1.7294957456068188e+18,0.0013228047173470259,0.0018997720908373594,0.0021362383849918842
1.729495745615819e+18,-0.0015405169688165188,-0.0004797076398972422,0.00021868363546673208
1.7294957456248192e+18,0.0018314599292352796,-0.0021491250954568386,0.001593046705238521
1.7294957456338194e+18,0.0008079984690994024,0.002131618792191148,0.0008775686146691442
1.7294957456398195e+18,-0.000751681684050709,0.0004776516871061176,-0.0001931421138579026
1.7294957456488197e+18,0.0034930729307234287,0.0016974294558167458,0.0013925968669354916
1.72949574565782e+18,0.0032164687290787697,-0.001998726511374116,-0.0010702769504860044
1.72949574566682e+18,-0.0007814068230800331,0.001546094543300569,0.001931176520884037
1.7294957456758203e+18,-0.0006409143679775298,0.00014399716746993363,-0.00037125180824659765
1.7294957456848205e+18,-0.00203247694298625,0.0004715600807685405,-0.0015554626006633043
1.7294957456938207e+18,0.00028391770320013165,0.0007174558704718947,0.0009584716754034162
1.7294957457028209e+18,-0.0005821239901706576,0.003421104047447443,0.0007110271835699677
1.729495745711821e+18,0.00015401576820295304,-0.00010565562115516514,-0.00042383570689707994
1.7294957457178212e+18,0.0004624288994818926,0.0007295154500752687,-0.0005390862934291363
1.7294957457268214e+18,0.00028280389960855246,-0.001295577036216855,0.00156229711137712
1.7294957457358216e+18,0.0019356687553226948,-0.0008002390968613327,-0.0006883304449729621
1.7294957457448218e+18,-0.0016706280875951052,0.0017055097268894315,0.0028185956180095673
1.729495745753822e+18,0.0005061099654994905,-0.00048195861745625734,-0.0002673151029739529
1.729495745759822e+18,0.0036055168602615595,-0.0017911582253873348,-0.0017779276240617037
1.7294957457688223e+18,0.00040152788278646767,0.001618123846128583,0.0013681318378075957
1.7294957457808225e+18,0.0010625917930155993,-0.0012351478217169642,-0.0019768301863223314
1.7294957457868227e+18,-0.0013523754896596074,-0.0001893133739940822,0.0014383380766957998
1.7294957457958228e+18,-0.0027235522866249084,-0.0011796149192377925,0.00014966436719987541
1.729495745804823e+18,0.0002408659493084997,-0.0018010985804721713,0.001227297936566174
1.7294957458138232e+18,-0.0010270344791933894,-0.0005005060811527073,-0.00199814117513597
1.7294957458228234e+18,0.0016033332794904709,-0.0008332766592502594,-0.00010874414874706417
1.7294957458288236e+18,0.0008268657838925719,-0.0011222503380849957,-0.00041278990102000535
1.7294957458378237e+18,-0.00136560236569494,0.00164485489949584,-0.0007107959245331585
1.729495745846824e+18,0.002199751790612936,0.0014464077539741993,-0.0017471287865191698
1.729495745852824e+18,0.001571602071635425,-0.0016656662337481976,-0.000519772176630795
1.7294957458618243e+18,0.0009420303395017982,0.002901178551837802,0.0023489478044211864
1.7294957458708244e+18,0.001158468658104539,0.0009744284907355905,-0.0003721455577760935
1.7294957458798246e+18,-0.002041468396782875,0.0007973723113536835,-0.0013426297809928656
1.7294957458888248e+18,-0.002563798101618886,-0.0024756265338510275,-0.0017535218503326178
1.729495745894825e+18,0.002109956694766879,-0.00065026362426579,-0.0005614949623122811
1.7294957459038252e+18,-0.00047053955495357513,0.0005484665744006634,-0.0023435717448592186
1.7294957459128253e+18,-0.0011863705003634095,-0.001280185766518116,0.0007642364362254739
1.7294957459218255e+18,-0.0009548357920721173,0.0010479482589289546,-0.002872452838346362
1.7294957459308257e+18,0.0014038037043064833,0.0012319919187575579,-0.0008180151926353574
1.7294957459368259e+18,0.0014898146037012339,0.0016410625539720058,-0.0022431265097111464
1.729495745945826e+18,0.001953865634277463,4.852892379858531e-05,0.001473075128160417
1.7294957459548262e+18,-0.0009377069072797894,0.0019690825138241053,0.0018124502385035157
1.7294957459638264e+18,-0.0030862728599458933,0.001179573591798544,0.0011079836403951049
1.7294957459698266e+18,0.0011966560268774629,-0.001906675286591053,0.0009880710858851671
1.7294957459788268e+18,-0.0011993239168077707,-0.0005306993261910975,-0.0024692683946341276
1.729495745987827e+18,0.00028009622474201024,-0.003330853069201112,-0.0006518233567476273
1.7294957459968271e+18,0.00017115112859755754,-0.0019302061991766095,-0.0007932889275252819
1.7294957460058273e+18,-0.0012426847824826837,0.0014799012569710612,-0.0019855345599353313
1.7294957460148275e+18,0.0018673490267246962,-0.0014153444208204746,0.004709597676992416
1.7294957460238277e+18,0.0009791967459022999,-6.450293585658073e-05,0.0033185603097081184
1.729495746032828e+18,0.00010445613588672131,1.8613758584251627e-05,-0.0010346684139221907
1.729495746038828e+18,0.00041257674456574023,-0.000379792443709448,-0.0008365259855054319
1.7294957460478282e+18,0.0007155140046961606,-0.0010125954868271947,-0.0007092877640388906
1.7294957460568284e+18,-0.0015920876758173108,0.0015893876552581787,0.0019852668046951294
1.7294957460658286e+18,0.0008533552754670382,0.001765922293998301,-0.000926076085306704
1.7294957460718287e+18,-2.6469462682143785e-05,-0.0023839047644287348,6.499951723526465e-06
1.729495746080829e+18,0.0007467808318324387,-0.0010845072101801634,0.0010071306023746729
1.729495746089829e+18,0.0009014093084260821,-0.0007020906778052449,-0.0011732080020010471
1.7294957460958292e+18,0.0003807940811384469,-0.001257853233255446,-0.0009923131437972188
1.7294957461048294e+18,0.0009927975479513407,0.0012286886340007186,0.0017265814822167158
1.7294957461138296e+18,0.00304236588999629,-0.00029370939591899514,0.0010529750725254416
1.7294957461228298e+18,-0.0006236430490389466,-0.001736416365019977,-0.0015532177640125155
1.72949574612883e+18,-0.002315875608474016,0.003651796840131283,0.0015265604015439749
1.7294957461378301e+18,0.0016153594478964806,-0.0009669872815720737,-0.004206199664622545
1.7294957461468303e+18,0.0009817887330427766,-0.0030693835578858852,0.0008326463866978884
1.7294957461528305e+18,-0.002146937185898423,0.0013292789226397872,0.00033312724553979933
1.7294957461618307e+18,-0.004577393643558025,0.0010563838295638561,0.0010393887059763074
1.7294957461708308e+18,-0.0017968469765037298,0.002402817364782095,0.00023748060630168766
1.729495746179831e+18,-0.0006080185994505882,-0.0032776675652712584,-0.00022128422278910875
1.7294957461888312e+18,0.0009007920161820948,0.0005192242679186165,-0.0009792258497327566
1.7294957461948314e+18,-0.001571346540004015,-0.0018398362444713712,-0.0005880252574570477
1.7294957462038316e+18,-0.0025634358171373606,0.0023956047371029854,0.000298899132758379
1.7294957462128317e+18,2.943930303445086e-05,0.0014556106179952621,0.0004117338976357132
1.729495746221832e+18,-0.0026660680305212736,0.0008088320028036833,0.0005231326213106513
1.729495746227832e+18,0.0007187121082097292,-0.0006368606118485332,0.0005451951292343438
1.7294957462368323e+18,0.000487504672491923,-0.00287394761107862,-0.001924007199704647
1.7294957462458324e+18,-0.0018463126616552472,-0.0006378007819876075,-0.003298083320260048
1.7294957462518326e+18,0.00022862957848701626,-0.001116676488891244,0.001339319278486073
1.7294957462608328e+18,0.000677010917570442,0.0007207851158455014,0.0018064443720504642
1.729495746269833e+18,0.001242901897057891,0.00012897810665890574,-0.0007389502134174109
1.729495746275833e+18,-0.0005767652182839811,0.0019865252543240786,-0.001185079338029027
1.7294957462848333e+18,-0.001468513160943985,-0.001446056179702282,0.0006823934963904321
1.7294957462938335e+18,0.0018911403603851795,0.00018728943541646004,-0.0006890996010042727
1.7294957463028337e+18,-5.429045813798439e-06,0.00041264071478508413,-0.00104967737570405
1.7294957463118339e+18,-0.003088327357545495,0.0015282778767868876,0.0006161441560834646
1.729495746317834e+18,-0.0021378956735134125,0.0003080976603087038,-0.0006671988521702588
1.7294957463268342e+18,0.0012375882361084223,-4.4600314140552655e-05,0.0024035838432610035
1.7294957463358344e+18,0.002302939537912607,-0.0010295677930116653,0.0011997907422482967
1.7294957463448346e+18,-0.0005328973056748509,0.0020187608897686005,-0.0001861041528172791
1.7294957463538348e+18,0.001554364338517189,0.001018853043206036,0.0012685185065492988
1.729495746362835e+18,-0.0012607007520273328,-0.0003721958491951227,0.002011381322517991
1.729495746368835e+18,-0.0014638433931395411,-0.0006791839259676635,-0.003403997980058193
1.7294957463778353e+18,-0.0026661136653274298,-0.000614405726082623,-0.0014823497040197253
1.7294957463868355e+18,-0.0003118458844255656,-0.002457497175782919,0.0014207311905920506
1.7294957463958356e+18,-0.0011813398450613022,0.0015527356881648302,-0.0010249018669128418
1.7294957464018358e+18,0.0010291645303368568,0.001072544022463262,-0.0024280184879899025
1.729495746410836e+18,0.0005704833311028779,-0.0009671158622950315,0.00018023019947577268
1.7294957464198362e+18,0.0002761352516245097,-0.0009633111185394228,-0.0006686738925054669
1.7294957464288364e+18,0.0022344309836626053,0.0007465920643880963,0.0007917150505818427
1.7294957464378365e+18,0.001274528563953936,-0.001492036273702979,-0.0026374771259725094
1.7294957464468367e+18,-0.0007040677592158318,0.0004933516611345112,9.052394489117432e-06
1.729495746455837e+18,-0.000569512601941824,-0.0024313735775649548,0.0009565086802467704
1.729495746461837e+18,0.0014526741579174995,0.0006535121356137097,0.001187161193229258
1.7294957464708372e+18,-0.0015099983429536223,0.0009787415619939566,-0.0019767542835325003
1.7294957464798374e+18,0.00046585200470872223,3.374630250618793e-05,-0.0017102722777053714
1.7294957464888376e+18,-0.0019944594241678715,0.00048437932855449617,-0.0004907578113488853
1.7294957464978378e+18,-0.0016609641024842858,0.0010320863220840693,0.00010340493463445455
1.729495746506838e+18,-0.000720269454177469,0.0013523978414013982,-0.0006357866222970188
1.7294957465158382e+18,-0.0028425876516848803,-0.0013133349129930139,-0.0006943966145627201
1.7294957465248384e+18,0.0002057988749584183,-3.577511597541161e-05,-0.0003926092467736453
1.7294957465338386e+18,-0.00018884670862462372,0.00028572624432854354,0.002124603372067213
1.7294957465398387e+18,-0.000858002807945013,-0.0010883240029215813,0.000977728865109384
1.729495746548839e+18,-0.0002883578708861023,-5.549905472435057e-05,-0.0035517746582627296
1.729495746557839e+18,-0.0006832261569797993,0.0010429613757878542,-0.0014344656374305487
1.7294957465668393e+18,0.0016699631232768297,-0.0022124536335468292,0.00012787696323357522
1.7294957465758395e+18,-0.002013945020735264,0.0019385507330298424,0.001085864845663309
1.7294957465848397e+18,0.002289006719365716,-0.001616047346033156,0.0007338513969443738
1.7294957465938399e+18,-0.0003727001021616161,-0.0026942966505885124,-0.0007535010227002203
1.72949574660284e+18,-0.00013636572111863643,-0.0024497101549059153,0.0030537848360836506
1.7294957466088402e+18,0.0002753230510279536,-0.000691849971190095,-0.0007778441067785025
1.7294957466178404e+18,-0.0009513346012681723,0.00016057456377893686,0.0017291154945269227
1.7294957466268406e+18,-0.0012621390633285046,0.0019899739418178797,-0.00034686276922002435
1.7294957466358408e+18,-0.001942249247804284,-0.0008277305751107633,-0.00016832338587846607
1.729495746644841e+18,0.0016963515663519502,0.0008223403710871935,0.001729588839225471
1.729495746650841e+18,0.0016411877004429698,0.003257491160184145,0.0005691368714906275
1.7294957466598413e+18,-0.0022002635523676872,0.000954522576648742,0.002850927645340562
1.7294957466688415e+18,-0.0010916084283962846,-0.0006457362323999405,0.0009435944375582039
1.7294957466748416e+18,0.0027995191048830748,-0.0009950509993359447,0.00019869438256137073
1.7294957466838418e+18,-0.0018483407329767942,-0.0020728136878460646,0.0019560225773602724
1.729495746692842e+18,-0.00020404133829288185,-0.00040967657696455717,-0.00022475075093097985
1.7294957467018422e+18,0.001375469844788313,6.02882437306107e-06,0.00015374338545370847
1.7294957467078423e+18,-0.0010876217857003212,0.0014771911082789302,-0.0007462603971362114
1.7294957467168425e+18,-0.0010149638401344419,0.001847987063229084,0.0023332778364419937
1.7294957467258427e+18,0.0005358158960007131,-0.000498965207953006,-0.001139695174060762
1.729495746734843e+18,-0.0017643512692302465,-0.0007638824754394591,0.00018006903701461852
1.729495746740843e+18,0.0016280600102618337,-0.004229172598570585,-0.0022032889537513256
1.7294957467498432e+18,0.0001289877836825326,-0.0010863625211641192,-0.00016236223746091127
1.7294957467588434e+18,-0.0019743943121284246,-2.498481990187429e-05,-0.001370009733363986
1.7294957467648435e+18,0.0005103020230308175,-0.0007627511513419449,0.0005719085456803441
1.7294957467738437e+18,0.0015879221027716994,0.00012368577881716192,0.0017390951979905367
1.729495746782844e+18,-0.0024579560849815607,-0.0024263858795166016,0.0004930627183057368
1.729495746791844e+18,-0.00012488735956139863,0.0007592907641083002,0.00240164902061224
1.7294957467978442e+18,-0.0010364535264670849,-0.0006587621755897999,0.002874762285500765
1.7294957468068444e+18,0.0002849007141776383,0.002242122311145067,0.0008459537057206035
1.7294957468158446e+18,0.0013927188701927662,3.23609565384686e-05,-0.0003271772002335638
1.7294957468218447e+18,0.0013650080654770136,-0.0003976704610977322,0.0005237107980065048
1.729495746830845e+18,-0.0030889222398400307,-0.0009588680695742369,0.001700257882475853
1.729495746836845e+18,-0.001423786859959364,-0.0014984332956373692,0.0010588293662294745
1.7294957468458452e+18,0.0010265866294503212,0.0033309487625956535,-8.1312216934748e-05
1.7294957468518454e+18,2.7770411179517396e-05,0.0021955501288175583,0.0027140702586621046
1.7294957468608456e+18,0.0007377802394330502,-0.0005315000307746232,0.0009047429193742573
1.7294957468698458e+18,0.003062865464016795,0.000906776636838913,-0.0017514039063826203
1.729495746875846e+18,-0.0002834905171766877,0.0011521873530000448,0.0017024710541591048
1.729495746884846e+18,-0.0012691590236499906,0.0010989387519657612,-0.00043009009095840156
1.7294957468908462e+18,-0.0008642912143841386,0.0008668482187204063,-0.0004964476684108377
1.7294957468998464e+18,-0.001485662069171667,-0.00024123310868162662,0.0018414484802633524
1.7294957469088466e+18,9.710037556942552e-05,-0.003696589032188058,7.265637395903468e-05
1.7294957469148467e+18,-0.000595880497712642,0.0018024556338787079,0.0012706000125035644
1.729495746923847e+18,-0.0019986967090517282,-0.0019336206605657935,-0.0005842741229571402
1.729495746929847e+18,0.0009425745229236782,0.002054080832749605,-8.576633263146505e-05
1.7294957469388472e+18,0.001101455301977694,0.0005284221260808408,-0.0019080823985859752
1.7294957469478474e+18,-0.0011072419583797455,-0.00139048567507416,0.0002700446639209986
1.7294957469538476e+18,0.000647335487883538,-0.00013044997467659414,0.002053504344075918
1.7294957469628477e+18,-0.0004315550613682717,-0.0002811399754136801,0.0014848730061203241
1.729495746974848e+18,0.00022901891497895122,-0.0014271134277805686,0.0010075399186462164
1.729495746980848e+18,0.0005484072607941926,0.001209010137245059,0.00013713743828702718
1.7294957469898483e+18,-0.001140132313594222,-0.001378144370391965,-0.0031309504993259907
1.7294957469988485e+18,0.0004333644174039364,0.0020691873505711555,0.0009622523211874068
1.7294957470078487e+18,0.0012828422477468848,6.970969116082415e-05,-0.0010623630369082093
1.7294957470138488e+18,-0.0020189261995255947,0.0005907061276957393,0.0009151401463896036
1.729495747022849e+18,0.0007455581799149513,-0.0007225937442854047,-0.0001629117614356801
1.7294957470318492e+18,-0.0016212491318583488,0.0009536697180010378,0.002278594532981515
1.7294957470378493e+18,-0.00013361619494389743,-0.0005673138075508177,0.0006168664549477398
1.7294957470468495e+18,-0.001143476809374988,-0.0010199127718806267,0.0023897180799394846
1.7294957470558497e+18,0.0007059418712742627,-0.001552491681650281,0.0007533180760219693
1.72949574706485e+18,-0.002540490124374628,0.0005919691757299006,5.1358343625906855e-05
1.72949574707085e+18,0.0019794346299022436,0.0014625730691477656,0.0004309355572331697
1.7294957470798502e+18,0.0020118453539907932,-0.0004947311244904995,0.000965127837844193
1.7294957470888504e+18,-0.0036966388579458,-0.0004941974184475839,-0.0019347183406352997
1.7294957470978506e+18,0.0005244693602435291,-0.00038316272548399866,-0.001067558885551989
1.7294957471038508e+18,0.002560083055868745,-0.0024167972151190042,0.0007573009352199733
1.729495747112851e+18,-0.0015376093797385693,0.00026510906172916293,-0.0005452391924336553
1.7294957471218511e+18,-0.0016978863859549165,0.0009239422506652772,0.0016874070279300213
1.7294957471308513e+18,0.0009391528437845409,-0.0010793601395562291,-0.0011914793867617846
1.7294957471368515e+18,-0.0010472658323124051,0.00012305293057579547,0.0009321302641183138
1.7294957471458516e+18,0.000153985180077143,-0.002576984465122223,0.0017995567759498954
1.7294957471548518e+18,0.0007805679342709482,0.003793183481320739,0.00072445411933586
1.729495747160852e+18,0.0026191584765911102,0.002238984452560544,0.0006386226159520447
1.7294957471698522e+18,0.0006665261462330818,0.0014199720462784171,-6.397216930054128e-05
1.7294957471788524e+18,-0.0007036976749077439,0.0008782555814832449,-0.0015377256786450744
1.7294957471848525e+18,-0.00021493555686902255,-0.00026630304637365043,-0.0034549953415989876
1.7294957471938527e+18,0.0006874557002447546,-0.0022734759841114283,-0.0009828770998865366
1.7294957472028529e+18,0.000822358182631433,-0.001305549987591803,-0.00012978207087144256
1.729495747211853e+18,0.00019791311933659017,0.0004051480791531503,-0.0011158414417877793
1.7294957472208532e+18,-0.0023472337052226067,-0.0006057483260519803,0.0015376826049759984
1.7294957472298534e+18,0.0011776828905567527,0.0009806915186345577,0.0009029024513438344
1.7294957472358536e+18,0.0005393856554292142,0.0006412008078768849,0.0014401901280507445
1.7294957472448538e+18,-0.0007884600199759007,0.00261753355152905,-0.0008049278403632343
1.729495747253854e+18,-0.0018379568355157971,-0.0004332623502705246,-0.0023565299343317747
1.7294957472628541e+18,-0.00016465489170514047,-0.0014089270262047648,0.000731196952983737
1.7294957472718543e+18,0.0008221641182899475,-0.001598491333425045,-0.0003910567029379308
1.7294957472778545e+18,0.003503029001876712,-0.00021702292724512517,-0.00026977559900842607
1.7294957472868547e+18,0.0009313998161815107,0.00037884991616010666,-0.0003630557330325246
1.7294957472958548e+18,-0.0016606005374342203,-0.002804033923894167,-0.0013214043574407697
1.729495747304855e+18,-0.0013481976930052042,-0.0030148173682391644,0.0017125755548477173
1.7294957473138552e+18,0.001341321156360209,0.0012077467981725931,-0.00039145254413597286
1.7294957473228554e+18,0.0003096959553658962,-0.002520065288990736,0.0006315317586995661
1.7294957473318556e+18,0.005081305745989084,-0.0015695792390033603,-0.001132090692408383
1.7294957473408558e+18,0.0007475174497812986,0.00019999418873339891,0.000204412208404392
1.729495747346856e+18,-0.0005085050361230969,0.0011069898027926683,0.001954743405804038
1.7294957473558561e+18,0.0007511812727898359,-0.000675519579090178,-0.0012015303364023566
1.7294957473648563e+18,0.0035341151524335146,-4.8965808673528954e-05,2.8632222893065773e-05
1.7294957473708564e+18,0.00011185779294464737,0.0020441084634512663,-0.0004990776651538908
1.7294957473798566e+18,-0.0006733464542776346,-0.00036299240309745073,0.0017166008474305272
1.7294957473888568e+18,0.0006492735119536519,0.0024484372697770596,-0.002867938717827201
1.729495747394857e+18,-6.583462527487427e-05,0.0006568366661667824,5.4279586038319394e-05
1.7294957474038572e+18,-0.001530301058664918,-0.0009487216593697667,-0.0011705162469297647
1.7294957474098573e+18,-0.0005618230206891894,-0.002085639163851738,0.0008023450500331819
1.7294957474188575e+18,0.0014782219659537077,0.002362306695431471,-0.0004897457547485828
1.7294957474248576e+18,-0.0012305027339607477,-0.000969672400970012,0.0004475808818824589
1.7294957474338578e+18,0.00046261411625891924,-0.00971943512558937,0.0012891310034319758
1.729495747442858e+18,-0.007509773597121239,-0.05943073704838753,0.0006481563905254006
1.7294957474518582e+18,-0.013132945634424686,-0.11087854951620102,0.00016620001406408846
1.7294957474578583e+18,-0.015431543812155724,-0.13994289934635162,0.0011721421033143997
1.7294957474668585e+18,-0.019374193623661995,-0.1669122278690338,-0.0007670955383218825
1.7294957474728586e+18,-0.023165663704276085,-0.17337076365947723,0.0021142917685210705
1.7294957474818588e+18,-0.01791566237807274,-0.16512338817119598,0.0019315871177241206
1.729495747490859e+18,-0.011346211656928062,-0.1521478146314621,0.0014170859940350056
1.7294957474968591e+18,-0.01241928432136774,-0.14106203615665436,-0.000580464955419302
1.7294957475058593e+18,-0.012145508080720901,-0.13689815998077393,0.0015377493109554052
1.7294957475118595e+18,-0.011766316369175911,-0.1359567940235138,0.003672705963253975
1.7294957475208596e+18,-0.012588603422045708,-0.1413073092699051,0.002458651550114155
1.7294957475298598e+18,-0.01362861879169941,-0.1509844958782196,0.0009592820424586535
1.72949574753886e+18,-0.014073643833398819,-0.14905960857868195,0.0010852855630218983
1.7294957475478602e+18,-0.014169816859066486,-0.1408364176750183,0.0033995972480624914
1.7294957475568604e+18,-0.013740521855652332,-0.11919223517179489,0.00013617845252156258
1.7294957475628605e+18,-0.01072328444570303,-0.10998488962650299,-0.000216794665902853
1.7294957475718607e+18,-0.006204832810908556,-0.09584520757198334,-8.283322677016258e-05
1.729495747580861e+18,-0.005331684835255146,-0.0811169371008873,0.0012629723642021418
1.729495747589861e+18,-0.004915688186883926,-0.07255133241415024,0.0017740544863045216
1.7294957475988613e+18,-0.002702695783227682,-0.06894472986459732,0.00484249833971262
1.7294957476078615e+18,-0.005349030252546072,-0.06436111032962799,0.0063126883469522
1.7294957476168617e+18,-0.00840548425912857,-0.051498666405677795,0.005183204542845488
1.729495747625862e+18,-0.0056213513016700745,-0.038564179092645645,0.002534880070015788
1.729495747634862e+18,-0.003169352188706398,-0.023117516189813614,0.0018010130152106285
1.7294957476408622e+18,-0.002090942347422242,-0.013578900136053562,0.0028453338891267776
1.7294957476498624e+18,-0.0006245679687708616,-0.0021867433097213507,0.00548253720626235
1.7294957476588626e+18,-0.0021436354145407677,0.004484167322516441,0.004561139270663261
1.7294957476648627e+18,-0.0013145239790901542,0.00702836224809289,0.0034262146800756454
1.729495747673863e+18,-0.0018171542324125767,0.015720855444669724,0.0065271384082734585
1.729495747682863e+18,-0.004470571409910917,0.02478165552020073,0.0036953818053007126
1.7294957476918633e+18,-0.004703761078417301,0.02844708040356636,0.004048582166433334
1.7294957476978634e+18,-0.000904704793356359,0.035958826541900635,0.004253402352333069
1.7294957477068636e+18,4.568234726320952e-05,0.04397648572921753,0.004014446400105953
1.7294957477158638e+18,0.0010296473046764731,0.048707444220781326,0.005153496749699116
1.729495747724864e+18,0.007091623730957508,0.05051353573799133,0.002129241358488798
1.729495747730864e+18,0.006976433098316193,0.055885445326566696,0.0030522614251822233
1.7294957477398643e+18,0.0054943193681538105,0.05825182795524597,0.00694759376347065
1.7294957477488645e+18,-0.0006517241708934307,0.060332223773002625,0.006330037489533424
1.7294957477578647e+18,0.0027336282655596733,0.06585022807121277,0.006518975831568241
1.7294957477638648e+18,0.0021364139392971992,0.06497276574373245,0.008199766278266907
1.729495747772865e+18,0.0036985729821026325,0.06814774125814438,0.005208947695791721
1.7294957477818652e+18,0.003895609173923731,0.06921588629484177,0.004933121148496866
1.7294957477908654e+18,0.008184891194105148,0.06906373798847198,0.004716250579804182
1.7294957477968655e+18,0.006500954274088144,0.07028349488973618,0.0038625383749604225
1.7294957478058657e+18,0.00434655649587512,0.06720151752233505,0.005806025117635727
1.729495747814866e+18,0.005949386861175299,0.06783249229192734,0.0047450256533920765
1.729495747823866e+18,0.005437664221972227,0.06910105794668198,0.004442161880433559
1.7294957478298662e+18,0.005170817952603102,0.0684019923210144,0.007829020731151104
1.7294957478388664e+18,0.005074156913906336,0.06755287200212479,0.006302688270807266
1.7294957478448666e+18,0.004947090055793524,0.06978865712881088,0.007588569074869156
1.7294957478538668e+18,0.005797125864773989,0.06855643540620804,0.006806322373449802
1.729495747862867e+18,0.005912679247558117,0.06294894963502884,0.005443718284368515
1.7294957478718671e+18,0.006831025239080191,0.06385324895381927,0.0071147955022752285
1.7294957478778673e+18,0.004934360738843679,0.05818472430109978,0.00344165600836277
1.7294957478868675e+18,0.007086496334522963,0.05780551955103874,0.005105452612042427
1.7294957478958676e+18,0.004578088875859976,0.05887722969055176,0.006005885079503059
1.7294957479048678e+18,0.003474873723462224,0.06046607717871666,0.00488031143322587
1.729495747910868e+18,0.0032910818699747324,0.06110712140798569,0.005730618257075548
1.7294957479198682e+18,0.003943874500691891,0.060846369713544846,0.006554930470883846
1.7294957479288684e+18,0.004835780709981918,0.05597187578678131,0.0046388222835958
1.7294957479378685e+18,0.00830296240746975,0.054883163422346115,0.007127207703888416
1.7294957479438687e+18,0.009629332460463047,0.054976992309093475,0.0038287139032036066
1.7294957479528689e+18,0.0070912959054112434,0.04951964691281319,0.0043146638199687
1.729495747961869e+18,0.004095078445971012,0.04966409504413605,0.004505709744989872
1.7294957479708692e+18,0.0030958359129726887,0.04789716750383377,0.0055057937279343605
1.7294957479768694e+18,0.001903611235320568,0.04383935034275055,0.002865792717784643
1.7294957479858696e+18,0.006453828886151314,0.046176280826330185,0.0061368178576231
1.7294957479948698e+18,0.009469912387430668,0.040192123502492905,0.004726003389805555
1.72949574800387e+18,0.0069922590628266335,0.04089164733886719,0.0064112599939107895
1.72949574800987e+18,0.007128460332751274,0.03863523155450821,0.00529506104066968
1.7294957480188703e+18,0.00686622504144907,0.03614683449268341,0.004230881575495005
1.7294957480278705e+18,0.002515205414965749,0.03327124938368797,0.005718274042010307
1.7294957480368707e+18,0.001849265769124031,0.032844800502061844,0.0021621512714773417
1.7294957480428708e+18,0.0013654297217726707,0.03478662669658661,0.005197310820221901
1.729495748051871e+18,0.00663386844098568,0.03286786749958992,0.004462582990527153
1.7294957480608712e+18,0.00338438106700778,0.03367144241929054,0.005744112655520439
1.7294957480668713e+18,0.007383047603070736,0.034266937524080276,0.003699844004586339
1.7294957480758715e+18,0.0024171588011085987,0.028734883293509483,0.005943937227129936
1.7294957480848717e+18,0.0021291912999004126,0.028798233717679977,0.0012888757046312094
1.7294957480908718e+18,0.0022346624173223972,0.026476392522454262,0.004945235792547464
1.729495748102872e+18,0.003193439682945609,0.02285785600543022,0.0028119427151978016
1.7294957481118723e+18,0.007325818762183189,0.021602345630526543,0.004142974968999624
1.7294957481178724e+18,0.0031769315246492624,0.02413327246904373,0.002972937421873212
1.7294957481268726e+18,0.007204994093626738,0.021178727969527245,0.003949828911572695
1.7294957481358728e+18,0.004912698175758123,0.019714126363396645,0.00319879362359643
1.729495748144873e+18,0.002908200491219759,0.019013280048966408,0.005734843201935291
1.729495748150873e+18,0.003018781775608659,0.02179502695798874,0.001185579807497561
1.7294957481598733e+18,0.003518905723467469,0.0231349878013134,0.002214073669165373
1.7294957481658734e+18,0.003218183759599924,0.02470887266099453,0.0008376063778996468
1.7294957481748736e+18,0.003757801605388522,0.024794582277536392,0.004961066879332066
1.7294957481838738e+18,0.0022867759689688683,0.01968134380877018,0.0032761471811681986
1.729495748189874e+18,0.002961130812764168,0.02047063782811165,0.002627149922773242
1.729495748198874e+18,0.0019703563302755356,0.023427218198776245,-0.0010629361495375633
1.7294957482078743e+18,0.004690729081630707,0.02034171111881733,0.002175325294956565
1.7294957482138744e+18,0.0009047137573361397,0.022548845037817955,0.002155171474441886
1.7294957482228746e+18,0.007030894048511982,0.019741136580705643,0.005582684185355902
1.7294957482318748e+18,0.007231878116726875,0.02284005470573902,0.0017669307999312878
1.729495748237875e+18,0.006033792160451412,0.02254779078066349,0.0006412426009774208
1.7294957482468751e+18,0.004791709594428539,0.02121705561876297,0.001347407465800643
1.7294957482558753e+18,0.0003796077799052,0.02323221042752266,0.0015212473226711154
1.7294957482618755e+18,-0.00041584158316254616,0.023688575252890587,0.0010458112228661776
1.7294957482708756e+18,0.0041559962555766106,0.018677227199077606,0.003569590160623193
1.7294957482798758e+18,0.006056637968868017,0.017562219873070717,0.0005450100288726389
1.729495748288876e+18,0.003005377948284149,0.01629658415913582,-0.00010578904766589403
1.7294957482948762e+18,0.0015375686343759298,0.015782706439495087,0.003596673021093011
1.7294957483038764e+18,0.001434793695807457,0.017262334004044533,-0.0022669536992907524
1.7294957483128765e+18,0.0009144996292889118,0.015652412548661232,0.002846071030944586
1.7294957483188767e+18,0.000874274643138051,0.01579967699944973,0.003133152611553669
1.7294957483278769e+18,0.0015384532744064927,0.016169799491763115,-0.0015475680120289326
1.729495748336877e+18,0.0016014771535992622,0.0142731424421072,3.661989467218518e-05
1.7294957483458772e+18,0.001207081601023674,0.010328136384487152,0.001017240108922124
1.7294957483518774e+18,0.0011903430568054318,0.012389634735882282,0.002486214740201831
1.7294957483608776e+18,0.0015618009492754936,0.011913599446415901,0.0014964676229283214
1.7294957483698778e+18,0.001898548798635602,0.009346198290586472,0.0017646573251113296
1.729495748378878e+18,0.004882936831563711,0.008072552271187305,-0.0005815324257127941
1.729495748384878e+18,-0.0017656974960118532,0.009547509253025055,0.001339014619588852
1.7294957483938783e+18,-0.0005974166560918093,0.011965126730501652,-0.0012626604875549674
1.7294957484028785e+18,0.0021105282939970493,0.010909250006079674,-0.00016838114243000746
1.7294957484148787e+18,0.0005438944790512323,0.012356371618807316,-0.0023966277949512005
1.7294957484208788e+18,0.00021698581986129284,0.009253415279090405,-0.0006568651297129691
1.729495748429879e+18,0.0026613702066242695,0.0088739525526762,0.0021199455950409174
1.7294957484358792e+18,-0.0010527085978537798,0.012517087161540985,0.0007485274109058082
1.7294957484448794e+18,0.000568156479857862,0.00903522688895464,0.0007727701449766755
1.7294957484538796e+18,-0.001245484221726656,0.013417494483292103,-5.84959052503109e-05
1.7294957484628797e+18,0.0031560538336634636,0.013012837618589401,-0.0006788516184315085
1.72949574846888e+18,-0.0021435562521219254,0.012229179963469505,0.0014203987084329128
1.72949574847788e+18,0.0012227364350110292,0.01319226436316967,0.0008711240370757878
1.7294957484958804e+18,-0.0009035242255777121,0.010807322338223457,-0.0012402443680912256
1.7294957485048806e+18,-0.002165446989238262,0.00947192870080471,-0.0022100545465946198
1.7294957485138808e+18,-0.0014220650773495436,0.012357077561318874,0.0001793889096006751
1.729495748522881e+18,-0.0009547563968226314,0.01097628753632307,-0.002318705664947629
1.7294957485318812e+18,0.0012610804988071322,0.008233984000980854,-0.0031241984106600285
1.7294957485378813e+18,-0.002082735998556018,0.009847738780081272,-0.002160116098821163
1.7294957485468815e+18,-0.00010315619874745607,0.011948388069868088,0.0017808019183576107
1.7294957485618819e+18,6.431993097066879e-05,0.009629441425204277,-0.0010816709836944938
1.729495748567882e+18,-0.0043911803513765335,0.006029874086380005,-0.0018183302599936724
1.7294957485768822e+18,-0.0035039647482335567,0.009484060108661652,-0.001664011157117784
1.7294957485888824e+18,-0.004681352060288191,0.010764345526695251,-0.002451481530442834
1.7294957485948826e+18,-0.0005502973217517138,0.006548027973622084,0.001481143175624311
1.7294957486068828e+18,-0.002208858961239457,0.007697306107729673,-0.0019158127252012491
1.729495748615883e+18,0.0005924325669184327,0.007332190405577421,-0.002135996939614415
1.7294957486218831e+18,0.00022765842732042074,0.010026037693023682,0.00019388250075280666
1.7294957486308833e+18,-0.0018172136042267084,0.005759215913712978,-0.00380247225984931
1.7294957486398835e+18,-0.0028316802345216274,0.005414504557847977,-0.0024229621049016714
1.7294957486488837e+18,-0.005179858300834894,0.010996412485837936,0.0001194104552268982
1.7294957486548838e+18,-0.0013727950863540173,0.008317288011312485,-0.0010197164956480265
1.729495748663884e+18,-0.0008875814964994788,0.008523581549525261,-0.002172549720853567
1.7294957486728842e+18,0.0016572705935686827,0.003579361829906702,-0.0048419395461678505
1.7294957486818844e+18,0.004166619852185249,0.005669689271599054,-0.0020259830635041
1.7294957486878845e+18,0.0018368215532973409,0.0031802996527403593,0.0002542997244745493
1.7294957486968847e+18,0.004264875315129757,0.0048874737694859505,-0.001705050584860146
1.729495748705885e+18,0.001333195948973298,0.0034979754127562046,-0.002360457321628928
1.729495748714885e+18,-0.001102676847949624,0.0064089251682162285,-0.0027032028883695602
1.7294957487208852e+18,-0.0040884315967559814,0.005681527312844992,-0.00419404124841094
1.7294957487298854e+18,-0.002974556991830468,0.006640272680670023,-0.002098232973366976
1.7294957487388856e+18,-0.0005378934438340366,0.006764458492398262,-0.002499702852219343
1.7294957487478858e+18,0.0043356940150260925,0.00517665920779109,-0.00382614484988153
1.729495748753886e+18,0.000850337790325284,0.004301831126213074,-0.005390132311731577
1.7294957487628861e+18,0.005810379981994629,0.0036307815462350845,-0.0011981228599324822
1.7294957487718863e+18,0.003554439637809992,0.0030386517755687237,-0.0014989447081461549
1.7294957487808865e+18,-6.518099689856172e-05,0.0021141536999493837,-0.0009860291611403227
1.7294957487898867e+18,-0.00030820444226264954,0.003349440172314644,-0.0010146230924874544
1.7294957487958868e+18,-0.0034370911307632923,0.0038681593723595142,-0.002782862400636077
1.729495748804887e+18,-0.0007454762235283852,-0.0019202383700758219,-0.0007827109657227993
1.7294957488138872e+18,0.001157981576398015,0.004214864689856768,0.000876725185662508
1.7294957488228874e+18,0.0021405499428510666,0.0033763565588742495,-0.004190073814243078
1.7294957488318876e+18,0.0033057378605008125,0.004271263722330332,-0.004342221654951572
1.7294957488378877e+18,0.003152515972033143,0.0058845030143857,-0.002445471938699484
1.729495748846888e+18,0.0008962751599028707,0.003789387410506606,-0.005287756212055683
1.7294957488558881e+18,-0.0011463903356343508,0.0009379913099110126,-0.002594356657937169
1.7294957488648883e+18,-0.003075375221669674,0.00036973971873521805,-0.0033505335450172424
1.7294957488738885e+18,-0.0010027186945080757,0.0021092649549245834,-0.004272435791790485
1.7294957488798886e+18,-0.0004865445662289858,0.004857031162828207,-0.003462405176833272
1.7294957488888888e+18,-0.0012832700740545988,0.00360120483674109,-0.0021503251045942307
1.729495748897889e+18,-0.0013960041105747223,0.0024581137113273144,-0.005266256630420685
1.7294957489068892e+18,-0.0015210697893053293,0.0008205326739698648,-0.006504099816083908
1.7294957489128893e+18,0.000740697025321424,-0.0004836500156670809,-0.0035750726237893105
1.7294957489218895e+18,0.0010523784440010786,0.002214212901890278,-0.0003386323805898428
1.7294957489308897e+18,-0.0020791131537407637,0.0007390073733404279,-0.0024486626498401165
1.7294957489368899e+18,-0.0020648743957281113,0.00260029430501163,-0.0023593814112246037
1.72949574894589e+18,-0.0011445151176303625,0.00012550281826406717,-0.0012789983302354813
1.7294957489548902e+18,-0.004108726978302002,0.0020825909450650215,-0.0016981097869575024
1.7294957489638904e+18,0.0009209885611198843,0.002375359646975994,-0.0029084901325404644
1.7294957489698906e+18,-0.0024520643055438995,0.005074922926723957,-0.003955997992306948
1.7294957489788908e+18,0.003597669070586562,0.0042030480690300465,-0.0031328871846199036
1.729495748987891e+18,0.0019129893044009805,0.004459046293050051,-0.003436184488236904
1.7294957489968911e+18,0.0032284511253237724,0.00027478067204356194,-0.0014895431231707335
1.7294957490028913e+18,0.0036885468289256096,9.5236930064857e-05,-0.001446946058422327
1.7294957490118915e+18,0.0002085121814161539,-0.002809294033795595,-0.002733414527028799
1.7294957490208916e+18,-0.0013110468862578273,-0.0029542483389377594,-0.0012060616863891482
1.7294957490298918e+18,-0.003658165456727147,-9.156436135526747e-06,-0.0009255968034267426
1.729495749035892e+18,-0.0018362447153776884,-0.00030376133508980274,-0.003433849895372987
1.7294957490448922e+18,-4.564956179820001e-05,0.002064361469820142,-0.001929206307977438
1.7294957490538924e+18,0.00012203003279864788,0.0020666206255555153,-0.0007966485572978854
1.7294957490628925e+18,0.0011137776309624314,0.002367923501878977,-0.0024805739521980286
1.7294957490688927e+18,-0.002211290644481778,0.003453264944255352,-0.0035477853380143642
1.7294957490778929e+18,-0.00012259573850315064,-0.0005555380485020578,-0.00014185882173478603
1.729495749086893e+18,-0.0008569284691475332,0.00040021358290687203,-0.004478858783841133
1.7294957490958932e+18,0.0013295493554323912,0.0008099396363832057,-0.002327783266082406
1.7294957491018934e+18,0.00530278030782938,-0.00024035507522057742,-0.0024902853183448315
1.7294957491108936e+18,0.0007321685552597046,-0.0018096815329045057,0.0004593236371874809
1.7294957491198938e+18,0.0021075336262583733,0.0014031622558832169,-0.0037532716523855925
1.729495749128894e+18,0.0019386759959161282,-0.0024127087090164423,-0.0035025975666940212
1.7294957491378941e+18,0.0017738838214427233,-0.00040688016451895237,-0.00038210954517126083
1.7294957491468943e+18,0.005802682600915432,0.0004558149666991085,-0.0035573551431298256
1.7294957491528945e+18,0.0019216923974454403,0.0015598773024976254,-0.0040365890599787235
1.7294957491618947e+18,-0.00013339100405573845,-0.0007060574134811759,-0.001534472219645977
1.7294957491708948e+18,0.0005031570326536894,-0.0016771773807704449,-0.0010876089800149202
1.729495749176895e+18,0.000898258644156158,0.00016341626178473234,-0.0007660731207579374
1.7294957491858952e+18,0.006380095612257719,-0.0009725491399876773,-0.0005338124465197325
1.7294957491948954e+18,0.0040207477286458015,0.002329690381884575,-0.0038731081876903772
1.7294957492038956e+18,0.007611042819917202,-0.00013127777492627501,-0.00020592287182807922
1.7294957492098957e+18,0.0014888537116348743,0.0005242082988843322,-0.0033697555772960186
1.729495749218896e+18,0.003067632904276252,-0.0017387478146702051,-0.002701652003452182
1.729495749224896e+18,0.004450421780347824,-0.001958588371053338,-2.6058522053062916e-05
1.7294957492338962e+18,0.0018964640330523252,-0.00024135923013091087,-0.0028417552821338177
1.7294957492428964e+18,0.001536745810881257,-0.003938976209610701,0.0016106190159916878
1.7294957492488965e+18,0.000552424811758101,-0.0006805645534768701,-0.00448190001770854
1.7294957492578967e+18,0.003670602571219206,0.003041509771719575,-0.00018786534201353788
1.729495749266897e+18,0.0063935332000255585,-0.0016879333416000009,-0.0033794825430959463
1.729495749272897e+18,0.003154610050842166,-0.0005364557146094739,-0.0022600481752306223
1.7294957492818972e+18,0.001371681340970099,-0.0009998143650591373,-0.0009811960626393557
1.7294957492908974e+18,0.003287416649982333,5.76868187636137e-05,-0.0005446370341815054
1.7294957492968975e+18,0.00023894576588645577,-0.003869404783472419,-0.001702106324955821
1.7294957493058977e+18,0.0024818996898829937,-0.00434544961899519,-0.0016356842825189233
1.729495749314898e+18,0.002416037954390049,-0.004322987049818039,-0.00138106441590935
1.729495749320898e+18,0.0011452133767306805,-0.0038923206739127636,-0.0012052709935232997
1.7294957493298982e+18,-0.000613359035924077,-0.0014806315302848816,-0.00022972695296630263
1.7294957493388984e+18,0.0020499401725828648,-0.004996080417186022,-0.0027041116263717413
1.7294957493448986e+18,0.0007140616653487086,-0.002440475393086672,-0.0014962838031351566
1.7294957493538988e+18,-0.0018924172036349773,-0.0027715859469026327,-0.0006476086564362049
1.729495749362899e+18,-0.0009720247471705079,-0.002224890049546957,0.0012476344127207994
1.7294957493718991e+18,-0.0015303294640034437,-0.004537716507911682,-0.0031001707538962364
1.7294957493778993e+18,0.0025620621163398027,-0.005079745780676603,0.001235978677868843
1.7294957493898995e+18,0.0001870709820650518,-0.008499093353748322,0.00016994186444208026
1.7294957493958996e+18,0.0006980014150030911,-0.00775837292894721,0.0004939413047395647
1.7294957494048998e+18,0.0034994694869965315,-0.006325758062303066,-0.0028542312793433666
1.7294957494139e+18,0.00018175796139985323,-0.009158982895314693,0.00018454284872859716
1.7294957494229002e+18,-0.00010692991781979799,-0.004178682342171669,-0.0019111376022920012
1.7294957494289004e+18,0.000214323285035789,-0.005113083869218826,-5.195121048018336e-05
1.7294957494379005e+18,0.005132496356964111,-0.0025623650290071964,-0.00031084034708328545
1.7294957494469007e+18,0.001434235367923975,-0.0021339873783290386,-0.0012958019506186247
1.729495749455901e+18,0.0023482288233935833,-0.0032140726689249277,-0.0016977519262582064
1.7294957494679012e+18,0.00014204985927790403,-0.006899532862007618,-0.0006024450995028019
1.7294957494769014e+18,0.0025834667030721903,-0.005540180951356888,-0.0013008950045332313
1.7294957494859016e+18,-0.0007882558275014162,-0.005519824102520943,0.0017454748740419745
1.7294957494919017e+18,0.0009132702834904194,-0.006381615996360779,0.0005618651630356908
1.729495749500902e+18,0.000861110573168844,-0.0029823537915945053,0.002697034738957882
1.729495749509902e+18,0.003232022514566779,-0.0029540874529629946,-0.00023860798683017492
1.7294957495159022e+18,0.00600835494697094,-0.001205368316732347,-0.0005094031803309917
1.7294957495249024e+18,0.004436699207872152,-0.0032343280036002398,-0.001363977207802236
1.7294957495339026e+18,0.0045999325811862946,-8.115358650684357e-05,-0.0015294172335416079
1.7294957495399027e+18,0.004933402873575687,-0.0064142015762627125,-0.00010274798842146993
1.729495749548903e+18,0.003914832603186369,-0.006663045380264521,-0.0014829883584752679
1.729495749557903e+18,-0.0003714074264280498,-0.006466605234891176,-0.0007437183521687984
1.7294957495639032e+18,-0.00112309365067631,-0.005731971934437752,-0.00019591592717915773
1.7294957495729034e+18,-0.0004132222384214401,-0.003269592998549342,0.0017687624786049128
1.7294957495789036e+18,-0.0031353370286524296,-0.004970727488398552,0.005175458732992411
1.7294957495879037e+18,0.000659756944514811,-0.003984327428042889,-0.00013072206638753414
1.729495749596904e+18,-0.001308780862018466,-0.004180758260190487,0.0004009692056570202
1.7294957496059041e+18,-0.0022577610798180103,-0.0029402016662061214,-4.447955871000886e-05
1.7294957496149043e+18,-0.0038950378075242043,-0.005588792264461517,-0.0027941628359258175
1.7294957496239045e+18,-0.004855472594499588,-0.008959535509347916,0.0017149250488728285
1.7294957496299046e+18,-0.003751816926524043,-0.007632880005985498,0.00021256139734759927
1.7294957496389048e+18,-0.005477449856698513,-0.006132025271654129,0.0003619980998337269
1.729495749644905e+18,-0.0005697396118193865,-0.006918855011463165,0.0015795007348060608
1.7294957496539052e+18,-0.0018006594618782401,-0.006994983647018671,0.0012629847042262554
1.7294957496629053e+18,-0.002146297600120306,-0.008984045125544071,0.002014304045587778
1.7294957496689055e+18,-0.003803098574280739,-0.00768808601424098,0.0009227078408002853
1.7294957496779057e+18,-0.000872091855853796,-0.010066166520118713,0.0006062781321816146
1.7294957496869059e+18,-0.004271841142326593,-0.006753867492079735,7.280719000846148e-05
1.729495749695906e+18,-0.00386629905551672,-0.00893296580761671,-0.0031275104265660048
1.7294957497019062e+18,-0.0049118115566670895,-0.009460242465138435,5.715445149689913e-05
1.7294957497109064e+18,-0.005345617886632681,-0.010787924751639366,0.0005300771445035934
1.7294957497199066e+18,-0.0014086320297792554,-0.010170085355639458,0.0010353277903050184
1.7294957497259067e+18,-0.0032905032858252525,-0.009165911935269833,0.002449966734275222
1.729495749734907e+18,-0.002032922813668847,-0.008141613565385342,0.003128502983599901
1.729495749743907e+18,-0.0036255354061722755,-0.007094084285199642,0.0014307348756119609
1.7294957497499072e+18,-0.0077941277995705605,-0.006428424268960953,0.0024108868092298508
1.7294957497589074e+18,-0.004310441203415394,-0.009149473160505295,0.0007647101301699877
1.7294957497649075e+18,-0.007392250932753086,-0.007795020937919617,-0.00041766371577978134
1.7294957497739077e+18,-0.004268314689397812,-0.007575411815196276,0.0025978577323257923
1.729495749782908e+18,-0.002509535988792777,-0.00913214311003685,-0.0003696494968608022
1.729495749788908e+18,-0.005745532922446728,-0.006756719667464495,0.006574401631951332
1.7294957497979082e+18,-0.0027965460903942585,-0.006039564497768879,0.004356629215180874
1.7294957498039084e+18,-0.0020290296524763107,-0.008053814992308617,-0.004583833739161491
1.7294957498129085e+18,0.001708197291009128,-0.00782746821641922,-0.01869794726371765
1.7294957498219087e+18,0.0026011404115706682,-0.008336957544088364,-0.02373391017317772
1.7294957498279089e+18,0.008513886481523514,-0.007534942589700222,-0.02343042939901352
1.729495749836909e+18,0.008152238093316555,-0.010198789648711681,-0.02309710904955864
1.7294957498459092e+18,0.007301312871277332,-0.007847707718610764,-0.023710116744041443
1.7294957498549094e+18,0.0014697518199682236,-0.00875344779342413,-0.02353118173778057
1.7294957498639096e+18,0.0040826620534062386,-0.009538949467241764,-0.027606302872300148
1.7294957498699098e+18,0.004801240283995867,-0.009795386344194412,-0.02591143734753132
1.72949574987891e+18,0.0033301422372460365,-0.006676981691271067,-0.025764422491192818
1.72949574988491e+18,0.004512412007898092,-0.007732186000794172,-0.02538231387734413
1.7294957498939103e+18,0.005712416488677263,-0.004048704169690609,-0.02243770845234394
1.7294957498999104e+18,0.007800973951816559,-0.001980964094400406,-0.023475050926208496
1.7294957499089106e+18,0.010214666835963726,-0.004780394956469536,-0.020485669374465942
1.7294957499179108e+18,0.005377769935876131,-0.008189909160137177,-0.02349528856575489
1.729495749926911e+18,0.0019130866276100278,-0.007200020831078291,-0.021677017211914062
1.729495749932911e+18,-0.001601669704541564,-0.006768733263015747,-0.018952807411551476
1.7294957499419113e+18,-0.0023023178800940514,-0.006697428412735462,-0.014572943560779095
1.7294957499479114e+18,-0.0017912649782374501,-0.006104310974478722,-0.018476521596312523
1.7294957499569116e+18,0.0040465169586241245,-0.00636517908424139,-0.01565403863787651
1.7294957499659118e+18,0.0013099577045068145,-0.007176470942795277,-0.015098407864570618
1.729495749974912e+18,0.0036934660747647285,-0.0019001294858753681,-0.010492019355297089
1.7294957499839122e+18,7.571146852569655e-05,-0.0013670416083186865,-0.007611139677464962
1.7294957499899123e+18,-0.007179886568337679,-0.0050424449145793915,-0.008840734139084816
1.7294957499989125e+18,-0.005209935829043388,-0.002139728982001543,-0.0034142443910241127
1.7294957500079127e+18,-0.0040933433920145035,-0.0048761689104139805,-0.00595159363001585
1.7294957500139128e+18,-0.0026274360716342926,-0.0023651611991226673,-0.0030180523172020912
1.729495750022913e+18,-0.0019461286719888449,-0.003393495222553611,0.0006539214518852532
1.7294957500319132e+18,-0.0021753853652626276,-0.0053715151734650135,0.005185753107070923
1.7294957500379133e+18,0.0009034813847392797,-0.005062533542513847,0.006366549991071224
1.7294957500469135e+18,0.0031769396737217903,-0.005003743339329958,0.00593884103000164
1.7294957500559137e+18,-0.0018974265549331903,-0.0023949500173330307,0.006156790070235729
1.729495750064914e+18,-0.004149721469730139,-0.002346966415643692,0.012326395139098167
1.729495750073914e+18,-0.0038564105052500963,-0.00029095890931785107,0.011745644733309746
1.7294957500829143e+18,-0.003972576465457678,-0.0023418725468218327,0.014708705246448517
1.7294957500889144e+18,-0.003889312269166112,-0.003980356268584728,0.01351702306419611
1.7294957500979146e+18,0.002093177754431963,-0.004888598807156086,0.014709052629768848
1.7294957501069148e+18,0.00022489833645522594,-0.00529694277793169,0.01738315261900425
1.729495750115915e+18,-0.00031462288461625576,-0.006803425960242748,0.018867122009396553
1.7294957501219151e+18,-0.0018822222482413054,-0.005068277008831501,0.020633917301893234
1.7294957501309153e+18,0.0014879776863381267,-0.004367143847048283,0.020890092477202415
1.7294957501399155e+18,0.0008923844434320927,-0.0029137805104255676,0.021401405334472656
1.7294957501489157e+18,-0.0003674030303955078,-0.002082556951791048,0.0239601731300354
1.729495750157916e+18,-0.0025047347880899906,-0.004244341515004635,0.023528460413217545
1.729495750166916e+18,0.00015379756223410368,-0.00019953493028879166,0.025959674268960953
1.7294957501759163e+18,2.1536077838391066e-05,-0.00270492909476161,0.027253927662968636
1.7294957501849165e+18,-0.00012526893988251686,-0.008774744346737862,0.02526428923010826
1.7294957501909166e+18,-0.0004072446608915925,-0.005092850886285305,0.027393896132707596
1.7294957501999168e+18,0.0008068311726674438,-0.007138784509152174,0.026705138385295868
1.729495750208917e+18,0.003868352621793747,-0.0038265094626694918,0.028371771797537804
1.7294957502179172e+18,0.00397151056677103,-0.0057830000296235085,0.028697246685624123
1.7294957502269174e+18,-8.406350389122963e-05,-0.0044497898779809475,0.026945751160383224
1.7294957502359176e+18,0.0005391060840338469,-0.004488348960876465,0.02960320934653282
1.7294957502449178e+18,-0.0013454975560307503,-0.002921386156231165,0.028890231624245644
1.729495750253918e+18,-0.0025805567856878042,-0.008405543863773346,0.03204347938299179
1.729495750259918e+18,-0.002999470569193363,-0.00593177042901516,0.0324644111096859
1.7294957502689183e+18,-0.0011460533132776618,-0.006545366253703833,0.031236568465828896
1.7294957502779185e+18,0.0010302955051884055,-0.003482359927147627,0.036275576800107956
1.7294957502869187e+18,0.0019433039706200361,-0.00487030204385519,0.03556737303733826
1.7294957502959188e+18,0.0014794871676713228,-0.006767788901925087,0.036356739699840546
1.729495750304919e+18,0.0005964168813079596,-0.008333656936883926,0.03608348220586777
1.7294957503139192e+18,-0.002846962306648493,-0.006951513700187206,0.035129427909851074
1.7294957503229194e+18,-0.0008619186701253057,-0.003455948317423463,0.03580392524600029
1.7294957503319196e+18,-0.004397732205688953,-0.0038645295426249504,0.03889131546020508
1.7294957503379197e+18,-0.00455617718398571,-0.0006124370265752077,0.040391094982624054
1.72949575034992e+18,-0.0011688006343320012,0.00043546129018068314,0.04217790439724922
1.7294957503559201e+18,-0.002515352563932538,-0.002490873448550701,0.040649957954883575
1.7294957503649203e+18,0.0008940969128161669,-0.004923258908092976,0.04266152158379555
1.7294957503739205e+18,-0.00022354291286319494,-0.005017043091356754,0.04058157280087471
1.7294957503829207e+18,0.002523514674976468,-0.007752106059342623,0.04101158678531647
1.729495750391921e+18,-0.00029708631336688995,-0.00637800944969058,0.042935170233249664
1.729495750397921e+18,-0.0013787683565169573,-0.006275599356740713,0.04374248534440994
1.7294957504069212e+18,-0.0008623917819932103,-0.006467919331043959,0.04709775745868683
1.7294957504159214e+18,-0.0019861224573105574,-0.00689271604642272,0.04250694811344147
1.7294957504249216e+18,0.0014179686550050974,-0.00155180087313056,0.04852810874581337
1.7294957504309217e+18,-0.00017094932263717055,-0.006069684401154518,0.04838074743747711
1.729495750439922e+18,0.0009290074813179672,-0.007520405109971762,0.04767744615674019
1.729495750448922e+18,-8.17862746771425e-06,-0.011443568393588066,0.046855535358190536
1.7294957504549222e+18,-0.0010774846887215972,-0.00715105002745986,0.050920289009809494
1.7294957504639224e+18,-0.0010969924042001367,-0.006983392406255007,0.05072464793920517
1.7294957504729226e+18,-0.004134596325457096,-0.007820719853043556,0.051068153232336044
1.7294957504819228e+18,-0.0010848501697182655,-0.006308812648057938,0.05258368328213692
1.729495750490923e+18,0.0007054987363517284,-0.006027062423527241,0.05459873378276825
1.7294957504969231e+18,0.004971786867827177,-0.009562363848090172,0.05473051220178604
1.7294957505059233e+18,0.0018324048724025488,-0.005572095513343811,0.056391313672065735
1.7294957505119235e+18,0.0015287625137716532,-0.0103260837495327,0.05731239542365074
1.7294957505209236e+18,-0.0012455049436539412,-0.008394936099648476,0.05772013962268829
1.7294957505299238e+18,-0.00273538613691926,-0.005832964554429054,0.057208433747291565
1.729495750538924e+18,-0.003305533668026328,-0.00595031026750803,0.059177812188863754
1.7294957505449242e+18,-0.0009368344908580184,-0.0061919898726046085,0.05780940130352974
1.7294957505539244e+18,0.002437894232571125,-0.00272703031077981,0.06004145368933678
1.7294957505629245e+18,0.0013483212096616626,-0.007387320976704359,0.06298824399709702
1.7294957505719247e+18,0.0029845035169273615,-0.006053824443370104,0.06566127389669418
1.729495750580925e+18,0.001601383090019226,-0.011183402501046658,0.06709767132997513
1.729495750586925e+18,0.0011621438898146152,-0.006095626391470432,0.06348389387130737
1.7294957505959252e+18,-0.001957625150680542,-0.0064679398201406,0.06716704368591309
1.7294957506049254e+18,-0.004818536341190338,-0.00736309215426445,0.06683902442455292
1.7294957506109256e+18,-0.0017485932912677526,-0.0050687226466834545,0.07102249562740326
1.7294957506199258e+18,-0.0007870938279666007,-0.005542296916246414,0.06641490012407303
1.729495750628926e+18,-0.0029081194661557674,-0.003053926629945636,0.07116977870464325
1.7294957506379261e+18,0.0015696700429543853,-0.006555394269526005,0.07234019041061401
1.7294957506469263e+18,0.006133624352514744,-0.005880841985344887,0.07291797548532486
1.7294957506529265e+18,0.001708027208223939,-0.006304314825683832,0.0758863016963005
1.7294957506619267e+18,0.00016720971325412393,-0.007295703515410423,0.07360867410898209
1.7294957506709268e+18,-0.0005824217805638909,-0.003983624279499054,0.07384226471185684
1.729495750676927e+18,-0.0006235770415514708,-0.002110071713104844,0.07589323818683624
1.7294957506859272e+18,-0.00515109533444047,0.0009191744029521942,0.07806318253278732
1.7294957506949274e+18,-0.0035943430848419666,-0.0024415829684585333,0.07242260128259659
1.7294957507039276e+18,-0.0022317813709378242,-0.004908503964543343,0.07589137554168701
1.7294957507129277e+18,0.0006328907911665738,-0.004419611766934395,0.0766376480460167
1.729495750721928e+18,0.002110197441652417,-0.003504106542095542,0.07919250428676605
1.729495750730928e+18,0.003088833997026086,-0.00396769680082798,0.08146248012781143
1.7294957507399283e+18,-0.00041612028144299984,-0.001089837052859366,0.0817517340183258
1.7294957507489285e+18,-0.0030168017838150263,-0.0025512520223855972,0.08133187890052795
1.7294957507549286e+18,-0.004674739670008421,-0.00432584248483181,0.07854558527469635
1.7294957507639288e+18,-0.004498832393437624,-0.0011142428265884519,0.07764396071434021
1.729495750775929e+18,-0.004887168295681477,-0.003937297035008669,0.07960876822471619
1.7294957507819292e+18,-0.007078139111399651,-0.003532740753144026,0.08017338067293167
1.7294957507909294e+18,-0.00014357082545757294,-0.003146615345031023,0.0822850838303566
1.7294957507999296e+18,0.003599682357162237,-0.001948969205841422,0.07701563835144043
1.7294957508089298e+18,0.0022348533384501934,-0.006162399426102638,0.07925532758235931
1.72949575081793e+18,-0.00010984274558722973,-0.005798242054879665,0.0771140307188034
1.7294957508269302e+18,-0.0030113980174064636,-0.004849400836974382,0.07920153439044952
1.7294957508359304e+18,-0.0023394564632326365,-0.0033228578977286816,0.07700223475694656
1.7294957508449306e+18,-0.0016606618883088231,-0.002533756196498871,0.07957857847213745
1.7294957508539308e+18,-0.0017134288791567087,-0.005199416074901819,0.07559090852737427
1.729495750862931e+18,2.5186818675138056e-06,-0.005958551540970802,0.0794144943356514
1.7294957508719311e+18,0.0006669191061519086,-0.0035297288559377193,0.0763416513800621
1.7294957508779313e+18,-0.0024535791017115116,-0.0054289912804961205,0.07771434634923935
1.7294957508869315e+18,-0.002403226913884282,-0.008094437420368195,0.0762176662683487
1.7294957508959316e+18,-0.0033254483714699745,-0.007630691397935152,0.07327257096767426
1.7294957509049318e+18,-0.004522873554378748,-0.004237763117998838,0.07414333522319794
1.729495750913932e+18,-0.003471312578767538,-0.0044530341401696205,0.07215427607297897
1.7294957509229322e+18,-0.005105419550091028,-0.0022633192129433155,0.07171137630939484
1.7294957509319324e+18,-0.0031834114342927933,-0.001819531200453639,0.07001063227653503
1.7294957509409326e+18,0.0013837607111781836,-0.0041145943105220795,0.07056363672018051
1.7294957509499328e+18,0.0026413819286972284,-0.006020682863891125,0.06666555255651474
1.729495750958933e+18,-0.0006896795239299536,-0.008836518041789532,0.06743129342794418
1.729495750964933e+18,0.0014001061208546162,-0.0086252735927701,0.061718281358480453
1.7294957509739333e+18,-0.00017648757784627378,-0.007388564758002758,0.0647120401263237
1.7294957509829335e+18,-0.0002247537486255169,-0.004536955151706934,0.06748409569263458
1.7294957509919337e+18,-0.00019349332433193922,-0.0013554015895351768,0.05931758135557175
1.729495751000934e+18,-0.0020996038801968098,-0.000526704709045589,0.059325218200683594
1.729495751009934e+18,-0.0003013641689904034,-0.006581078749150038,0.06065244972705841
1.7294957510189343e+18,-0.0003605938982218504,-0.012799308635294437,0.05848822370171547
1.7294957510249344e+18,-0.007190387696027756,-0.02132292278110981,0.0572253055870533
1.7294957510339346e+18,-0.011058156378567219,-0.030627045780420303,0.055710725486278534
1.7294957510429348e+18,-0.015557157807052135,-0.03709038347005844,0.053200613707304
1.729495751051935e+18,-0.015570458024740219,-0.03887652978301048,0.053038764744997025
1.7294957510609352e+18,-0.018879130482673645,-0.035199858248233795,0.054189227521419525
1.7294957510669353e+18,-0.016293644905090332,-0.03537179157137871,0.05138437822461128
1.7294957510759355e+18,-0.008531108498573303,-0.03390003740787506,0.05124000459909439
1.7294957510849357e+18,-0.011128339916467667,-0.03484508395195007,0.04972970485687256
1.7294957510939359e+18,-0.01220972090959549,-0.037614576518535614,0.04942808672785759
1.729495751099936e+18,-0.01602497510612011,-0.04131025820970535,0.04819350317120552
1.7294957511089362e+18,-0.018664631992578506,-0.039981309324502945,0.04962120205163956
1.7294957511179364e+18,-0.016687531024217606,-0.040651485323905945,0.0452716201543808
1.7294957511239365e+18,-0.017942039296030998,-0.040299322456121445,0.04690388962626457
1.7294957511329367e+18,-0.01582692191004753,-0.039931219071149826,0.045715197920799255
1.729495751141937e+18,-0.01185265090316534,-0.03881952911615372,0.04321104660630226
1.729495751150937e+18,-0.008360572159290314,-0.03781311213970184,0.0435686893761158
1.7294957511599373e+18,-0.010492865927517414,-0.03985889256000519,0.04002027213573456
1.7294957511659374e+18,-0.009839687496423721,-0.03406121954321861,0.04178004711866379
1.7294957511749376e+18,-0.013416818343102932,-0.036954618990421295,0.0409773588180542
1.7294957511839378e+18,-0.01722024381160736,-0.03375289961695671,0.03921058028936386
1.729495751189938e+18,-0.014403540641069412,-0.032589998096227646,0.03760679438710213
1.729495751198938e+18,-0.015057065524160862,-0.03190212324261665,0.03926520794630051
1.7294957512079383e+18,-0.00817357748746872,-0.02678893506526947,0.03900595009326935
1.7294957512169385e+18,-0.0056922840885818005,-0.024444712325930595,0.03813142329454422
1.7294957512259387e+18,-0.006526436656713486,-0.024179374799132347,0.03517407551407814
1.7294957512319388e+18,-0.0055088684894144535,-0.020964592695236206,0.03455157205462456
1.729495751240939e+18,-0.008764803409576416,-0.01863577775657177,0.03479980304837227
1.7294957512469391e+18,-0.012001591734588146,-0.01818278059363365,0.036580558866262436
1.7294957512559393e+18,-0.009733992628753185,-0.019011668860912323,0.033611733466386795
1.7294957512649395e+18,-0.006536927539855242,-0.01701255328953266,0.032694559544324875
1.7294957512739397e+18,-0.0007670724298804998,-0.011802483350038528,0.03129963204264641
1.72949575128294e+18,-0.002399079967290163,-0.011779437772929668,0.029836444184184074
1.72949575128894e+18,-0.0007016712916083634,-0.007015317678451538,0.031805869191884995
1.7294957512979402e+18,-0.0005239777383394539,-0.00620818929746747,0.03091951087117195
1.7294957513069404e+18,0.00025851698592305183,-0.0039792656898498535,0.029960310086607933
1.7294957513159406e+18,-0.0027312987949699163,0.00074858742300421,0.028193514794111252
1.7294957513219407e+18,0.00048682233318686485,0.0011135966051369905,0.030017908662557602
1.729495751330941e+18,-0.0003835223615169525,-0.0013321505393832922,0.029658010229468346
1.729495751339941e+18,-0.0008356787147931755,0.0025042016059160233,0.026795245707035065
1.7294957513489413e+18,0.0038110490422695875,-0.001327931764535606,0.02590867131948471
1.7294957513579415e+18,0.005129363387823105,0.0019109330605715513,0.025493096560239792
1.7294957513669417e+18,0.0030437884852290154,-0.00039013533387333155,0.0269977655261755
1.729495751375942e+18,0.007231320254504681,0.0033561571035534143,0.02350379154086113
1.729495751384942e+18,0.002180234994739294,0.002383496845141053,0.027336187660694122
1.7294957513939423e+18,0.0007044392987154424,0.004699171055108309,0.026927096769213676
1.7294957514029425e+18,-0.0011433702893555164,0.003503940301015973,0.02165277488529682
1.7294957514119427e+18,-0.0038642289582639933,0.0036424638237804174,0.01903083734214306
1.7294957514209428e+18,-0.002991878427565098,0.0030957944691181183,0.0239026490598917
1.729495751429943e+18,0.0007880695047788322,0.0021731911692768335,0.020397454500198364
1.7294957514419433e+18,0.0011206134222447872,0.00133478210773319,0.01877833716571331
1.7294957514509435e+18,0.000868814648129046,0.0012507317587733269,0.020103098824620247
1.7294957514599437e+18,0.0019853420089930296,0.0022592730820178986,0.020574402064085007
1.729495751468944e+18,-0.005301809869706631,0.0020757117308676243,0.020895743742585182
1.729495751477944e+18,-0.0009479832369834185,0.005056163761764765,0.015389926731586456
1.7294957514869443e+18,0.0008241517352871597,0.0034457938745617867,0.019803307950496674
1.7294957514989445e+18,0.004485969431698322,0.002289160154759884,0.021449502557516098
1.7294957515079447e+18,0.004623968619853258,0.0030042449943721294,0.02172269858419895
1.729495751516945e+18,0.005277765914797783,0.0005411013262346387,0.019567761570215225
1.729495751525945e+18,0.0001231029164046049,0.0035963854752480984,0.01717342995107174
1.7294957515349453e+18,-0.0002889726893045008,0.001663037808611989,0.018131136894226074
1.7294957515439455e+18,0.002938365563750267,0.004107981454581022,0.012938061729073524
1.7294957515559457e+18,0.0036775805056095123,0.0038554517086595297,0.013019327074289322
1.729495751564946e+18,0.004929719492793083,0.00495402654632926,0.01637222431600094
1.729495751573946e+18,0.006006528623402119,0.008046047762036324,0.016422605141997337
1.7294957515829463e+18,0.0012799103278666735,0.002472789492458105,0.016566477715969086
1.7294957515919465e+18,0.0011602925369516015,0.0060137854889035225,0.014789115637540817
1.7294957516009467e+18,0.001028379425406456,0.00417768768966198,0.01285160519182682
1.729495751609947e+18,-0.0003727711155079305,0.0062362393364310265,0.015921972692012787
1.729495751618947e+18,-0.0009055007249116898,0.010148681700229645,0.015669168904423714
1.7294957516279473e+18,-0.0007287082262337208,0.010461501777172089,0.014904831536114216
1.7294957516369475e+18,0.00717775896191597,0.008915149606764317,0.011739968322217464
1.7294957516459476e+18,0.004466799087822437,0.0056344885379076,0.01247082743793726
1.729495751657948e+18,0.003200024366378784,0.0034492132253944874,0.011950028128921986
1.729495751666948e+18,0.0003178096376359463,0.0028063985519111156,0.008224593475461006
1.7294957516759483e+18,0.004264710936695337,0.004096402786672115,0.014270592480897903
1.7294957516849485e+18,0.0038497610948979855,0.0059696100652217865,0.013593753799796104
1.7294957516939487e+18,0.004373624920845032,0.012477388605475426,0.011322871781885624
1.7294957517029489e+18,0.0066148219630122185,0.01393367163836956,0.009104053489863873
1.729495751711949e+18,0.00452381419017911,0.010781259275972843,0.0119081512093544
1.7294957517209492e+18,0.004780392628163099,0.007666225545108318,0.011217856779694557
1.7294957517299494e+18,2.848217263817787e-06,0.007070908788591623,0.01080845296382904
1.7294957517389496e+18,0.0026747477240860462,0.0046604350209236145,0.008197510614991188
1.7294957517479498e+18,0.0035490698646754026,0.0038472083397209644,0.01285877637565136
1.72949575175695e+18,0.0036013354547321796,0.006799003109335899,0.007351649925112724
1.7294957517659502e+18,0.0032788377720862627,0.010395714081823826,0.008584032766520977
1.7294957517749504e+18,0.009405829012393951,0.00908722635358572,0.007666384801268578
1.7294957517839506e+18,0.0033059394918382168,0.004150564316660166,0.011223087087273598
1.7294957517929508e+18,0.005819433368742466,0.007047899533063173,0.007113482337445021
1.729495751801951e+18,0.0018436890095472336,0.0063961101695895195,0.01061918493360281
1.7294957518109512e+18,0.004655046854168177,0.00409106956794858,0.0076641300693154335
1.7294957518199514e+18,0.00415782118216157,0.004894031211733818,0.005643780343234539
1.7294957518289516e+18,0.006895708851516247,0.006937340367585421,0.005966484546661377
1.7294957518409518e+18,0.002170421415939927,0.010279033333063126,0.0052288793958723545
1.729495751849952e+18,0.0059916009195148945,0.00906777661293745,0.006826605182141066
1.7294957518589522e+18,0.008555075153708458,0.008124934509396553,0.010672766715288162
1.7294957518709524e+18,0.003640128765255213,0.007635541260242462,0.008269183337688446
1.7294957518799526e+18,0.0032171783968806267,0.008298419415950775,0.004918055143207312
1.7294957518889528e+18,0.0044272118248045444,0.009985508397221565,0.004440933931618929
1.729495751897953e+18,0.004794312175363302,0.005804670974612236,0.007599447388201952
1.7294957519069532e+18,0.003867729101330042,0.00895625539124012,0.003664669580757618
1.7294957519159534e+18,0.004574248567223549,0.009150255471467972,0.0065691713243722916
1.7294957519249536e+18,0.00835729856044054,0.006627234630286694,0.00472929235547781
1.7294957519339538e+18,0.006273326463997364,0.009125829674303532,0.005955534055829048
1.729495751942954e+18,0.005396826192736626,0.00730755552649498,0.00395875982940197
1.7294957519519542e+18,0.0011161966249346733,0.010059117339551449,0.0066011156886816025
1.7294957519579543e+18,-0.002144963014870882,0.0073531195521354675,0.006610475014895201
1.7294957519669545e+18,-0.0036116980481892824,0.006161191966384649,0.0057715801522135735
1.7294957519759547e+18,-0.0017323448555544019,0.008606411516666412,0.004507928621023893
1.729495751984955e+18,0.0008408440044149756,0.011082908138632774,0.0026348952669650316
1.7294957519969551e+18,0.004257278982549906,0.0072404770180583,0.0023340454790741205
1.7294957520029553e+18,0.005633613094687462,0.008793300949037075,0.0033213053829967976
1.7294957520119555e+18,0.001387119060382247,0.009477824904024601,0.0035045593976974487
1.7294957520209556e+18,-7.128890138119459e-05,0.010222671553492546,0.0039041459094733
1.7294957520299558e+18,-0.0014554238878190517,0.008657783269882202,0.002112321089953184
1.729495752038956e+18,-0.00202432693913579,0.009435571730136871,0.0036059084814041853
1.7294957520479562e+18,-0.0021813404746353626,0.009334808215498924,0.0035216340329498053
1.7294957520569564e+18,0.0014304679352790117,0.010159059427678585,0.005838876590132713
1.7294957520659566e+18,0.005410800687968731,0.011133506894111633,0.004714924842119217
1.7294957520719567e+18,0.006317727733403444,0.012644444592297077,0.0008283895440399647
1.729495752080957e+18,0.007326316554099321,0.0097822779789567,0.004104857333004475
1.729495752089957e+18,0.0029020211659371853,0.0076722982339560986,0.0023198560811579227
1.7294957520989573e+18,0.002981980564072728,0.009007573127746582,0.0031526952516287565
1.7294957521079575e+18,0.0034237103536725044,0.012005127035081387,0.0025268776807934046
1.7294957521169577e+18,0.0017296767327934504,0.00905290711671114,0.0020825532265007496
1.729495752125958e+18,0.0009389262413606048,0.013336153700947762,0.003360392991453409
1.729495752131958e+18,0.0008265676442533731,0.009020032361149788,0.0023706499487161636
1.7294957521409582e+18,0.0038370592519640923,0.011382559314370155,0.003245364874601364
1.7294957521499584e+18,0.004912686068564653,0.00934603251516819,0.002203461481258273
1.7294957521589586e+18,0.004854798316955566,0.011166847310960293,0.0016482993960380554
1.7294957521649587e+18,0.004546202719211578,0.010623866692185402,0.0005737333558499813
1.729495752173959e+18,0.0016698120161890984,0.010590164922177792,0.001516809337772429
1.729495752182959e+18,0.0023346536327153444,0.011479504406452179,-0.0019053458236157894
1.7294957521889592e+18,0.0006702381651848555,0.012464655563235283,0.0023258402943611145
1.7294957521979594e+18,0.000563321984373033,0.014997512102127075,0.0033577196300029755
1.7294957522069596e+18,0.0002295824233442545,0.012520570307970047,0.001359989051707089
1.7294957522129597e+18,0.004937503486871719,0.012117124162614346,0.002758246846497059
1.72949575222196e+18,-0.00019935425370931625,0.012393496930599213,0.0029197107069194317
1.72949575223096e+18,0.007242437452077866,0.01062431838363409,1.6380567103624344e-05
1.7294957522369603e+18,0.003457937389612198,0.009662621654570103,0.0012956814607605338
1.7294957522459604e+18,0.005478479899466038,0.012636801227927208,-0.0038423710502684116
1.7294957522549606e+18,0.0029788154643028975,0.012460759840905666,0.0006813533836975694
1.7294957522609608e+18,0.0038892910815775394,0.013212110847234726,0.0014947091694921255
1.729495752269961e+18,0.003418184816837311,0.013151540420949459,0.000818421074654907
1.7294957522789612e+18,-0.002347621601074934,0.010636809282004833,0.003852829337120056
1.7294957522879613e+18,0.0005461954860948026,0.010655255988240242,-0.0010337656131014228
1.7294957522939615e+18,-0.0008405218832194805,0.009321785531938076,0.0009340104879811406
1.7294957523029617e+18,0.004536335822194815,0.010970454663038254,-0.0003252109163440764
1.7294957523119619e+18,0.004004443064332008,0.009246551431715488,0.0016906949458643794
1.729495752320962e+18,0.007671813480556011,0.009077036753296852,0.00022591791639570147
1.7294957523269622e+18,0.008165393956005573,0.007128018885850906,-0.0006971780676394701
1.7294957523359624e+18,0.006564498879015446,0.011101403273642063,0.0017372719012200832
1.7294957523449626e+18,0.003929660189896822,0.011018293909728527,0.00024110339290928096
1.7294957523509627e+18,-0.0005724928341805935,0.0076145813800394535,0.002223095390945673
1.729495752359963e+18,0.003761468455195427,0.00830092653632164,-0.00032390060368925333
1.729495752365963e+18,0.004434067755937576,0.01163612212985754,0.0007007283275015652
1.7294957523749632e+18,0.0025510836858302355,0.010107293725013733,-6.573030259460211e-05
1.7294957523839634e+18,0.008159633725881577,0.01030953973531723,0.0007554541807621717
1.7294957523899635e+18,0.00780269643291831,0.010355101898312569,-0.0013983293902128935
1.7294957523989637e+18,0.0038625646848231554,0.010947889648377895,-0.002100429031997919
1.7294957524049638e+18,0.006435926537960768,0.007042097859084606,-0.0006766760488972068
1.729495752413964e+18,0.0014865699922665954,0.008850183337926865,-0.0012590979458764195
1.7294957524229642e+18,0.0030740713700652122,0.008946665562689304,0.0005518962861970067
1.7294957524289644e+18,0.004669095855206251,0.006344160530716181,-0.000769835605751723
1.7294957524379645e+18,0.0027835306245833635,0.00962135661393404,-0.00044507894199341536
1.7294957524469647e+18,0.0056699421256780624,0.009513279423117638,-0.001187890418805182
1.7294957524529649e+18,0.003845260478556156,0.011517442762851715,-0.0024592019617557526
1.729495752461965e+18,0.0018102889880537987,0.01212539616972208,-0.00032263697357848287
1.7294957524709652e+18,0.00420443806797266,0.01067003421485424,-0.00030217162566259503
1.7294957524769654e+18,0.0037618610076606274,0.011096807196736336,0.0001593052875250578
1.7294957524859656e+18,0.0007305557373911142,0.01218222826719284,-0.002280015964061022
1.7294957524949658e+18,-0.00023677910212427378,0.013714903965592384,0.0003567752428352833
1.729495752500966e+18,0.0013584550470113754,0.009627563878893852,-0.0009826127206906676
1.729495752509966e+18,0.0029051206074655056,0.010527508333325386,0.0014514054637402296
1.7294957525159662e+18,0.005873868707567453,0.007882639765739441,-0.0050393957644701
1.7294957525249664e+18,0.006135237403213978,0.008913271129131317,-0.00479075126349926
1.7294957525339666e+18,0.008025539107620716,0.009644617326557636,0.0001461099600419402
1.7294957525399667e+18,0.005126531235873699,0.007439617533236742,-0.0037552746944129467
1.729495752548967e+18,0.0036085685715079308,0.007141152396798134,-0.003913213033229113
1.729495752557967e+18,0.002809053286910057,0.007975944317877293,0.0003441729350015521
1.7294957525639672e+18,0.0041549536399543285,0.010015095584094524,-0.001538974465802312
1.7294957525729674e+18,0.004614964127540588,0.011034837923943996,-0.0009722279501147568
1.7294957525819676e+18,0.004831258207559586,0.009996872395277023,0.0018748169532045722
1.7294957525909678e+18,0.008189131505787373,0.012301512062549591,-0.0030858181416988373
1.729495752599968e+18,0.00382525147870183,0.010897462256252766,-0.0043302918784320354
1.7294957526089682e+18,0.004820885136723518,0.012683043256402016,-0.0014710957184433937
1.7294957526149683e+18,0.000838184030726552,0.013118015602231026,-0.0059914253652095795
1.7294957526239685e+18,0.0019205966964364052,0.013662912882864475,-0.0030588144436478615
1.7294957526329687e+18,0.001188665977679193,0.011094927787780762,-0.002304518362507224
1.729495752641969e+18,0.00243575032800436,0.01229172758758068,-0.0030394461937248707
1.729495752647969e+18,-0.0017034400952979922,0.011858941987156868,-0.002573239617049694
1.7294957526569692e+18,0.0012920268345624208,0.009254597127437592,-0.0034059660974889994
1.7294957526659694e+18,-0.0009834147058427334,0.010102975182235241,-0.00010254769586026669
1.7294957526749696e+18,0.001788669265806675,0.010167768225073814,-0.0023002552334219217
1.7294957526839698e+18,0.004878060892224312,0.006305081304162741,-0.0007363808108493686
1.72949575269297e+18,0.0037675120402127504,0.006344212219119072,-0.0015540060121566057
1.7294957527049702e+18,0.005593429319560528,0.007399475201964378,-0.0023444131948053837
1.7294957527109704e+18,0.0033710033167153597,0.007901165634393692,-0.004138522781431675
1.7294957527199706e+18,0.0015983030898496509,0.009394114837050438,-0.0015997368609532714
1.7294957527289708e+18,0.005497170612215996,0.006826047319918871,-0.002804744988679886
1.729495752737971e+18,0.003203200176358223,0.006888792850077152,-0.0029242895543575287
1.7294957527469711e+18,0.0014370533172041178,0.007605574559420347,-0.0020797939505428076
1.7294957527559713e+18,0.0013539292849600315,0.008071647956967354,-0.0034083258360624313
1.7294957527649715e+18,0.005878511816263199,0.0024084870237857103,-0.0035594888031482697
1.7294957527739717e+18,0.002489210804924369,0.003984353505074978,-0.0005005723796784878
1.729495752782972e+18,0.0023892992176115513,0.005589629523456097,-0.0011265174252912402
1.729495752788972e+18,0.0030169403180480003,0.0066833654418587685,-0.002652006922289729
1.7294957527979722e+18,0.003841978730633855,0.008572167716920376,-0.0025726829189807177
1.7294957528069724e+18,0.001954691018909216,0.008300339803099632,0.000737054506316781
1.7294957528159726e+18,0.00404459610581398,0.007166378665715456,-0.004596085753291845
1.7294957528219727e+18,0.0026950619649142027,0.01089901477098465,-0.002277865307405591
1.729495752830973e+18,0.004616776946932077,0.00722843874245882,-0.0027518868446350098
1.729495752839973e+18,0.00302058644592762,0.0060102371498942375,-0.0027008256874978542
1.7294957528489733e+18,0.004660651553422213,0.0036134901456534863,-0.004062277264893055
1.7294957528609736e+18,0.003377994755282998,0.005588358733803034,-0.0023190591018646955
1.7294957528699738e+18,-0.0006637193728238344,0.007303192745894194,-0.0027876326348632574
1.729495752875974e+18,0.0030458439141511917,0.006883911322802305,-0.0024238191545009613
1.729495752884974e+18,0.0008347226539626718,0.009508976712822914,-0.0008073636563494802
1.7294957528939743e+18,-0.003266294952481985,0.007130216341465712,-0.003157286439090967
1.7294957529029745e+18,-0.0036141187883913517,0.007913517765700817,-0.005521535873413086
1.7294957529119747e+18,-0.003731467993929982,0.0071946484968066216,-0.003146593691781163
1.7294957529209748e+18,4.978716606274247e-05,0.003635779954493046,-0.002159049967303872
1.729495752929975e+18,-0.00032288930378854275,0.006042761728167534,-0.0030462387949228287
1.7294957529359752e+18,0.005952687934041023,0.006193065084517002,-0.004875064827501774
1.7294957529449754e+18,0.0023630624637007713,0.007133359555155039,-0.002011219970881939
1.7294957529539756e+18,-0.0030934580136090517,0.008608981035649776,0.00012679165229201317
1.7294957529599757e+18,-0.0033034321386367083,0.003917629364877939,-0.00333136273548007
1.729495752968976e+18,-0.0031898613087832928,0.007930457592010498,-0.003313901834189892
1.729495752977976e+18,-0.00045638997107744217,0.003629269078373909,-0.0029041427187621593
1.7294957529869763e+18,-0.0002908492460846901,0.005903134122490883,0.00013296306133270264
1.7294957529959764e+18,0.0007619234966114163,0.0034559317864477634,-0.003053124528378248
1.7294957530019766e+18,0.002680383389815688,0.0022542469669133425,0.0008412497118115425
1.7294957530109768e+18,0.004376144614070654,0.007606650702655315,-0.0024095887783914804
1.729495753019977e+18,0.003065946511924267,0.005784616805613041,-0.0028041000477969646
1.729495753025977e+18,0.0022108994890004396,0.0031388746574521065,-0.0016215842915698886
1.7294957530349773e+18,-0.0005815092590637505,0.0035261400043964386,-0.0019663055427372456
1.7294957530439775e+18,0.002356661483645439,0.0018414591904729605,-0.0017608565976843238
1.7294957530529777e+18,0.0028562573716044426,0.001431233249604702,-0.003276999108493328
1.7294957530619779e+18,0.002533599967136979,0.00403249217197299,-0.004857352934777737
1.729495753067978e+18,0.00233733793720603,0.0053608715534210205,-0.0013525078538805246
1.7294957530769782e+18,-0.0014425530098378658,0.0023980087134987116,-0.002624387852847576
1.7294957530859784e+18,-0.001336237182840705,0.003943201620131731,-0.004785184282809496
1.7294957530949786e+18,-0.0031686080619692802,0.004628126509487629,-0.003854717593640089
1.7294957531009787e+18,-0.00033810886088758707,0.002271487843245268,-0.004263253882527351
1.729495753109979e+18,-0.0023040450178086758,0.0023717123549431562,-0.0032050965819507837
1.729495753115979e+18,7.943699893075973e-05,0.005538232624530792,-0.0036880585830658674
1.7294957531249792e+18,1.987640280276537e-05,0.0007176618091762066,-0.0007892189314588904
1.7294957531339794e+18,0.005014868453145027,0.0034368017222732306,-0.0037842211313545704
1.7294957531399795e+18,-0.00013186081196181476,0.0026647434569895267,-0.0012631512945517898
1.7294957531489797e+18,3.813323564827442e-05,0.004916037432849407,-0.0031623581890016794
1.7294957531549798e+18,-0.0023892358876764774,0.004340285900980234,-0.0018310260493308306
1.72949575316398e+18,0.0003400595160201192,0.005673722364008427,-0.0025387383066117764
1.7294957531729802e+18,-0.00038374587893486023,0.0039898427203297615,-0.0038094581104815006
1.7294957531789804e+18,-0.0007941531948745251,0.004104396793991327,-0.002447266597300768
1.7294957531879805e+18,-0.0009609981207177043,0.001939463196322322,-0.004329427145421505
1.7294957531969807e+18,0.0004814030835404992,4.536309279501438e-05,-0.000898306374438107
1.7294957532029809e+18,-0.0016589876031503081,0.003152006771415472,-0.0030948477797210217
1.729495753211981e+18,0.001327386125922203,0.0015319648664444685,-0.003441636450588703
1.7294957532209812e+18,0.0007337951101362705,0.004114613868296146,-0.0030113200191408396
1.7294957532269814e+18,-0.0021940860897302628,0.005159896332770586,-0.0019063716754317284
1.7294957532359816e+18,0.0013006844092160463,0.0028677568770945072,0.0001300161238759756
1.7294957532449818e+18,0.0014835621695965528,-0.0021183276548981667,-0.0020322720520198345
1.729495753250982e+18,-0.00032062013633549213,-0.0018875878304243088,-0.002053197007626295
1.729495753259982e+18,0.000349123845808208,-0.0015378349926322699,-0.0027234130539000034
1.7294957532689823e+18,0.001566627062857151,-0.0027839525137096643,-0.004507923033088446
1.7294957532749824e+18,0.0002581580774858594,-0.0008313511498272419,-0.002144115511327982
1.7294957532839826e+18,0.0016404371708631516,0.0013846366200596094,9.890901856124401e-05
1.7294957532929828e+18,0.0018383899005129933,0.0023900913074612617,-0.003908141516149044
1.729495753298983e+18,0.002607164904475212,0.0005299618933349848,0.0004250535275787115
1.729495753307983e+18,0.0015268080169335008,0.003154787700623274,-0.002160289091989398
1.7294957533169833e+18,0.0017842594534158707,0.0023368466645479202,0.00025181425735354424
1.7294957533259835e+18,0.0035532324109226465,-0.002186468103900552,-0.0016934947343543172
1.7294957533319836e+18,0.006872453726828098,-0.0022487780079245567,-0.002016102895140648
1.7294957533409838e+18,0.004806789569556713,-0.003882403951138258,-0.0031420099548995495
1.729495753349984e+18,0.006579522509127855,0.0013124088291078806,-0.0018429355695843697
1.7294957533559841e+18,0.0028819662984460592,0.0017865946283563972,-0.0017328860703855753
1.7294957533649843e+18,0.004215430002659559,0.00395764596760273,0.0006405855529010296
1.7294957533709844e+18,0.005676312372088432,0.0032837502658367157,-0.001959229353815317
1.7294957533799846e+18,0.005199740175157785,0.0006846543401479721,-0.0015022356528788805
1.7294957533889848e+18,0.005611157976090908,0.0013522112276405096,-0.00241231732070446
1.729495753394985e+18,0.006288463715463877,0.0019399462034925818,-0.002746724523603916
1.7294957534039852e+18,0.00400321651250124,0.0014577186666429043,0.0009304485283792019
1.7294957534129853e+18,0.007151461206376553,0.0008641437161713839,0.0007908206898719072
1.7294957534219855e+18,0.0048318407498300076,-0.0002828793367370963,-0.0014354742597788572
1.7294957534339858e+18,0.0002528345212340355,0.001617254689335823,-0.0020568787585943937
1.729495753442986e+18,0.0016058236360549927,0.0013033229624852538,-0.002092189621180296
1.729495753448986e+18,0.0018798839300870895,-0.00028572347946465015,-2.5241170078516006e-05
1.7294957534579863e+18,0.0004623308195732534,-0.0004698789562098682,-0.001587417209520936
1.7294957534669865e+18,0.0012217795010656118,-0.00037455520941875875,-0.004199391696602106
1.7294957534759867e+18,-0.0005704802460968494,-0.001090111443772912,-0.003885761834681034
1.729495753484987e+18,-0.004992260597646236,0.002617997583001852,-0.003075749147683382
1.729495753493987e+18,-0.003120624925941229,0.0002728916588239372,-0.00109897181391716
1.7294957534999872e+18,-0.000653228024020791,0.002121053636074066,-0.0018621741328388453
1.7294957535089874e+18,-0.005388899706304073,0.002410524059087038,-0.002667458262294531
1.7294957535209876e+18,-0.0037346589379012585,0.0008199471631087363,-0.0020653237588703632
1.7294957535299878e+18,-0.00409005768597126,0.001746620051562786,-0.002846768358722329
1.729495753535988e+18,-0.0067061251029372215,-0.000526926014572382,0.0003274368355050683
1.7294957535449882e+18,-0.001614939421415329,0.0006072469986975193,-0.0037359106354415417
1.7294957535569884e+18,-0.0022159365471452475,0.0009687411366030574,-0.00022048805840313435
1.7294957535659886e+18,-0.0011947203893214464,-0.0019479155307635665,-0.0005397967761382461
1.7294957535749888e+18,-0.0064002638682723045,-0.002860159846022725,-0.003254698123782873
1.729495753583989e+18,-0.004556503612548113,-0.0010857356246560812,-0.0008498554234392941
1.7294957535929892e+18,-0.002599319675937295,-0.0025551775470376015,-0.001955811632797122
1.7294957536019894e+18,-0.0007611833279952407,-0.0014991076895967126,-0.002723313868045807
1.7294957536109896e+18,-0.0008330238633789122,-0.001952578080818057,-0.002424709964543581
1.7294957536169897e+18,-0.000918221368920058,-0.002364817773923278,6.697361823171377e-05
1.72949575362599e+18,-0.0015496350824832916,-0.0020265202037990093,-0.003428257070481777
1.72949575363499e+18,0.0011232586111873388,-0.005582182668149471,0.001482472405768931
1.7294957536439903e+18,0.0005576342809945345,-0.002026960952207446,-0.00025100179482251406
1.7294957536529905e+18,-0.0032003119122236967,-0.0034877178259193897,-0.0012014876119792461
1.7294957536589906e+18,-0.0016843525227159262,-0.005172091536223888,-0.003939047455787659
1.7294957536679908e+18,-0.0005004507256671786,-0.00401317561045289,0.002920967061072588
1.729495753676991e+18,-0.0006932837422937155,-0.0013962476514279842,-0.0013125028926879168
1.729495753682991e+18,-0.0008178403950296342,-0.003864605911076069,-0.002583462977781892
1.7294957536919913e+18,0.0006249997531995177,-0.0027126865461468697,-0.0035830000415444374
1.7294957537009915e+18,-0.003729017451405525,-0.0030449850019067526,-0.0016618830850347877
1.7294957537099917e+18,-0.0038112483453005552,-0.004448688589036465,0.0007017882307991385
1.7294957537159918e+18,-0.005541074555367231,-0.007526577450335026,-0.0013645091094076633
1.729495753724992e+18,-0.005895595066249371,-0.006761962082237005,0.000744564225897193
1.729495753730992e+18,-0.004074575379490852,-0.00822102464735508,-0.000619018857832998
1.7294957537399923e+18,-0.001043184893205762,-0.005151586141437292,-0.002195131266489625
1.7294957537489925e+18,-0.0004378666344564408,-0.006042842753231525,-0.0032995841465890408
1.7294957537579927e+18,0.0012661973014473915,-0.006351674906909466,-0.0014611327787861228
1.7294957537639928e+18,0.0014351352583616972,-0.0023851082660257816,-0.0002938125981017947
1.729495753772993e+18,-0.0011604117462411523,-0.0025722170248627663,-0.003773720469325781
1.7294957537819932e+18,-0.0029500394593924284,-0.005008903332054615,-0.0016032352577894926
1.7294957537909934e+18,-0.004585152957588434,-0.006143694743514061,-0.0011181219015270472
1.7294957537969935e+18,-0.0058432393707334995,-0.007014817092567682,-0.0033431327901780605
1.7294957538059937e+18,-0.00461219297721982,-0.002259544562548399,-0.0020968280732631683
1.7294957538119939e+18,-0.006220891140401363,-0.007075268309563398,0.001715834834612906
1.729495753820994e+18,-0.0006991640548221767,-0.004081466235220432,0.0007132616592571139
1.7294957538269942e+18,0.0004517236666288227,-0.00272867432795465,-0.003794450080022216
1.7294957538359944e+18,-0.0006716754287481308,-0.004810320679098368,-0.0023040566593408585
1.7294957538449946e+18,0.00395498052239418,-0.003702798392623663,-0.004114590585231781
1.7294957538539948e+18,-0.0047723110765218735,-0.006564059294760227,-0.0019363178871572018
1.729495753859995e+18,-0.0038110974710434675,-0.004530598409473896,-0.0028502345085144043
1.729495753868995e+18,-0.007008311804383993,-0.0027073300443589687,-0.0013567344285547733
1.7294957538779953e+18,-0.0014192266389727592,-0.0029958945233374834,-0.0037290561012923717
1.7294957538839954e+18,-0.00221989001147449,-0.00026088522281497717,-0.0018318042857572436
1.7294957538929956e+18,-0.0005800249055027962,-0.00099836231674999,-0.0008599587599746883
1.7294957538989957e+18,0.0019239936955273151,0.0017245468916371465,-0.0007373998523689806
1.729495753907996e+18,0.004323634319007397,-0.0016058807959780097,-0.0002785040996968746
1.729495753916996e+18,-0.0012887951452285051,-0.0026816732715815306,0.0010807663202285767
1.7294957539229962e+18,-0.0029224713798612356,-0.004337826278060675,-0.0013159725349396467
1.7294957539319964e+18,-0.004179933574050665,-0.005746695213019848,-0.001543311052955687
1.7294957539439967e+18,-0.003163654822856188,-0.004021074157208204,-0.0029502548277378082
1.7294957539529969e+18,-0.004112712107598782,-0.003479402046650648,-0.0009524694760330021
1.729495753958997e+18,-0.0005100829293951392,-0.0019338910933583975,-0.002974008210003376
1.7294957539679972e+18,-0.001457186765037477,-0.0016800446901470423,-0.0018405491719022393
1.7294957539739973e+18,-0.0015166071243584156,-0.006037093698978424,-0.0020810342393815517
1.7294957539829975e+18,-0.004013716708868742,-0.004864920396357775,0.0005923230201005936
1.7294957539919977e+18,-0.004995851777493954,-0.00372228492051363,-0.00013983040116727352
1.7294957539979978e+18,-0.007165900431573391,-0.0059621334075927734,0.0003026919439435005
1.729495754006998e+18,-0.005385268479585648,-0.003782095154747367,-0.00323165999725461
1.7294957540159982e+18,-0.0008584778988733888,-0.004913534969091415,-0.00046055595157667994
1.7294957540249984e+18,-3.730296157300472e-05,-0.0032076165080070496,-0.003035105299204588
1.7294957540339986e+18,0.0034262877888977528,-0.0020765364170074463,-0.0022848276421427727
1.7294957540429988e+18,0.003745872527360916,-0.006233726628124714,0.0007619400275871158
1.729495754048999e+18,0.003236824180930853,-0.0028799797873944044,0.0007581289391964674
1.729495754057999e+18,-0.0014760359190404415,-0.001545019680634141,-0.0011895432835444808
1.7294957540669993e+18,-0.005694760475307703,0.0009389512706547976,-0.001568433130159974
1.7294957540729994e+18,-0.002263479633256793,-0.002096339361742139,-0.0046300701797008514
1.7294957540819996e+18,-0.004179839044809341,-0.002461482537910342,-0.001629123231396079
1.7294957540909998e+18,0.000610901799518615,-0.005515454337000847,-0.0020117522217333317
1.7294957541e+18,0.004191624000668526,-0.003503800369799137,0.00115221890155226
1.7294957541090002e+18,0.004119753837585449,-0.00428522564470768,-0.002480117604136467
1.7294957541180004e+18,-0.0015694447793066502,-0.0021094181574881077,-0.0018264696700498462
1.7294957541270006e+18,-0.002473512664437294,-0.0016302812146022916,-0.0034796674735844135
1.7294957541360008e+18,-0.003473617834970355,-0.00033262555371038616,-0.0014495191862806678
1.729495754145001e+18,-0.001661010435782373,-0.00019166493439115584,-0.002513629850000143
1.7294957541540012e+18,-0.00460612028837204,-0.00026020011864602566,0.00045706622768193483
1.7294957541600013e+18,0.0036152838729321957,0.0020700888708233833,-0.0033263349905610085
1.7294957541690015e+18,0.0006134497234597802,-0.0008620843873359263,-0.0009716368513181806
1.7294957541780017e+18,-0.00028303603176027536,-0.0016263907309621572,-0.0024772894103080034
1.7294957541870019e+18,-0.0015248846029862761,-0.0009066271595656872,-0.0005146781913936138
1.729495754196002e+18,-0.0033441311679780483,-0.0024342697579413652,-0.0003695770865306258
1.7294957542020022e+18,-0.002476075664162636,-0.0071921395137906075,-0.003028250066563487
1.7294957542110024e+18,-0.006093413103371859,-0.0011235566344112158,-0.0014103743014857173
1.7294957542170025e+18,-0.005574422888457775,-0.0033380985260009766,-0.002832508645951748
1.7294957542260027e+18,-0.0024343293625861406,-0.0005222207400947809,-0.0026876528281718493
1.729495754235003e+18,-0.002137308707460761,-0.001817625481635332,0.0011002912651747465
1.729495754241003e+18,-0.0017088711028918624,-0.001996635925024748,-0.0008519938564859331
1.7294957542500032e+18,-0.0021886632312089205,-0.004793346859514713,-0.00015862565487623215
1.7294957542590034e+18,-0.00018318690126761794,-0.006456369534134865,-0.002039989922195673
1.7294957542650035e+18,-0.0007636683876626194,-0.006780358962714672,0.00027272780425846577
1.7294957542740037e+18,-0.002187360543757677,-0.003971295431256294,-0.00430825212970376
1.729495754283004e+18,-0.0033651075791567564,-0.0036207162775099277,-0.0012118169106543064
1.729495754289004e+18,-0.004109435714781284,-0.0006879961583763361,-0.0013707338366657495
1.7294957542980042e+18,0.0004106565029360354,0.0019480297341942787,-0.003222823143005371
1.7294957543070044e+18,-0.0021768533624708652,-0.0015888572670519352,-0.0015706423437222838
1.7294957543190047e+18,0.0036436307709664106,-0.0028087468817830086,-0.001496529788710177
1.7294957543250048e+18,0.004848340526223183,-0.005407760385423899,0.00033918279223144054
1.729495754334005e+18,0.003385522635653615,-0.003917354624718428,-0.0006114522693678737
1.7294957543430052e+18,0.00018683847156353295,-0.006242036819458008,-0.0007736238767392933
1.7294957543520054e+18,-0.0017541885608807206,-0.0015869013732299209,-0.0013288881164044142
1.7294957543610056e+18,-0.002743801334872842,-0.0051711914129555225,-0.0010621144901961088
1.7294957543670057e+18,-0.0025055869482457638,-0.0036130910739302635,-0.0021844394505023956
1.729495754379006e+18,-0.001579573261551559,-0.0007732262019999325,0.002180191222578287
1.7294957543880061e+18,0.000282478635199368,0.0003838387783616781,0.001006732927635312
1.7294957543970063e+18,0.00031037753797136247,-0.005423566326498985,-0.0014305432559922338
1.7294957544060065e+18,-0.00217234599404037,-0.0008895813953131437,-0.0011379660572856665
1.7294957544150067e+18,0.0005619144067168236,-0.0042423950508236885,-0.0010693545918911695
1.7294957544210068e+18,0.0012891425285488367,-0.006137539632618427,0.0008773765293881297
1.729495754430007e+18,-0.0015765976859256625,-0.0016192285111173987,0.0037303599528968334
1.7294957544360072e+18,-0.0020558717660605907,-0.001913336105644703,-0.003128127194941044
1.7294957544450074e+18,-0.0005579654825851321,0.0011398678179830313,0.0010642295237630606
1.7294957544540076e+18,-0.0007099462673068047,-0.0026773414574563503,-0.0013984257820993662
1.7294957544630077e+18,-0.001126991817727685,-0.0037393320817500353,-0.0004599216626957059
1.729495754472008e+18,-0.0022587995044887066,-0.005647752899676561,-0.0021790293976664543
1.729495754481008e+18,-0.004520985763520002,-0.006543941795825958,0.0027658212929964066
1.7294957544870083e+18,-0.0013038180768489838,-0.003959462977945805,-8.652335964143276e-05
1.7294957544960084e+18,-0.0016673714853823185,-0.00715284189209342,-0.0005290594417601824
1.7294957545050086e+18,-0.0006783274002373219,-0.0036715571768581867,-0.000387543230317533
1.7294957545140088e+18,-0.00188146298751235,-0.005363868083804846,-0.0025196755304932594
1.729495754520009e+18,0.0008447190630249679,-0.0032502938993275166,-0.0010788275394588709
1.7294957545290092e+18,-0.0022772816009819508,-0.004506092052906752,-0.0038197587709873915
1.7294957545380093e+18,-0.0024459660053253174,-0.0034394883550703526,-0.0019458618480712175
1.7294957545470095e+18,-0.0011137175606563687,-0.004958532750606537,-0.0012932515237480402
1.7294957545530097e+18,-0.0022186501882970333,-0.003962471149861813,-0.0043692439794540405
1.7294957545620099e+18,0.0007883440121077001,-0.005883714649826288,-0.002311923075467348
1.72949575457101e+18,-0.003114997874945402,-0.006883385591208935,-0.0014430118026211858
1.7294957545800102e+18,-0.0011754193110391498,-0.002147729741409421,-2.047955058515072e-05
1.7294957545890104e+18,-0.002853230107575655,-0.006160554010421038,-0.002942784456536174
1.7294957545980106e+18,-0.002132260240614414,-0.004716798197478056,-0.00546504370868206
1.7294957546070108e+18,-1.1516676750034094e-05,-0.003997276071459055,-0.0010184671264141798
1.729495754616011e+18,0.0010179587407037616,-0.0022481128107756376,-0.0006504881312139332
1.7294957546250112e+18,0.002247459255158901,-0.0035672285594046116,-0.0008410979062318802
1.7294957546310113e+18,0.0005923580611124635,-0.0034864956978708506,-0.0007838748279027641
1.7294957546400115e+18,-0.0009318453376181424,-0.0017922157421708107,-0.001329815830104053
1.7294957546490117e+18,-0.0006163492798805237,-0.004110980313271284,-0.001689797267317772
1.729495754658012e+18,0.0004928731359541416,-0.00429510697722435,-0.005635241977870464
1.729495754664012e+18,-0.002841964829713106,-0.0031247688457369804,-0.0014110906049609184
1.7294957546730122e+18,0.001105509465560317,-0.003836381947621703,-0.00350877083837986
1.7294957546790124e+18,0.00039945877506397665,-0.0019874274730682373,-0.0011842269450426102
1.7294957546880125e+18,-0.0009036073461174965,-0.004113881848752499,0.0006420421414077282
1.7294957546970127e+18,-0.0014191624941304326,-0.0025985739193856716,0.0008242517942562699
1.729495754706013e+18,0.0006004974711686373,-0.0018413661746308208,-0.0008650345262140036
1.729495754712013e+18,-0.001904045231640339,-0.003792447503656149,-0.0002175838453695178
1.7294957547210132e+18,-0.0002738826151471585,-0.0024631647393107414,-0.0030204234644770622
1.7294957547300134e+18,-0.0009943910408765078,-0.003312906017526984,-0.00066513626370579
1.7294957547390136e+18,-0.0016109009739011526,-0.005143824964761734,-0.0015067285858094692
1.7294957547450138e+18,-0.0006989719113335013,-0.0016356499399989843,0.0014584125019609928
1.729495754754014e+18,-0.003834518836811185,-0.005635431967675686,-0.00039471167838200927
1.7294957547630141e+18,-0.0019384868210181594,-0.0016425217036157846,0.0026098680682480335
1.7294957547690143e+18,-0.000480402959510684,-0.004019828513264656,-9.919877629727125e-05
1.7294957547780145e+18,-0.0002364208921790123,-0.006925201043486595,-0.003162223380059004
1.7294957547870147e+18,-0.0012839008122682571,-0.006979739293456078,-0.0021844736766070127
1.7294957547930148e+18,-0.0003107920056208968,-0.0017524887807667255,0.00012604845687747002
1.729495754802015e+18,-0.004033823497593403,-0.002806304721161723,0.0009098270675167441
1.7294957548110152e+18,-0.0015519020380452275,-0.0003911374951712787,-0.0038135675713419914
1.7294957548170153e+18,-0.00406657112762332,-0.002689614426344633,-0.00281857093796134
1.7294957548260155e+18,-0.0065124379470944405,-0.002147905295714736,0.0003030095249414444
1.7294957548350157e+18,-0.004818817600607872,-0.001336722169071436,-0.004577603191137314
1.7294957548440159e+18,-0.0023835208266973495,-0.003415297716856003,-0.0021025454625487328
1.729495754850016e+18,-0.0028683023992925882,-0.005675583146512508,-0.0014522720593959093
1.7294957548590162e+18,0.0023729985114187002,-0.0027763170655816793,-0.0005142755690030754
1.7294957548680164e+18,0.0026840483769774437,-0.005200135055929422,-0.0010713752126321197
1.7294957548770166e+18,-0.000826492439955473,-0.007510817609727383,-0.0033228935208171606
1.7294957548860168e+18,-0.0014159417478367686,-0.0030122147873044014,-0.0038698981516063213
1.729495754892017e+18,-0.004265046678483486,-0.0042419652454555035,0.000292382319457829
1.729495754901017e+18,-0.0033294111490249634,-0.006631088443100452,-0.0010468137916177511
1.7294957549100173e+18,-0.003152980701997876,-0.00455469312146306,-0.002192217390984297
1.7294957549160174e+18,-0.0009155167499557137,-0.005622405093163252,-0.0014451572205871344
1.7294957549250176e+18,0.0010423163184896111,-0.004628554452210665,-0.004105131141841412
1.7294957549340178e+18,0.004257539752870798,-0.0062793283723294735,0.0015250813448801637
1.729495754940018e+18,0.00101909798104316,-0.006356840953230858,-0.0002177004935219884
1.729495754949018e+18,0.0019107796251773834,-0.007515776436775923,0.00024457700783386827
1.7294957549550182e+18,-0.00153754698112607,-0.005451168864965439,0.00013612402835860848
1.7294957549640184e+18,0.0001276220427826047,-0.006026504561305046,0.0007909752312116325
1.7294957549730186e+18,-0.0012466099578887224,-0.005797897465527058,8.535909000784159e-05
1.7294957549790188e+18,0.0005275486037135124,-0.00461886590346694,-0.0019272660138085485
1.729495754991019e+18,0.0011174064129590988,-0.009120779111981392,-0.0035454670432955027
1.7294957549970191e+18,0.0029689534567296505,-0.007841257378458977,-0.0028351745568215847
1.7294957550060193e+18,0.0027624238282442093,-0.010723883286118507,0.0007284590392373502
1.7294957550150195e+18,0.0003342967829667032,-0.004043975844979286,-0.0013811250682920218
1.7294957550240197e+18,-0.0026731386315077543,-0.006189707666635513,-5.9738929849117994e-05
1.72949575503302e+18,-0.0060132648795843124,-0.007762477733194828,-0.002128132153302431
1.72949575503902e+18,-0.002643967978656292,-0.004650390241295099,-0.0016395023558288813
1.7294957550480202e+18,-0.0057169669307768345,-0.005369804799556732,-0.0002310035051777959
1.7294957550570204e+18,0.0012510920641943812,-0.008233235217630863,-0.003922263626009226
1.7294957550660206e+18,0.0012791164917871356,-0.009604761376976967,0.0009871873771771789
1.7294957550750208e+18,0.00025558355264365673,-0.008259691298007965,0.000530963356141001
1.729495755081021e+18,0.0008727367967367172,-0.008458379656076431,-0.0021250429563224316
1.729495755090021e+18,-0.004616692662239075,-0.006875600665807724,0.0006119096651673317
1.7294957550990213e+18,-0.002504370640963316,-0.0024924352765083313,-0.0048670051619410515
1.7294957551050214e+18,-0.006221428047865629,-0.0035777061711996794,-0.0006064607296139002
1.7294957551140216e+18,-0.004120899364352226,-0.0008385172113776207,-0.0051207891665399075
1.7294957551230218e+18,0.000984730664640665,-0.002968195825815201,-0.000869220937602222
1.729495755129022e+18,-0.0015743859112262726,-0.00408285902813077,0.000705777492839843
1.7294957551380221e+18,-0.0008092897478491068,-0.006802561227232218,0.0005646513891406357
1.7294957551470223e+18,-0.001923926523886621,-0.00775696337223053,9.626324754208326e-06
1.7294957551530225e+18,-0.0018267212435603142,-0.007709020283073187,-0.0026579992845654488
1.7294957551620227e+18,-0.004358205012977123,-0.007596208248287439,-0.0012219662312418222
1.7294957551710228e+18,-0.007249383255839348,-0.006091812625527382,-0.0004925252287648618
1.729495755180023e+18,-0.0032320725731551647,-0.0026904281694442034,-0.00036284298403188586
1.7294957551890232e+18,-0.003376831766217947,-0.00013379129813984036,-0.0008644245099276304
1.7294957551950234e+18,-0.00011428329162299633,0.0009555966826155782,-0.002075010910630226
1.7294957552040236e+18,0.0015098253497853875,0.0008090585470199585,-0.001990803051739931
1.7294957552130237e+18,6.449961801990867e-05,-0.001194007694721222,-0.0028580192010849714
1.729495755222024e+18,-0.001204605447128415,-0.006673134863376617,0.0018401916604489088
1.729495755228024e+18,0.0006336149526759982,-0.006227897014468908,-0.0028127720579504967
1.7294957552370243e+18,0.0018084555631503463,-0.0033336225897073746,-0.0024514945689588785
1.7294957552460244e+18,-0.00021499895956367254,-0.005985458381474018,0.0001731904922053218
1.7294957552550246e+18,0.0003487266367301345,0.000495790271088481,0.0007134292973205447
1.7294957552640248e+18,0.0018125009955838323,-0.0021442705765366554,-0.0020051628816872835
1.729495755273025e+18,-0.0016414388082921505,-5.3208437748253345e-05,8.752220310270786e-06
1.7294957552790252e+18,0.0022583166137337685,-0.002084583742544055,4.452688153833151e-05
1.7294957552880253e+18,0.004169676452875137,-0.003006185870617628,-0.002249346813187003
1.7294957552970255e+18,-0.0013009579852223396,-0.005340666975826025,-0.0027928065974265337
1.7294957553030257e+18,-1.4392717275768518e-05,-0.0029990815091878176,-0.0022169698495417833
1.7294957553120259e+18,0.0012414711527526379,-0.0026703339535743,-0.0003203040105290711
1.729495755321026e+18,-3.1832256354391575e-05,-0.004746709018945694,-0.0025045685470104218
1.7294957553300262e+18,0.0027965533081442118,-0.0034305707085877657,-0.0019029737450182438
1.7294957553360264e+18,0.002194127766415477,-0.0025789591018110514,-0.005312653724104166
1.7294957553450266e+18,0.0028320210985839367,0.00017120805568993092,-0.001532150898128748
1.7294957553540268e+18,-0.0013249182375147939,0.0004614370409399271,-0.00024011696223169565
1.729495755363027e+18,-0.0035878519993275404,-0.0009504491463303566,-0.0015431955689564347
1.729495755369027e+18,-0.002021678490564227,-0.006060993764549494,-0.003409074153751135
1.7294957553780273e+18,-0.003940762020647526,-0.0059580085799098015,0.001257631229236722
1.7294957553870275e+18,-0.004499309696257114,-0.006268864031881094,-0.0013605596031993628
1.7294957553930276e+18,-0.0029678125865757465,-0.006285573355853558,0.0007292727241292596
1.7294957554020278e+18,-0.0011939250398427248,-0.0036261447239667177,-0.0011298144236207008
1.729495755411028e+18,-0.0007035688031464815,-0.00024964153999462724,-0.002426376799121499
1.729495755417028e+18,-0.0036522229202091694,-0.002094621304422617,-0.0003053680411539972
1.7294957554260283e+18,-0.002393493428826332,0.0025633140467107296,-0.001291701104491949
1.7294957554350285e+18,-0.007709162309765816,-0.005192550830543041,-0.001655697007663548
1.7294957554410286e+18,-0.00546986935660243,-0.004535094369202852,-0.0031684080604463816
1.7294957554500288e+18,-0.0027693407610058784,-0.0048696743324398994,-0.0004670321650337428
1.729495755459029e+18,-0.0031581660732626915,-0.005325318779796362,-0.0014591591898351908
1.729495755465029e+18,0.002228873549029231,-0.005928266793489456,-0.0015568867092952132
1.7294957554740293e+18,-0.001632964937016368,-0.00449672807008028,0.0019036715384572744
1.7294957554830295e+18,-0.0005594088579528034,-0.001679782522842288,-0.0008230807143263519
1.7294957554920297e+18,-0.001175240846350789,0.0019537857733666897,0.001301265205256641
1.7294957554980298e+18,-0.0036391238681972027,-0.0038940636441111565,-0.004419204778969288
1.72949575550703e+18,-0.005335806868970394,0.00039646471850574017,0.00046292023034766316
1.7294957555160302e+18,-0.006759354379028082,-0.0019688489846885204,-0.0025185304693877697
1.7294957555220303e+18,-0.008772955276072025,-0.0019182621035724878,0.0003200465580448508
1.7294957555310305e+18,-0.006742153782397509,-0.003746445057913661,-0.0012988639064133167
1.7294957555400307e+18,-0.006796665024012327,0.000699823722243309,8.134637027978897e-05
1.7294957555460308e+18,-0.006293138489127159,0.0026518458034843206,0.0002597771235741675
1.729495755555031e+18,-0.004055687226355076,0.0029716393910348415,-0.0008388443384319544
1.7294957555640312e+18,-0.006289592944085598,0.0026990193873643875,-0.000823408248834312
1.7294957555730314e+18,-0.004552007187157869,0.0001845373772084713,-0.003067507641389966
1.7294957555820316e+18,-0.00436960207298398,0.0025371876545250416,-0.0014076882507652044
1.7294957555910318e+18,-0.0039512901566922665,0.0005906183505430818,-0.0005544231389649212
1.729495755597032e+18,-0.0021529339719563723,0.0001097959466278553,-0.00037589611019939184
1.7294957556060321e+18,-0.0012958226725459099,-0.00230454676784575,0.0015046619810163975
1.7294957556150323e+18,-0.005225072614848614,0.0031155410688370466,-0.0009468744974583387
1.7294957556240325e+18,-0.005328595172613859,-0.0003515667049214244,-0.0037158518098294735
1.7294957556300326e+18,-0.002924168948084116,0.001629444072023034,0.003748891642317176
1.729495755642033e+18,-0.007265481166541576,-0.0009509037481620908,-0.0012726450804620981
1.7294957556540332e+18,-2.7891830541193485e-05,-0.0015056644333526492,0.0010041015921160579
1.7294957556660334e+18,0.002424942795187235,9.879289427772164e-05,-0.0020546214655041695
1.7294957556720335e+18,0.002771553350612521,-0.00029554555658251047,-0.0005865123821422458
1.7294957556810337e+18,0.0026824602391570807,0.0003182459622621536,0.0019674566574394703
1.729495755690034e+18,-0.0019001252949237823,-0.0006568834651261568,-0.001943481620401144
1.729495755699034e+18,-0.0047203064896166325,0.0002841266104951501,-0.003318080212920904
1.7294957557050342e+18,-0.00662272609770298,-0.0017726008081808686,-0.0019206965807825327
1.7294957557140344e+18,-0.009258769452571869,-0.0012216627364978194,-0.003206127556040883
1.7294957557230346e+18,-0.0012907215859740973,-0.00248325290158391,0.0008579083369113505
1.7294957557320348e+18,0.000832381600048393,0.0001647291937842965,-0.0037829680368304253
1.729495755741035e+18,0.0032360334880650043,0.0012799594551324844,-0.002950815949589014
1.7294957557470351e+18,0.002127604093402624,-0.0019832574762403965,2.9593007639050484e-05
1.7294957557560353e+18,0.004179570823907852,-0.0009008069173432887,0.0001580121461302042
1.7294957557650355e+18,-0.0017374283634126186,-0.0011197894345968962,-0.002128778025507927
1.7294957557740357e+18,-0.002231370657682419,0.00023134314687922597,8.566305041313171e-05
1.729495755783036e+18,-0.00045669497922062874,-0.0023820449132472277,0.00037989974953234196
1.729495755792036e+18,-0.0003138242173008621,0.0003366870223544538,0.002514861524105072
1.7294957558010363e+18,0.0009815036319196224,0.002179364673793316,0.0006385400774888694
1.7294957558070364e+18,0.0029031524900346994,-0.0012282414827495813,-0.0027545439079403877
1.7294957558160366e+18,0.0024203588254749775,-0.0030065816827118397,0.001033466774970293
1.7294957558250368e+18,0.001978413900360465,-0.003933527506887913,-0.004062997177243233
1.729495755837037e+18,-0.0034190299920737743,-0.0037108876276761293,-0.0007703615701757371
1.7294957558460372e+18,-0.0009748755255714059,-0.005492541939020157,-0.003324766643345356
1.7294957558550374e+18,0.0005318998591974378,-0.0016089922282844782,-0.00015447870828211308
1.7294957558610376e+18,-0.00044523796532303095,-0.002829453442245722,1.4151970390230417e-05
1.7294957558700378e+18,0.0027191154658794403,-0.001537608914077282,-0.00046011595986783504
1.729495755882038e+18,0.0022594702895730734,-0.0033088424243032932,0.0020865555852651596
1.7294957558880381e+18,0.004441412165760994,-0.0027495305985212326,-0.000938020704779774
1.7294957558970383e+18,-0.0015548501396551728,-0.003517781849950552,-0.001106318086385727
1.7294957559060385e+18,-0.0007418743334710598,-0.0012852133950218558,0.0025872294791042805
1.7294957559150387e+18,0.00021631002891808748,-0.003270713146775961,0.001022012671455741
1.729495755924039e+18,0.0005549017805606127,0.00015878072008490562,0.000793750979937613
1.729495755933039e+18,-0.0030248560942709446,-0.0015056933043524623,0.0004252124344930053
1.7294957559420393e+18,0.004538116045296192,0.0006038061110302806,0.000556867802515626
1.7294957559480394e+18,0.0034746218007057905,0.0015401644632220268,0.0005848488654009998
1.7294957559570396e+18,0.0024554813280701637,-0.004034559242427349,-0.0029793530702590942
1.7294957559660398e+18,0.003040856681764126,-0.003439801512286067,-0.0021703799720853567
1.72949575597504e+18,0.00038588594179600477,-0.002527509583160281,-0.00023995511583052576
1.72949575598104e+18,-0.0015603271313011646,-0.0015979560557752848,-0.0034138287883251905
1.7294957559900403e+18,-0.002682628110051155,-0.0028395976405590773,-0.0011932821944355965
1.7294957559960404e+18,0.0017350163543596864,-0.0024131685495376587,0.00248509319499135
1.7294957560080407e+18,0.0024592215195298195,-0.0006005469476804137,0.002845098963007331
1.7294957560140408e+18,0.003217463381588459,-0.002486179117113352,-0.00038895016768947244
1.729495756023041e+18,0.005984649993479252,-0.0013327468186616898,-6.828486220911145e-05
1.7294957560320412e+18,0.0028681233525276184,-0.006334636360406876,-0.0019469524268060923
1.7294957560380413e+18,0.00355488620698452,-0.0029493486508727074,-0.0020937060471624136
1.7294957560470415e+18,0.0018037348054349422,-0.003586904378607869,-0.003123315516859293
1.7294957560560417e+18,0.0018773064948618412,-0.0002538778353482485,0.002175338566303253
1.729495756065042e+18,-0.0006497497670352459,-0.004493574146181345,0.0014970278134569526
1.729495756071042e+18,0.0009400862036272883,7.080379873514175e-05,-0.0018957869615405798
1.7294957560800422e+18,-0.0007074926979839802,-0.0006145971710793674,0.0010979333892464638
1.7294957560890424e+18,0.0043379622511565685,-0.0024436889216303825,-0.0018485422478988767
1.7294957560950426e+18,0.00248607131652534,-0.001351401675492525,-0.001039808033965528
1.7294957561040428e+18,0.0011564439628273249,-0.0027394702192395926,-0.0011947017628699541
1.729495756113043e+18,0.000904845364857465,-0.0008228134829550982,0.0005728051182813942
1.7294957561220431e+18,0.0033025220036506653,-0.0019722210709005594,-8.934011566452682e-05
1.7294957561310433e+18,0.004279509652405977,-3.3041113056242466e-05,-0.001237761229276657
1.7294957561370435e+18,-0.017851905897259712,-0.07539805769920349,0.00016157323261722922
1.7294957561460436e+18,-0.2097366452217102,-0.7888101935386658,-0.0005297958850860596
1.7294957561550438e+18,-0.46155914664268494,-1.7129652500152588,-0.005773691926151514
1.729495756164044e+18,-0.6962111592292786,-2.570697784423828,-0.009143427945673466
1.7294957561700442e+18,-0.8027876019477844,-2.990663766860962,-0.01073855347931385
1.7294957561790444e+18,-0.83562833070755,-3.249992847442627,-0.017139846459031105
1.7294957561880445e+18,-0.7626975178718567,-3.1839990615844727,-0.021715199574828148
1.7294957561970447e+18,-0.6417085528373718,-2.997527599334717,-0.027885468676686287
1.7294957562030449e+18,-0.5746204853057861,-2.91853404045105,-0.02882353961467743
1.729495756212045e+18,-0.5552215576171875,-2.9813549518585205,-0.03465859219431877
1.7294957562210452e+18,-0.6184688210487366,-3.224195718765259,-0.0418076254427433
1.7294957562300454e+18,-0.716612696647644,-3.5077857971191406,-0.043032772839069366
1.7294957562390456e+18,-0.7814342379570007,-3.672079563140869,-0.05143382027745247
1.7294957562450458e+18,-0.7854639887809753,-3.681211471557617,-0.050537142902612686
1.729495756254046e+18,-0.7170470356941223,-3.520551919937134,-0.05489281937479973
1.7294957562630461e+18,-0.5975620150566101,-3.2324769496917725,-0.0602087564766407
1.7294957562690463e+18,-0.5126115679740906,-3.0302207469940186,-0.06466496735811234
1.7294957562780465e+18,-0.4240611791610718,-2.782102108001709,-0.06952490657567978
1.7294957562870467e+18,-0.4022594690322876,-2.6324636936187744,-0.06869204342365265
1.7294957562960468e+18,-0.42565861344337463,-2.5449047088623047,-0.07098182290792465
1.729495756302047e+18,-0.45271673798561096,-2.4997878074645996,-0.07545565068721771
1.7294957563110472e+18,-0.4719023108482361,-2.401840925216675,-0.07788068801164627
1.7294957563200474e+18,-0.4362618923187256,-2.2208287715911865,-0.07771449536085129
1.7294957563290476e+18,-0.35694971680641174,-1.9782836437225342,-0.07940085977315903
1.7294957563350477e+18,-0.2913372814655304,-1.8026008605957031,-0.08247791230678558
1.7294957563440479e+18,-0.2055966854095459,-1.5537275075912476,-0.0843280702829361
1.729495756353048e+18,-0.1560019552707672,-1.337185263633728,-0.08544481545686722
1.7294957563620483e+18,-0.15297360718250275,-1.1797661781311035,-0.08553384244441986
1.7294957563710484e+18,-0.16954423487186432,-1.0588871240615845,-0.08609197288751602
1.7294957563770486e+18,-0.18219783902168274,-0.9748082756996155,-0.08594708144664764
1.7294957563860488e+18,-0.18035994470119476,-0.8407796621322632,-0.08852390944957733
1.729495756395049e+18,-0.14381860196590424,-0.6916525363922119,-0.08619113266468048
1.729495756401049e+18,-0.10686232149600983,-0.5771541595458984,-0.08848133683204651
1.7294957564100493e+18,-0.0400104895234108,-0.4088880121707916,-0.08673015236854553
1.7294957564190495e+18,0.009790873154997826,-0.25762614607810974,-0.08656390756368637
1.7294957564250496e+18,0.024299096316099167,-0.17730209231376648,-0.08537714928388596
1.7294957564340498e+18,0.025124777108430862,-0.0722675770521164,-0.08868902176618576
1.72949575644005e+18,0.01246604137122631,-0.010532922111451626,-0.08841243386268616
1.72949575644905e+18,-0.0064525967463850975,0.06525003165006638,-0.08728116005659103
1.7294957564580503e+18,-0.007780382409691811,0.1411268264055252,-0.08668482303619385
1.7294957564670505e+18,0.0117386095225811,0.22202853858470917,-0.08499465137720108
1.7294957564760507e+18,0.049751166254282,0.3015455901622772,-0.08497098833322525
1.7294957564820508e+18,0.07691299915313721,0.3557398319244385,-0.08781427145004272
1.729495756491051e+18,0.10097280144691467,0.42023929953575134,-0.08375377953052521
1.7294957564970511e+18,0.10992027074098587,0.4562816023826599,-0.08399423211812973
1.7294957565060513e+18,0.10460556298494339,0.5052191615104675,-0.07959391176700592
1.7294957565150515e+18,0.08399541676044464,0.5383473038673401,-0.08356892317533493
1.7294957565240517e+18,0.07396984845399857,0.5640972256660461,-0.08284785598516464
1.7294957565300518e+18,0.07087152451276779,0.5811379551887512,-0.08188358694314957
1.729495756539052e+18,0.07871787250041962,0.6049251556396484,-0.0811951607465744
1.7294957565480522e+18,0.09827452152967453,0.628075361251831,-0.07921084761619568
1.7294957565540524e+18,0.10910242050886154,0.6357914209365845,-0.07524586468935013
1.7294957565630525e+18,0.12221718579530716,0.6544312834739685,-0.07419301569461823
1.7294957565720527e+18,0.12195974588394165,0.6657127737998962,-0.07705862820148468
1.7294957565780529e+18,0.11465859413146973,0.668992817401886,-0.07564085721969604
1.729495756587053e+18,0.10103309899568558,0.6759654879570007,-0.07224499434232712
1.7294957565960532e+18,0.09224201738834381,0.6733585596084595,-0.07154270261526108
1.7294957566050534e+18,0.08341522514820099,0.6720540523529053,-0.07005412876605988
1.7294957566140536e+18,0.08780874311923981,0.6650887727737427,-0.06864584982395172
1.7294957566200538e+18,0.09535165876150131,0.657600998878479,-0.0673738494515419
1.729495756629054e+18,0.10257229208946228,0.6514379978179932,-0.06747099757194519
1.729495756635054e+18,0.10855723917484283,0.6465535759925842,-0.0633254125714302
1.7294957566440543e+18,0.1144728735089302,0.6425804495811462,-0.0638447031378746
1.7294957566530545e+18,0.10735593736171722,0.6317631006240845,-0.0629335269331932
1.7294957566590546e+18,0.09617963433265686,0.6245833039283752,-0.06013378128409386
1.7294957566680548e+18,0.0870327353477478,0.6128976941108704,-0.06200234964489937
1.729495756677055e+18,0.08521305024623871,0.6039415597915649,-0.05851650983095169
1.7294957566860552e+18,0.08292777836322784,0.5929282307624817,-0.05255875736474991
1.7294957566920553e+18,0.08614197373390198,0.585882842540741,-0.05084027722477913
1.7294957567010555e+18,0.04615892469882965,0.5902301073074341,-0.053917642682790756
1.7294957567070556e+18,-0.22296252846717834,0.6653255224227905,-0.05222918465733528
1.7294957567160558e+18,-0.7837738990783691,0.8279105424880981,-0.04455791041254997
1.729495756725056e+18,-1.3801822662353516,0.9997202754020691,-0.03863096237182617
1.7294957567340562e+18,-1.8758405447006226,1.1481150388717651,-0.03305704891681671
1.7294957567430564e+18,-2.014657974243164,1.2017107009887695,-0.027211107313632965
1.7294957567520566e+18,-1.825687289237976,1.170129418373108,-0.02192883938550949
1.7294957567610568e+18,-1.483048677444458,1.0823886394500732,-0.01662513241171837
1.729495756767057e+18,-1.2892907857894897,1.0244183540344238,-0.011660403572022915
1.729495756776057e+18,-1.1262385845184326,0.9592633843421936,-0.006275838240981102
1.7294957567850573e+18,-1.2444357872009277,0.9486318826675415,-0.001746616791933775
1.7294957567940575e+18,-1.511185884475708,0.9731571078300476,0.002487094607204199
1.7294957568030577e+18,-1.7643574476242065,0.9998306632041931,0.00854597706347704
1.7294957568090578e+18,-1.840221643447876,1.0035618543624878,0.009992028586566448
1.729495756818058e+18,-1.734148383140564,0.9725288152694702,0.018394403159618378
1.7294957568270582e+18,-1.4437578916549683,0.9089065790176392,0.020637238398194313
1.7294957568360584e+18,-1.090417504310608,0.8322207927703857,0.0274773258715868
1.7294957568450586e+18,-0.8453254699707031,0.7653805613517761,0.030394144356250763
1.7294957568510587e+18,-0.7883047461509705,0.7326916456222534,0.03594985976815224
1.729495756860059e+18,-0.8250871896743774,0.7019182443618774,0.039016883820295334
1.729495756869059e+18,-0.9605101346969604,0.6837498545646667,0.042533792555332184
1.7294957568780593e+18,-1.0428920984268188,0.6690639853477478,0.04861774668097496
1.7294957568840594e+18,-1.0250498056411743,0.6544572114944458,0.046967219561338425
1.7294957568930596e+18,-0.8760389685630798,0.6217961311340332,0.0513453334569931
