timestamp,gyro_x,gyro_y,gyro_z
1.7294981749386435e+18,0.0001963020913535729,-0.0027841306291520596,-0.002546254312619567
1.7294981749506437e+18,-0.0016417717561125755,0.0010313416132703424,0.000263124326011166
1.7294981749566438e+18,0.0005267472006380558,-0.0010407936060801148,0.0010390938259661198
1.729498174965644e+18,-0.00015619404439348727,-0.0003935960994567722,0.001159864361397922
1.7294981749746442e+18,0.0005242240731604397,-0.0017957070376724005,0.002431039232760668
1.7294981749806444e+18,0.0015887920744717121,0.0022418166045099497,-0.00161876087076962
1.7294981749896445e+18,0.00027730874717235565,0.00038112749462015927,0.003149269847199321
1.7294981749956447e+18,-0.0017674611881375313,0.00011732013808796182,-0.0011509803589433432
1.7294981750046449e+18,0.0029553528875112534,-0.0002620906161610037,0.0009532226831652224
1.729498175010645e+18,-6.965013744775206e-05,-0.0020950152538716793,0.00037468987284228206
1.7294981750196452e+18,0.0011680442839860916,0.0011355775641277432,0.000810214492958039
1.7294981750256453e+18,0.0009033981477841735,0.0017893571639433503,0.0020753340795636177
1.7294981750346455e+18,0.0001221163256559521,-0.0008123723091557622,0.0006774065550416708
1.7294981750406456e+18,0.00019165370031259954,-0.000846206909045577,9.29883899516426e-05
1.7294981750496458e+18,-0.002594446297734976,0.00044987042201682925,0.0018827266758307815
1.729498175058646e+18,-0.0005319337360560894,-0.0015271496959030628,0.001408552983775735
1.7294981750646461e+18,0.0012837391113862395,0.002479035872966051,-0.00014444638509303331
1.7294981750736463e+18,0.0017559045227244496,0.00016695047088433057,-0.002233560662716627
1.7294981750826465e+18,-0.0012843238655477762,0.0016985583351925015,0.001828618231229484
1.7294981750886467e+18,-0.001393538317643106,0.0004289454373065382,0.00029006681870669127
1.7294981750976468e+18,-0.000920813821721822,0.0004511625156737864,-0.0007402191986329854
1.729498175103647e+18,0.0006663311505690217,-0.001342311385087669,-0.00024460413260385394
1.7294981751126472e+18,-0.00014677400758955628,-3.13671916956082e-05,0.001037109293974936
1.7294981751216474e+18,0.0007517907069995999,-0.0006401555147022009,0.001995204482227564
1.7294981751276475e+18,0.0007330729276873171,-0.001651997328735888,-0.0015331017784774303
1.7294981751366477e+18,0.0009410337079316378,0.00040332655771635473,0.00013009559188503772
1.7294981751426478e+18,0.0017769442638382316,-0.0005690436810255051,-0.0004603489942383021
1.729498175151648e+18,0.0006586523377336562,0.0017246821662411094,0.0022175214253365993
1.7294981751576481e+18,-0.001246452215127647,-0.00044059488573111594,0.0016708762850612402
1.7294981751666483e+18,0.0018141503678634763,-0.00030980550218373537,0.0028861667960882187
1.7294981751726484e+18,-0.0006169345579110086,-0.0009390382329002023,0.002268589101731777
1.7294981751816486e+18,0.0021686230320483446,-0.0003958828456234187,0.00029557000380009413
1.7294981751906488e+18,-0.001586651778779924,0.0017204328905791044,0.0020093240309506655
1.729498175196649e+18,-0.0001604063727427274,-0.0017339178593829274,-0.0006089960807003081
1.7294981752056492e+18,-0.000384871062124148,0.00022107551922090352,-0.001407703384757042
1.7294981752146493e+18,-0.002008136361837387,0.0017653050599619746,0.003036356996744871
1.7294981752206495e+18,0.0004776294226758182,-0.0013427031226456165,-0.0009282228420488536
1.7294981752296497e+18,0.0019058100879192352,0.0032649014610797167,0.0010424376232549548
1.7294981752356498e+18,-0.004144744947552681,-0.00016955628234427422,-0.002420068020001054
1.72949817524465e+18,0.00026910367887467146,0.002662800019606948,-0.0008456646464765072
1.7294981752536502e+18,-0.0016338482964783907,-0.0008217948488891125,0.0016713982913643122
1.7294981752596503e+18,0.003120183013379574,-0.00038272811798378825,0.0002503518480807543
1.7294981752686505e+18,0.0011257161386311054,-0.0005867791478522122,0.0006560985930263996
1.7294981752776507e+18,0.0029540567193180323,-0.002419112017378211,0.0033705057576298714
1.7294981752836508e+18,-0.001548639964312315,-0.0013861526967957616,0.0013402010081335902
1.729498175292651e+18,-0.0013301550643518567,0.00018722322420217097,-0.003503622720018029
1.7294981753016512e+18,-0.0021110298112034798,-0.0013224990107119083,0.00012651231372728944
1.7294981753076513e+18,0.0011673660483211279,-0.0011038435623049736,-0.00010186376312049106
1.7294981753166515e+18,0.00017332029528915882,-0.0026501829270273447,0.00037645059637725353
1.7294981753256517e+18,-0.0015889297937974334,0.0001248824264621362,-0.0015012688236311078
1.729498175334652e+18,0.0025790424551814795,0.0011661682510748506,-0.001063559902831912
1.729498175340652e+18,0.0009800444822758436,-0.0018941162852570415,0.0019965381361544132
1.7294981753496522e+18,1.1637920579232741e-05,-0.0003357990935910493,1.5718072972958907e-05
1.7294981753556524e+18,-0.0017097562085837126,0.001510249450802803,0.0004838821478188038
1.7294981753646525e+18,-0.002799580805003643,-0.0008695038850419223,0.00011379701027181
1.7294981753736527e+18,0.0018944895127788186,-0.0006096000433899462,0.00259256549179554
1.7294981753796529e+18,-0.001104496419429779,0.0034617623314261436,-0.000148828185047023
1.729498175388653e+18,0.0024395750369876623,-0.0033035273663699627,0.0008573996019549668
1.7294981753976532e+18,-0.005163765512406826,0.0017617038683965802,0.004767292644828558
1.7294981754036534e+18,-0.0003539424214977771,-0.0013191986363381147,0.001828051288612187
1.7294981754126536e+18,0.000617140089161694,-0.0004012142599094659,-0.0003731682081706822
1.7294981754216538e+18,-0.00011456643551355228,0.0016782230231910944,-0.00024750191369093955
1.729498175427654e+18,-0.0002409551671007648,0.0015975853893905878,0.0034700469113886356
1.729498175436654e+18,-0.0012140286853536963,0.0017979687545448542,0.0002574499521870166
1.7294981754426542e+18,0.0011784406378865242,-0.0011816760525107384,-0.00012423520092852414
1.7294981754516544e+18,-0.0006049413932487369,-0.0009395795059390366,-0.0010727450717240572
1.7294981754606546e+18,-0.00021456122340168804,0.00031305174343287945,-0.0009312361944466829
1.7294981754696548e+18,-0.00044344773050397635,0.0017794667510315776,0.001537965377792716
1.729498175475655e+18,-0.003056148998439312,0.0012550415704026818,0.0006242821109481156
1.729498175484655e+18,-0.0016043492360040545,0.0037358764093369246,-0.0014215913834050298
1.7294981754936553e+18,0.0008558900444768369,0.0011416720226407051,4.4712356611853465e-05
1.7294981754996554e+18,-0.00037769536720588803,0.0007613321067765355,0.0010153483599424362
1.7294981755086556e+18,-0.00018050814105663449,-0.0011999779380857944,0.0008696215809322894
1.7294981755176558e+18,-0.002291810465976596,-0.0027633740101009607,0.0014464163687080145
1.729498175523656e+18,0.0005880349199287593,0.0003802870342042297,-0.0012308094883337617
1.729498175532656e+18,0.0029201172292232513,-0.0029977199155837297,-0.0017525810981169343
1.7294981755386563e+18,0.001011636690236628,-0.0014546590391546488,-0.0024935153778642416
1.7294981755476564e+18,0.0012556002475321293,0.0031702204141765833,0.003275454742833972
1.7294981755566566e+18,-0.0017446652054786682,-0.002244819886982441,-0.0023374950978904963
1.7294981755626568e+18,0.00010791058593895286,0.00035480986116454005,0.0016622523544356227
1.729498175571657e+18,-0.001045483979396522,-0.0006006515468470752,0.000927235814742744
1.729498175577657e+18,0.0008110094349831343,-0.0008214926929213107,-0.00023917532234918326
1.7294981755866573e+18,-0.002355187898501754,0.0010717258555814624,0.0003412171208765358
1.7294981755926574e+18,0.0028529856353998184,-0.000633654126431793,0.001044546253979206
1.7294981756016576e+18,0.0012498521246016026,-0.0009508574148640037,0.00014274395653046668
1.7294981756106578e+18,0.0015941184246912599,-2.502121787983924e-05,-0.0004036824102513492
1.729498175619658e+18,0.0025395106058567762,-1.3981881238578353e-05,-0.001689114491455257
1.729498175625658e+18,0.003529961220920086,-0.0002779416390694678,0.0019101769430562854
1.7294981756346583e+18,0.00020769546972587705,0.00039354260661639273,-0.0013881505001336336
1.7294981756406584e+18,-0.0023060317616909742,-0.0009430428617633879,-0.0019868987146764994
1.7294981756496586e+18,0.003168914932757616,0.0016159015940502286,-0.001079130102880299
1.7294981756556588e+18,0.002334593329578638,-0.0024240214843302965,-0.0010694407392293215
1.729498175661659e+18,0.0008377708145417273,-0.00013947254046797752,-0.00034192169550806284
1.729498175670659e+18,-0.00048474385403096676,-0.001221771351993084,-0.00015465122123714536
1.7294981756766592e+18,-0.0006673903553746641,0.00018176937010139227,0.0005549160414375365
1.7294981756856594e+18,-0.0002699170436244458,0.003202565247192979,0.0012664691312238574
1.7294981756916595e+18,-0.0006438284181058407,2.3779428374837153e-05,0.0021204682998359203
1.7294981757006597e+18,4.3489046220202e-05,-0.001654402818530798,0.002531381556764245
1.7294981757066598e+18,-0.0014310679398477077,0.000646469765342772,0.0015567131340503693
1.72949817571566e+18,-0.0005200149025768042,0.002994070528075099,0.00013369521184358746
1.7294981757246602e+18,0.00017809450218919665,-0.000471763894893229,0.0013025744119659066
1.7294981757336604e+18,-0.000843594316393137,-0.0012411109637469053,0.0004624009889084846
1.7294981757426606e+18,0.0014448862057179213,0.00020811238209716976,-0.0011297911405563354
1.7294981757486607e+18,-0.0017307113157585263,-0.00043684159754775465,-0.0009533907286822796
1.729498175757661e+18,0.0010218474781140685,-0.0009247317793779075,-9.839724953053519e-05
1.729498175766661e+18,0.0017064736457541585,0.004339739214628935,0.0010511120781302452
1.7294981757726612e+18,0.0021620101761072874,0.002693549729883671,0.0006131689879111946
1.7294981757816614e+18,-0.0011432144092395902,0.0008879870874807239,0.0008364928653463721
1.7294981757876616e+18,-0.002898670732975006,-0.00015399462427012622,-0.00029767624801024795
1.7294981757966618e+18,-0.001183749525807798,0.0011923606507480145,0.0003150558040942997
1.729498175802662e+18,-0.0006598708569072187,0.00041436622268520296,-0.0006347215385176241
1.729498175811662e+18,-0.0007282376172952354,0.001520868157967925,-7.55706287236535e-06
1.7294981758206623e+18,-0.0009744316339492798,-0.0006391019560396671,9.313419286627322e-05
1.7294981758266624e+18,-0.0008039058884605765,0.0013885984662920237,0.0006559649482369423
1.7294981758356626e+18,-0.00021423214639071375,-0.0009339576936326921,-0.00020677167049143463
1.7294981758416627e+18,-0.0007775347912684083,-0.0013366842176765203,0.002514579566195607
1.729498175850663e+18,-0.0016098759369924664,0.0017891397001221776,-0.0013974126195535064
1.729498175856663e+18,-0.0008129688794724643,0.0015149113023653626,0.0023688289802521467
1.7294981758656632e+18,-0.0011190070072188973,0.001624265220016241,-0.0008742706850171089
1.7294981758746634e+18,0.0007784542976878583,-0.00011424023250583559,0.001619572751224041
1.7294981758806636e+18,0.0012843877775594592,-0.0013473861617967486,-0.0006086121429689229
1.7294981758896637e+18,0.001623166841454804,-0.0003511261602398008,0.0031353251542896032
1.7294981758956639e+18,0.0004648048197850585,-0.001318593043833971,-0.004007987678050995
1.729498175904664e+18,0.0018214455340057611,0.0016802181489765644,0.002030688803642988
1.7294981759136643e+18,0.0013369617518037558,0.0006354760262183845,9.139291069004685e-05
1.7294981759196644e+18,0.0014749300898984075,0.0036010234616696835,-0.0015063505852594972
1.7294981759286646e+18,-0.0021040134597569704,-0.0020498987287282944,0.00010598997323540971
1.7294981759346647e+18,-0.001021390431560576,0.0012945985654368997,0.0002505068259779364
1.729498175943665e+18,0.0001226624008268118,0.00040977593744173646,-0.0008959323749877512
1.729498175949665e+18,-0.0014870869927108288,-0.000976757612079382,0.0022378491703420877
1.7294981759586652e+18,-0.0023270079400390387,0.0009865922620519996,-0.0005586575134657323
1.7294981759676654e+18,0.0015376571100205183,-0.0015689247520640492,0.00037712155608460307
1.7294981759736655e+18,-0.0008407114655710757,-0.0015454860404133797,-0.0006729369633831084
1.7294981759826657e+18,-0.0011597065022215247,-0.0005779674975201488,-0.000628613168373704
1.7294981759886659e+18,0.0008186602499336004,0.0018863299628719687,0.001720827422104776
1.729498175997666e+18,-0.0038595469668507576,0.0012167933164164424,0.0016440518666058779
1.7294981760036662e+18,0.0004295007383916527,-0.002065003849565983,-0.00040228504803963006
1.7294981760126664e+18,-0.002964575309306383,0.0007423423230648041,-0.0006828453042544425
1.7294981760216666e+18,0.0007744893664494157,0.002101949416100979,0.0013066536048427224
1.7294981760276667e+18,0.00019290235650260001,0.0009976400760933757,-0.0018401425331830978
1.729498176036667e+18,0.00021882468718104064,0.0009285709820687771,0.001750071533024311
1.729498176045667e+18,-0.0022166080307215452,0.0007712853257544339,0.0015280337538570166
1.7294981760516672e+18,-0.001680152490735054,7.148227450670674e-05,-0.0018085477640852332
1.7294981760606674e+18,0.0010161293903365731,0.0021894527599215508,0.0012038422282785177
1.7294981760696676e+18,-0.000764448894187808,-0.00017320828919764608,0.0014079652028158307
1.7294981760756677e+18,0.0020780868362635374,0.0002653526607900858,0.000645711668767035
1.729498176084668e+18,0.0008524956065230072,0.0001191182600450702,-0.0008162549347616732
1.729498176093668e+18,0.0008159767603501678,0.0016303801676258445,-0.0010275760432705283
1.7294981760996682e+18,0.0006884750328026712,0.0006337034865282476,-3.6306992114987224e-05
1.7294981761086684e+18,-0.0012526403879746795,-0.0011487744050100446,-0.0017826452385634184
1.7294981761146685e+18,-0.0001232157228514552,1.7165340977953747e-05,0.0024688260164111853
1.7294981761236687e+18,0.0006754201021976769,-0.00029487168649211526,-0.0012315558269619942
1.729498176132669e+18,-0.0014748884132131934,-0.0006933099357411265,-0.0030453698709607124
1.729498176138669e+18,0.0015081310411915183,0.0005550571950152516,-0.0009495532722212374
1.7294981761476692e+18,-0.0004947793204337358,8.320185588672757e-05,0.00034543126821517944
1.7294981761566694e+18,-0.0007561609381809831,0.00027429466717876494,-0.00032739577000029385
1.7294981761626696e+18,-0.004391029942780733,0.0005913830827921629,0.0008688636589795351
1.7294981761716698e+18,-0.0016332209343090653,0.0028370206709951162,-0.003004960250109434
1.72949817617767e+18,-0.0004489978600759059,-0.0014824076788499951,-0.0008020855020731688
1.72949817618667e+18,-0.002033126773312688,-0.0008815935580059886,-0.001259915647096932
1.7294981761926702e+18,-0.001974400831386447,0.0011577785480767488,0.0006479509174823761
1.7294981762016704e+18,-0.0003228639834560454,-0.0015941463643684983,0.0003902402240782976
1.7294981762076705e+18,-0.0004453082801774144,0.000778139044996351,-0.00129311706405133
1.7294981762166707e+18,-0.0026144632138311863,0.0007796506979502738,-0.0022466974332928658
1.7294981762226708e+18,-0.0029899291694164276,0.0007866270025260746,-0.00033644496579654515
1.729498176231671e+18,-0.0034971069544553757,0.0018026219913735986,0.0013960665091872215
1.7294981762406712e+18,0.0015699181240051985,-0.0023439121432602406,0.0005097079556435347
1.7294981762496714e+18,-0.0013691565254703164,-0.0023596358951181173,0.00012261896335985512
1.7294981762586716e+18,0.0045185089111328125,0.0019984759856015444,0.0005939447437413037
1.7294981762676718e+18,0.0006580916815437376,0.0010984548134729266,0.00023231860541272908
1.729498176276672e+18,-0.0007578011718578637,-0.00015689432621002197,-0.0016839094460010529
1.7294981762856722e+18,-0.0012193950824439526,0.0003584818041417748,0.0008370428695343435
1.7294981762916723e+18,0.000570843752939254,0.0012562171323224902,-0.0013001513434574008
1.7294981763006725e+18,-0.0019301490392535925,0.0006073010736145079,0.0006831322680227458
1.7294981763096727e+18,-0.000847051793243736,-0.0022985192481428385,-0.001730988034978509
1.729498176324673e+18,-0.00101607502438128,-0.00016356039850506932,0.001332114334218204
1.7294981763366733e+18,-0.0004821143811568618,-0.0003801049024332315,-0.0017631022492423654
1.7294981763426734e+18,-0.0021313943434506655,-0.003119722241535783,0.0015207341639325023
1.7294981763516736e+18,-0.00015423049626406282,-0.0013860606122761965,0.0007598400115966797
1.7294981763576737e+18,-0.0021760601084679365,-0.002880372339859605,-0.00030569187947548926
1.729498176366674e+18,2.557900188548956e-05,0.0020285502541810274,-0.00010874553845496848
1.729498176375674e+18,0.00044867859105579555,0.0014370654243975878,-0.0003611363936215639
1.7294981763816742e+18,0.0008994205272756517,-0.002891402691602707,0.0005884664133191109
1.7294981763906744e+18,-0.0005879101227037609,-0.0013694735243916512,0.0016540015349164605
1.7294981763966746e+18,-0.001628649653866887,0.0003958843008149415,-0.00021361542167142034
1.7294981764056748e+18,0.0006255231564864516,-0.0016363642644137144,0.0024708788841962814
1.729498176414675e+18,0.00283191935159266,-0.00032272908720187843,0.00172565842512995
1.729498176420675e+18,-0.0009824637090787292,0.00042441097320988774,-0.0013108947314321995
1.7294981764296753e+18,-0.0014853888424113393,-0.0020067123696208,-0.003598302835598588
1.7294981764386755e+18,0.0019186717690899968,0.002486550947651267,0.0007686404860578477
1.7294981764446756e+18,0.0027677281759679317,0.00016428800881840289,0.0013939059572294354
1.7294981764536758e+18,-0.0012599689653143287,0.0019150038715451956,-0.0001834955910453573
1.729498176462676e+18,0.001985779497772455,-0.0014522458659484982,-0.00037719192914664745
1.729498176468676e+18,0.0032680779695510864,-0.0006774181965738535,-0.0008615957922302186
1.7294981764776763e+18,-8.078238897724077e-05,0.00030491434154100716,-0.0007824156200513244
1.7294981764836764e+18,0.0023065186105668545,-0.0009636770118959248,-0.0011490308679640293
1.7294981764926766e+18,-8.392225026909728e-06,8.708592940820381e-05,-0.0008459292002953589
1.7294981765016768e+18,0.00036792014725506306,0.002502432093024254,-0.0016568844439461827
1.729498176507677e+18,0.002837164793163538,-0.0010469965636730194,-0.0026687614154070616
1.729498176516677e+18,-0.001134658930823207,0.00042724248487502337,-0.000579116225708276
1.7294981765256773e+18,0.0006471261149272323,0.0009713429026305676,-0.0004786182544194162
1.7294981765316774e+18,-0.0013054755982011557,0.0014543997822329402,0.0011583807645365596
1.7294981765406776e+18,0.00026332223205827177,0.001314904890023172,-0.0009550807881169021
1.7294981765466778e+18,5.0140428356826305e-05,-0.0009702731622382998,-0.0020373123697936535
1.729498176555678e+18,0.0006353784701786935,0.0019301798893138766,0.0006476275739260018
1.7294981765646781e+18,0.000537305895704776,0.0012903191382065415,0.0005223681218922138
1.7294981765706783e+18,0.001368154538795352,-0.000320043764077127,-0.0003604069643188268
1.7294981765796785e+18,-0.0004702684818767011,-0.0017438058275729418,0.00273184385150671
1.7294981765886787e+18,-0.0001303906465182081,-0.00031447692890651524,-0.001228451612405479
1.7294981765946788e+18,0.002296177437528968,-0.0009803830180317163,0.0008583015878684819
1.729498176603679e+18,-0.000713135174009949,0.0003356277011334896,0.001486274297349155
1.7294981766126792e+18,-0.00030550494557246566,0.0020210270304232836,-0.00011708726378856227
1.7294981766186793e+18,-0.003518718294799328,0.0015617046738043427,9.219394996762276e-06
1.7294981766276795e+18,8.355252066394314e-05,-0.001594329485669732,-0.0028946571983397007
1.7294981766366797e+18,0.001819188822992146,-0.0024394455831497908,0.0028420339804142714
1.7294981766426798e+18,0.0028005321510136127,-0.00032096088398247957,-0.0003008374769706279
1.72949817665168e+18,0.0005029499297961593,0.001889247098006308,-0.00021602468041237444
1.7294981766606802e+18,0.001288061961531639,0.0006773299537599087,0.0007913607405498624
1.7294981766666803e+18,-0.0004584772395901382,0.0016565830446779728,-0.0014603009913116693
1.7294981766756805e+18,-0.0002094206865876913,0.0026984447613358498,-0.00019594978948589414
1.7294981766846807e+18,0.0033635341096669436,-0.0024502696469426155,0.0007097848574630916
1.7294981766906808e+18,-0.0010444456711411476,0.0001238452532561496,0.0015459191054105759
1.729498176699681e+18,-0.00029482165700756013,-0.0011802244698628783,0.0008786809048615396
1.7294981767056812e+18,0.0021483327727764845,0.00015580530453007668,0.001889835693873465
1.7294981767146813e+18,-0.0005195657722651958,0.0003324871649965644,-0.002110880333930254
1.7294981767236815e+18,-0.00020399964705575258,0.0012248145649209619,-0.0005292891291901469
1.7294981767326817e+18,0.0013424670323729515,3.780852057388984e-05,0.0024816228542476892
1.7294981767386819e+18,0.000616984732914716,-0.0004699423734564334,0.0001679177803453058
1.729498176747682e+18,0.0006495895213447511,0.00010750921501312405,0.0006340994732454419
1.7294981767536822e+18,-0.001057243556715548,0.0007247846806421876,0.0012620477937161922
1.7294981767626824e+18,0.000975330185610801,0.0004239885602146387,-0.0020665598567575216
1.7294981767716826e+18,-0.0017201590817421675,0.003170264884829521,0.0014457687502726912
1.7294981767776827e+18,0.00014674833801109344,-0.0009180630440823734,0.00027575946296565235
1.729498176786683e+18,-0.0015599146718159318,0.0017300799954682589,0.0014166508335620165
1.729498176795683e+18,0.003584588412195444,-0.0010425839573144913,0.0008863662369549274
1.7294981768016832e+18,-0.0009655299363657832,-0.0010532200103625655,0.00021109655790496618
1.7294981768106834e+18,0.0004923238302581012,-0.0009996563894674182,-0.0020227269269526005
1.7294981768196836e+18,-0.0018681114306673408,0.0008316201856359839,-0.0002625900087878108
1.7294981768256837e+18,-0.0008874545455910265,-0.0010469676926732063,0.0012284842086955905
1.729498176834684e+18,-0.0013284905580803752,0.0010742542799562216,0.0004800697788596153
1.729498176840684e+18,0.002240946516394615,0.00042902815039269626,-0.0009549979004077613
1.7294981768496842e+18,1.4416411431739107e-05,-7.77568930061534e-05,-0.0020130665507167578
1.7294981768586844e+18,-0.0009001819998957217,-0.0003667074488475919,-0.0009010859648697078
1.7294981768676846e+18,0.07748548686504364,-0.020044736564159393,0.00013241289707366377
1.7294981768736847e+18,0.17567574977874756,-0.04358009248971939,-0.0008439337252639234
1.729498176882685e+18,0.3228011429309845,-0.08290194720029831,0.0007695800741203129
1.729498176891685e+18,0.44703853130340576,-0.11634556204080582,0.003347602440044284
1.7294981769006853e+18,0.48068106174468994,-0.12978336215019226,0.00013081134238746017
1.7294981769096855e+18,0.43996724486351013,-0.1324062943458557,-0.001524120569229126
1.7294981769156856e+18,0.38939282298088074,-0.12360787391662598,-8.408656140090898e-05
1.7294981769246858e+18,0.3126773238182068,-0.11159922927618027,-0.00027700455393642187
1.729498176933686e+18,0.28312355279922485,-0.10708735138177872,0.001836489886045456
1.7294981769426862e+18,0.30188998579978943,-0.10725869983434677,1.2768854503519833e-05
1.7294981769516864e+18,0.35460546612739563,-0.11323946714401245,0.0005397252389229834
1.7294981769606866e+18,0.39964598417282104,-0.11801327764987946,0.0013805784983560443
1.7294981769666867e+18,0.40528997778892517,-0.11897511780261993,0.0005653334083035588
1.729498176975687e+18,0.3676016330718994,-0.1135391816496849,1.4462842955254018e-05
1.729498176981687e+18,0.322678804397583,-0.1059994027018547,-0.0005567859625443816
1.7294981769906872e+18,0.23933298885822296,-0.0912729799747467,-0.0025158808566629887
1.7294981769996874e+18,0.1740153431892395,-0.07507938146591187,0.001992060337215662
1.7294981770086876e+18,0.1429690718650818,-0.06728867441415787,-0.0011422677198424935
1.7294981770176878e+18,0.14887700974941254,-0.06381221115589142,-0.0003062325995415449
1.729498177026688e+18,0.1712096482515335,-0.0579548142850399,0.0002813069731928408
1.729498177032688e+18,0.17799389362335205,-0.05706063657999039,-0.0017313172575086355
1.7294981770446884e+18,0.14798827469348907,-0.042183857411146164,-0.0023168676998466253
1.7294981770506885e+18,0.11729561537504196,-0.040178779512643814,0.001934550004079938
1.7294981770596887e+18,0.05364315211772919,-0.024920789524912834,0.000596602272707969
1.729498177068689e+18,-0.0012933911057189107,-0.018499357625842094,-0.0004953414318151772
1.729498177077689e+18,-0.0323442667722702,-0.007952315732836723,-0.0016035374719649553
1.7294981770866893e+18,-0.037785883992910385,0.0006289451848715544,-0.0021659727208316326
1.7294981770956895e+18,-0.02403375320136547,0.00547667546197772,-0.0010359310545027256
1.7294981771046897e+18,-0.016579393297433853,0.00829325057566166,0.0032914606854319572
1.7294981771136899e+18,-0.030165335163474083,0.013880141079425812,-0.002710368949919939
1.72949817711969e+18,-0.0524604357779026,0.021694917231798172,0.003026579739525914
1.7294981771286902e+18,-0.08927935361862183,0.028142038732767105,-0.0007843137718737125
1.7294981771376904e+18,-0.12130928784608841,0.032753344625234604,0.0016481932252645493
1.7294981771436905e+18,-0.1325826793909073,0.03551316261291504,-0.0003727563307620585
1.7294981771526907e+18,-0.1437465101480484,0.03635092079639435,0.0010433564893901348
1.7294981771586908e+18,-0.13131491839885712,0.0383029505610466,-0.0005411424790509045
1.729498177167691e+18,-0.1266988217830658,0.042156752198934555,-0.004037666134536266
1.7294981771766912e+18,-0.1209036111831665,0.04624047875404358,-0.0014479861129075289
1.7294981771826913e+18,-0.12059253454208374,0.04290900006890297,0.0006674485048279166
1.7294981771916915e+18,-0.1348382532596588,0.04930547624826431,-0.0034119179472327232
1.7294981771976916e+18,-0.1468244194984436,0.04948064684867859,0.00028311953064985573
1.7294981772066918e+18,-0.16165977716445923,0.05083624646067619,0.00034608738496899605
1.729498177215692e+18,-0.1735987365245819,0.05326038971543312,0.0004836909065488726
1.7294981772216922e+18,-0.17012910544872284,0.04951370507478714,0.001268810243345797
1.7294981772306924e+18,-0.16143064200878143,0.05358826369047165,-0.0013527515111491084
1.7294981772366925e+18,-0.15454035997390747,0.05187848210334778,0.00017458910588175058
1.7294981772456927e+18,-0.14370590448379517,0.051969122141599655,0.0006516611319966614
1.7294981772516928e+18,-0.1427345871925354,0.05343560129404068,0.00012757370132021606
1.729498177260693e+18,-0.14464156329631805,0.05417301505804062,-0.0010235110530629754
1.7294981772696932e+18,-0.15406517684459686,0.05824168771505356,-0.002229394856840372
1.7294981772756933e+18,-0.16279226541519165,0.054943397641181946,-0.000413520319852978
1.7294981772846935e+18,-0.1662081480026245,0.05485307052731514,-0.0008910340256989002
1.7294981772906936e+18,-0.1669856607913971,0.055811867117881775,-0.0006421413272619247
1.7294981772996938e+18,-0.15438435971736908,0.050819605588912964,0.0009001910802908242
1.729498177308694e+18,-0.1432090550661087,0.04915238171815872,0.002070810878649354
1.7294981773146941e+18,-0.1358882039785385,0.04768471419811249,0.0008786077378317714
1.7294981773236943e+18,-0.1326422542333603,0.043657805770635605,-0.0010282176081091166
1.7294981773296945e+18,-0.1354862004518509,0.04817305877804756,-0.0007390534738078713
1.7294981773386947e+18,-0.13745872676372528,0.04652656614780426,-0.0012296298518776894
1.7294981773476948e+18,-0.14059148728847504,0.04667723551392555,-0.001800358877517283
1.729498177353695e+18,-0.14298401772975922,0.040531739592552185,-0.0015616114251315594
1.7294981773626952e+18,-0.13295984268188477,0.04270881041884422,-0.0018574793357402086
1.7294981773686953e+18,-0.12845072150230408,0.042910363525152206,-0.0005545156891457736
1.7294981773776955e+18,-0.11671166121959686,0.04135366901755333,-0.0013031621929258108
1.7294981773866957e+18,-0.10949733853340149,0.04110587015748024,-0.002024989342316985
1.7294981773956959e+18,-0.10569917410612106,0.0415613166987896,0.0014462738763540983
1.729498177401696e+18,-0.10476099699735641,0.03841084614396095,-0.001354662119410932
1.7294981774106962e+18,-0.10673452913761139,0.03543254733085632,2.1064712200313807e-05
1.7294981774196964e+18,-0.1104908436536789,0.033978402614593506,-0.002549803350120783
1.7294981774286966e+18,-0.1062668040394783,0.032585397362709045,0.0011372864246368408
1.7294981774346967e+18,-0.10297810286283493,0.032374992966651917,-0.0017095848452299833
1.729498177443697e+18,-0.094815194606781,0.03617747873067856,0.00017787347314879298
1.729498177452697e+18,-0.08734589070081711,0.03611220046877861,-0.0029014062602072954
1.7294981774616973e+18,-0.0828610435128212,0.03387376293540001,0.0010095876641571522
1.7294981774676974e+18,-0.08481841534376144,0.033453721553087234,-0.000530578545294702
1.7294981774766976e+18,-0.08331303298473358,0.03066485933959484,0.0011165115283802152
1.7294981774856978e+18,-0.0856672152876854,0.026248523965477943,0.0014173864619806409
1.729498177494698e+18,-0.08494997769594193,0.026329627260565758,0.0005804728134535253
1.729498177500698e+18,-0.08056411892175674,0.02630380541086197,-0.0008593304082751274
1.7294981775096983e+18,-0.07837726920843124,0.023343337699770927,-0.0026431032456457615
1.7294981775186985e+18,-0.06913712620735168,0.025830047205090523,-0.0014632329111918807
1.7294981775246986e+18,-0.0718262642621994,0.025766806676983833,0.0009633686277084053
1.7294981775336988e+18,-0.06821148842573166,0.022946137934923172,-0.0018751057796180248
1.729498177542699e+18,-0.06956532597541809,0.018663447350263596,0.0019457289017736912
1.7294981775486991e+18,-0.0708010271191597,0.014951050281524658,-0.0008894908824004233
1.7294981775576993e+18,-0.0686187744140625,0.01944003812968731,0.000824165006633848
1.7294981775666995e+18,-0.06506825983524323,0.021266499534249306,-0.0004772108804900199
1.7294981775756997e+18,-0.06550333648920059,0.021730493754148483,-0.0030637946911156178
1.7294981775816998e+18,-0.06580401957035065,0.014760072343051434,-0.0012813634239137173
1.7294981775907e+18,-0.06216936558485031,0.017894979566335678,0.001075396896339953
1.7294981775997002e+18,-0.0605228915810585,0.017007941380143166,-0.004260459449142218
1.7294981776087004e+18,-0.05755801126360893,0.014265441335737705,-0.001911606639623642
1.7294981776177006e+18,-0.05941952392458916,0.017446568235754967,-0.004645354580134153
1.7294981776237007e+18,-0.06030256301164627,0.019408617168664932,-0.0006972362753003836
1.729498177632701e+18,-0.05409560352563858,0.014837701804935932,-0.0013827518559992313
1.729498177641701e+18,-0.05600379407405853,0.01657475158572197,0.00015260942745953798
1.7294981776477012e+18,-0.055481478571891785,0.01786959543824196,-0.0005109812482260168
1.7294981776567014e+18,-0.052914809435606,0.013263502158224583,-0.0021861002314835787
1.7294981776657016e+18,-0.0532454289495945,0.013517556712031364,0.0011739800684154034
1.7294981776717018e+18,-0.051911722868680954,0.013574276119470596,-0.0010970444418489933
1.729498177680702e+18,-0.05308801308274269,0.016708392649888992,-0.0015638566110283136
1.729498177686702e+18,-0.0495380200445652,0.014108867384493351,0.00045272178249433637
1.7294981776957023e+18,-0.051022276282310486,0.014075299724936485,-7.684159209020436e-05
1.7294981777017024e+18,-0.04796092212200165,0.015374815091490746,0.0015008228365331888
1.7294981777107026e+18,-0.04688343033194542,0.0185970738530159,-0.001777033437974751
1.7294981777197028e+18,-0.04562709107995033,0.011598542332649231,0.000816475017927587
1.729498177725703e+18,-0.04366809502243996,0.014010906219482422,0.0021056646946817636
1.729498177734703e+18,-0.04213574901223183,0.013411902822554111,-2.613305696286261e-06
1.7294981777407032e+18,-0.0447353720664978,0.012696207500994205,-8.812409214442596e-05
1.7294981777497034e+18,-0.04299298673868179,0.013108610175549984,-0.00125848688185215
1.7294981777587036e+18,-0.04323839396238327,0.010286331176757812,0.001122708898037672
1.7294981777647037e+18,-0.039808597415685654,0.011659523472189903,-0.0014168221969157457
1.729498177773704e+18,-0.04206265136599541,0.006796617992222309,0.0046190787106752396
1.729498177779704e+18,-0.0381033755838871,0.009700910188257694,-0.0011267801746726036
1.7294981777887043e+18,-0.037119533866643906,0.012208553031086922,-0.0008431689348071814
1.7294981777947044e+18,-0.035960447043180466,0.010546041652560234,-0.0023615737445652485
1.7294981778037046e+18,-0.03814638778567314,0.014003891497850418,-0.0003551246481947601
1.7294981778097047e+18,-0.03699192404747009,0.013521005399525166,-0.0023489075247198343
1.729498177818705e+18,-0.035532888025045395,0.011009913869202137,0.00015415449161082506
1.729498177824705e+18,-0.03691278398036957,0.009266221895813942,-2.1375126380007714e-05
1.7294981778337052e+18,-0.03541998565196991,0.011547996662557125,0.0016734835226088762
1.7294981778427054e+18,-0.03528985381126404,0.007961488328874111,-0.0002561589062679559
1.7294981778487055e+18,-0.03690970689058304,0.012049815617501736,0.003230645088478923
1.7294981778577057e+18,-0.03621118143200874,0.006695343181490898,-0.0006049951771274209
1.729498177866706e+18,-0.03488774597644806,0.006689544767141342,0.0011109159095212817
1.7294981778817062e+18,-0.03353829309344292,0.011347930878400803,0.002695203758776188
1.7294981778877064e+18,-0.035105518996715546,0.012936605140566826,0.0001513254246674478
1.7294981778967066e+18,-0.03398240730166435,0.010765975341200829,-0.0009641102515161037
1.7294981779057068e+18,-0.031756673008203506,0.010293476283550262,0.0020014948677271605
1.729498177914707e+18,-0.029813449829816818,0.010218290612101555,-0.0011102140415459871
1.729498177920707e+18,-0.02740113064646721,0.008230834268033504,0.001347079873085022
1.7294981779297073e+18,-0.02920248545706272,0.004939861595630646,5.078478716313839e-05
1.7294981779357074e+18,-0.028684129938483238,0.00875098817050457,-0.0010980514343827963
1.7294981779447076e+18,-0.02758454903960228,0.009129021316766739,0.0021956092678010464
1.7294981779537078e+18,-0.03015862964093685,0.011697947047650814,0.000767699908465147
1.729498177959708e+18,-0.027650071308016777,0.011134308762848377,-0.00018263733363710344
1.729498177968708e+18,-0.026933446526527405,0.0070131439715623856,0.0024096849374473095
1.7294981779747082e+18,-0.027812112122774124,0.010603627189993858,0.0005130005301907659
1.7294981779837084e+18,-0.024370653554797173,0.006596827879548073,0.001414235681295395
1.7294981779927086e+18,-0.024455925449728966,0.005841564387083054,-0.00026723204064182937
1.7294981779987087e+18,-0.025841286405920982,0.0058217779733240604,-0.002473028376698494
1.729498178007709e+18,-0.024891816079616547,0.010089203715324402,0.0009840992279350758
1.729498178016709e+18,-0.02601318433880806,0.009718898683786392,0.003435067366808653
1.7294981780227092e+18,-0.02510044164955616,0.011959414929151535,0.0005785521934740245
1.7294981780317094e+18,-0.022852635011076927,0.01008493360131979,-0.001226001069881022
1.7294981780407096e+18,-0.023450085893273354,0.01058383472263813,0.0025625068228691816
1.7294981780467098e+18,-0.02293173223733902,0.008126598782837391,-0.0008023495320230722
1.72949817805571e+18,-0.019535744562745094,0.006464497186243534,0.0013367201900109649
1.7294981780647101e+18,-0.019550319761037827,0.0073050460778176785,0.0003228822606615722
1.7294981780707103e+18,-0.02071484737098217,0.004959559068083763,0.0003760078107006848
1.7294981780797105e+18,-0.017505411058664322,0.011479473672807217,-0.0016560176154598594
1.7294981780887107e+18,-0.017195148393511772,0.008146760053932667,-0.00011101728887297213
1.7294981780947108e+18,-0.01489184144884348,0.007940907031297684,0.000440033501945436
1.729498178103711e+18,-0.013417892158031464,0.00226174620911479,-0.002907712012529373
1.7294981781127112e+18,-0.013883736915886402,0.003616873873397708,-0.0005167683702893555
1.7294981781187113e+18,-0.015266064554452896,0.0029151751659810543,-0.0019901879131793976
1.7294981781307116e+18,-0.012734455987811089,0.0030662422068417072,-1.1158132110722363e-05
1.7294981781367117e+18,-0.012115240097045898,0.0025561414659023285,-0.00014778570039197803
1.7294981781457119e+18,-0.01307830773293972,0.004083964042365551,0.0017773308791220188
1.729498178151712e+18,-0.008673585020005703,0.0034292726777493954,-0.003129940712824464
1.7294981781607122e+18,-0.011056909337639809,0.0031428420916199684,-0.0031826153863221407
1.7294981781697124e+18,-0.012289152480661869,0.0022823824547231197,0.000178520567715168
1.7294981781847127e+18,-0.012374010868370533,0.0034346997272223234,-0.0006186238024383783
1.729498178193713e+18,-0.01179143600165844,0.0034692129120230675,-0.0004045883542858064
1.729498178199713e+18,-0.012881308794021606,0.003053941996768117,0.0005197709542699158
1.7294981782087132e+18,-0.01227110717445612,0.0057612317614257336,-0.0008626990602351725
1.7294981782177134e+18,-0.009707334451377392,0.002010465133935213,-0.0006406708271242678
1.7294981782237135e+18,-0.013590258546173573,0.0008205361664295197,-0.0007575753261335194
1.7294981782327137e+18,-0.010335046797990799,0.0027948725037276745,0.0008764461963437498
1.7294981782387139e+18,-0.006780983880162239,0.001283295452594757,0.00029349158285185695
1.729498178247714e+18,-0.011967341415584087,0.002696992363780737,-0.0019405351486057043
1.7294981782537142e+18,-0.00835786759853363,0.002263779751956463,0.001179665676318109
1.7294981782627144e+18,-0.0099111869931221,0.00016240347758866847,0.0011894351337105036
1.7294981782717146e+18,-0.007980997674167156,0.001311392756178975,0.002068091882392764
1.7294981782777147e+18,-0.009271373972296715,0.002218106761574745,0.0015365798026323318
1.729498178286715e+18,-0.011124476790428162,-0.0007897920440882444,-0.002014275174587965
1.729498178292715e+18,-0.010742365382611752,-0.0001839724718593061,-0.0020365186501294374
1.7294981783017152e+18,-0.011213229969143867,-0.005179489962756634,0.00039839770761318505
1.7294981783107154e+18,-0.006965430919080973,0.002050696639344096,-0.0010696304962038994
1.7294981783167155e+18,-0.006636735983192921,-0.0008713063434697688,0.0023498376831412315
1.7294981783257157e+18,-0.004698631819337606,0.0004950499278493226,3.759170067496598e-05
1.729498178334716e+18,-0.004310782067477703,0.001749022165313363,0.0012304515112191439
1.729498178340716e+18,-0.0035602471325546503,0.004254009108990431,-0.0001939170906553045
1.7294981783497162e+18,-0.0028297645039856434,-0.001546364976093173,-0.0013359434669837356
1.7294981783557164e+18,-0.006900655571371317,0.00044930557487532496,-0.0036809255834668875
1.7294981783647165e+18,-0.008989839814603329,-0.0005684291245415807,0.0003698414657264948
1.7294981783737167e+18,-0.002424007747322321,-0.000592558179050684,-0.0011942317942157388
1.729498178382717e+18,-0.004299343563616276,0.002474298933520913,-3.9310718420892954e-05
1.729498178391717e+18,-0.0005882923724129796,0.0020767138339579105,0.0004472366999834776
1.7294981784007173e+18,0.0011757337488234043,0.0005610648076981306,-0.0012077342253178358
1.7294981784067174e+18,0.0016137566417455673,0.005398627370595932,-9.985262295231223e-05
1.7294981784157176e+18,-0.0028072467539459467,0.0025420517195016146,-0.000640245561953634
1.7294981784247178e+18,-0.0039680469781160355,0.004506187979131937,-0.000550589757040143
1.729498178430718e+18,-0.0053956834599375725,0.0016794216353446245,-0.0005927444435656071
1.7294981784397181e+18,-0.002826730953529477,0.002293982543051243,0.0005251783295534551
1.7294981784457183e+18,-0.0028659719973802567,0.0019963609520345926,-0.0006144889630377293
1.7294981784547185e+18,0.0014003235846757889,-0.001085781492292881,0.00219330913387239
1.7294981784637187e+18,0.00512320501729846,0.0003250653389841318,-0.004321296699345112
1.7294981784697188e+18,0.004068673588335514,0.0030984152108430862,0.0004970192676410079
1.729498178478719e+18,0.004913171753287315,0.0017141044372692704,-0.0009341808035969734
1.7294981784877192e+18,-0.002592837903648615,0.00020915451750624925,-0.004312175326049328
1.7294981784937193e+18,-0.0011119504924863577,0.002652418566867709,0.00016011204570531845
1.7294981785027195e+18,-0.00324602541513741,-0.0003569115651771426,-0.0005251655820757151
1.7294981785087196e+18,-0.0011526691960170865,0.0026706410571932793,-0.0019060124177485704
1.7294981785177198e+18,-0.000762825133278966,0.00037820287980139256,-0.002567029558122158
1.72949817852672e+18,0.003953556530177593,-0.005185247398912907,-0.0030274619348347187
1.72949817853272e+18,0.008108237758278847,-0.0014829369029030204,-0.004448031075298786
1.7294981785417203e+18,0.005445703864097595,-0.002828241093084216,-0.002513813553377986
1.7294981785477204e+18,0.00575188547372818,-0.0026819610502570868,-0.0010400223545730114
1.7294981785567206e+18,0.0014745943481102586,0.0001251312205567956,-0.0023519466631114483
1.7294981785657208e+18,0.0005129709024913609,-0.00037032889667898417,-0.0011877501383423805
1.729498178574721e+18,0.0014499964891001582,0.0018243829254060984,-0.0005282285856083035
1.7294981785837212e+18,-0.002251050667837262,0.0011929305037483573,-0.0033013387583196163
1.7294981785897213e+18,0.0042195627465844154,0.0020567316096276045,0.0019411281682550907
1.7294981785987215e+18,0.00849243812263012,-3.8882484659552574e-05,-0.00453341007232666
1.7294981786077217e+18,0.010660244151949883,-0.001970095094293356,-0.0032927286811172962
1.7294981786137219e+18,0.010676553472876549,0.00031956005841493607,-0.002183961682021618
1.729498178622722e+18,0.009653642773628235,0.0009921598248183727,-0.004520747810602188
1.7294981786287222e+18,0.005693528801202774,0.0013608929002657533,-0.0005110723432153463
1.7294981786377224e+18,0.0058706291019916534,0.0017245872877538204,-0.0022312768269330263
1.7294981786467226e+18,0.00505845109000802,0.0018881740979850292,0.0017624541651457548
1.7294981786527227e+18,0.006688788067549467,-0.0007064602104946971,-0.00042914587538689375
1.729498178661723e+18,0.009773862548172474,-0.0006833462393842638,-0.005504061467945576
1.729498178670723e+18,0.009821850806474686,-0.00282250321470201,-0.004149942193180323
1.7294981786797233e+18,0.005775108002126217,-0.0031198502983897924,-0.0023385086096823215
1.7294981786917235e+18,0.009189625270664692,-0.00022880500182509422,0.00017750670667737722
1.7294981787007237e+18,0.009051090106368065,0.0009096213616430759,-0.002816523192450404
1.7294981787067238e+18,0.00911927130073309,-0.0014997187536209822,-0.0032251381780952215
1.729498178715724e+18,0.007821938022971153,-0.0017269349191337824,-0.0021256667096167803
1.7294981787217242e+18,0.011222604662179947,-0.0034658254589885473,-0.00019079470075666904
1.7294981787307244e+18,0.011365972459316254,-0.0053822994232177734,-0.0027123657055199146
1.7294981787397245e+18,0.008495193906128407,-0.007887802086770535,-0.003145769704133272
1.7294981787457247e+18,0.011428809724748135,-0.007544194348156452,-0.0007372884429059923
1.7294981787547249e+18,0.00815369002521038,-0.0026080829557031393,-0.0041968366131186485
1.729498178760725e+18,0.004652965813875198,-0.005943430121988058,-0.00030037621036171913
1.7294981787697252e+18,0.006917734630405903,-0.004130926914513111,-0.00148462550714612
1.7294981787757253e+18,0.012124642729759216,-0.006764126941561699,-0.00015707919374108315
1.7294981787847255e+18,0.012850672006607056,-0.006945293862372637,-0.0028263148851692677
1.7294981787937257e+18,0.015576262027025223,-0.009326279163360596,-0.0012073704274371266
1.7294981787997258e+18,0.011920441873371601,-0.008425459265708923,-0.0017451904714107513
1.729498178808726e+18,0.012910086661577225,-0.008656187914311886,0.0010947838891297579
1.7294981788177262e+18,0.010243410244584084,-0.008416621945798397,0.0030221114866435528
1.7294981788237263e+18,0.009610310196876526,-0.005657754838466644,-0.0025040563195943832
1.7294981788327265e+18,0.008090943098068237,-0.0064911311492323875,-0.0032094684429466724
1.7294981788387267e+18,0.01151810772716999,-0.009336850605905056,5.103496368974447e-05
1.7294981788477268e+18,0.014307774603366852,-0.005921574775129557,0.0007729562930762768
1.729498178856727e+18,0.01690654270350933,-0.008602889254689217,0.0009847399778664112
1.7294981788627272e+18,0.020278431475162506,-0.009512909688055515,-0.0007240954437293112
1.7294981788717274e+18,0.017802691087126732,-0.0050718775019049644,0.001364073483273387
1.7294981788777275e+18,0.015608341433107853,-0.008076921105384827,-0.001155185978859663
1.7294981788867277e+18,0.013165717013180256,-0.006922437809407711,-0.0004879721091128886
1.7294981788957279e+18,0.013666654005646706,-0.009711021557450294,-0.0027628159150481224
1.729498178901728e+18,0.012030419893562794,-0.007139250170439482,0.002171598607674241
1.7294981789107282e+18,0.012778150849044323,-0.008627031929790974,-0.003295517060905695
1.7294981789197284e+18,0.012574845924973488,-0.008095558732748032,0.0016283867880702019
1.7294981789257285e+18,0.017895564436912537,-0.007301392033696175,0.00015303859254345298
1.7294981789347287e+18,0.01761310175061226,-0.006566532421857119,0.0006599299376830459
1.729498178943729e+18,0.016128215938806534,-0.006985927931964397,-0.0007002988131716847
1.729498178949729e+18,0.017316076904535294,-0.002943150931969285,-0.0007688704063184559
1.7294981789587292e+18,0.013461094349622726,-0.005170539021492004,-0.00054039346287027
1.7294981789677294e+18,0.012597213499248028,-0.006277335342019796,-0.001218882855027914
1.7294981789737295e+18,0.00928993709385395,-0.005955718457698822,-0.00237120408564806
1.7294981789827297e+18,0.010018320754170418,-0.00619331793859601,0.00201313104480505
1.7294981789887299e+18,0.014607458375394344,-0.0060954526998102665,0.003178737824782729
1.72949817899773e+18,0.015647443011403084,-0.007321463897824287,0.0017983943689614534
1.7294981790067302e+18,0.01932625100016594,-0.003654632717370987,-0.0008184579783119261
1.7294981790157304e+18,0.01976466365158558,-0.002796011045575142,-0.0019836416468024254
1.7294981790217306e+18,0.014414947479963303,-0.0009928146610036492,3.1086718081496656e-05
1.7294981790307308e+18,0.014142864383757114,0.0005402363603934646,-0.000124885089462623
1.729498179036731e+18,0.012232707813382149,-0.003872964298352599,0.001089099794626236
1.729498179045731e+18,0.010377533733844757,0.00013772351667284966,0.0012710876762866974
1.7294981790547313e+18,0.015443572774529457,-0.005237686447799206,0.0013343807077035308
1.7294981790607314e+18,0.016179177910089493,-0.0013641937403008342,0.0003101171460002661
1.7294981790697316e+18,0.019437899813055992,0.0006088361842557788,0.001104458118788898
1.7294981790787318e+18,0.019763747230172157,0.0024504903703927994,0.001217986922711134
1.729498179084732e+18,0.021462729200720787,-0.0035088500007987022,-0.000353311188519001
1.729498179093732e+18,0.019126614555716515,0.00010181090328842402,0.000977259362116456
1.7294981790997322e+18,0.022684041410684586,-0.00029160850681364536,-0.0005741405766457319
1.7294981791087324e+18,0.017245696857571602,0.0019884828943759203,0.0006208611303009093
1.7294981791147325e+18,0.013564360328018665,0.003767377231270075,-0.0007951755542308092
1.7294981791237327e+18,0.014731370843946934,0.0031802000012248755,0.001628710189834237
1.7294981791297329e+18,0.015387080609798431,0.0005930920015089214,-0.0003829090273939073
1.729498179138733e+18,0.01941225677728653,-0.0007447002572007477,0.00021759470109827816
1.7294981791477332e+18,0.018249597400426865,-0.0008989116176962852,0.00018659312627278268
1.7294981791537334e+18,0.022173713892698288,-0.005281584803014994,0.00473266514018178
1.7294981791627336e+18,0.021655205637216568,0.0003244675463065505,-0.00036965712206438184
1.7294981791717338e+18,0.019532153382897377,-0.0008613849640823901,-0.00018226553220301867
1.729498179183734e+18,0.01792587898671627,0.000758945825509727,0.0010784342885017395
1.7294981791897341e+18,0.015374676324427128,-0.0020058206282556057,-0.0011746727395802736
1.7294981791987343e+18,0.015464220196008682,-0.006519108545035124,0.001294596353545785
1.7294981792047345e+18,0.01492751482874155,-0.003902177792042494,-0.0030888733454048634
1.7294981792137347e+18,0.019124597311019897,0.0030075025279074907,-0.010638680309057236
1.7294981792227348e+18,0.022996949031949043,0.012064555659890175,-0.029756944626569748
1.729498179228735e+18,0.026328517124056816,0.018756674602627754,-0.04411479830741882
1.7294981792377352e+18,0.028958534821867943,0.02304195426404476,-0.05355941131711006
1.7294981792467354e+18,0.02706734649837017,0.019060827791690826,-0.059692468494176865
1.7294981792527355e+18,0.02582249417901039,0.012719251215457916,-0.057186827063560486
1.7294981792617357e+18,0.01848575659096241,0.0040999180637300014,-0.05771588534116745
1.7294981792677358e+18,0.018454359844326973,-0.0017889454029500484,-0.05865230783820152
1.729498179276736e+18,0.014764530584216118,-0.0034552302677184343,-0.05546461045742035
1.7294981792857362e+18,0.019735809415578842,-0.0032180743291974068,-0.05426846817135811
1.7294981792947364e+18,0.022460931912064552,0.002091772388666868,-0.056381262838840485
1.7294981793007365e+18,0.02533745765686035,0.0012570084072649479,-0.05354682356119156
1.7294981793097367e+18,0.03115331195294857,0.00393042154610157,-0.055906593799591064
1.729498179318737e+18,0.025367531925439835,-0.0006300917593762279,-0.054738178849220276
1.729498179327737e+18,0.025417936965823174,-0.0024258887860924006,-0.05199524760246277
1.7294981793367373e+18,0.020396854728460312,-0.005844071041792631,-0.05151314288377762
1.7294981793427374e+18,0.01898052543401718,-0.00790719036012888,-0.04877851903438568
1.7294981793517376e+18,0.02013191021978855,-0.006926519330590963,-0.049225594848394394
1.7294981793607378e+18,0.018673855811357498,-0.00654738349840045,-0.048648376017808914
1.729498179366738e+18,0.023108307272195816,-0.00997469387948513,-0.049513548612594604
1.729498179375738e+18,0.022776836529374123,-0.008670640178024769,-0.048665132373571396
1.7294981793817382e+18,0.024326615035533905,-0.008267177268862724,-0.044888488948345184
1.7294981793907384e+18,0.027499567717313766,-0.008340271189808846,-0.0453001894056797
1.7294981793997386e+18,0.02247205190360546,-0.011273744516074657,-0.043639011681079865
1.7294981794087388e+18,0.023539599031209946,-0.013915210962295532,-0.042375169694423676
1.729498179414739e+18,0.021741699427366257,-0.00927352998405695,-0.04035289213061333
1.7294981794237391e+18,0.021362096071243286,-0.0069513944908976555,-0.04063785448670387
1.7294981794327393e+18,0.01912010833621025,-0.010076982900500298,-0.03836924955248833
1.7294981794387395e+18,0.02107209526002407,-0.009506977163255215,-0.039208922535181046
1.7294981794477396e+18,0.020131712779402733,-0.009469789452850819,-0.03556768596172333
1.72949817945974e+18,0.022053280845284462,-0.01274880301207304,-0.038174401968717575
1.72949817946874e+18,0.020472729578614235,-0.009454414248466492,-0.03357576206326485
1.7294981794777403e+18,0.01993037573993206,-0.011963486671447754,-0.03310385346412659
1.7294981794837404e+18,0.022865664213895798,-0.010842873714864254,-0.033017758280038834
1.7294981794927406e+18,0.01832554303109646,-0.007461909204721451,-0.027813507243990898
1.7294981795017408e+18,0.020506687462329865,-0.009207035414874554,-0.028759093955159187
1.729498179510741e+18,0.023605454713106155,-0.006470770575106144,-0.029621489346027374
1.729498179516741e+18,0.022586580365896225,-0.007776294834911823,-0.025412574410438538
1.7294981795257413e+18,0.024311507120728493,-0.009346522390842438,-0.024569155648350716
1.7294981795347415e+18,0.02477308176457882,-0.008793340064585209,-0.02356097474694252
1.7294981795407416e+18,0.02506422996520996,-0.009229445829987526,-0.024470021948218346
1.7294981795497418e+18,0.021147705614566803,-0.012661135755479336,-0.024312037974596024
1.729498179555742e+18,0.02158362604677677,-0.0124475983902812,-0.02142292447388172
1.7294981795647421e+18,0.016254739835858345,-0.014136472716927528,-0.021673530340194702
1.7294981795707423e+18,0.017744582146406174,-0.010591070167720318,-0.01858719065785408
1.7294981795827425e+18,0.019071757793426514,-0.007943260483443737,-0.01840813271701336
1.7294981795887427e+18,0.01978394202888012,-0.010677228681743145,-0.01646527089178562
1.7294981795977428e+18,0.02250906080007553,-0.010389713570475578,-0.017459092661738396
1.729498179603743e+18,0.02147667482495308,-0.005113049875944853,-0.01409605797380209
1.7294981796127432e+18,0.023816362023353577,-0.01083284430205822,-0.014753738418221474
1.7294981796187433e+18,0.022173501551151276,-0.009386694058775902,-0.012939373962581158
1.7294981796277435e+18,0.019574642181396484,-0.008954707533121109,-0.012291152961552143
1.7294981796337436e+18,0.020442264154553413,-0.010955051518976688,-0.00920451432466507
1.7294981796427438e+18,0.018802013248205185,-0.006218313239514828,-0.00828823633491993
1.729498179651744e+18,0.01986292377114296,-0.005973887164145708,-0.006208488252013922
1.7294981796577441e+18,0.017863651737570763,-0.009222171269357204,-0.004555876832455397
1.7294981796667443e+18,0.02021513134241104,-0.00913088209927082,-0.005063083954155445
1.7294981796727444e+18,0.0199004914611578,-0.007936307229101658,-0.002720612334087491
1.7294981796817446e+18,0.020325317978858948,-0.00738529022783041,-0.0029088533483445644
1.7294981796907448e+18,0.02170812338590622,-0.01000278815627098,0.0015111318789422512
1.729498179696745e+18,0.022357793524861336,-0.00827079638838768,0.0019585394766181707
1.7294981797057452e+18,0.020049117505550385,-0.006233662832528353,0.0032666665501892567
1.7294981797147453e+18,0.016272636130452156,-0.010788366198539734,0.00603692140430212
1.7294981797237455e+18,0.015938857570290565,-0.008448422886431217,0.011183816008269787
1.7294981797297457e+18,0.016292806714773178,-0.008542414754629135,0.010934444144368172
1.7294981797387459e+18,0.017798038199543953,-0.00547258323058486,0.013609804213047028
1.729498179744746e+18,0.01795990765094757,-0.004759112372994423,0.009019152261316776
1.7294981797537462e+18,0.015626193955540657,-0.007148354314267635,0.015347733162343502
1.7294981797627464e+18,0.018934397026896477,-0.005584757775068283,0.013489930890500546
1.7294981797717466e+18,0.017455123364925385,-0.008313175290822983,0.01760934107005596
1.7294981797777467e+18,0.017032772302627563,-0.010975354351103306,0.017705494537949562
1.729498179786747e+18,0.016568869352340698,-0.005084510892629623,0.02187218703329563
1.729498179792747e+18,0.016922201961278915,-0.006164002697914839,0.0192231647670269
1.7294981798017472e+18,0.01994033344089985,-0.005985447205603123,0.021909138187766075
1.7294981798107474e+18,0.02113383635878563,-0.007272953633219004,0.025728832930326462
1.7294981798167475e+18,0.019908685237169266,-0.006684814114123583,0.02557349018752575
1.7294981798257477e+18,0.020168932154774666,-0.006724279373884201,0.02704463340342045
1.7294981798317478e+18,0.01933596283197403,-0.007263290695846081,0.026300523430109024
1.729498179840748e+18,0.018069833517074585,-0.005711107049137354,0.02922647073864937
1.7294981798497482e+18,0.017530694603919983,-0.005352870561182499,0.03088696114718914
1.7294981798557484e+18,0.019881324842572212,-0.0033923787996172905,0.029047036543488503
1.7294981798647485e+18,0.018201496452093124,-0.007853377610445023,0.03223727270960808
1.7294981798737487e+18,0.02095158025622368,-0.006846440490335226,0.031193679198622704
1.7294981798797489e+18,0.024168692529201508,-0.004504723008722067,0.03135308623313904
1.729498179888749e+18,0.022268902510404587,-0.002895064651966095,0.03488718345761299
1.7294981798947492e+18,0.02285616286098957,-0.005518727470189333,0.03731011599302292
1.7294981799037494e+18,0.024602895602583885,-0.0032080316450446844,0.034164972603321075
1.7294981799097495e+18,0.025679923593997955,-0.0037213019095361233,0.038287028670310974
1.7294981799187497e+18,0.025093331933021545,-0.005820797756314278,0.0374784842133522
1.72949817992775e+18,0.02082904987037182,-0.0031683393754065037,0.03569489344954491
1.72949817993375e+18,0.01868351735174656,-0.004665724467486143,0.03657376021146774
1.7294981799427502e+18,0.021278053522109985,-0.0027301511727273464,0.04081326723098755
1.7294981799487503e+18,0.01955212466418743,-0.004979279357939959,0.03998558595776558
1.7294981799577505e+18,0.019284717738628387,-0.004820857662707567,0.037284500896930695
1.7294981799667507e+18,0.021446019411087036,-0.0029437982011586428,0.04146948829293251
1.7294981799727508e+18,0.019227085635066032,-0.004628369584679604,0.045112691819667816
1.729498179981751e+18,0.01722106523811817,-0.005240065045654774,0.0412922240793705
1.7294981799907512e+18,0.016611609607934952,-0.006251751445233822,0.04269656166434288
1.7294981799967514e+18,0.014650789089500904,-0.00452090660110116,0.04371889308094978
1.7294981800057516e+18,0.015736950561404228,-0.004128741100430489,0.04154455289244652
1.7294981800147517e+18,0.01407754048705101,-0.0004165142308920622,0.04367915168404579
1.729498180020752e+18,0.017042644321918488,-0.004411583766341209,0.04688069596886635
1.729498180029752e+18,0.01955341175198555,-0.003693576203659177,0.042952921241521835
1.7294981800357522e+18,0.019033391028642654,-0.005528172478079796,0.04343562200665474
1.7294981800447524e+18,0.018433984369039536,-0.007145014125853777,0.043698932975530624
1.7294981800537526e+18,0.016362294554710388,-0.005788697861135006,0.04295666888356209
1.7294981800597527e+18,0.01692890003323555,-0.009352320805191994,0.04054252430796623
1.729498180068753e+18,0.017545383423566818,-0.008520985022187233,0.04451391100883484
1.729498180077753e+18,0.015881013125181198,-0.007183595094829798,0.04347392916679382
1.7294981800867533e+18,0.017539959400892258,-0.005829202011227608,0.046424780040979385
1.7294981800927534e+18,0.018273700028657913,-0.009267820045351982,0.04436225816607475
1.7294981801017536e+18,0.018032236024737358,-0.010465657338500023,0.04363815113902092
1.7294981801107538e+18,0.01829109713435173,-0.009357176721096039,0.044458601623773575
1.729498180116754e+18,0.014860285446047783,-0.010971594601869583,0.04584333673119545
1.729498180125754e+18,0.017137758433818817,-0.01193167269229889,0.04609699547290802
1.7294981801347543e+18,0.02013525366783142,-0.010938391089439392,0.044184062629938126
1.7294981801407544e+18,0.012298667803406715,-0.006520696450024843,0.0429866723716259
1.7294981801497546e+18,0.013517317362129688,-0.009533245116472244,0.046579163521528244
1.7294981801587548e+18,0.013592952862381935,-0.005702752619981766,0.046144794672727585
1.729498180170755e+18,0.013694879598915577,-0.008530479855835438,0.04449933022260666
1.7294981801767552e+18,0.014640639536082745,-0.008523601107299328,0.04269866645336151
1.7294981801857554e+18,0.020010918378829956,-0.007323269732296467,0.04737607389688492
1.7294981801917555e+18,0.016412969678640366,-0.009161287918686867,0.04209554195404053
1.7294981802007557e+18,0.020168663933873177,-0.00435325363650918,0.042487699538469315
1.729498180209756e+18,0.016211584210395813,-0.004626197274774313,0.04492274299263954
1.729498180218756e+18,0.017237570136785507,-0.004273928236216307,0.04283929243683815
1.7294981802247562e+18,0.011495365761220455,-0.00225831032730639,0.04324521869421005
1.7294981802337564e+18,0.011770900338888168,-0.005456280428916216,0.043110188096761703
1.7294981802397565e+18,0.016302376985549927,-0.0035671540535986423,0.04469091072678566
1.7294981802487567e+18,0.01838832162320614,-0.0044581089168787,0.03786568343639374
1.7294981802547569e+18,0.02126964181661606,-0.004696814343333244,0.04336469992995262
1.729498180263757e+18,0.020250985398888588,-0.006908292882144451,0.039695337414741516
1.7294981802727572e+18,0.015648944303393364,-0.0017707920633256435,0.04151865467429161
1.7294981802787574e+18,0.014993700198829174,-0.0055936118587851524,0.0399138368666172
1.7294981802877576e+18,0.01282200776040554,-0.003297962248325348,0.03691599890589714
1.7294981802997578e+18,0.011942216195166111,-0.00670279748737812,0.040414564311504364
1.729498180308758e+18,0.009203254245221615,-0.007846727035939693,0.03626137971878052
1.7294981803177582e+18,0.010030098259449005,-0.00822074618190527,0.03783760964870453
1.7294981803237583e+18,0.009405966848134995,-0.007062673103064299,0.03626353666186333
1.7294981803327585e+18,0.011019018478691578,-0.004230046644806862,0.03890296444296837
1.7294981803417587e+18,0.008738234639167786,-0.0042460584081709385,0.03614607825875282
1.7294981803477588e+18,0.0125004593282938,-0.0017522863345220685,0.034093793481588364
1.729498180356759e+18,0.0104893883690238,-0.0018850883934646845,0.035473424941301346
1.7294981803657592e+18,0.012451683171093464,-0.0031685316935181618,0.034640148282051086
1.7294981803747594e+18,0.00905119813978672,-0.0051705059595406055,0.03319220244884491
1.7294981803807596e+18,0.006845489144325256,-0.004789153579622507,0.031812191009521484
1.7294981803897597e+18,0.00657761562615633,-0.004666190128773451,0.03014492616057396
1.7294981803957599e+18,0.0057519874535501,-0.002140030264854431,0.03505066782236099
1.72949818040476e+18,0.007959451526403427,-0.004001735243946314,0.031224150210618973
1.7294981804137603e+18,0.013378490693867207,-0.0008812102023512125,0.031171191483736038
1.7294981804197604e+18,0.019183283671736717,-0.0026837049517780542,0.026136623695492744
1.7294981804287606e+18,0.03193219006061554,-0.010152297094464302,0.026316791772842407
1.7294981804377608e+18,0.047387249767780304,-0.011917663738131523,0.02921091765165329
1.729498180443761e+18,0.04869834706187248,-0.019554726779460907,0.02680094540119171
1.729498180452761e+18,0.0566890686750412,-0.020867951214313507,0.02828383259475231
1.7294981804617613e+18,0.0575687512755394,-0.01780114322900772,0.030939912423491478
1.7294981804707615e+18,0.05549825355410576,-0.021192993968725204,0.025126352906227112
1.7294981804797617e+18,0.05399811640381813,-0.01997491531074047,0.02266431227326393
1.7294981804887619e+18,0.052279990166425705,-0.0237590242177248,0.025477102026343346
1.729498180497762e+18,0.05761637166142464,-0.019861731678247452,0.022514257580041885
1.7294981805067622e+18,0.06139349564909935,-0.02340937778353691,0.021616607904434204
1.7294981805157624e+18,0.0651385635137558,-0.024540644139051437,0.02122511900961399
1.7294981805247626e+18,0.06467305123806,-0.02377762459218502,0.022296953946352005
1.7294981805337628e+18,0.06495348364114761,-0.02686823531985283,0.01726384460926056
1.729498180542763e+18,0.05904526636004448,-0.026314930990338326,0.020097991451621056
1.7294981805517632e+18,0.05843555927276611,-0.024497883394360542,0.01927843876183033
1.7294981805667635e+18,0.05177547410130501,-0.021997835487127304,0.020434869453310966
1.7294981805757637e+18,0.0466102659702301,-0.020532121881842613,0.020521121099591255
1.729498180584764e+18,0.04802298545837402,-0.019589494913816452,0.018772771582007408
1.729498180593764e+18,0.05025235190987587,-0.023534975945949554,0.015934687107801437
1.7294981806027643e+18,0.048592131584882736,-0.01971982605755329,0.018427066504955292
1.7294981806147645e+18,0.043549347668886185,-0.02105436474084854,0.018650319427251816
1.7294981806237647e+18,0.03721245378255844,-0.02030545473098755,0.013795622624456882
1.729498180632765e+18,0.035797927528619766,-0.019753681495785713,0.016753163188695908
1.729498180641765e+18,0.03336416929960251,-0.017547830939292908,0.014596969820559025
1.7294981806507653e+18,0.03464942425489426,-0.014168848283588886,0.015737023204565048
1.7294981806597655e+18,0.02993965335190296,-0.01163279078900814,0.014205427840352058
1.7294981806687657e+18,0.026530301198363304,-0.013432048261165619,0.014316911809146404
1.7294981806747658e+18,0.02535421960055828,-0.013408037833869457,0.015012330375611782
1.729498180683766e+18,0.021119507029652596,-0.012011000886559486,0.012648310512304306
1.7294981806927662e+18,0.01795990765094757,-0.010660480707883835,0.01472393237054348
1.7294981807017664e+18,0.020274918526411057,-0.012284544296562672,0.013695117086172104
1.7294981807107666e+18,0.01920565776526928,-0.014105724170804024,0.015694918110966682
1.7294981807197668e+18,0.017947794869542122,-0.009560715407133102,0.01297838892787695
1.729498180728767e+18,0.015929071232676506,-0.012079348787665367,0.011881121434271336
1.7294981807377672e+18,0.01173147838562727,-0.007795429788529873,0.010038620792329311
1.7294981807467674e+18,0.0067223734222352505,-0.007873122580349445,0.012544351629912853
1.7294981807557676e+18,0.005508351139724255,-0.005450760945677757,0.012294219806790352
1.7294981807647677e+18,0.005047967657446861,-0.00549281993880868,0.011682920157909393
1.729498180773768e+18,0.007376684341579676,-0.00474784430116415,0.010718491859734058
1.729498180779768e+18,0.0048224544152617455,-0.006001274101436138,0.011502988636493683
1.7294981807887683e+18,0.006399688310921192,-0.0025473986752331257,0.00811727624386549
1.7294981807977684e+18,0.0038536766078323126,-0.002291197655722499,0.00999726727604866
1.7294981808067686e+18,0.0015033407835289836,-0.0017633892130106688,0.009357484988868237
1.7294981808157688e+18,-0.00016469170805066824,-0.005395581945776939,0.010930734686553478
1.729498180824769e+18,-0.0018731049494817853,0.0021317810751497746,0.010498281568288803
1.7294981808337692e+18,-0.0019565136171877384,-0.0011432113824412227,0.009464805945754051
1.7294981808427694e+18,-0.004756084177643061,0.0016443037893623114,0.008704621344804764
1.7294981808517696e+18,-0.0032414139714092016,0.002223379211500287,0.007450568489730358
1.7294981808607698e+18,-0.0035057328641414642,0.00366798578761518,0.009724120609462261
1.72949818086977e+18,-0.00014802569057792425,0.0011230511590838432,0.009551571682095528
1.7294981808787702e+18,-0.0032760347239673138,0.0017100910190492868,0.011025717481970787
1.7294981808877704e+18,-0.00043549685506150126,-0.003691952209919691,0.010485097765922546
1.7294981808967706e+18,-0.00017300539184361696,-0.003772048745304346,0.009231596253812313
1.7294981809057708e+18,-0.0024783757980912924,0.0013086618855595589,0.006426461040973663
1.729498180914771e+18,-0.0030814679339528084,0.0007354705594480038,0.006133642513304949
1.729498180920771e+18,-0.004361301194876432,0.0017323014326393604,0.006111422553658485
1.7294981809297713e+18,-0.0057314662262797356,0.00025930372066795826,0.010289099998772144
1.7294981809387715e+18,-0.006660054437816143,-0.0010441963095217943,0.006377806421369314
1.7294981809477716e+18,-0.005147235002368689,-0.001495101721957326,0.006695849355310202
1.7294981809567718e+18,-0.00407781358808279,-0.0033628232777118683,0.007590365130454302
1.729498180965772e+18,-0.00015072175301611423,-0.00028373091481626034,0.006402331404387951
1.7294981809747722e+18,-0.0025094044394791126,-0.0010608641896396875,0.004993049893528223
1.7294981809837724e+18,-0.005209238734096289,-0.0009926382917910814,0.009031862020492554
1.7294981809897725e+18,-0.005653114058077335,0.0037265541031956673,0.00657682167366147
1.7294981809987727e+18,-0.008260429836809635,0.001264254911802709,0.0048391008749604225
1.729498181007773e+18,-0.01023380272090435,0.006019382271915674,0.0054791937582194805
1.729498181016773e+18,-0.010193472728133202,0.005292748566716909,0.0076975636184215546
1.7294981810257733e+18,-0.00899555440992117,0.002716128248721361,0.004988339729607105
1.7294981810317734e+18,-0.008239855989813805,2.9028626158833504e-05,0.0062963031232357025
1.7294981810407736e+18,-0.002530590631067753,-0.0011215049307793379,0.003645273158326745
1.7294981810497738e+18,-0.0007380479946732521,0.0014719339087605476,0.006300816778093576
1.729498181058774e+18,-0.0030479077249765396,0.002457761438563466,0.005207240581512451
1.7294981810647741e+18,-0.0042102583684027195,0.0035016434267163277,0.005154693033546209
1.7294981810737743e+18,-0.008181099779903889,0.006153121590614319,0.004578716587275267
1.7294981810827745e+18,-0.01240973174571991,0.003320046467706561,0.0028788375202566385
1.7294981810917747e+18,-0.011177766136825085,0.0032061459496617317,0.003960532136261463
1.729498181100775e+18,-0.013558842241764069,0.002065305132418871,0.003481584135442972
1.729498181109775e+18,-0.013279433362185955,0.0064727310091257095,0.0020767946261912584
1.7294981811157752e+18,-0.012338121421635151,0.007540395949035883,0.003364655189216137
1.7294981811247754e+18,-0.007995391264557838,0.004470881074666977,0.0023656166158616543
1.7294981811337756e+18,-0.009848282672464848,0.005125083029270172,0.004222753923386335
1.7294981811427758e+18,-0.015585055574774742,0.004768558777868748,0.005194063298404217
1.729498181151776e+18,-0.01375561486929655,-0.0007938463240861893,0.0055612921714782715
1.7294981811607762e+18,-0.01752547174692154,0.0010823457268998027,0.004504446871578693
1.7294981811667763e+18,-0.0211555864661932,0.004245863761752844,0.0033678754698485136
1.7294981811757765e+18,-0.016314683482050896,0.0021639536134898663,0.002701412420719862
1.7294981811847767e+18,-0.018640775233507156,0.005300463177263737,0.0038476656191051006
1.7294981811907768e+18,-0.016019806265830994,0.007015364710241556,0.006057060789316893
1.729498181199777e+18,-0.017856791615486145,0.007084579672664404,0.002003174740821123
1.7294981812087772e+18,-0.018244143575429916,0.005899207200855017,0.0027033474761992693
1.7294981812177774e+18,-0.020154450088739395,0.009794631972908974,0.003372945822775364
1.7294981812237775e+18,-0.019683072343468666,0.003674437990412116,0.004786483012139797
1.7294981812327777e+18,-0.02239365130662918,0.005504196509718895,0.004101856146007776
1.729498181241778e+18,-0.024217994883656502,0.00766982464119792,0.002551678102463484
1.729498181247778e+18,-0.02113836072385311,0.00592249259352684,0.0015890687936916947
1.7294981812567782e+18,-0.025979753583669662,0.01110839657485485,0.001313072512857616
1.7294981812657784e+18,-0.02427942492067814,0.007498477585613728,0.0020019314251840115
1.7294981812747786e+18,-0.022177688777446747,0.009774135425686836,0.0016931190621107817
1.7294981812837788e+18,-0.02213645540177822,0.008893654681742191,0.003995656967163086
1.729498181289779e+18,-0.024937767535448074,0.007409256417304277,0.0014451537281274796
1.7294981812987791e+18,-0.02412945218384266,0.0030823489651083946,0.0029910942539572716
1.7294981813077793e+18,-0.023996347561478615,0.005516215693205595,0.002687241183593869
1.7294981813167795e+18,-0.02351967804133892,0.007870719768106937,0.0031590345315635204
1.7294981813257797e+18,-0.024520447477698326,0.005841837730258703,0.0012966606300324202
1.7294981813317798e+18,-0.02621910162270069,0.008705749176442623,-0.0016436856240034103
1.72949818134078e+18,-0.023724209517240524,0.012509039603173733,-0.0004030513809993863
1.7294981813497802e+18,-0.023514147847890854,0.011419852264225483,-0.0006651587318629026
1.7294981813587804e+18,-0.023416226729750633,0.009091039188206196,0.0031574796885252
1.7294981813677806e+18,-0.02288326993584633,0.008022580295801163,0.004708008840680122
1.7294981813737807e+18,-0.02192680351436138,0.006823902018368244,0.0028403415344655514
1.729498181382781e+18,-0.021008063107728958,0.007560423109680414,0.002245988231152296
1.729498181391781e+18,-0.020516367629170418,0.004642891231924295,0.003090813523158431
1.7294981813977812e+18,-0.01847173646092415,0.006067122798413038,0.0008947938913479447
1.7294981814067814e+18,-0.021486667916178703,0.009831465780735016,-0.00024561863392591476
1.7294981814157816e+18,-0.023254167288541794,0.0072554489597678185,0.00028901553014293313
1.7294981814217818e+18,-0.02224741503596306,0.01004480104893446,0.0019287497270852327
1.729498181430782e+18,-0.02554764784872532,0.010273940861225128,0.000990288215689361
1.7294981814397821e+18,-0.023308178409934044,0.01129864901304245,0.000291998905595392
1.7294981814457823e+18,-0.025481626391410828,0.008231796324253082,0.000543454079888761
1.7294981814547825e+18,-0.023094145581126213,0.007474209647625685,0.003983431030064821
1.7294981814637827e+18,-0.021535025909543037,0.00889081321656704,0.00023910164600238204
1.7294981814697828e+18,-0.024363631382584572,0.007208040915429592,0.0016197928925976157
1.729498181478783e+18,-0.021693367511034012,0.010111318901181221,0.0022041506599634886
1.729498181484783e+18,-0.02411789447069168,0.009000580757856369,0.001270522247068584
1.7294981814937833e+18,-0.024545587599277496,0.009081447497010231,0.0019315318204462528
1.7294981814997834e+18,-0.024247849360108376,0.0087980255484581,0.0015345700085163116
1.7294981815087836e+18,-0.02646910399198532,0.00957123376429081,0.00259754853323102
1.7294981815177838e+18,-0.02514699287712574,0.009015518240630627,0.0005562494043260813
1.729498181523784e+18,-0.024335553869605064,0.01002853736281395,0.0003407027979847044
1.7294981815357842e+18,-0.021499451249837875,0.009977046400308609,-0.0014489940367639065
1.7294981815447844e+18,-0.025080764666199684,0.008240776136517525,0.002726458478718996
1.7294981815507845e+18,-0.0256898682564497,0.0085371695458889,0.0005197025020606816
1.7294981815597847e+18,-0.025387253612279892,0.008726168423891068,-0.0007295212708413601
1.7294981815657848e+18,-0.025587623938918114,0.0077592916786670685,-0.0016519222408533096
1.729498181574785e+18,-0.026185879483819008,0.01281878910958767,-0.0006231539882719517
1.7294981815837852e+18,-0.023607896640896797,0.01261219009757042,0.002591146621853113
1.7294981815897853e+18,-0.02534923329949379,0.009023047052323818,-0.0009047393104992807
1.7294981815987855e+18,-0.027277305722236633,0.01200129371136427,-0.0018043068703263998
1.7294981816077857e+18,-0.025721756741404533,0.011351552791893482,0.0007367415237240493
1.7294981816137859e+18,-0.02810055948793888,0.007783878594636917,0.00037512622657231987
1.729498181622786e+18,-0.027442730963230133,0.01085751038044691,0.001510967151261866
1.7294981816317862e+18,-0.026169024407863617,0.014529055915772915,0.0008181160083040595
1.7294981816407864e+18,-0.026417532935738564,0.010966148227453232,0.0005249358946457505
1.7294981816497866e+18,-0.025412853807210922,0.00806503091007471,-0.002488095546141267
1.7294981816587868e+18,-0.022785311564803123,0.010803993791341782,-0.0002509000478312373
1.729498181664787e+18,-0.029298439621925354,0.010434689000248909,-0.00034560897620394826
1.7294981816737871e+18,-0.030224135145545006,0.010876343585550785,8.512113709002733e-05
1.7294981816827873e+18,-0.03297562897205353,0.011804195120930672,0.0014290675753727555
1.7294981816917875e+18,-0.032946038991212845,0.011296041309833527,1.382386835757643e-05
1.7294981816977876e+18,-0.03177546337246895,0.009507911279797554,-0.0025425711646676064
1.7294981817067878e+18,-0.03420327231287956,0.007678580470383167,0.0016469333786517382
1.729498181715788e+18,-0.028539452701807022,0.008516400121152401,0.001304573961533606
1.7294981817217882e+18,-0.028068330138921738,0.009010856039822102,-0.00028626472339965403
1.7294981817307884e+18,-0.031903158873319626,0.012028051540255547,0.0002253152197226882
1.7294981817397885e+18,-0.03090272843837738,0.01094804611057043,-0.0002621716703288257
1.7294981817487887e+18,-0.030940543860197067,0.010272674262523651,-0.0014190003275871277
1.729498181757789e+18,-0.030199747532606125,0.010423246771097183,-0.0014313994906842709
1.729498181763789e+18,-0.03084874339401722,0.011305668391287327,0.0007713407976552844
1.7294981817727892e+18,-0.02873294986784458,0.010210910812020302,0.0005816688644699752
1.7294981817817894e+18,-0.03163868561387062,0.014895439147949219,-8.205445919884369e-05
1.7294981817907896e+18,-0.02594166062772274,0.014934442937374115,-0.0012679999927058816
1.7294981817997898e+18,-0.028052356094121933,0.016732454299926758,-0.00032358820317313075
1.72949818180879e+18,-0.022948432713747025,0.014484448358416557,0.0010299081914126873
1.7294981818177902e+18,-0.02818344533443451,0.011429143138229847,0.0012373713543638587
1.7294981818267904e+18,-0.02938634343445301,0.011424925178289413,0.0008413498871959746
1.7294981818327905e+18,-0.028391901403665543,0.010979857295751572,0.00023006701667327434
1.7294981818417907e+18,-0.028846334666013718,0.009289782494306564,-0.00012433109804987907
1.7294981818477908e+18,-0.0313892625272274,0.011496249586343765,-0.00019564219110179693
1.729498181856791e+18,-0.03019925206899643,0.01233354490250349,-0.00010649330215528607
1.7294981818657912e+18,-0.028115561231970787,0.014291806146502495,0.001558824209496379
1.7294981818747914e+18,-0.027547825127840042,0.01391194574534893,-0.0017289783572778106
1.7294981818807916e+18,-0.024685842916369438,0.016342364251613617,-0.001883622258901596
1.7294981818897917e+18,-0.02722272090613842,0.013866180554032326,-0.0003728782758116722
1.729498181898792e+18,-0.029851071536540985,0.016368160024285316,0.0010250310879200697
1.7294981819077921e+18,-0.028901979327201843,0.01597088947892189,0.0007509418064728379
1.7294981819167923e+18,-0.03222751244902611,0.016049614176154137,0.002469457918778062
1.7294981819227924e+18,-0.028791703283786774,0.016884036362171173,-0.0022472019772976637
1.7294981819317926e+18,-0.026574410498142242,0.011293124407529831,0.0024941647425293922
1.7294981819407928e+18,-0.026583639904856682,0.013547313399612904,0.0025494559668004513
1.729498181946793e+18,-0.02714819274842739,0.013266099616885185,-0.0016670261975377798
1.7294981819557932e+18,-0.026561692357063293,0.01287945918738842,0.0005268867826089263
1.7294981819647933e+18,-0.027976704761385918,0.012356141582131386,-0.0036056614480912685
1.7294981819707935e+18,-0.026355033740401268,0.01332405861467123,-0.0005322601646184921
1.7294981819797937e+18,-0.027039099484682083,0.015967300161719322,0.0007037641480565071
1.7294981819857938e+18,-0.02562663145363331,0.011392274871468544,0.00034026504727080464
1.729498181994794e+18,-0.02839037962257862,0.012980443425476551,-0.005908472463488579
1.7294981820037942e+18,-0.026721900328993797,0.011300173588097095,-0.0008181296288967133
1.7294981820097943e+18,-0.02856285311281681,0.012785609811544418,-0.0004659239202737808
1.7294981820187945e+18,-0.025434371083974838,0.010398829355835915,-0.00184254115447402
1.7294981820277947e+18,-0.02462102845311165,0.013413251377642155,-0.0009515403071418405
1.7294981820337948e+18,-0.02454150840640068,0.010728142224252224,-0.0021535709965974092
1.729498182042795e+18,-0.02218322828412056,0.016233080998063087,-0.00031419022707268596
1.7294981820517952e+18,-0.023650692775845528,0.014537661336362362,-0.00102045142557472
1.7294981820607954e+18,-0.026669828221201897,0.013512302190065384,-0.000252999976510182
1.7294981820667955e+18,-0.03043120540678501,0.011612181551754475,-0.00019672978669404984
1.7294981820757957e+18,-0.030333776026964188,0.011611240915954113,-6.855983519926667e-05
1.729498182084796e+18,-0.027865538373589516,0.005612170323729515,-0.0011622720630839467
1.729498182090796e+18,-0.02759317308664322,0.009573163464665413,-0.0016865339130163193
1.7294981820997962e+18,-0.023571303114295006,0.008658979088068008,-0.0016760621219873428
1.7294981821087964e+18,-0.022314297035336494,0.010282042436301708,-0.0006828224286437035
1.7294981821147965e+18,-0.021954413503408432,0.013030129484832287,0.002981310710310936
1.7294981821237967e+18,-0.022324036806821823,0.015235981903970242,-0.0012610580306500196
1.729498182132797e+18,-0.0252850204706192,0.006511258892714977,-0.0016990547301247716
1.729498182141797e+18,-0.027724361047148705,0.010820567607879639,-0.0025939177721738815
1.7294981821477972e+18,-0.02227514423429966,0.006225347053259611,-0.0011233461555093527
1.7294981821567974e+18,-0.02224629558622837,0.006954133976250887,-0.002678411081433296
1.7294981821627976e+18,-0.021777942776679993,0.0064859092235565186,-6.917235441505909e-05
1.7294981821717978e+18,-0.020792314782738686,0.012172305025160313,0.0013385609490796924
1.729498182177798e+18,-0.021885745227336884,0.013075907714664936,0.000825036724563688
1.729498182186798e+18,-0.022460298612713814,0.014835594221949577,-0.0013882172061130404
1.7294981821957983e+18,-0.023025119677186012,0.010280271992087364,-0.003179879393428564
1.7294981822017984e+18,-0.02362506277859211,0.009385524317622185,-0.0008034919737838209
1.7294981822107986e+18,-0.02015805058181286,0.011146404780447483,-0.0032544760033488274
1.7294981822197988e+18,-0.019619513303041458,0.0068284678272902966,-0.000401811848860234
1.729498182228799e+18,-0.01954694092273712,0.004672654904425144,-0.0009693853207863867
1.729498182234799e+18,-0.019815335050225258,0.01047980785369873,-0.004663115832954645
1.7294981822437993e+18,-0.020775290206074715,0.009831547737121582,0.0004526764387264848
1.7294981822497994e+18,-0.023858247324824333,0.01089762058109045,0.00010155769996345043
1.7294981822587996e+18,-0.022938087582588196,0.015661586076021194,-0.002131111454218626
1.7294981822677998e+18,-0.018208539113402367,0.008234548382461071,-0.0019503652583807707
1.7294981822738e+18,-0.020166009664535522,0.009200237691402435,0.0005548675544559956
1.7294981822828e+18,-0.01613292470574379,0.009890503250062466,-0.00022995990002527833
1.7294981822918003e+18,-0.017244169488549232,0.010172492824494839,-0.0023146369494497776
1.7294981822978004e+18,-0.01869801990687847,0.010914874263107777,-0.0010592530015856028
1.7294981823068006e+18,-0.019166124984622,0.010019617155194283,-0.0006431842921301723
1.7294981823158008e+18,-0.02256723865866661,0.014371532946825027,-0.00023949588648974895
1.729498182324801e+18,-0.02626190520823002,0.016374031081795692,-0.001999827101826668
1.7294981823308012e+18,-0.025153059512376785,0.014147256501019001,-0.0005848113796673715
1.7294981823398013e+18,-0.020580096170306206,0.014638634398579597,-0.00024143722839653492
1.7294981823458015e+18,-0.020028376951813698,0.014245308004319668,-0.005111320875585079
1.7294981823548017e+18,-0.015169751830399036,0.011804632842540741,-0.003083194373175502
1.7294981823638019e+18,-0.01791411265730858,0.009098213165998459,-0.00436835503205657
1.729498182372802e+18,-0.015696024522185326,0.008380306884646416,-0.00161404674872756
1.7294981823818022e+18,-0.019052309915423393,0.012262560427188873,-0.0027978364378213882
1.7294981823878024e+18,-0.0169456135481596,0.0108040114864707,-0.0005133400554768741
1.7294981823968026e+18,-0.018977612257003784,0.014619208872318268,-0.001103358925320208
1.7294981824028027e+18,-0.019526734948158264,0.015993637964129448,0.00010825647041201591
1.729498182411803e+18,-0.017107443884015083,0.013199562206864357,-0.001306074671447277
1.729498182417803e+18,-0.018460029736161232,0.012368934229016304,0.0015490602236241102
1.7294981824268032e+18,-0.013584842905402184,0.010902898386120796,-0.00012813712237402797
1.7294981824358034e+18,-0.011357628740370274,0.008074862882494926,-0.0034809978678822517
1.7294981824448036e+18,-0.013072581961750984,0.009094594977796078,-0.0033344943076372147
1.7294981824508037e+18,-0.010495691560208797,0.005869132000952959,-0.0024535316042602062
1.729498182459804e+18,-0.017197057604789734,0.008606653660535812,-0.003180722240358591
1.729498182468804e+18,-0.017226481810212135,0.01259985938668251,-0.0035437922924757004
1.7294981824748042e+18,-0.015800271183252335,0.011540684849023819,-0.002531867939978838
1.7294981824838044e+18,-0.018303558230400085,0.008976154029369354,-0.002136760391294956
1.7294981824928046e+18,-0.016482459381222725,0.008537151850759983,-0.0012319015804678202
1.7294981825018048e+18,-0.0113277118653059,0.006753044668585062,-0.00342843821272254
1.729498182507805e+18,-0.013292217627167702,0.007430810946971178,-0.00021402386482805014
1.729498182516805e+18,-0.010884042829275131,0.009087597951292992,-0.0011357818730175495
1.7294981825228052e+18,-0.008968253619968891,0.006587757728993893,-0.0005331719294190407
1.7294981825318054e+18,-0.010237512178719044,0.008410628885030746,-0.0018134270794689655
1.7294981825408056e+18,-0.009147250093519688,0.00776869198307395,-0.0023689717054367065
1.729498182552806e+18,-0.009621336124837399,0.004435223061591387,0.0010723758023232222
1.729498182558806e+18,-0.006945974193513393,0.001938037807121873,0.001812929636798799
1.7294981825708063e+18,-0.0035966280847787857,0.006298160180449486,-0.0007570849847979844
1.7294981825798065e+18,-0.0043089734390378,0.0026674731634557247,0.0015138470334932208
1.7294981825888067e+18,-0.00627761147916317,0.0030689535196870565,-0.000484040763694793
1.7294981825948068e+18,-0.0068089342676103115,0.003821508726105094,0.0003087515360675752
1.729498182603807e+18,-0.007019686512649059,0.005233327858150005,-0.0006421494763344526
1.7294981826128072e+18,-0.008345908485352993,-0.00029452797025442123,-0.0013130959123373032
1.7294981826188073e+18,-0.008340438827872276,0.004312833771109581,-0.00036012366763316095
1.7294981826308076e+18,-0.007955990731716156,0.00300147058442235,0.0005435096682049334
1.7294981826368077e+18,-0.008054498583078384,0.0008818667847663164,3.5698467399924994e-05
1.7294981826458079e+18,-0.006371292285621166,0.0017895677592605352,-0.0023298845626413822
1.729498182651808e+18,-0.006878619082272053,0.0031660781241953373,-0.0011070064501836896
1.7294981826608082e+18,-0.007987371645867825,0.0029063941910862923,-0.0018885696772485971
1.7294981826698084e+18,-0.005115998908877373,0.00304931472055614,-0.0017628760542720556
1.7294981826758085e+18,-0.006905605085194111,0.0024841472040861845,0.00040346046444028616
1.7294981826848087e+18,-0.0054262480698525906,0.0012164923828095198,0.002103795763105154
1.7294981826908088e+18,-0.0033441251143813133,0.0008085177978500724,-0.0008410107111558318
1.729498182699809e+18,-0.0037831380032002926,0.00038756406866014004,0.0007768389768898487
1.7294981827088092e+18,-0.003406705567613244,0.0012447225162759423,-0.0007902713259682059
1.7294981827148093e+18,-0.00455020135268569,0.00371257564984262,-0.0012898658169433475
1.7294981827238095e+18,-0.001386807532981038,0.005857520271092653,-0.0016200323589146137
1.7294981827328097e+18,-0.0011249836534261703,0.005598967429250479,-0.0008166392799466848
1.72949818274181e+18,-0.0024884261656552553,0.004939518868923187,-0.0018445157911628485
1.72949818274781e+18,0.0010507728438824415,0.004663038998842239,0.0023409381974488497
1.7294981827568102e+18,-0.0010963864624500275,0.0016012219712138176,-0.0020616059191524982
1.7294981827658104e+18,-0.002934784861281514,0.001767155947163701,-6.107043009251356e-05
1.7294981827718106e+18,-0.0012068760115653276,-5.4537144023925066e-05,-0.0003681831294670701
1.7294981827808108e+18,-0.0016696846578270197,-0.0016298162518069148,-0.0008418862707912922
1.729498182789811e+18,-0.0038055446930229664,0.0017522703856229782,0.00023453234462067485
1.729498182795811e+18,-0.0008445650455541909,0.00284179812297225,-0.002071199705824256
1.7294981828048113e+18,-0.0014512435300275683,0.005798434838652611,-0.0014516967348754406
1.7294981828138115e+18,0.0008081162814050913,0.0056142304092645645,0.00014567922335118055
1.7294981828198116e+18,-0.0039873383939266205,0.006395069882273674,-7.248105248436332e-05
1.7294981828288118e+18,-0.00012848505866713822,0.006837034597992897,0.0016687437891960144
1.729498182834812e+18,-0.0020661531016230583,0.0024044152814894915,-0.00039422325789928436
1.729498182843812e+18,0.0016666923183947802,8.532777428627014e-06,-0.001607048325240612
1.7294981828528123e+18,-0.0007297976408153772,-0.0015188170364126563,-0.0010894228471443057
1.7294981828588124e+18,0.0024741850793361664,0.0004029584815725684,-2.5768298655748367e-05
1.7294981828678126e+18,0.00203210418112576,0.0018348179291933775,-0.0019299981649965048
1.7294981828738127e+18,0.0021678218618035316,0.005954021587967873,0.00041123409755527973
1.729498182882813e+18,0.0014846175909042358,0.0055249896831810474,-0.00044572167098522186
1.729498182891813e+18,0.00264657661318779,0.004685580730438232,-0.0019055935554206371
1.7294981828978132e+18,0.0013383241603150964,0.005981034599244595,-0.002523931674659252
1.7294981829068134e+18,0.002560907043516636,0.0014296224107965827,-0.0010840017348527908
1.7294981829128136e+18,0.004933299031108618,0.0011349936248734593,0.00027239497285336256
1.7294981829218138e+18,0.006084524095058441,-0.0009357048547826707,-0.0008747443789616227
1.729498182927814e+18,0.005926766432821751,-0.0016492039430886507,0.0009113576961681247
1.729498182936814e+18,0.005920011084526777,-0.0010367839131504297,-0.0015652170404791832
1.7294981829458143e+18,0.0035518044605851173,-0.0030657791066914797,-0.0001090512378141284
1.7294981829548145e+18,0.002828586380928755,4.253053339198232e-05,-0.0014536618255078793
1.7294981829608146e+18,0.0028470507822930813,0.0005743562942370772,-0.0012954064877703786
1.7294981829698148e+18,0.0028203760739415884,-0.0003749096067622304,-0.0011747753014788032
1.729498182975815e+18,0.004281935282051563,0.00020417984342202544,0.0010834147688001394
1.729498182984815e+18,0.004700282588601112,-0.002763739787042141,-0.0019741530995815992
1.7294981829938153e+18,0.004584122449159622,-0.00035925384145230055,-0.004889952018857002
1.7294981830028155e+18,0.007301474921405315,-0.0006090889219194651,-0.001277280505746603
1.7294981830088156e+18,0.004891239572316408,-0.002662783721461892,0.0003960140747949481
1.7294981830178158e+18,0.009086227975785732,-0.0018354046624153852,-0.0014543125871568918
1.729498183026816e+18,0.00956739205867052,0.0005733721191063523,0.0002596488920971751
1.729498183032816e+18,0.010110081173479557,0.0010112131712958217,-0.0015841081039980054
1.7294981830418163e+18,0.012037359178066254,-0.0006615262245759368,6.209022831171751e-05
1.7294981830508165e+18,0.010517150163650513,0.0010552548337727785,-0.003043915843591094
1.7294981830598167e+18,0.011141546070575714,-0.0006979320314712822,0.0005894184578210115
1.729498183071817e+18,0.006938568316400051,-0.0031277243979275227,-0.0029366477392613888
1.729498183077817e+18,0.010148776695132256,-0.0034831902012228966,0.002751363441348076
1.7294981830868173e+18,0.00921034999191761,-0.0017442117678001523,-0.00038442324148491025
1.7294981830958175e+18,0.012584855780005455,-0.003454321064054966,-0.0012834204826503992
1.7294981831018176e+18,0.010695882141590118,-0.001030673854984343,0.0009207195835188031
1.7294981831108178e+18,0.016706528142094612,-0.003931060899049044,0.0010650960030034184
1.729498183119818e+18,0.015214910730719566,-0.005048592574894428,-0.002285382244735956
1.729498183125818e+18,0.011826102621853352,-0.00431269034743309,-0.001100619905628264
1.7294981831348183e+18,0.010877381078898907,-0.0038691088557243347,0.00012412795331329107
1.7294981831468186e+18,0.005403109360486269,-0.0013431049883365631,0.0009538818849250674
1.7294981831558188e+18,0.007863428443670273,-0.0037207072600722313,-0.001155754434876144
1.729498183161819e+18,0.007487643975764513,0.001554527087137103,0.0007192215416580439
1.729498183170819e+18,0.013697026297450066,-0.005090780556201935,-0.00040382141014561057
1.7294981831798193e+18,0.014714156277477741,-0.004930133931338787,-0.0006331230979412794
1.7294981831858194e+18,0.014986670576035976,-0.0014796331524848938,-0.0023824493400752544
1.7294981831948196e+18,0.01349529717117548,-0.005832565948367119,-0.0011800738284364343
1.7294981832038198e+18,0.010184845887124538,-0.004038582090288401,-0.0010967840207740664
1.72949818321282e+18,0.0061125075444579124,-0.003748855786398053,-0.000684949685819447
1.72949818321882e+18,0.006783822551369667,-0.0009140124311670661,-0.00011166249169036746
1.7294981832278203e+18,0.00899050198495388,-0.0004034640733152628,9.060953743755817e-05
1.7294981832338204e+18,0.005512266419827938,0.00038287509232759476,0.000459585920907557
1.7294981832428206e+18,0.014207561500370502,-0.0017918183002620935,0.002198506146669388
1.7294981832488207e+18,0.012095155194401741,-0.006752447225153446,-0.0010404406348243356
1.729498183257821e+18,0.010803334414958954,-0.007509688846766949,-0.0022271894849836826
1.729498183266821e+18,0.00799915473908186,-0.01276971586048603,-1.8018530681729317e-05
1.7294981832728212e+18,0.0060640256851911545,-0.00863186176866293,-0.00019694160437211394
1.7294981832848215e+18,0.008182795718312263,-0.005700080655515194,-0.0008701817132532597
1.7294981832968218e+18,0.014348689466714859,-0.006177528761327267,0.0012187123065814376
1.729498183302822e+18,0.013023939915001392,-0.00418194942176342,-0.0019488835241645575
1.729498183311822e+18,0.011498862877488136,-0.005820699967443943,-0.0016166240675374866
1.7294981833208223e+18,0.01220632903277874,-0.009315498173236847,-0.0040773507207632065
1.7294981833268224e+18,0.009968184866011143,-0.01197429746389389,0.0004723076708614826
1.7294981833358226e+18,0.009795129299163818,-0.00884098932147026,-0.0019614144694060087
1.7294981833448228e+18,0.010455193929374218,-0.0075235492549836636,-0.0013513397425413132
1.729498183350823e+18,0.012381174601614475,-0.004881763830780983,0.000631911214441061
1.729498183359823e+18,0.012673229910433292,-0.002421305049210787,0.0005239576566964388
1.7294981833658232e+18,0.014964383095502853,-0.0019290053751319647,-0.003623474854975939
1.7294981833748234e+18,0.013916190713644028,-0.003934208769351244,0.0003897076239809394
1.7294981833808236e+18,0.01425197720527649,-0.005897261667996645,-0.0023760409094393253
1.7294981833898237e+18,0.011361783370375633,-0.00691224867478013,-0.000990210217423737
1.729498183398824e+18,0.0097205750644207,-0.00783372949808836,1.2461096048355103e-06
1.729498183404824e+18,0.013347439467906952,-0.007423761300742626,0.003681704867631197
1.7294981834138243e+18,0.012791834771633148,-0.009040246717631817,-0.0036179409362375736
1.7294981834228244e+18,0.016519201919436455,-0.005740425083786249,0.0010173553600907326
1.7294981834318246e+18,0.015317108482122421,-0.006611596792936325,-0.0005140831344760954
1.7294981834378248e+18,0.01790178008377552,-0.006269095465540886,-0.0013436258304864168
1.729498183446825e+18,0.015129988081753254,-0.00559901213273406,0.0011169543722644448
1.7294981834558252e+18,0.014451014809310436,-0.00534593453630805,-0.0002047795569524169
1.7294981834618253e+18,0.011331048794090748,-0.00549488328397274,-0.0010386743815615773
1.7294981834768256e+18,0.01063518412411213,-0.0078543396666646,-0.003972838632762432
1.7294981834858258e+18,0.018004555255174637,-0.009489510208368301,-0.0028571845032274723
1.729498183494826e+18,0.018666423857212067,-0.011088165454566479,0.0032983100973069668
1.729498183500826e+18,0.018269099295139313,-0.007657169830054045,-0.0013221204280853271
1.7294981835098263e+18,0.015853341668844223,-0.00701867463067174,-0.0026693083345890045
1.7294981835188265e+18,0.014393708668649197,-0.005115376319736242,-0.0002768407575786114
1.7294981835248266e+18,0.01593620888888836,-0.006759054493159056,-0.003174402052536607
1.7294981835338268e+18,0.012430692091584206,-0.0029349387623369694,0.0005349925486370921
1.729498183542827e+18,0.011379769071936607,-0.008054212667047977,0.00024935684632509947
1.7294981835488271e+18,0.016483351588249207,-0.007470750715583563,-0.0019813247490674257
1.7294981835578273e+18,0.018789920955896378,-0.009117430076003075,-0.0005210257368162274
1.7294981835668275e+18,0.018271714448928833,-0.00806976854801178,-0.0017686195205897093
1.7294981835728276e+18,0.016701657325029373,-0.009576074779033661,-0.0043392605148255825
1.7294981835818278e+18,0.015382964164018631,-0.005391618702560663,0.003941258881241083
1.729498183590828e+18,0.014810790307819843,-0.004427030682563782,-0.003907783888280392
1.7294981835968282e+18,0.010991931892931461,-0.0024797169025987387,-0.0005096998065710068
1.7294981836058284e+18,0.01447284035384655,-0.00405262503772974,0.0022581114899367094
1.7294981836118285e+18,0.013175654225051403,-0.00712625915184617,-0.0017555980011820793
1.7294981836208287e+18,0.014385956339538097,-0.007371209561824799,-0.0027709645219147205
1.7294981836298289e+18,0.015803588554263115,-0.00973079726099968,-0.0013318192213773727
1.729498183635829e+18,0.015521670691668987,-0.007088698912411928,-0.0015678313793614507
1.7294981836448292e+18,0.014863984659314156,-0.009036165662109852,-0.003322451375424862
1.7294981836538294e+18,0.012043533846735954,-0.003591507440432906,0.00037055875873193145
1.7294981836598295e+18,0.015285225585103035,-0.004651649855077267,-0.0032698449213057756
1.7294981836688297e+18,0.01081925630569458,-0.0052245007827878,-0.0006928220391273499
1.7294981836748298e+18,0.011837827041745186,-0.003260883968323469,-0.004867423791438341
1.72949818368383e+18,0.009638234041631222,-0.008953857235610485,-0.0014370125718414783
1.7294981836928302e+18,0.01239132508635521,-0.009074180386960506,-0.0015315674245357513
1.7294981837018304e+18,0.015453950501978397,-0.008374987170100212,-0.001589152729138732
1.7294981837078305e+18,0.012607975862920284,-0.0071222237311303616,-0.0021466955076903105
1.7294981837168307e+18,0.015452368184924126,-0.005263478495180607,-0.0015387408202514052
1.729498183725831e+18,0.011906330473721027,-0.00563775934278965,-0.0011897290823981166
1.729498183734831e+18,0.015218043699860573,-0.0034276919905096292,-0.0008778797928243876
1.7294981837408312e+18,0.01041414774954319,-0.006416531279683113,-0.0005335366004146636
1.7294981837498314e+18,0.00878906063735485,-0.0037998007610440254,0.0016387967625632882
1.7294981837558316e+18,0.014007904566824436,-0.004573552869260311,0.0010549381840974092
1.7294981837648317e+18,0.016561584547162056,-0.007851211354136467,-0.0011215971317142248
1.729498183773832e+18,0.02096453867852688,-0.007269346155226231,0.0023336217273026705
1.729498183779832e+18,0.022153735160827637,-0.005541128106415272,-0.0011574459495022893
1.7294981837888323e+18,0.01981939747929573,-0.0033702305518090725,-0.0009558133315294981
1.7294981837948324e+18,0.019907617941498756,-0.007651328109204769,-0.0027689263224601746
1.7294981838038326e+18,0.01785358041524887,-0.005560957361012697,-0.001201375387609005
1.7294981838128328e+18,0.02021365612745285,-0.008129730820655823,0.002647663000971079
1.729498183821833e+18,0.01725030690431595,-0.010635368525981903,-0.0027804772835224867
1.7294981838308332e+18,0.01573624461889267,-0.008465372025966644,-0.00024757374194450676
1.7294981838368333e+18,0.016602197661995888,-0.011721551418304443,-0.0005422959802672267
1.7294981838458335e+18,0.0198198389261961,-0.007201798260211945,-0.003968336153775454
1.7294981838518336e+18,0.0195672195404768,-0.008805190213024616,-0.0009499789448454976
1.7294981838608338e+18,0.02090880088508129,-0.011438815854489803,-0.0019334186799824238
1.729498183869834e+18,0.017882296815514565,-0.012087454088032246,-0.00034204640542156994
1.729498183875834e+18,0.017506299540400505,-0.010955789126455784,-0.0006246659904718399
1.7294981838848343e+18,0.01401272788643837,-0.012914548628032207,0.0017216622363775969
1.7294981838938345e+18,0.014229225926101208,-0.00709778955206275,0.0040312171913683414
1.7294981839028347e+18,0.012789148837327957,-0.009914864785969257,-0.0024195783771574497
1.7294981839088348e+18,0.014465553686022758,-0.00536701176315546,0.0010944734094664454
1.729498183917835e+18,0.016489742323756218,-0.011525189504027367,-0.0004615332290995866
1.7294981839268352e+18,0.018195245414972305,-0.01034750510007143,0.0010037210304290056
1.7294981839358354e+18,0.01687808893620968,-0.01058039627969265,0.00033548910869285464
1.7294981839418355e+18,0.01773056574165821,-0.011195534840226173,0.0006558126187883317
1.7294981839508357e+18,0.016719650477170944,-0.012026671320199966,-0.0014998185215517879
1.7294981839568358e+18,0.01533872913569212,-0.009948677383363247,-0.003408970544114709
1.729498183965836e+18,0.016421722248196602,-0.008149531669914722,0.00043478148290887475
1.7294981839718362e+18,0.015197090804576874,-0.009427710436284542,0.00040097953751683235
1.7294981839808364e+18,0.018481699749827385,-0.006583244074136019,-0.0002647187211550772
1.7294981839898365e+18,0.022042999044060707,-0.007666269317269325,-0.0017139108385890722
1.7294981839958367e+18,0.020535767078399658,-0.008543310686945915,-0.00504657719284296
1.7294981840048369e+18,0.01751241646707058,-0.01154965441673994,0.0011403067037463188
1.729498184013837e+18,0.018359480425715446,-0.008467373438179493,-0.0010773120447993279
1.7294981840198372e+18,0.021015049889683723,-0.010357423685491085,0.0005649435915984213
1.7294981840288374e+18,0.015207231044769287,-0.010158552788197994,-0.0012912092497572303
1.7294981840378376e+18,0.018097873777151108,-0.011185483075678349,-0.001879713498055935
1.7294981840438377e+18,0.01834278367459774,-0.010222349315881729,-0.0027181406039744616
1.729498184052838e+18,0.020187238231301308,-0.01149333082139492,-0.0026623248122632504
1.729498184061838e+18,0.02127007581293583,-0.009876702912151814,0.0002961715217679739
1.7294981840708383e+18,0.01813671737909317,-0.00683031277731061,0.00027666345704346895
1.7294981840768384e+18,0.01769871637225151,-0.005814540199935436,-0.0029215477406978607
1.7294981840858386e+18,0.01766813173890114,-0.004166249185800552,0.0020773480646312237
1.7294981840948388e+18,0.015083758160471916,-0.008130885660648346,-0.00016245077131316066
1.729498184103839e+18,0.015640292316675186,-0.00894083734601736,-0.004866126459091902
1.729498184109839e+18,0.015864117071032524,-0.012834230437874794,0.001075836829841137
1.7294981841188393e+18,0.016599159687757492,-0.012756667099893093,-5.803105887025595e-05
1.7294981841278395e+18,0.01928030326962471,-0.010732376947999,-0.002942976076155901
1.7294981841338396e+18,0.018918270245194435,-0.008264354430139065,-0.000635557051282376
1.7294981841428398e+18,0.017350852489471436,-0.008508171886205673,0.0011828599963337183
1.72949818414884e+18,0.018597818911075592,-0.006100180093199015,-0.0024942911695688963
1.7294981841578401e+18,0.012518858537077904,-0.006903599016368389,-0.0031651463359594345
1.7294981841668403e+18,0.008514778688549995,-0.006345964036881924,-0.0012722761603072286
1.7294981841728404e+18,0.012385081499814987,-0.00727162417024374,0.0008709760732017457
1.7294981841818406e+18,0.014359829016029835,-0.009165053255856037,-0.000386893458198756
1.7294981841878408e+18,0.017399610951542854,-0.005159410648047924,-2.9103015549480915e-05
1.729498184196841e+18,0.017858272418379784,-0.005781348794698715,0.0016830296954140067
1.7294981842058412e+18,0.015116313472390175,-0.008508382365107536,-0.0009756831568665802
1.7294981842118413e+18,0.017809223383665085,-0.009019340388476849,-0.0025015021674335003
1.7294981842208415e+18,0.014401009306311607,-0.0026655748952180147,-0.00233753165230155
1.7294981842268416e+18,0.01665171980857849,-0.005902472883462906,-0.0012224758975207806
1.7294981842358418e+18,0.012466062791645527,-0.00266124214977026,0.0008207951905205846
1.729498184244842e+18,0.013072310015559196,-0.00395980104804039,0.0022407998330891132
1.729498184250842e+18,0.009059986099600792,-0.005843033082783222,-0.0005633800174109638
1.7294981842598423e+18,0.009936677291989326,-0.0064303819090127945,-0.0001265043392777443
1.7294981842688425e+18,0.018260003998875618,-0.008676530793309212,-0.0014498645905405283
1.7294981842748426e+18,0.019885968416929245,-0.012284856289625168,-0.0015534712001681328
1.7294981842838428e+18,0.016834434121847153,-0.006932880729436874,-0.004223039839416742
1.729498184292843e+18,0.014472143724560738,-0.007239631377160549,-0.0019440504256635904
1.7294981842988431e+18,0.01322062499821186,-0.007719732820987701,0.00010687753092497587
1.7294981843078433e+18,0.013376662507653236,-0.004908137954771519,0.00031642516842111945
1.7294981843138435e+18,0.013347946107387543,-0.006281157955527306,-1.6336736734956503e-05
1.7294981843228436e+18,0.01118577178567648,-0.0052226511761546135,-0.0032622204162180424
1.7294981843288438e+18,0.012853448279201984,-0.008797022514045238,-0.0020167939364910126
1.729498184337844e+18,0.017299549654126167,-0.009148327633738518,2.968695480376482e-05
1.7294981843468442e+18,0.017753180116415024,-0.010132449679076672,0.00018177885795012116
1.7294981843528443e+18,0.017589643597602844,-0.006010476034134626,0.002060310449451208
1.7294981843618445e+18,0.015821058303117752,-0.002596507780253887,8.961994899436831e-05
1.7294981843708447e+18,0.014867262914776802,-0.006000923458486795,-0.0019922382198274136
1.7294981843768448e+18,0.011782629415392876,-0.00691075436770916,0.0006169438129290938
1.729498184391845e+18,0.013097015209496021,-0.007512067444622517,-0.0026550469920039177
1.7294981844038454e+18,0.0138617642223835,-0.008487406186759472,-0.0018417787505313754
1.7294981844158456e+18,0.017364617437124252,-0.0076187653467059135,0.0023364953231066465
1.7294981844248458e+18,0.013485586270689964,-0.0072456891648471355,-0.00258406694047153
1.729498184430846e+18,0.0158829428255558,-0.006312961224466562,-0.0013294649543240666
1.7294981844398461e+18,0.016276739537715912,-0.006535843480378389,0.0017539127729833126
1.7294981844488463e+18,0.011989634484052658,-0.004378036130219698,-0.0022690363693982363
1.7294981844548465e+18,0.012344874441623688,-0.007105918601155281,0.0007576409261673689
1.7294981844638467e+18,0.006905130110681057,-0.005381267052143812,-0.0004579455708153546
1.729498184475847e+18,0.012920446693897247,-0.007942186668515205,0.00016384467016905546
1.729498184481847e+18,0.01337237749248743,-0.004324260633438826,-0.0008023571572266519
1.7294981844908472e+18,0.016839373856782913,-0.006678303703665733,0.0008789334096945822
1.7294981844998474e+18,0.015820054337382317,-0.005366903729736805,0.00145472283475101
1.7294981845058476e+18,0.016439827159047127,-0.006502182688564062,-0.0022985460236668587
1.7294981845148477e+18,0.012173386290669441,-0.007159917149692774,-0.0007681379793211818
1.729498184523848e+18,0.008722462691366673,-0.008338995277881622,-0.00010052722063846886
1.7294981845358482e+18,0.007171718403697014,-0.005351942498236895,0.0005801040679216385
1.7294981845448484e+18,0.01047246903181076,-0.0075847553089261055,-0.0023241715971380472
1.7294981845508485e+18,0.012174360454082489,-0.008110097609460354,-0.0010671167401596904
1.7294981845598487e+18,0.010888333432376385,-0.006779922172427177,0.001472607720643282
1.729498184568849e+18,0.012623131275177002,-0.006342641077935696,-0.002525703050196171
1.729498184574849e+18,0.01488028559833765,-0.00812368281185627,0.0007963298121467233
1.7294981845838492e+18,0.00996149517595768,-0.007520235143601894,-0.0011020473903045058
1.7294981845928494e+18,0.011017284356057644,-0.006627759430557489,0.0006670472212135792
1.7294981845988495e+18,0.010753144510090351,-0.006231948267668486,-0.0018924472387880087
1.7294981846108498e+18,0.008984128013253212,-0.00664092879742384,-0.0004569836310110986
1.72949818461985e+18,0.00923756044358015,-0.009547381661832333,0.0016067186370491982
1.72949818462585e+18,0.007948443293571472,-0.006805144250392914,-0.00210166466422379
1.7294981846348503e+18,0.010379907675087452,-0.006825335323810577,-0.0019751940853893757
1.7294981846408504e+18,0.0089992331340909,-0.0016531094443053007,-0.001183743355795741
1.7294981846498506e+18,0.007892115041613579,-0.00477431807667017,-0.0012932735262438655
1.7294981846588508e+18,0.007884621620178223,-0.0030061660800129175,-0.0025826883502304554
1.729498184664851e+18,0.007714559789747,-0.00612901896238327,-0.0001159218663815409
1.7294981846738511e+18,0.007316946052014828,-0.00606849230825901,-0.0003080983296968043
1.7294981846828513e+18,0.00801757350564003,-0.006096284370869398,-0.0025955354794859886
1.7294981846888515e+18,0.007659811060875654,-0.007473037578165531,6.874321843497455e-05
1.7294981846978516e+18,0.00646388903260231,-0.005392865277826786,-0.0029307992663234472
1.7294981847038518e+18,0.005125801078975201,-0.002561393892392516,0.0015075474511831999
1.729498184712852e+18,0.007189764175564051,-0.0014983026776462793,-0.0008682928164489567
1.7294981847218522e+18,0.002955143339931965,0.0007995640044100583,0.0009168115211650729
1.7294981847278523e+18,0.0033708452247083187,-0.0004194502253085375,0.002050222596153617
1.7294981847368525e+18,0.00583983538672328,-0.00041354785207659006,-0.0017583963926881552
1.7294981847458527e+18,0.003327858168631792,-0.0036031953059136868,-0.002123672980815172
1.7294981847518528e+18,0.007198633160442114,-0.007005185820162296,-0.0007194946520030499
1.729498184760853e+18,0.007520157378166914,-0.007721436209976673,0.0009799221297726035
1.7294981847698532e+18,0.0032666062470525503,-0.007873947732150555,0.0004652849747799337
1.7294981847758533e+18,0.0026933872140944004,-0.004019650164991617,0.0013892981223762035
1.7294981847848535e+18,0.001911706174723804,-0.0031080327462404966,-0.00025649263989180326
1.7294981847908536e+18,0.003031217958778143,-0.0003310652682557702,-0.0009892412927001715
1.7294981847998538e+18,0.002741346601396799,-0.0010990554001182318,0.0006138214375823736
1.729498184808854e+18,0.003593536326661706,-7.51300249248743e-05,-0.001532627735286951
1.7294981848148541e+18,0.0009228884009644389,-0.0029897456988692284,0.001520396675914526
1.7294981848238543e+18,0.0025089820846915245,-0.0034535606391727924,0.001223261351697147
1.7294981848328545e+18,0.0024033216759562492,-0.003139982931315899,-0.00011827196431113407
1.7294981848418547e+18,0.003295678412541747,-0.0021671121940016747,0.0015815161168575287
1.7294981848478548e+18,0.0008647803915664554,-0.0027484281454235315,-0.002395447576418519
1.729498184856855e+18,0.00247384374961257,-0.000857146515045315,0.00030949630308896303
1.7294981848658552e+18,-0.0019052148563787341,-0.00021899404237046838,0.0015278238570317626
1.7294981848748554e+18,0.0007457908359356225,0.0007582984399050474,-0.0004589432501234114
1.7294981848808556e+18,0.003341028932482004,0.00011058442760258913,-0.0006723242695443332
1.7294981848898557e+18,0.004121409263461828,-0.002203640528023243,-0.000800985493697226
1.729498184898856e+18,0.005022904835641384,-0.0010849721729755402,0.0005709930555894971
1.7294981849078561e+18,0.003954913932830095,-0.00431909691542387,0.001924511743709445
1.7294981849138563e+18,0.006881171837449074,-6.860506255179644e-05,-0.00027291657170280814
1.7294981849228564e+18,0.0044109756126999855,-0.0015029566129669547,0.0006160676130093634
1.7294981849288566e+18,0.0008001598762348294,-0.0021230140700936317,-0.0020654615946114063
1.7294981849378568e+18,0.004923834465444088,-7.468659896403551e-05,0.0003546904190443456
1.729498184946857e+18,0.0003420666325837374,-0.0017862237291410565,0.0014798382762819529
1.729498184952857e+18,0.00237378035672009,-0.002442100550979376,0.0007126742275431752
1.7294981849618573e+18,0.004212143365293741,-0.003084638388827443,0.0005511418567039073
1.7294981849708575e+18,0.0029366519302129745,-0.0003206797409802675,-0.0019396630814298987
1.7294981849768576e+18,0.0027949956711381674,-0.0012690384173765779,0.0015450938371941447
1.7294981849858578e+18,0.003323725890368223,-0.0053661358542740345,0.0024763282854110003
1.729498184991858e+18,0.0011150838108733296,-0.0040542976930737495,0.0003951721009798348
1.729498185000858e+18,0.0035370332188904285,-0.003743978915736079,0.0005541204009205103
1.7294981850098583e+18,0.0007549487636424601,-0.0010840478353202343,-0.00020434225734788924
1.7294981850188585e+18,0.0002968547632917762,-0.004876693710684776,0.0023765575606375933
1.7294981850248586e+18,-0.0024238298647105694,-0.004662676714360714,-0.0008537080720998347
1.7294981850338588e+18,-0.001649591838940978,-0.004812266211956739,0.0008694135467521846
1.729498185042859e+18,-0.003604726865887642,-0.0033157137222588062,-0.0014665500493720174
1.7294981850518592e+18,-0.0017589060589671135,-0.004373190924525261,-0.0008664268534630537
1.7294981850608594e+18,-0.0029346379451453686,-0.005818224512040615,0.002374346135184169
1.7294981850698596e+18,0.0014980233972892165,-0.004375330172479153,-0.001126376329921186
1.7294981850758597e+18,-0.00026606034953147173,-0.0027664420194923878,0.0008738089818507433
1.72949818508486e+18,-0.0038641609717160463,-2.9308954253792763e-05,-0.0004879022017121315
1.72949818509386e+18,0.0006363749853335321,0.0012007772456854582,-0.0031962660141289234
1.7294981850998602e+18,-0.0033330803271383047,-0.003228234127163887,-0.0002713683061301708
1.7294981851088604e+18,-0.003766698995605111,-0.0028756263200193644,-0.0014078265521675348
1.7294981851178606e+18,-0.004988413769751787,-0.0042348261922597885,-0.0017667856300249696
1.7294981851238607e+18,-0.0041985176503658295,-0.0038649141788482666,-0.0014076910447329283
1.729498185132861e+18,-0.0036470619961619377,-0.0021736961789429188,-0.00040121289202943444
1.729498185141861e+18,-0.002264942741021514,-0.0024413932114839554,0.0013430812396109104
1.7294981851508613e+18,-0.0033646756783127785,-0.0009229417191818357,-0.00026147926109842956
1.7294981851568614e+18,-0.0025508147664368153,0.00031185956322588027,-0.0020985095761716366
1.7294981851658616e+18,-0.0034589446149766445,0.0021329151932150126,0.0008642602479085326
1.7294981851718618e+18,-0.0036242071073502302,-7.565674604848027e-05,-4.0810235077515244e-05
1.729498185180862e+18,-0.005099992733448744,0.0017771795392036438,-0.0007075860630720854
1.7294981851898621e+18,-0.007544892840087414,0.0008634980185888708,-0.00024160012253560126
1.7294981851958623e+18,-0.009781518019735813,-0.003021680749952793,0.0005536682438105345
1.7294981852048625e+18,-0.00557527644559741,-0.0007307855412364006,-0.0012632736470550299
1.7294981852138627e+18,-0.0038586771115660667,-0.000649983761832118,0.002805902622640133
1.7294981852228628e+18,-0.007120932452380657,0.0024249672424048185,0.0008283851784653962
1.729498185228863e+18,-0.004131708759814501,0.002607624512165785,0.0030965532641857862
1.7294981852378632e+18,-0.0029766764491796494,0.002449492923915386,0.0006210597930476069
1.7294981852498634e+18,-0.006852281279861927,0.00012062839232385159,0.0010826458455994725
1.7294981852558636e+18,-0.00710005359724164,0.0034922314807772636,-0.0017336406745016575
1.7294981852648637e+18,-0.009380253031849861,0.002424605656415224,-0.0005740069900639355
1.729498185273864e+18,-0.00803656131029129,0.004008457995951176,0.0009844517335295677
1.729498185279864e+18,-0.007552012801170349,0.004690236411988735,0.0020420176442712545
1.7294981852888643e+18,-0.003701481968164444,0.004415800794959068,0.0006925773341208696
1.7294981852978644e+18,-0.009107423946261406,0.006302828900516033,0.0016491482965648174
1.7294981853038646e+18,-0.010830340906977654,0.006173437461256981,0.0002477311936672777
1.7294981853128648e+18,-0.0070612141862511635,0.002216645749285817,-0.000836335530038923
1.729498185318865e+18,-0.004678024910390377,0.003057618625462055,0.0013516140170395374
1.729498185327865e+18,-0.008569317869842052,0.002383470069617033,0.001993265002965927
1.7294981853338652e+18,-0.006061952095478773,-0.003101723501458764,0.0016871243715286255
1.7294981853458655e+18,-0.0052429670467972755,-0.0005945786833763123,-0.000711316242814064
1.7294981853518656e+18,-0.0042556943371891975,0.0008879211964085698,0.0002703655045479536
1.7294981853608658e+18,-0.004968864843249321,0.0018935991683974862,0.0025258080568164587
1.729498185369866e+18,-0.003978036344051361,-0.00037420401349663734,-0.0004225876182317734
1.729498185375866e+18,-0.00414730329066515,0.002913379343226552,0.0019457307644188404
1.7294981853848663e+18,-0.004099729470908642,0.00027242465876042843,-0.0013946134131401777
1.7294981853938665e+18,-0.004806926473975182,-0.00035896000918000937,-0.0007436599116772413
1.7294981854028667e+18,-0.006871575955301523,0.0029685094486922026,0.0010130894370377064
1.7294981854088668e+18,-0.005064213648438454,0.00021343049593269825,0.0020900648087263107
1.729498185417867e+18,-0.00668956758454442,0.002724085934460163,-0.0015553334960713983
1.7294981854268672e+18,-0.005831343121826649,0.0007294618990272284,-0.0008314732112921774
1.7294981854328673e+18,-0.007209884002804756,0.0013405161444097757,0.0013995280023664236
1.7294981854448676e+18,-0.006695094984024763,0.0026625017635524273,-0.0006608878029510379
1.7294981854508677e+18,-0.007893454283475876,0.004680955782532692,-0.002002694644033909
1.729498185459868e+18,-0.005515139549970627,0.0022522881627082825,0.0018735893536359072
1.729498185468868e+18,-0.011032993905246258,-0.000862376531586051,-0.0008049971656873822
1.7294981854778683e+18,-0.011668355204164982,0.002993735484778881,0.0006747151492163539
1.7294981854838684e+18,-0.011538369581103325,0.00013483862858265638,0.001603546435944736
1.7294981854928686e+18,-0.01375124603509903,0.0017549947369843721,0.0007020438788458705
1.7294981855018688e+18,-0.010059859603643417,-0.00036109285429120064,0.0002473163476679474
1.729498185510869e+18,-0.008963681757450104,0.007981913164258003,0.0017970256740227342
1.7294981855198692e+18,-0.009623476304113865,0.0034085188526660204,-0.00021486010518856347
1.7294981855288694e+18,-0.009020448662340641,0.00177303038071841,5.650051389238797e-05
1.7294981855378696e+18,-0.00880727730691433,0.002120556775480509,0.003980105742812157
1.7294981855468698e+18,-0.052897050976753235,0.05175584927201271,-0.001241988269612193
1.72949818555287e+18,-0.31832364201545715,0.36713042855262756,0.0035938797518610954
1.72949818556187e+18,-0.8515508770942688,1.0069776773452759,0.016135891899466515
1.7294981855708703e+18,-1.469509482383728,1.6654421091079712,0.027108974754810333
1.7294981855768704e+18,-1.9608107805252075,2.02496337890625,0.03313562646508217
1.7294981855858706e+18,-2.637197971343994,2.313398599624634,0.04793649911880493
1.7294981855948708e+18,-3.055192708969116,2.299403429031372,0.0637347549200058
1.729498185600871e+18,-3.1643621921539307,2.2030324935913086,0.07124138623476028
1.729498185609871e+18,-3.1185061931610107,2.015592575073242,0.09012610465288162
1.7294981856188713e+18,-2.944725275039673,1.9302947521209717,0.10133401304483414
1.7294981856278715e+18,-2.808168411254883,1.9774361848831177,0.11728659272193909
1.7294981856368717e+18,-2.804497003555298,2.105422019958496,0.12914666533470154
1.7294981856428718e+18,-2.8587646484375,2.1945455074310303,0.13668225705623627
1.729498185651872e+18,-2.9930946826934814,2.23240065574646,0.146759033203125
1.7294981856608722e+18,-3.0763931274414062,2.157148599624634,0.16113772988319397
1.7294981856698724e+18,-3.015192985534668,1.977949857711792,0.17316745221614838
1.7294981856758725e+18,-2.887258768081665,1.8335307836532593,0.17833255231380463
1.7294981856848727e+18,-2.600470542907715,1.6393007040023804,0.1894148886203766
1.729498185693873e+18,-2.295246124267578,1.5000098943710327,0.20057955384254456
1.729498185699873e+18,-2.129131555557251,1.4386436939239502,0.2052006870508194
1.7294981857088732e+18,-1.9588537216186523,1.3743847608566284,0.20869003236293793
1.7294981857178734e+18,-1.8932759761810303,1.3137645721435547,0.21769818663597107
1.7294981857268736e+18,-1.8540570735931396,1.2165015935897827,0.2203378975391388
1.7294981857358738e+18,-1.7740544080734253,1.0779228210449219,0.22613675892353058
1.729498185741874e+18,-1.6778939962387085,0.9774959683418274,0.2302657961845398
1.729498185750874e+18,-1.4552439451217651,0.8179860711097717,0.2314496636390686
1.7294981857598743e+18,-1.2008599042892456,0.6825764179229736,0.23548993468284607
1.7294981857658744e+18,-1.0334258079528809,0.6042667627334595,0.2372702807188034
1.7294981857748746e+18,-0.8340016603469849,0.5105940699577332,0.2403712272644043
1.7294981857838748e+18,-0.7251272797584534,0.43965521454811096,0.2416469007730484
1.729498185789875e+18,-0.6843902468681335,0.3882567882537842,0.24002356827259064
1.7294981857988751e+18,-0.6463741064071655,0.3074009120464325,0.24163375794887543
1.7294981858078753e+18,-0.5883627533912659,0.22539402544498444,0.24442040920257568
1.7294981858138755e+18,-0.5251741409301758,0.16659624874591827,0.2413169890642166
1.7294981858228756e+18,-0.3888013958930969,0.08631940931081772,0.23898103833198547
1.7294981858318758e+18,-0.21975325047969818,0.011487067677080631,0.24246035516262054
1.729498185840876e+18,-0.07179128378629684,-0.0520591177046299,0.23890206217765808
1.7294981858468762e+18,0.0019326632609590888,-0.0869760736823082,0.23996295034885406
1.7294981858558764e+18,0.06486205756664276,-0.13088342547416687,0.23604610562324524
1.7294981858648765e+18,0.0771431103348732,-0.17207862436771393,0.2346251755952835
1.7294981858738767e+18,0.08546815067529678,-0.21017912030220032,0.23159171640872955
1.7294981858798769e+18,0.09867461770772934,-0.23205898702144623,0.23078565299510956
1.729498185891877e+18,0.17136526107788086,-0.2841644585132599,0.2275221049785614
1.7294981858978772e+18,0.22082582116127014,-0.301853209733963,0.2287929356098175
1.7294981859068774e+18,0.29364708065986633,-0.3233417868614197,0.22139805555343628
1.7294981859158776e+18,0.3475312888622284,-0.3331250548362732,0.22157318890094757
1.7294981859218778e+18,0.36670979857444763,-0.3432955741882324,0.22038960456848145
1.729498185930878e+18,0.3729317784309387,-0.3536839485168457,0.21622712910175323
1.729498185936878e+18,0.37010589241981506,-0.3622432053089142,0.2122092992067337
1.7294981859458783e+18,0.3695392310619354,-0.3803286552429199,0.21127693355083466
1.7294981859518784e+18,0.37337395548820496,-0.3907635807991028,0.20676083862781525
1.7294981859608786e+18,0.3879590928554535,-0.39872708916664124,0.2017020285129547
1.7294981859698788e+18,0.4190567433834076,-0.40360698103904724,0.19900141656398773
1.729498185975879e+18,0.434749573469162,-0.4024231731891632,0.19856497645378113
1.729498185984879e+18,0.4472259283065796,-0.3958077132701874,0.1942099779844284
1.7294981859938793e+18,0.44279801845550537,-0.38427674770355225,0.18993860483169556
1.7294981860028795e+18,0.42856302857398987,-0.3822547197341919,0.18823277950286865
1.7294981860088796e+18,0.4170840382575989,-0.37919288873672485,0.18359245359897614
1.7294981860178798e+18,0.4090774953365326,-0.37917599081993103,0.18034879863262177
1.72949818602688e+18,0.4050615429878235,-0.3802284598350525,0.17476296424865723
