timestamp,gyro_x,gyro_y,gyro_z
1.7294244608716698e+18,0.0010479155462235212,0.0002126698091160506,-0.0017135536763817072
1.72942446087767e+18,0.0010239044204354286,0.00037056650035083294,-0.0029662414453923702
1.72942446088367e+18,-0.000559333129785955,-0.0008770519634708762,-0.0005784396198578179
1.72942446088667e+18,-0.00022513794829137623,-0.0021666008979082108,-0.0005599637515842915
1.7294244608926702e+18,0.000908320362213999,0.0014227326028048992,0.0024276329204440117
1.7294244608986703e+18,0.0022643667180091143,0.00010870159167097881,-0.0015433755470439792
1.7294244609016704e+18,0.0003023394965566695,0.0010700057027861476,-0.0011228846851736307
1.7294244609076705e+18,0.0023134700022637844,0.0023017479106783867,-8.159346180036664e-05
1.7294244609136707e+18,-0.001350365811958909,0.00031714406213723123,-0.0006704297848045826
1.7294244609166707e+18,-0.0009526117937639356,0.0030458534602075815,-0.0011267873924225569
1.7294244609226708e+18,-0.0010893333237618208,0.0015076722484081984,0.002034778008237481
1.729424460928671e+18,-0.0010260145645588636,0.0017076977528631687,-0.0018387758173048496
1.729424460931671e+18,0.00036036601522937417,-0.0011030532186850905,0.0008328938856720924
1.7294244609376712e+18,-0.00020321978081483394,-0.0018432879587635398,-0.00041494047036394477
1.7294244609436713e+18,0.0003882829623762518,-0.0009995006257668138,0.0009658491471782327
1.7294244609496714e+18,-0.0008828356512822211,-0.0015611181734129786,-0.000699934724252671
1.7294244609526715e+18,0.0007914531161077321,0.0017570176860317588,-0.0002649672678671777
1.7294244609586716e+18,-0.0021229616831988096,-0.0018553826957941055,0.0008117700344882905
1.7294244609646717e+18,-0.0013807229697704315,-0.0017766575329005718,-0.001302049495279789
1.7294244609676718e+18,0.001465981942601502,-0.00033153448021039367,-0.0007399282185360789
1.729424460973672e+18,-0.0017353167058899999,0.0006698909564875066,-0.0016224491409957409
1.729424460979672e+18,-0.0004773842229042202,0.0028091606218367815,-0.001691461424343288
1.7294244609856722e+18,-0.0008145044557750225,-0.0005305704544298351,-0.001986489165574312
1.7294244609886723e+18,-0.0028958397451788187,-0.003006687853485346,0.0007743672467768192
1.7294244609946724e+18,5.6531018344685435e-05,-0.0015046404441818595,0.0019203636329621077
1.7294244610006725e+18,-0.0003589065745472908,0.0016392521793022752,0.0020863173995167017
1.7294244610036726e+18,0.001181981060653925,-0.0010538875358179212,-0.0013492745347321033
1.7294244610096727e+18,-0.0014938708627596498,0.001077917986549437,-0.0009900281438603997
1.7294244610156728e+18,-0.0003524763451423496,7.595877832500264e-05,0.0008077835664153099
1.729424461021673e+18,0.0026142222341150045,0.0021956071723252535,0.0019120639190077782
1.729424461024673e+18,0.00045540748396888375,0.00021545968775171787,0.0004296042025089264
1.7294244610306732e+18,-0.0006206537946127355,0.0011924515711143613,0.0006393633084371686
1.7294244610366733e+18,-0.0006761900149285793,-0.0024175764992833138,0.002151014283299446
1.7294244610426734e+18,4.4495562178781256e-05,-0.003359043039381504,0.0006500699673779309
1.7294244610456735e+18,4.985336272511631e-05,0.0027610743418335915,-0.002102273516356945
1.7294244610516736e+18,-0.0008326764218509197,0.00256878649815917,0.00018597861344460398
1.7294244610576737e+18,0.0011972652282565832,-0.0022487712558358908,-0.0005230243550613523
1.7294244610606738e+18,0.0014530019834637642,0.002113115740939975,0.0004107895656488836
1.729424461066674e+18,-0.0007600610260851681,-0.002209726255387068,0.00010798143921419978
1.729424461072674e+18,-0.0025289268232882023,-0.0015244142850860953,-4.155902934144251e-05
1.729424461075674e+18,-0.0004337926802691072,0.0013190546305850148,0.0010805450147017837
1.7294244610816742e+18,0.00045375979971140623,-0.002016777405515313,-0.0017440199153497815
1.7294244610876744e+18,5.066222001914866e-05,-0.0030466867610812187,0.00023447319108527154
1.7294244610936745e+18,-0.00037707891897298396,5.0272923544980586e-05,-0.0003115823492407799
1.7294244610966746e+18,-0.0026468737050890923,0.0010341184679418802,0.0031533308792859316
1.7294244611026747e+18,0.0021705736871808767,-0.0003261859528720379,-0.0025881670881062746
1.7294244611086748e+18,0.001475672353990376,-0.0019969025161117315,-0.001407288364134729
1.729424461111675e+18,0.0005642538308165967,-0.0005089727928861976,-0.0027205462101846933
1.729424461117675e+18,0.00037743334542028606,-0.0009838943369686604,-0.00010274500527884811
1.7294244611236751e+18,-0.001618764246813953,0.001474233577027917,0.0010565284173935652
1.7294244611266752e+18,-0.0016464354703202844,0.0029237386770546436,0.0016090949065983295
1.7294244611326753e+18,0.001387046999298036,-0.00023043443798087537,0.00017535411461722106
1.7294244611386755e+18,0.0023228367790579796,0.0016883767675608397,0.0012061658781021833
1.7294244611446756e+18,-0.0008480979013256729,0.00048727483954280615,-0.0007461465429514647
1.7294244611476756e+18,-0.0006789529579691589,-0.000295018486212939,0.0011658334406092763
1.7294244611536758e+18,-0.003286696970462799,0.00020502923871390522,2.4625131118227728e-05
1.729424461159676e+18,-0.0024193415883928537,-0.002849163953214884,-0.00042727068648673594
1.729424461165676e+18,-0.000663373211864382,-0.0013284392189234495,-0.0007736464613117278
1.7294244611716762e+18,0.001296955393627286,0.0024275060277432203,0.0016590424347668886
1.7294244611746762e+18,0.0014383230591192842,0.0009887368651106954,0.0026920633390545845
1.7294244611806764e+18,0.0009004900348372757,-0.0011876384960487485,-0.002001843648031354
1.7294244611866765e+18,0.0011618273565545678,0.002175845205783844,-0.0007974208565428853
1.7294244611926766e+18,-0.0015225170645862818,0.004157206509262323,0.0005750763230025768
1.7294244611956767e+18,0.00017357278557028621,0.0011065024882555008,-0.001635827007703483
1.7294244612016768e+18,6.936260615475476e-05,-4.2428699089214206e-05,9.513228178548161e-06
1.729424461207677e+18,0.0006827826146036386,-0.0007355406996794045,-0.00240077986381948
1.729424461210677e+18,0.0008860797388479114,-0.002552584046497941,5.42963653060724e-06
1.729424461216677e+18,-0.0020069419406354427,0.0020110663026571274,0.0004957167548127472
1.7294244612226772e+18,0.002352343173697591,0.0007117576315067708,-0.0013977045891806483
1.7294244612286774e+18,-4.655094744521193e-05,0.0022788282949477434,-0.0008416279451921582
1.7294244612316774e+18,-0.0015545093920081854,0.0010247548343613744,0.0002792027371469885
1.7294244612376776e+18,0.00020125412265770137,0.0009244350367225707,-0.00010935822501778603
1.7294244612406776e+18,0.0005851452588103712,0.0013166959397494793,0.0005452138721011579
1.7294244612466778e+18,0.0017242692410945892,-0.00014954287325963378,0.0009450051002204418
1.729424461252678e+18,0.00042914244113489985,-0.003127975622192025,-0.0029678053688257933
1.729424461258678e+18,-0.0022961930371820927,0.0005407147109508514,-0.0017635668627917767
1.729424461261678e+18,-0.0022047203965485096,-0.0020691617392003536,0.0036315203178673983
1.7294244612676782e+18,-0.0026415169704705477,3.665962867671624e-05,0.0014642896130681038
1.7294244612736783e+18,0.0018488303758203983,-0.002005083253607154,-0.00018284378165844828
1.7294244612766784e+18,0.0017049090238288045,0.0015987270744517446,-0.0026471265591681004
1.7294244612826785e+18,0.0008103633299469948,0.0002146693877875805,-0.002763191005215049
1.7294244612886787e+18,-0.0006059920415282249,0.00010811355605255812,0.0006741124088875949
1.7294244612946788e+18,0.0025886085350066423,0.0013742524897679687,-0.0009332668269053102
1.7294244612976788e+18,0.0014572161016985774,-0.0005012654000893235,-0.003094668034464121
1.729424461303679e+18,0.0005806982517242432,0.0019987255800515413,0.0003152085409965366
1.729424461309679e+18,0.0023976953234523535,-0.000881772895809263,0.0007063972298055887
1.7294244613126792e+18,-0.00031508103711530566,-0.002708002459257841,-0.000621792976744473
1.7294244613186793e+18,0.0019315104000270367,-0.0008919168030843139,-0.000878591148648411
1.7294244613246794e+18,-0.002094029448926449,-0.002806368051096797,0.0006967026856727898
1.7294244613276795e+18,0.003898147027939558,-0.002171326195821166,-0.0022061949130147696
1.7294244613336796e+18,-0.0023598831612616777,0.00047776076826266944,-0.0010435936274006963
1.7294244613396797e+18,-0.0009440864669159055,0.0028746365569531918,0.0018533889669924974
1.7294244613426798e+18,-0.0020852454472333193,0.0006019877619110048,0.0012457069242373109
1.72942446134868e+18,-0.0007478196639567614,0.0039174542762339115,0.001201658509671688
1.72942446135468e+18,-0.0016755396500229836,0.0004133037873543799,0.0014645749470219016
1.72942446135768e+18,0.0009755464270710945,-0.0029952104669064283,-0.001190835377201438
1.7294244613636803e+18,-0.0003435627440921962,-0.000866894843056798,-0.0001119323424063623
1.7294244613696804e+18,-0.00237310235388577,0.002138732234016061,0.00010140083759324625
1.7294244613756805e+18,0.0012302057584747672,-4.316636113799177e-05,0.003646926023066044
1.7294244613786806e+18,-0.0012864527525380254,-0.0004379177116788924,-0.0008766833343543112
1.7294244613846807e+18,0.000305277033476159,-0.002744923112913966,0.0009761166293174028
1.7294244613906808e+18,0.0010909404372796416,-0.0005168267525732517,0.0009786759037524462
1.729424461396681e+18,0.0016692574135959148,0.0002307331160409376,-0.0013092444278299809
1.729424461399681e+18,-0.0026471628807485104,-0.0047102258540689945,-0.0028855211567133665
1.7294244614056812e+18,0.0009970542741939425,-0.002216957276687026,-0.0006861306610517204
1.7294244614116813e+18,0.0002396079507889226,-0.0002609174407552928,-0.0008027040166780353
1.7294244614146813e+18,0.0011021557729691267,-0.001120016211643815,0.0013086411636322737
1.7294244614206815e+18,0.002301895059645176,-0.001546278246678412,-0.0006228200509212911
1.7294244614266816e+18,-0.00041929748840630054,0.0017274337587878108,0.00025220794486813247
1.7294244614296817e+18,-0.0005074437940493226,0.0008654807461425662,0.0009253994794562459
1.7294244614356818e+18,-0.0014697302831336856,0.0007731202058494091,-0.0015287988353520632
1.729424461441682e+18,6.384484004229307e-05,-0.0006372106145136058,-0.00015994753630366176
1.729424461447682e+18,-0.00013074628077447414,0.00011034819908672944,-0.00017357444448862225
1.729424461450682e+18,0.0006305509014055133,0.0010435578878968954,0.00030089388019405305
1.7294244614566822e+18,0.0007403682684525847,0.001921311137266457,0.002230609068647027
1.7294244614626824e+18,0.0006393602816388011,0.0002854950143955648,0.0007449265685863793
1.7294244614656824e+18,-0.002443838631734252,0.00041940485243685544,0.002090921625494957
1.7294244614716826e+18,2.2346514015225694e-05,-0.0023010335862636566,-0.0016555446200072765
1.7294244614776827e+18,-0.00198877090588212,0.001099602784961462,-0.001171700656414032
1.7294244614836828e+18,0.000987570034340024,-0.00017646579362917691,-0.002757832407951355
1.729424461486683e+18,0.0021620679181069136,0.0009711480815894902,0.001136501901783049
1.729424461492683e+18,0.0018561629112809896,4.74803673569113e-05,-0.001390304765664041
1.7294244614986831e+18,-0.003917359281331301,-0.0007455694139935076,-0.001634674845263362
1.7294244615046833e+18,0.0028803739696741104,0.0008502466953359544,-0.0006136310403235257
1.7294244615076833e+18,0.0012168253306299448,0.0013221180997788906,-0.0010409005917608738
1.7294244615136835e+18,4.2002378904726356e-05,-0.00045056644012220204,-0.0014029339654371142
1.7294244615196836e+18,0.001008493360131979,0.00011160349095007405,0.0011389816645532846
1.7294244615226836e+18,-0.0025434785056859255,0.0015091735403984785,0.0009989035315811634
1.7294244615286838e+18,0.0017924749990925193,0.003145068883895874,0.0017476713983342052
1.729424461534684e+18,-0.002552784513682127,0.002884229877963662,-0.0012161616468802094
1.729424461540684e+18,-8.884342241799459e-05,0.003304931102320552,0.002008024137467146
1.729424461543684e+18,0.002657204167917371,0.002699358854442835,0.0006539971800521016
1.7294244615496842e+18,-0.0012354151112958789,-0.0002130951324943453,-0.00012391612108331174
1.7294244615556844e+18,-0.002457923023030162,-0.0006523798801936209,0.0009349288884550333
1.7294244615586844e+18,0.0004813220875803381,0.00016597897047176957,-0.0009294355404563248
1.7294244615646845e+18,0.0001247627951670438,-0.0004540069494396448,0.0007260840502567589
1.7294244615706847e+18,-0.0003565256192814559,-0.00011240867024753243,0.0016712702345103025
1.7294244615766848e+18,0.0016388266813009977,-0.0020516114309430122,0.00046082897461019456
1.7294244615796849e+18,0.0015231603756546974,0.0010405975626781583,-0.002552064834162593
1.729424461585685e+18,-0.0038875930476933718,0.001397539279423654,-0.0011814053868874907
1.729424461591685e+18,-0.0009799401741474867,0.0015652948059141636,0.0018443547887727618
1.7294244615976852e+18,1.197498022520449e-05,0.0010607445146888494,-0.0005456489161588252
1.7294244616006853e+18,-0.0033826339058578014,-0.0013638080563396215,-6.806193414377049e-05
1.7294244616066854e+18,0.0010742928134277463,0.0029798229224979877,0.0005001224926672876
1.7294244616126856e+18,-0.0012709799921140075,0.000825267459731549,-0.0024298757780343294
1.7294244616156856e+18,0.00010924418165814131,-0.00012109780800528824,0.0012938054278492928
1.7294244616216858e+18,0.0016331610968336463,0.0016716922400519252,0.0010441024787724018
1.7294244616246858e+18,0.0031487373635172844,0.0009826753521338105,0.002952256705611944
1.729424461630686e+18,-0.0017001343658193946,-0.0007204872090369463,0.002645268104970455
1.729424461636686e+18,0.001324899378232658,-0.0021114174742251635,-0.0007721651345491409
1.7294244616426862e+18,0.0012778292875736952,0.0025467281229794025,-0.001510843401774764
1.7294244616456863e+18,0.002506416058167815,-0.0010167235741391778,0.000600196304731071
1.7294244616516864e+18,-0.0013313578674569726,0.0031035731080919504,-0.0007902348297648132
1.7294244616576865e+18,0.0021803556010127068,-0.00014092405035626143,-0.000306212023133412
1.7294244616636867e+18,1.6703945220797323e-05,0.0012406499590724707,0.003266657702624798
1.7294244616666867e+18,0.0011893387418240309,-0.0003425647155381739,0.0023804097436368465
1.7294244616726868e+18,0.0009790243348106742,0.0005715147708542645,-0.0015579287428408861
1.729424461678687e+18,-0.0011584704043343663,0.0007960523362271488,0.002082536928355694
1.729424461681687e+18,-0.0011105685262009501,-0.00030438980320468545,-0.0020597539842128754
1.7294244616876872e+18,-0.0023598980624228716,-0.0009261317318305373,-0.0006802984280511737
1.7294244616936873e+18,-0.000894461409188807,-0.001269819331355393,-3.293208919785684e-06
1.7294244616966874e+18,-0.0017135647358372808,-0.0015934029361233115,0.00021067562920507044
1.7294244617026875e+18,0.0013788322685286403,0.0001803416816983372,-0.0023312086705118418
1.7294244617086876e+18,0.0006663010572083294,0.002390720881521702,6.19878301222343e-06
1.7294244617146877e+18,-0.0014421471860259771,-0.0018789628520607948,-0.001111309276893735
1.7294244617176878e+18,-0.0005792484735138714,-0.0006089681410230696,0.0026045399717986584
1.729424461723688e+18,2.506573400751222e-05,0.0026721630711108446,0.0016655592480674386
1.729424461729688e+18,-0.0008462269324809313,-0.002418832154944539,0.0013328021159395576
1.7294244617356882e+18,0.002277228981256485,-0.0015671104192733765,0.0034707391168922186
1.7294244617416883e+18,0.0007837745943106711,-6.500715971924365e-05,0.0027618734166026115
1.7294244617446884e+18,-0.0005978209082968533,0.000597344827838242,0.0010484263766556978
1.7294244617506885e+18,0.0026243948377668858,-0.002276809187605977,-0.0020024029072374105
1.7294244617566886e+18,-0.001250551431439817,7.647849270142615e-05,0.00016204430721700191
1.7294244617596887e+18,0.0004351180396042764,-0.0014135877136141062,-0.0007428720709867775
1.7294244617656888e+18,0.0013979860814288259,0.0005626077763736248,0.00039038326940499246
1.729424461771689e+18,0.00011300687765469775,-0.0009879486169666052,0.000994458794593811
1.729424461777689e+18,0.00245520262978971,-0.0025770708452910185,-0.00038918215432204306
1.7294244617806892e+18,0.0018018282717093825,-0.0009142860653810203,-0.00045443300041370094
1.7294244617866893e+18,0.00020340370247140527,0.0006144771468825638,-0.0009023726452142
1.7294244617926894e+18,-0.0026982990093529224,-0.0020606673788279295,-0.00022332185471896082
1.7294244617986895e+18,0.0010586444986984134,-0.0005022773984819651,0.0010739746503531933
1.7294244618016896e+18,0.0015544771449640393,0.0005606213235296309,-0.004038786981254816
1.7294244618076897e+18,-0.00021650586859323084,0.00018195425218436867,0.0008561149588786066
1.7294244618136899e+18,-0.0010322544258087873,-0.000657755124848336,-0.00019447790691629052
1.72942446181669e+18,0.0027309698052704334,0.0016980742802843451,-0.0013796585844829679
1.72942446182269e+18,0.0012029914651066065,0.0015071372035890818,-0.00017385062528774142
1.7294244618286902e+18,-0.0036170303355902433,0.0006524371565319598,0.0037918698508292437
1.7294244618316902e+18,0.0010401622857898474,0.0014801056822761893,0.0016052799765020609
1.7294244618376904e+18,-0.0033184890635311604,-0.0037838441785424948,0.0007053042645566165
1.7294244618436905e+18,-0.0018567186780273914,0.0008673102129250765,0.0015988305676728487
1.7294244618496906e+18,-0.0012630256824195385,0.0012024450115859509,-0.00022470259864348918
1.7294244618526907e+18,0.001740767271257937,0.00113566848449409,-0.0015596525045111775
1.7294244618586908e+18,0.0024819786194711924,0.002001718617975712,0.0005727760144509375
1.729424461864691e+18,-0.0021330241579562426,-0.0017384609673172235,0.0008802639786154032
1.729424461867691e+18,0.0004854492435697466,-0.00044645354500971735,-0.0003201679210178554
1.7294244618736911e+18,0.003220711834728718,-0.00019509582489263266,-0.0009568554814904928
1.7294244618796913e+18,-0.0018025200115516782,-0.0002456824586261064,-2.8202552130096592e-05
1.7294244618826913e+18,-0.0012554144486784935,-0.002388361608609557,-0.0015570296673104167
1.7294244618886915e+18,-0.0023038031067699194,-0.002584670903161168,0.000570474483538419
1.7294244618946916e+18,-0.001683624810539186,-0.0006163701764307916,0.0023323707282543182
1.7294244618976916e+18,-0.0017554997466504574,0.0003838702104985714,0.0011353864101693034
1.7294244619036918e+18,0.0007241685525514185,-0.0008800755604170263,0.002505315002053976
1.729424461909692e+18,0.0009397942922078073,-0.001001044875010848,0.001370430109091103
1.729424461915692e+18,0.000923967978451401,-0.002194840693846345,-0.0013114864705130458
1.7294244619216922e+18,0.00017306905647274107,0.0009094513952732086,0.0016481492202728987
1.7294244619246922e+18,0.0003650854923762381,-0.002349410206079483,0.0005040314281359315
1.7294244619306924e+18,0.0032664083410054445,-0.0003273939073551446,-0.0028660933021456003
1.7294244619366925e+18,-0.000364782870747149,-0.002378186210989952,-0.0017646378837525845
1.7294244619396925e+18,0.0019623420666903257,-0.0006778684910386801,0.0022868195082992315
1.7294244619456927e+18,0.001542076119221747,-0.0026979497633874416,0.00019824238552246243
1.7294244619516928e+18,-0.0015914697432890534,-0.0008509593899361789,0.0003580846532713622
1.7294244619546929e+18,0.004228589124977589,3.681611815409269e-06,0.00036332436138764024
1.729424461960693e+18,-0.0013670780463144183,-0.0019763701129704714,0.0017980756238102913
1.729424461966693e+18,-0.0010406981455162168,0.0009639884810894728,0.0020469087176024914
1.7294244619696932e+18,-0.00025154135073535144,0.00014461866521742195,0.0008894662605598569
1.7294244619756933e+18,-0.0006662062369287014,-0.00013470443082042038,-0.0026751451659947634
1.7294244619816934e+18,-0.0005608316860161722,-0.0013087530387565494,-0.001484386739321053
1.7294244619876936e+18,0.002051421906799078,0.00227457657456398,0.0031516689341515303
1.7294244619936937e+18,-0.0008986854227259755,0.0010095101315528154,0.0030476043466478586
1.7294244619996938e+18,0.0013904253719374537,0.0011592020746320486,-0.0012056170962750912
1.729424462002694e+18,-0.0020370804704725742,0.0030857394449412823,0.0005065797595307231
1.729424462008694e+18,0.0023720841854810715,0.0010352748213335872,-0.0007880990742705762
1.7294244620146941e+18,-0.00013727812620345503,-0.0005304954829625785,-0.00032941935933195055
1.7294244620206943e+18,0.000135961061459966,-0.0011905659921467304,0.0006266753189265728
1.7294244620236943e+18,0.003795080352574587,0.0034890638198703527,0.0012854263186454773
1.7294244620296945e+18,-9.975850116461515e-05,0.00023910205345600843,-0.003906708210706711
1.7294244620356946e+18,-0.00034215167397633195,-0.00029112366610206664,-0.002780353184789419
1.7294244620416947e+18,-0.0010600803652778268,-0.00040201249066740274,-0.000626704073511064
1.7294244620446948e+18,0.0032310488168150187,-0.003297429997473955,0.0032211749348789454
1.729424462050695e+18,0.0009668651618994772,0.0018207874381914735,0.00033761016675271094
1.729424462056695e+18,-0.0026437039487063885,-0.00046964461216703057,0.0032671752851456404
1.7294244620626952e+18,-0.002892259508371353,0.0002664904750417918,0.0011296363081783056
1.7294244620656952e+18,0.0009323703707195818,-0.0008915195940062404,-0.00035112295881845057
1.7294244620716954e+18,-0.002563226968050003,6.42253871774301e-05,0.0007961247465573251
1.7294244620776955e+18,-0.0009486515773460269,-0.001548618427477777,0.0026211130898445845
1.7294244620836956e+18,0.00030006965971551836,0.00021156865113880485,0.0020225942134857178
1.7294244620866957e+18,0.00037743328721262515,-0.001144234323874116,-0.0009673752938397229
1.7294244620926958e+18,0.001787523622624576,-0.0016015368746593595,0.003559077624231577
1.729424462098696e+18,0.001926193363033235,-6.789780309190974e-05,0.0016064138617366552
1.729424462104696e+18,-9.279650839744136e-05,-0.00019058826728723943,-0.0007967216079123318
1.729424462107696e+18,-0.00013071653665974736,-0.0012906021438539028,0.002708123531192541
1.7294244621136963e+18,-0.0014405050314962864,0.0006723488913848996,-0.000604016415309161
1.7294244621196964e+18,-0.0027271134313195944,0.002350146183744073,-0.0005839750519953668
1.7294244621256965e+18,7.320519944187254e-05,0.0009590606787241995,-0.0006485885242000222
1.7294244621286966e+18,-4.466625250643119e-05,0.0008311763522215188,-0.003093367675319314
1.7294244621346967e+18,0.0013405438512563705,-0.001982082612812519,0.0011104678269475698
1.7294244621406968e+18,0.0006927361828275025,-0.0011168738128617406,0.0007370837265625596
1.729424462143697e+18,-0.00013902953651268035,-0.0007689010817557573,-0.0014244485646486282
1.729424462149697e+18,-0.0016236655646935105,0.00260514160618186,0.0035954040940850973
1.7294244621556972e+18,-0.0008502175332978368,-0.0012885747710242867,-0.0008061848348006606
1.7294244621586972e+18,-0.0031295213848352432,0.002130084903910756,0.0006910537485964596
1.7294244621646973e+18,0.002497941255569458,0.001450069947168231,0.00024564462364651263
1.7294244621706975e+18,-0.0012583904899656773,-0.0019047867972403765,0.00019700250413734466
1.7294244621766976e+18,-0.0008282856433652341,-0.000566575734410435,0.0024269111454486847
1.7294244621796977e+18,0.0014083846472203732,0.00028036677394993603,-0.000299169187201187
1.7294244621856978e+18,-0.0009304838022217155,0.00039967650081962347,0.0005759574705734849
1.729424462191698e+18,0.0011623515747487545,-0.0016307651530951262,-0.001346973585896194
1.729424462197698e+18,-0.004191849380731583,0.0006550874677486718,-0.0017882605316117406
1.729424462200698e+18,0.00345392688177526,-0.0015782777918502688,-0.0006565930671058595
1.7294244622066982e+18,0.0022383672185242176,-9.021642472362146e-05,0.0026906842831522226
1.7294244622126984e+18,-0.00028204754926264286,-0.0004923620726913214,0.0013675179798156023
1.7294244622156984e+18,-0.0009843135485425591,0.00020101071277167648,0.00043523317435756326
1.7294244622216986e+18,-0.0001353238185402006,-0.00032467549317516387,-0.0027663549408316612
1.7294244622276987e+18,-0.0024591749534010887,6.64136023260653e-05,0.0027710904832929373
1.7294244622306988e+18,0.0019691013731062412,-0.0006630794377997518,0.0011627424973994493
1.729424462236699e+18,9.032423986354843e-05,-0.0011028009466826916,-0.0007082346710376441
1.729424462242699e+18,-0.0009875098476186395,-0.0003898805007338524,-3.985598232247867e-05
1.7294244622486991e+18,0.0010394398123025894,-0.0004182083357591182,0.0027469357009977102
1.7294244622516992e+18,0.0009654697496443987,-0.0030702061485499144,0.0017162282019853592
1.7294244622576993e+18,-0.00038771703839302063,0.00023240082373376936,0.0004279092827346176
1.7294244622636995e+18,-0.00027279104688204825,4.26083461206872e-05,-0.0025928074028342962
1.7294244622696996e+18,-0.00019824272021651268,0.0004106100823264569,-0.002035959158092737
1.7294244622726996e+18,-0.0010855966247618198,0.002409173408523202,-0.002760999370366335
1.7294244622786998e+18,0.0001869685365818441,0.0011500951368361712,0.0015664802631363273
1.7294244622847e+18,-0.0022939532063901424,-0.0013894778676331043,-0.0008585970499552786
1.7294244622877e+18,0.0008662153850309551,-0.003280265722423792,0.0016593538457527757
1.7294244622937e+18,0.003367477562278509,0.0012573403073474765,-0.002143300138413906
1.7294244622997002e+18,-0.001717014703899622,0.0002913278294727206,0.001066879485733807
1.7294244623057004e+18,-0.0003838108677882701,0.002596452599391341,0.0009072733810171485
1.7294244623117005e+18,0.001780193648301065,0.0007773902034386992,0.0031362692825496197
1.7294244623147005e+18,-0.0019386636558920145,-0.0022430720273405313,0.0010095787001773715
1.7294244623207007e+18,0.0019735191017389297,0.0008269519312307239,0.0034381228033453226
1.7294244623267008e+18,-0.000281675485894084,0.0016229547327384353,0.0024309135042130947
1.7294244623297009e+18,-0.0008457335061393678,0.0009194565936923027,0.0004413849674165249
1.729424462335701e+18,-0.0013625193387269974,0.001300748554058373,-0.0027720825746655464
1.729424462341701e+18,0.0011635777773335576,0.001231827074661851,-0.000605604553129524
1.7294244623477012e+18,0.0018868388142436743,-0.0013243561843410134,0.0029081813991069794
1.7294244623507013e+18,0.000980313285253942,0.0012155971489846706,-0.0007772452663630247
1.7294244623567014e+18,0.00037823242018930614,-0.0011051766341552138,0.0014168474590405822
1.7294244623627016e+18,0.0021718910429626703,0.002914064098149538,0.0017431197920814157
1.7294244623657016e+18,0.002254169899970293,-0.00019412350957281888,-1.4321687558549456e-05
1.7294244623717018e+18,-0.00038855470484122634,-0.0005436410428956151,0.0013906534295529127
1.729424462377702e+18,0.001389996730722487,-0.0006442483863793314,0.00017439218936488032
1.729424462383702e+18,-0.0015206944663077593,0.0015560303581878543,0.0012038717977702618
1.729424462386702e+18,-9.623870573705062e-05,0.0004618157690856606,-0.0003410431381780654
1.7294244623927022e+18,0.0012162032071501017,-0.0017648389330133796,0.0001266477192984894
1.7294244623987023e+18,0.0005433317855931818,-0.001503140665590763,0.0007983666728250682
1.7294244624047025e+18,-0.0016349641373381019,0.0017029392765834928,0.0009233219316229224
1.7294244624077025e+18,-0.001290561049245298,-0.0006818740512244403,0.002037681872025132
1.7294244624137027e+18,0.00020763062639161944,0.001117515959776938,0.001832511043176055
1.7294244624197028e+18,-0.0005828411667607725,-0.0007505941903218627,0.001950758625753224
1.7294244624227028e+18,-2.2496278688777238e-05,0.0008055787184275687,-0.0006984684150665998
1.729424462428703e+18,-0.0029215924441814423,0.0008272208506241441,-0.0022060468327254057
1.729424462434703e+18,0.0015791532350704074,-0.0005616933922283351,0.001550982822664082
1.7294244624407032e+18,0.0035063435789197683,-0.0025641920510679483,0.00034840821172110736
1.7294244624437033e+18,-0.0011551919160410762,-0.00041945703560486436,0.002985211554914713
1.7294244624497034e+18,-0.0010633183410391212,0.0012887819902971387,0.0009792712517082691
1.7294244624557036e+18,-0.0005272016278468072,-9.062115714186803e-05,-0.0005192875396460295
1.7294244624617037e+18,0.002134904731065035,-0.001535262679681182,0.001293869223445654
1.7294244624647037e+18,0.0009595488663762808,-0.0006783363642171025,-0.0014231778914108872
1.7294244624707039e+18,0.00030162115581333637,0.0034969854168593884,-0.0007244484731927514
1.729424462476704e+18,0.0021627391688525677,0.0017768500838428736,0.00030568608781322837
1.729424462479704e+18,0.00055713951587677,0.0011205847840756178,-0.001021711272187531
1.7294244624857042e+18,0.00026115478249266744,0.0018278909847140312,-0.0014999000122770667
1.7294244624917043e+18,0.0008249739184975624,0.000825128227006644,-0.00048020557733252645
1.7294244624977044e+18,-0.0020544149447232485,0.0015644520753994584,0.001411665347404778
1.7294244625037046e+18,0.0032044085673987865,-0.0009024301543831825,-0.0006137009477242827
1.7294244625067046e+18,-0.0011982140131294727,0.0011866266140714288,-0.002946107881143689
1.7294244625127048e+18,0.0023562556598335505,-0.0010537081398069859,-0.0022087995894253254
1.729424462518705e+18,0.0002861645771190524,-5.676438377122395e-05,-0.0014818741474300623
1.729424462524705e+18,-0.0021177148446440697,-0.0001946946285897866,0.0009490687516517937
1.729424462527705e+18,-0.0007416135049425066,0.0016865023644641042,-0.0011600978905335069
1.7294244625337052e+18,-0.00118614686653018,-0.00047231485950760543,0.0021439995616674423
1.7294244625397053e+18,0.0021365985739976168,0.0011382179800421,0.001080721733160317
1.7294244625457055e+18,0.0010341642191633582,0.0003438338462729007,-0.001593461143784225
1.7294244625487055e+18,-0.0005183189059607685,0.00041563119157217443,0.0007109259604476392
1.7294244625547057e+18,-0.0017915493808686733,-0.003904653713107109,0.002533429069444537
1.7294244625607058e+18,0.0016934593440964818,-0.0010843671625480056,-0.001448816037736833
1.729424462566706e+18,0.003119952278211713,-0.001676209969446063,-0.00047210356569848955
1.729424462572706e+18,0.0013346701161935925,-0.0006538204615935683,0.00183756067417562
1.729424462575706e+18,0.0012022665468975902,0.002211533021181822,0.0014202026650309563
1.7294244625817062e+18,0.001150677097029984,-0.002425416372716427,0.0014379768399521708
1.7294244625877064e+18,-0.0005125987809151411,-0.0011632845271378756,-0.0015653081936761737
1.7294244625907064e+18,0.0002892623015213758,-0.0017281094333156943,0.002022717846557498
1.7294244625967066e+18,-0.0017422812525182962,-0.00025771011132746935,-0.002188401995226741
1.7294244626027067e+18,0.002509037498384714,-0.00018142256885766983,0.0004559755325317383
1.7294244626087068e+18,0.0006175929447636008,-0.0010745134204626083,0.0007842218619771302
1.729424462611707e+18,-0.0021260001230984926,0.00048362111556343734,-0.0004816806176677346
1.729424462617707e+18,0.0014067906886339188,0.0003336836234666407,-4.268409247742966e-05
1.7294244626237071e+18,-3.614921297412366e-05,0.0011419629445299506,0.0007499336497858167
1.7294244626297073e+18,0.00023642124142497778,0.0007805853965692222,0.0020491904579102993
1.7294244626327073e+18,-0.003002431709319353,0.0010522205848246813,0.0009231568546965718
1.7294244626387075e+18,0.0019110244465991855,0.0019077565521001816,0.0013381624594330788
1.7294244626447076e+18,-0.00023589319607708603,-0.001748147769831121,0.0024415431544184685
1.7294244626507077e+18,-0.00027393471100367606,0.0029770268592983484,0.0010453267022967339
1.7294244626567078e+18,0.0007676968816667795,-8.159161370713264e-05,-0.0017138643888756633
1.729424462659708e+18,0.0007569068693555892,0.0003287923464085907,-0.0018552577821537852
1.729424462665708e+18,0.0001069725476554595,-0.0030847841408103704,-0.000465857214294374
1.729424462668708e+18,0.00146795017644763,-0.0021936497651040554,-0.0005822023958899081
1.7294244626747082e+18,0.0011629998916760087,-0.0004288957570679486,0.0009076723363250494
1.7294244626807084e+18,-0.0002757989277597517,-0.00020107650198042393,0.0015393963549286127
1.7294244626867085e+18,0.00096649129409343,0.002476151566952467,-0.0017379679484292865
1.7294244626897085e+18,-0.001563817379064858,-0.0007967751589603722,0.0010681429412215948
1.7294244626957087e+18,0.00039185179048217833,-0.0015301199164241552,-0.0001426315284334123
1.7294244627017088e+18,0.002040291205048561,-0.0001953211467480287,0.0012537334114313126
1.7294244627047089e+18,-0.00021666543034370989,-0.00030856631929054856,-0.001232506474480033
1.729424462710709e+18,-0.0019519682973623276,0.001373228500597179,-0.0018555333372205496
1.729424462716709e+18,-0.002105615334585309,0.0002653122355695814,-0.003130013355985284
1.7294244627227092e+18,0.0010781378950923681,0.0012358124367892742,-0.0015629447298124433
1.7294244627287094e+18,0.0002689876710064709,3.800746344495565e-05,0.0014895448694005609
1.7294244627317094e+18,0.0010493810987100005,-0.002167625818401575,-0.0013286876492202282
1.7294244627377096e+18,0.00175927160307765,-0.0021593787241727114,-0.0008538178517483175
1.7294244627437097e+18,-0.0022826583590358496,0.00266427849419415,0.00018156805890612304
1.7294244627467098e+18,-0.00033802774851210415,0.0013553258031606674,-0.002231330843642354
1.72942446275271e+18,0.0013047691900283098,-0.0006549869431182742,-0.0005132470396347344
1.72942446275871e+18,-6.130443216534331e-05,0.003551553701981902,0.00039479066617786884
1.7294244627647101e+18,0.00022043568606022745,-6.109199148340849e-06,0.00027187971863895655
1.7294244627707103e+18,-0.0033110962249338627,-0.001140286447480321,0.00036749651189893484
1.7294244627737103e+18,0.0024174137506633997,-1.7859323634183966e-05,0.0015302493702620268
1.7294244627797105e+18,0.0005342066287994385,-3.810341513599269e-05,0.0014034698251634836
1.7294244627857106e+18,0.0019749198108911514,-0.001095656887628138,0.002175181871280074
1.7294244627917107e+18,-0.0012749002780765295,-0.0024108318611979485,-0.0009569903486408293
1.7294244627947108e+18,-0.00030938207055442035,0.0012828527251258492,0.0007609748281538486
1.729424462800711e+18,0.002033309079706669,-0.0015039046993479133,4.856047235080041e-05
1.729424462806711e+18,0.0014824396930634975,0.0003035144181922078,0.0010321610607206821
1.729424462809711e+18,0.00025265401927754283,0.003458593040704727,-0.002995544346049428
1.7294244628157112e+18,0.0016628135927021503,0.0009623246151022613,-0.00031587042030878365
1.7294244628217114e+18,2.2699472538079135e-05,-0.0006000768044032156,0.000412925350246951
1.7294244628277115e+18,-0.015208344906568527,0.028874333947896957,0.0007290082867257297
1.7294244628337116e+18,-0.03486483916640282,0.06712530553340912,0.00010546221164986491
1.7294244628367117e+18,-0.04416024312376976,0.08854887634515762,-0.0015292882453650236
1.7294244628427118e+18,-0.06250512599945068,0.13062390685081482,0.0023096520453691483
1.729424462848712e+18,-0.07589559257030487,0.16250509023666382,0.00021557521540671587
1.729424462854712e+18,-0.08718214929103851,0.18627537786960602,-0.0021090293303132057
1.729424462857712e+18,-0.08931919187307358,0.19411352276802063,-0.002438304712995887
1.7294244628637123e+18,-0.08342524617910385,0.20064422488212585,-0.002457804512232542
1.7294244628697124e+18,-0.07628031075000763,0.19469043612480164,-0.001129059586673975
1.7294244628727124e+18,-0.07506154477596283,0.19094493985176086,-0.0009485820773988962
1.7294244628787126e+18,-0.06280770152807236,0.1771865338087082,-0.0006716898642480373
1.7294244628847127e+18,-0.05531393364071846,0.1670248657464981,-0.001634221407584846
1.7294244628907128e+18,-0.047336459159851074,0.15877172350883484,-0.0024056206457316875
1.729424462896713e+18,-0.05061781406402588,0.15879209339618683,-0.0020636736880987883
1.729424462899713e+18,-0.05544368550181389,0.15880899131298065,-0.004148851614445448
1.7294244629057132e+18,-0.062392737716436386,0.16811540722846985,-0.0018064395990222692
1.7294244629117133e+18,-0.07002140581607819,0.1727968156337738,-0.005141706205904484
1.7294244629147133e+18,-0.0737793892621994,0.1773933619260788,-0.004138593561947346
1.7294244629207135e+18,-0.07920552790164948,0.1782587170600891,-0.004142791498452425
1.7294244629267136e+18,-0.07622918486595154,0.17863249778747559,-0.005422176793217659
1.7294244629297137e+18,-0.07454562187194824,0.17269401252269745,-0.004951591603457928
1.7294244629357138e+18,-0.0667940080165863,0.1657482534646988,-0.003969457000494003
1.729424462941714e+18,-0.05610407888889313,0.15080639719963074,-0.0018478662241250277
1.729424462947714e+18,-0.045769259333610535,0.13814565539360046,-0.0038286177441477776
1.729424462950714e+18,-0.03738236054778099,0.13069882988929749,-0.0037447395734488964
1.7294244629567142e+18,-0.032348889857530594,0.12081325054168701,-0.0044228266924619675
1.7294244629627144e+18,-0.02803085930645466,0.10937278717756271,-0.004839706234633923
1.7294244629687145e+18,-0.031999751925468445,0.10453195869922638,-0.0058017298579216
1.7294244629747146e+18,-0.030703628435730934,0.0994449034333229,-0.002654394367709756
1.7294244629777147e+18,-0.033310212194919586,0.09390462934970856,-0.007895305752754211
1.7294244629837148e+18,-0.03419016674160957,0.08873233199119568,-0.0047407993115484715
1.729424462989715e+18,-0.03736131638288498,0.08567002415657043,-0.00574457086622715
1.729424462995715e+18,-0.03431961312890053,0.07900039106607437,-0.006926972884684801
1.7294244629987151e+18,-0.031245851889252663,0.07338657975196838,-0.006109235808253288
1.7294244630047153e+18,-0.023410160094499588,0.06251143664121628,-0.007707267068326473
1.7294244630107154e+18,-0.017538877204060555,0.0536193773150444,-0.005560159683227539
1.7294244630167155e+18,-0.013472363352775574,0.04133535921573639,-0.00645672669634223
1.7294244630227156e+18,-0.0033698061015456915,0.03149675205349922,-0.005067720543593168
1.7294244630257157e+18,-0.0006886018672958016,0.02789521962404251,-0.007794129196554422
1.7294244630317158e+18,-0.002065390581265092,0.016275804489850998,-0.007965730503201485
1.729424463037716e+18,0.0011834383476525545,0.011717942543327808,-0.007423392031341791
1.729424463040716e+18,0.0020720926113426685,0.004436120390892029,-0.008436252363026142
1.7294244630467162e+18,0.0025259172543883324,0.002082591410726309,-0.006218830589205027
1.7294244630527163e+18,-0.0012523818295449018,-0.004275129176676273,-0.005652457010000944
1.7294244630587164e+18,0.0015508342767134309,-0.006774970330297947,-0.00439545139670372
1.7294244630647165e+18,0.0011974616209045053,-0.013492807745933533,-0.007634266745299101
1.7294244630677166e+18,0.0015618506586179137,-0.016382183879613876,-0.007726405747234821
1.7294244630737167e+18,0.010164386592805386,-0.02345898561179638,-0.005428694654256105
1.7294244630797169e+18,0.013528522104024887,-0.028440076857805252,-0.0031952871941030025
1.729424463085717e+18,0.016954531893134117,-0.033725641667842865,-0.009660559706389904
1.729424463088717e+18,0.02013823576271534,-0.0380425900220871,-0.007013373076915741
1.7294244630947172e+18,0.02115510031580925,-0.04495757818222046,-0.01139170490205288
1.7294244631007173e+18,0.025393584743142128,-0.050545159727334976,-0.00939631462097168
1.7294244631037174e+18,0.0233415886759758,-0.053910255432128906,-0.00799411628395319
1.7294244631097175e+18,0.02369035966694355,-0.05859002470970154,-0.013229962438344955
1.7294244631157176e+18,0.02006440795958042,-0.059173718094825745,-0.01004395168274641
1.7294244631217178e+18,0.0193013958632946,-0.06449195742607117,-0.009324153885245323
1.7294244631247178e+18,0.020272906869649887,-0.06669837236404419,-0.013094231486320496
1.729424463130718e+18,0.020847326144576073,-0.06583565473556519,-0.008908882737159729
1.729424463136718e+18,0.01886047050356865,-0.06907717883586884,-0.009579475969076157
1.7294244631427182e+18,0.0220950860530138,-0.07233846932649612,-0.01039096899330616
1.7294244631487183e+18,0.020770668983459473,-0.07074537128210068,-0.008398622274398804
1.7294244631517184e+18,0.02456997148692608,-0.07215575128793716,-0.00985739566385746
1.7294244631577185e+18,0.024275438860058784,-0.0790821835398674,-0.009968648664653301
1.7294244631637187e+18,0.02686777524650097,-0.08017245680093765,-0.007702329196035862
1.7294244631697188e+18,0.022885803133249283,-0.08203525096178055,-0.010441889055073261
1.7294244631727188e+18,0.029105907306075096,-0.08110693097114563,-0.009816134348511696
1.729424463178719e+18,0.028132060542702675,-0.08933249115943909,-0.008036229759454727
1.729424463184719e+18,0.027479348704218864,-0.08612807095050812,-0.01223455648869276
1.7294244631877192e+18,0.025457652285695076,-0.0876128077507019,-0.011965608224272728
1.7294244631937193e+18,0.026562154293060303,-0.08482209593057632,-0.008252140134572983
1.7294244631997194e+18,0.029058437794446945,-0.08466433733701706,-0.009183202870190144
1.7294244632057196e+18,0.02428366057574749,-0.08469776809215546,-0.010592502541840076
1.7294244632117197e+18,0.027497585862874985,-0.08084914088249207,-0.012168888002634048
1.7294244632147197e+18,0.024678342044353485,-0.08250211179256439,-0.011803698725998402
1.7294244632207199e+18,0.027174757793545723,-0.07870834320783615,-0.013191692531108856
1.72942446322672e+18,0.026247087866067886,-0.08245719969272614,-0.011793716810643673
1.72942446322972e+18,0.03061049059033394,-0.08359764516353607,-0.00902931485325098
1.7294244632357202e+18,0.026469958946108818,-0.0812886506319046,-0.010175113566219807
1.7294244632417203e+18,0.023281848058104515,-0.08459825068712234,-0.011899742297828197
1.7294244632447204e+18,0.023239918053150177,-0.08370473980903625,-0.010279474779963493
1.7294244632507205e+18,0.026606857776641846,-0.08422886580228806,-0.011918931268155575
1.7294244632567206e+18,0.025433940812945366,-0.08041884005069733,-0.010411586612462997
1.7294244632597207e+18,0.02398577891290188,-0.07786840945482254,-0.009447674266994
1.7294244632657208e+18,0.02455683797597885,-0.08109621703624725,-0.010825014673173428
1.729424463271721e+18,0.02219517156481743,-0.07779385149478912,-0.010136364959180355
1.729424463274721e+18,0.022624673321843147,-0.07319151610136032,-0.011201763525605202
1.7294244632807212e+18,0.02431276999413967,-0.0764899030327797,-0.01177059393376112
1.7294244632867213e+18,0.02393525280058384,-0.0734565481543541,-0.015574151650071144
1.7294244632927214e+18,0.02429155260324478,-0.07041933387517929,-0.010344760492444038
1.7294244632957215e+18,0.024533584713935852,-0.07370511442422867,-0.013395166955888271
1.7294244633017216e+18,0.02430569939315319,-0.07331594079732895,-0.010873852297663689
1.7294244633077217e+18,0.022671760991215706,-0.07257970422506332,-0.011996526271104813
1.7294244633137219e+18,0.025818567723035812,-0.07351234555244446,-0.010190934874117374
1.729424463316722e+18,0.020366206765174866,-0.06790148466825485,-0.01345447264611721
1.729424463322722e+18,0.022883420810103416,-0.0661928802728653,-0.010193214751780033
1.7294244633287222e+18,0.02295934222638607,-0.06583353877067566,-0.011267370544373989
1.7294244633347223e+18,0.021206185221672058,-0.06327807158231735,-0.013169445097446442
1.7294244633377224e+18,0.022286463528871536,-0.06474398821592331,-0.012798606418073177
1.7294244633437225e+18,0.021912001073360443,-0.060185253620147705,-0.013480570167303085
1.7294244633497226e+18,0.02125258557498455,-0.0606958270072937,-0.012350637465715408
1.7294244633557228e+18,0.020993612706661224,-0.05977429822087288,-0.012738801538944244
1.7294244633587228e+18,0.01805955357849598,-0.061255741864442825,-0.011762779206037521
1.729424463364723e+18,0.01823217235505581,-0.0567505806684494,-0.009945633821189404
1.729424463370723e+18,0.02173842303454876,-0.05580537021160126,-0.01264012698084116
1.7294244633767232e+18,0.015385818667709827,-0.05266597121953964,-0.013440611772239208
1.7294244633797233e+18,0.016442080959677696,-0.05282462760806084,-0.014196321368217468
1.7294244633857234e+18,0.018347784876823425,-0.048689041286706924,-0.007178456988185644
1.7294244633917235e+18,0.012903166934847832,-0.05086223781108856,-0.012100555934011936
1.7294244633977236e+18,0.016355101019144058,-0.04883246123790741,-0.013360803946852684
1.7294244634007237e+18,0.014478059485554695,-0.04526748135685921,-0.013254537247121334
1.7294244634067238e+18,0.01746176742017269,-0.04799249768257141,-0.012361346744000912
1.729424463412724e+18,0.01656125858426094,-0.04660680890083313,-0.011057792231440544
1.729424463418724e+18,0.01710355654358864,-0.046445127576589584,-0.0127976443618536
1.7294244634217242e+18,0.016337640583515167,-0.04365760087966919,-0.009146900847554207
1.7294244634277243e+18,0.017534246668219566,-0.04276485741138458,-0.01275597419589758
1.7294244634337244e+18,0.015650108456611633,-0.038995444774627686,-0.012134472839534283
1.7294244634397245e+18,0.01143735647201538,-0.04168754070997238,-0.01069776900112629
1.7294244634427246e+18,0.014627506956458092,-0.03698285296559334,-0.012659362517297268
1.7294244634487247e+18,0.014453110285103321,-0.03813272342085838,-0.01492935698479414
1.7294244634547249e+18,0.014626198448240757,-0.03675691410899162,-0.011575629003345966
1.729424463457725e+18,0.013785951770842075,-0.038099899888038635,-0.013524152338504791
1.729424463463725e+18,0.012423788197338581,-0.03484076261520386,-0.012042813934385777
1.7294244634697252e+18,0.0132356658577919,-0.031370311975479126,-0.012554840184748173
1.7294244634757253e+18,0.010366245172917843,-0.03686089813709259,-0.01337365061044693
1.7294244634817254e+18,0.011800466105341911,-0.03599591180682182,-0.009337889961898327
1.7294244634847255e+18,0.01100179459899664,-0.032403524965047836,-0.012224544771015644
1.7294244634907256e+18,0.007522799074649811,-0.03027413971722126,-0.007565570063889027
1.7294244634967258e+18,0.010831478051841259,-0.026345308870077133,-0.010973198339343071
1.7294244634997258e+18,0.009941170923411846,-0.03037283569574356,-0.010861841961741447
1.729424463505726e+18,0.011549877002835274,-0.030105002224445343,-0.01165112666785717
1.729424463511726e+18,0.008460271172225475,-0.030976101756095886,-0.011749090626835823
1.7294244635147261e+18,0.008182310499250889,-0.02498650923371315,-0.010864099487662315
1.7294244635207263e+18,0.008872625418007374,-0.024626780301332474,-0.011184241622686386
1.7294244635267264e+18,0.008440150879323483,-0.02780792862176895,-0.013287886045873165
1.7294244635327265e+18,0.010525496676564217,-0.028568653389811516,-0.010815680958330631
1.7294244635387267e+18,0.010722745209932327,-0.0279372725635767,-0.015066859312355518
1.7294244635417267e+18,0.0061485120095312595,-0.029229488223791122,-0.010895861312747002
1.7294244635477268e+18,0.00939860288053751,-0.028268616646528244,-0.012508690357208252
1.729424463553727e+18,0.008323099464178085,-0.030456077307462692,-0.013582098297774792
1.729424463556727e+18,0.008595380000770092,-0.030195189639925957,-0.010915741324424744
1.7294244635627272e+18,0.00866786204278469,-0.025987649336457253,-0.012609517201781273
1.7294244635687273e+18,0.008293851278722286,-0.02583882212638855,-0.009561540558934212
1.7294244635747274e+18,0.006050453521311283,-0.02287033013999462,-0.008310375735163689
1.7294244635807276e+18,0.006579875480383635,-0.02235369198024273,-0.012491773813962936
1.7294244635837276e+18,0.010478001087903976,-0.01988314464688301,-0.012161865830421448
1.7294244635897277e+18,0.008881838992238045,-0.020464444532990456,-0.00981096737086773
1.729424463595728e+18,0.009305526502430439,-0.02114179916679859,-0.013620981946587563
1.729424463601728e+18,0.00813971646130085,-0.023353535681962967,-0.014935254119336605
1.729424463604728e+18,0.010626276023685932,-0.02612622268497944,-0.009074277244508266
1.7294244636107282e+18,0.014890812337398529,-0.02233833447098732,-0.010349329560995102
1.7294244636167283e+18,0.013248035684227943,-0.026234127581119537,-0.012299908325076103
1.7294244636197284e+18,0.011580548249185085,-0.023984678089618683,-0.014455756172537804
1.7294244636257285e+18,0.007588198408484459,-0.025219233706593513,-0.008864384144544601
1.7294244636317286e+18,0.008891730569303036,-0.02244330197572708,-0.010514995083212852
1.7294244636347287e+18,0.006715231575071812,-0.02088179439306259,-0.009872233495116234
1.7294244636407288e+18,0.0048715537413954735,-0.019712893292307854,-0.012010703794658184
1.729424463646729e+18,0.008119517005980015,-0.01708640344440937,-0.00985692534595728
1.729424463652729e+18,0.006805448792874813,-0.017342718318104744,-0.0125512033700943
1.7294244636587292e+18,0.010182427242398262,-0.013986270874738693,-0.01169848907738924
1.7294244636617293e+18,0.01120609138160944,-0.015640217810869217,-0.014019809663295746
1.7294244636677294e+18,0.01528149750083685,-0.01647915504872799,-0.008623341098427773
1.7294244636737295e+18,0.013266516849398613,-0.016673922538757324,-0.010198576375842094
1.7294244636767296e+18,0.012548993341624737,-0.016931096091866493,-0.012305732816457748
1.7294244636827297e+18,0.009664319455623627,-0.01582346297800541,-0.013853996060788631
1.7294244636887299e+18,0.007989231497049332,-0.016782443970441818,-0.011736582964658737
1.72942446369473e+18,0.006841887719929218,-0.019807377830147743,-0.0097353495657444
1.72942446369773e+18,0.004175742156803608,-0.020696895197033882,-0.01146592479199171
1.7294244637037302e+18,0.004121509846299887,-0.019069327041506767,-0.010719140991568565
1.7294244637097303e+18,0.005020697135478258,-0.014872441068291664,-0.010430129244923592
1.7294244637157304e+18,0.008543573319911957,-0.017417091876268387,-0.009746475145220757
1.7294244637187305e+18,0.006745951250195503,-0.013646608218550682,-0.009937435388565063
1.7294244637247306e+18,0.00993414968252182,-0.012852449901401997,-0.008482621051371098
1.7294244637307308e+18,0.0054174307733774185,-0.017603779211640358,-0.010095540434122086
1.7294244637337308e+18,0.009169640019536018,-0.017150405794382095,-0.008188687264919281
1.729424463739731e+18,0.007680785842239857,-0.016225624829530716,-0.008783023804426193
1.729424463745731e+18,0.00536007434129715,-0.015873616561293602,-0.011088291183114052
1.7294244637487311e+18,0.007706162519752979,-0.014536476694047451,-0.010643224231898785
1.7294244637547313e+18,0.007482705172151327,-0.016007263213396072,-0.009760629385709763
1.7294244637607314e+18,0.005627975799143314,-0.01713033765554428,-0.009477797895669937
1.7294244637667315e+18,0.007004055194556713,-0.017398927360773087,-0.007376106921583414
1.7294244637727316e+18,0.004714027978479862,-0.013348767533898354,-0.006777416914701462
1.7294244637757317e+18,0.004226903431117535,-0.014322555623948574,-0.011301030404865742
1.7294244637817318e+18,0.004345509223639965,-0.01589902676641941,-0.006738106720149517
1.729424463787732e+18,0.005464497953653336,-0.01810859516263008,-0.008426538668572903
1.729424463790732e+18,0.0045916070230305195,-0.015189127996563911,-0.007550133857876062
1.7294244637967322e+18,0.003213742282241583,-0.016522075980901718,-0.009207206778228283
1.7294244638027323e+18,0.004371624439954758,-0.01806114800274372,-0.008156017400324345
1.7294244638087324e+18,0.004433215130120516,-0.01337452232837677,-0.010214673355221748
1.7294244638147325e+18,0.0025437260046601295,-0.013681667856872082,-0.005559729412198067
1.7294244638177326e+18,0.0022909166291356087,-0.013312865979969501,-0.00802138727158308
1.7294244638237327e+18,0.0051584867760539055,-0.011828201822936535,-0.011186156421899796
1.7294244638297329e+18,0.0029926798306405544,-0.012777558527886868,-0.0076924278400838375
1.729424463835733e+18,0.003669624449685216,-0.014876393601298332,-0.007200666703283787
1.729424463838733e+18,0.0019206422148272395,-0.013752520084381104,-0.006571845151484013
1.7294244638447332e+18,0.004658392630517483,-0.01095296535640955,-0.0105740400031209
1.7294244638507333e+18,0.004569314420223236,-0.014001592062413692,-0.00617443211376667
1.7294244638567334e+18,0.001759673934429884,-0.014095190912485123,-0.007067129947245121
1.7294244638597335e+18,0.005122230388224125,-0.014031578786671162,-0.007665981538593769
1.7294244638657336e+18,0.007512424141168594,-0.014969519339501858,-0.007236293517053127
1.7294244638717338e+18,0.005143946036696434,-0.01645980216562748,-0.004622555337846279
1.7294244638747338e+18,0.006992153823375702,-0.016047349199652672,-0.006791293155401945
1.729424463880734e+18,0.004514265805482864,-0.016115114092826843,-0.007649283390492201
1.729424463886734e+18,0.0065742721781134605,-0.015690989792346954,-0.005224267020821571
1.7294244638927342e+18,0.005392947234213352,-0.017198432236909866,-0.006820027716457844
1.7294244638987343e+18,0.005637339781969786,-0.013295231387019157,-0.00695936381816864
1.7294244639017344e+18,0.0023823599331080914,-0.014467138797044754,-0.006994367577135563
1.7294244639077345e+18,0.005406919866800308,-0.017459554597735405,-0.00606423057615757
1.7294244639137347e+18,0.007229842245578766,-0.01633172295987606,-0.005554908886551857
1.7294244639167347e+18,0.005484121851623058,-0.014026140794157982,-0.007221374195069075
1.7294244639227348e+18,0.006521205883473158,-0.010647901333868504,-0.004046973306685686
1.729424463928735e+18,0.006029866635799408,-0.010310029610991478,-0.0042305211536586285
1.729424463934735e+18,0.005486796610057354,-0.012858962640166283,-0.006106758955866098
1.7294244639377352e+18,0.007347858045250177,-0.012507214210927486,-0.007748729549348354
1.7294244639437353e+18,0.006584444548934698,-0.012019923888146877,-0.004389000590890646
1.7294244639497354e+18,0.0053992560133337975,-0.011053727939724922,-0.004486992955207825
1.7294244639527355e+18,0.005636817310005426,-0.009608498774468899,-0.0061431024223566055
1.7294244639587356e+18,0.007387568708509207,-0.011712473817169666,-0.005969380494207144
1.7294244639647357e+18,0.008121395483613014,-0.013034666888415813,-0.006523048505187035
1.7294244639707359e+18,0.005512947216629982,-0.013041193597018719,-0.0018894001841545105
1.729424463973736e+18,0.0047174193896353245,-0.01218939758837223,-0.007783650886267424
1.729424463979736e+18,0.005998420063406229,-0.013285068795084953,-0.004006605129688978
1.7294244639857362e+18,0.005246604327112436,-0.013217912055552006,-0.0038472353480756283
1.7294244639917363e+18,0.006407963577657938,-0.011175022460520267,-0.004606470465660095
1.7294244639947364e+18,0.003229021094739437,-0.01421289797872305,-0.007262221537530422
1.7294244640007365e+18,0.004078245721757412,-0.01262284629046917,-0.004496975336223841
1.7294244640067366e+18,0.005141670815646648,-0.01035687979310751,-0.006724554114043713
1.7294244640127368e+18,0.006674123462289572,-0.01199821475893259,-0.00238879956305027
1.7294244640157368e+18,0.005564799532294273,-0.013050655834376812,-0.005888011306524277
1.729424464021737e+18,0.0022204769775271416,-0.011434432119131088,-0.0047489916905760765
1.729424464027737e+18,0.004914040211588144,-0.013455837965011597,-0.003176703117787838
1.7294244640337372e+18,0.002212714636698365,-0.010438374243676662,-0.003909309860318899
1.7294244640367373e+18,0.0021178708411753178,-0.012859411537647247,-0.0041177780367434025
1.7294244640427374e+18,0.002759357448667288,-0.012654933147132397,-0.006280073896050453
1.7294244640487375e+18,0.002190568018704653,-0.011730185709893703,-0.004575314000248909
1.7294244640517376e+18,0.004581189714372158,-0.012061028741300106,-0.0021370528265833855
1.7294244640577377e+18,0.007520879618823528,-0.011119665578007698,-0.004321342334151268
1.7294244640637379e+18,0.008038976229727268,-0.01041310653090477,-0.0020204796455800533
1.729424464066738e+18,0.008615527302026749,-0.007861764170229435,-0.0029109374154359102
1.729424464072738e+18,0.005367135629057884,-0.01135561615228653,-0.003203986445441842
1.7294244640787382e+18,0.005343860015273094,-0.011064097285270691,-0.00166834588162601
1.7294244640847383e+18,0.004522137343883514,-0.009039299562573433,-0.001794434618204832
1.7294244640907384e+18,0.00016787974163889885,-0.00841506477445364,-0.0010075285099446774
1.7294244640937385e+18,0.000515215564519167,-0.012758202850818634,-0.0008161163423210382
1.7294244640997386e+18,0.0009955901186913252,-0.008823832497000694,-0.0009464602917432785
1.7294244641057388e+18,0.0006958225276321173,-0.007557347416877747,-0.002935938071459532
1.729424464111739e+18,-0.0008546051103621721,-0.00823263544589281,-0.003854235867038369
1.729424464114739e+18,0.0013576287310570478,-0.010425022803246975,-0.0012504553887993097
1.729424464120739e+18,0.0023763852659612894,-0.008652511984109879,-0.0035825541708618402
1.7294244641267392e+18,0.004486542660742998,-0.0032185900490731,-0.0028216997161507607
1.7294244641327393e+18,0.0035979398526251316,-0.003988356329500675,-0.004105899017304182
1.7294244641387395e+18,0.0032284045591950417,-0.004424136597663164,-0.0025883775670081377
1.7294244641447396e+18,0.003550637047737837,-0.005592409521341324,-0.002335798926651478
1.7294244641477396e+18,0.00645477045327425,-0.0028399662114679813,-0.0023080981336534023
1.7294244641537398e+18,0.003758304752409458,-0.002189015503972769,-0.0028847295325249434
1.72942446415974e+18,0.0012811445631086826,-0.007747630588710308,-0.0019945886451750994
1.72942446416574e+18,-0.0010295226238667965,-0.0017652297392487526,-0.0033702978398650885
1.7294244641717402e+18,0.001352786086499691,-0.007341484073549509,-0.00314689171500504
1.7294244641777403e+18,0.00042519235284999013,-0.005458320956677198,0.001451093703508377
1.7294244641837404e+18,0.0014224452897906303,-0.00632635410875082,-0.0048899417743086815
1.7294244641897405e+18,0.002090239664539695,-0.00342031242325902,-0.0021127949003130198
1.7294244641927406e+18,0.0007838666788302362,-0.006981638725847006,0.00012825545854866505
1.7294244641987407e+18,-0.0019107076805084944,-0.005426202435046434,-0.0030687283724546432
1.7294244642047409e+18,0.0021638122852891684,-0.002352402312681079,-0.0006934516131877899
1.729424464210741e+18,0.0034241913817822933,-0.004156490322202444,-0.0015369132161140442
1.729424464216741e+18,0.0013004748616367579,-0.003722255351021886,-0.0024882270954549313
1.7294244642227412e+18,0.0027856710366904736,-0.0017063225386664271,-0.002649162895977497
1.7294244642287414e+18,0.0027016771491616964,-0.0002984104212373495,0.000186286517418921
1.7294244642347415e+18,0.003650971921160817,-0.0016405091155320406,0.0008407535497099161
1.7294244642407416e+18,0.003837988246232271,-0.004146520979702473,-0.0023726276122033596
1.7294244642467418e+18,0.0009562482591718435,-0.001396863255649805,-0.003432256169617176
1.7294244642497418e+18,0.0016330413054674864,-0.0021077273413538933,-0.0024490137584507465
1.729424464255742e+18,0.00385483680292964,-0.003541700541973114,-0.0007692176732234657
1.729424464261742e+18,-0.0011822814121842384,-0.0024334355257451534,-0.0008778964984230697
1.7294244642677422e+18,0.0003595182206481695,-0.002877197228372097,-0.0016794251278042793
1.7294244642737423e+18,0.0011913083726540208,-0.003745195921510458,-0.0009726714342832565
1.7294244642797425e+18,0.0007984488038346171,-0.003812093287706375,0.0003101038746535778
1.7294244642857426e+18,0.0010468035470694304,-0.003621060401201248,-0.0028418665751814842
1.7294244642917427e+18,0.0024136437568813562,0.00030576600693166256,-0.0019082744838669896
1.7294244642947428e+18,0.0012135099386796355,-0.004686372820287943,-0.0009173027938231826
1.729424464300743e+18,0.00220229453407228,-0.0018676790641620755,0.0013232596684247255
1.729424464306743e+18,0.0006932261167094111,-0.0060274843126535416,-0.0024368418380618095
1.7294244643127432e+18,0.0020948946475982666,-0.0026127358432859182,-0.00244120042771101
1.7294244643187433e+18,0.005636228248476982,-0.0034365844912827015,-0.004088979214429855
1.7294244643247434e+18,0.0025714151561260223,-0.0010867808014154434,0.0012026091571897268
1.7294244643277435e+18,0.0015587303787469864,-0.0018749344162642956,-0.00023933238117024302
1.7294244643337436e+18,0.0021339035592973232,-0.0015761691611260176,-0.0009281871607527137
1.7294244643397437e+18,0.0033393665216863155,-0.001100467168726027,-0.00021966983331367373
1.729424464345744e+18,0.0027446874883025885,-0.003135703271254897,-0.0008902520639821887
1.729424464351744e+18,-0.0006586576346307993,-0.005311061628162861,-0.001415737671777606
1.729424464357744e+18,-0.0014038985827937722,-0.0001020731870085001,-0.000452335923910141
1.7294244643607442e+18,0.00010912225116044283,-0.0032449625432491302,0.0011532217031344771
1.7294244643667443e+18,-0.001341978320851922,-0.0047146957367658615,0.00025502825155854225
1.7294244643727444e+18,-0.001502516563050449,-0.0023863581009209156,-0.001013083616271615
1.7294244643787446e+18,0.004294012673199177,-0.002535284496843815,0.0015107594663277268
1.7294244643817446e+18,-0.0013201539404690266,-0.004073696210980415,0.00021227941033430398
1.7294244643877448e+18,-0.00023804348893463612,-0.00210763281211257,0.00015793615602888167
1.729424464393745e+18,0.00074336351826787,0.0009526757057756186,-0.00021180621115490794
1.729424464396745e+18,0.003860901575535536,-0.000994947855360806,-0.00020798176410607994
1.729424464402745e+18,0.0006151892594061792,0.0010138277430087328,0.0026132925413548946
1.7294244644087452e+18,0.0013373034307733178,0.0010978539939969778,0.0013464924413710833
1.7294244644147453e+18,0.0017511582700535655,0.001612509018741548,-0.00015467897173948586
1.7294244644207455e+18,0.0030634503345936537,-0.0015247632982209325,0.0005489400937221944
1.7294244644237455e+18,0.004146890714764595,0.0013173770857974887,0.0007852038834244013
1.7294244644297457e+18,0.00507548451423645,0.0010203126585111022,-0.00040235876804217696
1.7294244644357458e+18,0.002115135081112385,0.0006542215123772621,0.0015899523859843612
1.7294244644387459e+18,0.001066131517291069,0.0032697259448468685,0.001043458003550768
1.729424464444746e+18,0.004741168115288019,0.004017340950667858,0.0020225606858730316
1.729424464450746e+18,0.005063953343778849,0.00322990445420146,0.0006016651750542223
1.7294244644567462e+18,0.004047473892569542,0.003151902463287115,0.00044768452062271535
1.7294244644597463e+18,0.002695987233892083,0.003476085141301155,-0.0017204786418005824
1.7294244644657464e+18,0.0019279560074210167,0.0021964837796986103,-0.0014670658856630325
1.7294244644717466e+18,0.0013471590355038643,0.0055427406914532185,0.003930715844035149
1.7294244644777467e+18,0.001659132307395339,0.002272634068503976,0.0014721555635333061
1.7294244644807468e+18,0.0019178347429260612,0.0055874064564704895,-0.0001132540637627244
1.729424464486747e+18,0.0034103579819202423,0.0038733878172934055,0.0004201637930236757
1.729424464492747e+18,0.004015158396214247,0.006951327435672283,0.002400594297796488
1.7294244644987471e+18,0.005809554364532232,0.004867855459451675,0.0020656068809330463
1.7294244645017472e+18,0.004336887504905462,0.00605489406734705,-0.000265852315351367
1.7294244645077473e+18,0.004058462101966143,0.005224971566349268,0.0015480287838727236
1.7294244645137475e+18,0.005301823373883963,0.0068333884701132774,0.004694423638284206
1.7294244645167475e+18,0.004959477111697197,0.007859080098569393,0.002769946586340666
1.7294244645227476e+18,0.0014194417744874954,0.007972512394189835,0.00018906849436461926
1.7294244645287478e+18,0.0010351315140724182,0.004643172957003117,0.0005958526162430644
1.729424464534748e+18,0.0028011323884129524,0.004497478250414133,0.0006248778663575649
1.729424464537748e+18,-0.001762871164828539,0.005933116655796766,0.000695255002938211
1.729424464543748e+18,0.0024424707517027855,0.0029802140779793262,-0.00014858879148960114
1.7294244645497482e+18,0.0017320177285000682,0.0060564931482076645,0.0008480522083118558
1.7294244645557484e+18,0.004190726205706596,0.005789521150290966,0.002739841118454933
1.7294244645587484e+18,0.0030999777372926474,0.006634332239627838,0.0015460102586075664
1.7294244645647485e+18,0.002205947181209922,0.005715132225304842,0.0014632379170507193
1.7294244645707487e+18,0.004939891863614321,0.0034573040902614594,0.003914778120815754
1.7294244645767488e+18,0.004620574880391359,0.0016947474796324968,0.0033547566272318363
1.7294244645797489e+18,0.001439756015315652,0.0030907667241990566,-0.0001672238577157259
1.729424464585749e+18,0.0007363439071923494,0.0015443521551787853,-0.0006675210315734148
1.729424464591749e+18,0.0013729034690186381,0.003913392312824726,0.002874440513551235
1.7294244645977492e+18,-0.0001562692632433027,0.0046904683113098145,-0.0014044838026165962
1.7294244646037494e+18,-0.0020950741600245237,0.007317676208913326,0.0030430066399276257
1.7294244646067494e+18,0.0011285771615803242,0.006253504194319248,0.0031777932308614254
1.7294244646127496e+18,-0.0005069365724921227,0.00814303569495678,0.00394381582736969
1.7294244646187497e+18,0.00036501383874565363,0.003958092071115971,0.0034135032910853624
1.7294244646217498e+18,0.0008960512932389975,0.0055458685383200645,0.0018778872909024358
1.72942446462775e+18,0.0014985913876444101,0.00787458848208189,0.0019145776750519872
1.72942446463375e+18,0.0008859416702762246,0.005550552159547806,0.003039850387722254
1.7294244646397501e+18,-0.0007890264969319105,0.0023042093962430954,0.0038955763448029757
1.7294244646457503e+18,0.0004955035401508212,0.0009862896986305714,0.0016902254428714514
1.7294244646517504e+18,-0.0002750940329860896,0.0010351665550842881,0.0004375989083200693
1.7294244646547505e+18,-0.0008543884614482522,0.003424448426812887,0.0021860753186047077
1.7294244646607506e+18,-0.001843174803070724,-2.7896137908101082e-05,0.005997498519718647
1.7294244646667507e+18,0.0024009973276406527,0.004557856824249029,0.005803621839731932
1.7294244646697508e+18,0.0008305783267132938,-0.0014023666735738516,0.003074011765420437
1.729424464675751e+18,0.002019049134105444,0.006680385675281286,0.0026988284662365913
1.729424464681751e+18,-0.0010042504873126745,0.007187467068433762,0.0056208278983831406
1.7294244646877512e+18,0.0020844361279159784,0.00694621866568923,0.0017365753883495927
1.7294244646907512e+18,0.003503939602524042,0.0038845662493258715,-0.00020131515339016914
1.7294244646967514e+18,5.018443334847689e-05,0.007889595814049244,0.0021735532209277153
1.7294244647027515e+18,7.338961586356163e-05,0.0065229893662035465,0.004706920124590397
1.7294244647087516e+18,0.0010894718579947948,0.006089045666158199,0.0014483402483165264
1.7294244647117517e+18,-0.0010162870166823268,0.0064651514403522015,0.003139845095574856
1.7294244647177518e+18,0.003203426022082567,0.004385029897093773,0.003339726710692048
1.729424464723752e+18,-0.002331674797460437,0.0026273811236023903,0.004267649259418249
1.729424464729752e+18,0.001471600728109479,0.005680586211383343,0.0051267617382109165
1.7294244647327521e+18,-0.00034616811899468303,0.005524355918169022,0.006886735558509827
1.7294244647387523e+18,0.0017607815098017454,0.006738682743161917,0.0026050759479403496
1.7294244647447524e+18,0.004960970021784306,0.010389400646090508,0.003856974421069026
1.7294244647507525e+18,0.004184912424534559,0.010036990977823734,0.003048166399821639
1.7294244647537526e+18,0.0030579150188714266,0.009373716078698635,0.0029349776450544596
1.7294244647597527e+18,0.003352686297148466,0.010136621072888374,0.002208806574344635
1.7294244647657528e+18,0.0029122252017259598,0.009749915450811386,0.002645133063197136
1.729424464768753e+18,-0.0010076642502099276,0.010763539001345634,0.003537979908287525
1.729424464774753e+18,0.0004380453610792756,0.007373649626970291,0.002609996357932687
1.7294244647807532e+18,-0.0007372532272711396,0.00705289002507925,0.004091125912964344
1.7294244647867533e+18,0.0006062623579055071,0.00332297058776021,0.005056772381067276
1.7294244647897533e+18,-0.00015390958287753165,0.006610142532736063,0.0037913864944130182
1.7294244647957535e+18,0.0015353988856077194,0.00455230288207531,0.003928036894649267
1.7294244648017536e+18,0.003961358219385147,0.006329163443297148,0.003278902033343911
1.7294244648077537e+18,0.001583180041052401,0.008381236344575882,0.006413597147911787
1.7294244648107538e+18,0.0015763076953589916,0.007463530171662569,0.0030304724350571632
1.729424464816754e+18,0.003813822753727436,0.008056080900132656,0.0019989144057035446
1.729424464822754e+18,0.0038428669795393944,0.011683691293001175,0.005210197996348143
1.7294244648287542e+18,0.003328384831547737,0.002176822628825903,0.002318962709978223
1.7294244648317542e+18,0.005168649833649397,0.007264942396432161,0.0020111626945436
1.7294244648377544e+18,0.0054486412554979324,0.006070417817682028,0.005324589088559151
1.7294244648437545e+18,-7.06047285348177e-05,0.0033223326317965984,0.007621300406754017
1.7294244648497546e+18,0.006403033621609211,0.007143950089812279,0.004536304622888565
1.7294244648527547e+18,0.004125581588596106,0.006571711041033268,0.004914111457765102
1.7294244648587548e+18,0.0024996416177600622,0.007740874774754047,0.0044003985822200775
1.729424464864755e+18,0.003580546472221613,0.009320857934653759,0.004166740924119949
1.729424464870755e+18,0.0023345802910625935,0.013040103949606419,0.003358816960826516
1.7294244648767552e+18,0.0029203053563833237,0.00917770341038704,0.0016665824223309755
1.7294244648797553e+18,0.003037048736587167,0.009881041944026947,0.004859582986682653
1.7294244648857554e+18,0.0011807763949036598,0.00827631913125515,0.004960501566529274
1.7294244648917555e+18,0.003532355884090066,0.01032393891364336,0.0004563671536743641
1.7294244648947556e+18,-0.0007970563601702452,0.006578859873116016,0.0051492550410330296
1.7294244649007557e+18,0.002125842496752739,0.009476197883486748,0.0037481170147657394
1.7294244649067558e+18,0.001914679305627942,0.011309467256069183,0.004934513475745916
1.729424464912756e+18,0.0013476768508553505,0.005987456068396568,0.006970042362809181
1.729424464915756e+18,-0.001156091457232833,0.009055732749402523,0.003724716603755951
1.7294244649217562e+18,0.001333876047283411,0.007783101871609688,0.005445269402116537
1.7294244649277563e+18,-0.0011335831368342042,0.009685694240033627,0.002769955201074481
1.7294244649337564e+18,1.8662569345906377e-05,0.007809944450855255,0.005076168105006218
1.7294244649367565e+18,0.0003520560567267239,0.009945572353899479,0.006478026509284973
1.7294244649427566e+18,-0.0020717857405543327,0.00794169120490551,0.003945671953260899
1.7294244649487567e+18,0.0015446149045601487,0.011630204506218433,0.003457046812400222
1.7294244649547569e+18,-0.0006206231191754341,0.007598571479320526,0.0024828859604895115
1.729424464957757e+18,-0.0015431795036420226,0.007729620207101107,0.003445233451202512
1.729424464963757e+18,0.0020989738404750824,0.006041690707206726,0.00013771443627774715
1.7294244649697572e+18,-0.0005456513026729226,0.005893482360988855,0.0018024115124717355
1.7294244649757573e+18,-0.00412078807130456,0.007758286315947771,0.002681482583284378
1.7294244649787574e+18,0.0018468289636075497,0.009320763871073723,0.0033550364896655083
1.7294244649847575e+18,-0.000545595190487802,0.006965672131627798,0.0013820717576891184
1.7294244649907576e+18,-0.0008318016771227121,0.008152819238603115,0.003301204415038228
1.7294244649967578e+18,-0.006946937181055546,0.008572669699788094,0.003240005811676383
1.7294244649997578e+18,-0.004922662395983934,0.008298072963953018,0.0030141989700496197
1.729424465005758e+18,-0.004807901568710804,0.007615535985678434,0.0022679571993649006
1.729424465011758e+18,-0.005503500811755657,0.01023815292865038,0.002150156069546938
1.7294244650177582e+18,-0.0036951936781406403,0.009861740283668041,0.004280930384993553
1.7294244650237583e+18,-0.0021041524596512318,0.005701017566025257,0.004433062858879566
1.7294244650267584e+18,-0.003484623273834586,0.011091243475675583,0.0021061613224446774
1.7294244650327585e+18,-0.004507505334913731,0.008388590067625046,0.004645988345146179
1.7294244650387587e+18,0.0016816346906125546,0.00975257158279419,0.003216956974938512
1.7294244650447588e+18,-0.0013217319501563907,0.009959602728486061,0.004377729259431362
1.7294244650477588e+18,-0.0012824604054912925,0.0037259957753121853,0.004858574829995632
1.729424465053759e+18,-0.0008137861732393503,0.004630502313375473,0.00272040581330657
1.729424465059759e+18,-0.0037553184665739536,0.007732515688985586,0.003932177554816008
1.7294244650657592e+18,-0.0021654528100043535,0.008857672102749348,0.00556641910225153
1.7294244650717594e+18,-0.004976324737071991,0.010662645101547241,0.0031348278280347586
1.7294244650747594e+18,-0.006933353841304779,0.00879735592752695,0.0032607666216790676
1.7294244650807596e+18,-0.003943625371903181,0.011336463503539562,0.0017118706600740552
1.7294244650867597e+18,-0.006263923365622759,0.007788997143507004,0.0037069099489599466
1.7294244650927598e+18,-0.0037395386025309563,0.012344390153884888,0.002717936411499977
1.72942446509576e+18,-0.00319176958873868,0.010315516963601112,0.004162998870015144
1.72942446510176e+18,-0.0026657977141439915,0.01164519414305687,0.0025253042113035917
1.72942446510776e+18,-0.0017092482885345817,0.008394701406359673,0.0063873035833239555
1.7294244651137603e+18,-0.002065549837425351,0.008147159591317177,0.0025649447925388813
1.7294244651167603e+18,-0.0024196174927055836,0.0059558493085205555,0.0028706812299788
1.7294244651227604e+18,-0.0019477726891636848,0.006645850371569395,0.0019701241981238127
1.7294244651287606e+18,-0.005290803499519825,0.00796452909708023,0.002963387407362461
1.7294244651347607e+18,-0.0017178893322125077,0.008039496839046478,0.0018094481201842427
1.7294244651377608e+18,-0.0040534804575145245,0.006884187925606966,0.004027849994599819
1.729424465143761e+18,-0.0031742616556584835,0.008997545577585697,0.004891174845397472
1.729424465149761e+18,-0.004173180088400841,0.007148675620555878,0.004060954786837101
1.729424465152761e+18,-0.004160762764513493,0.007680193986743689,0.004797712899744511
1.7294244651587612e+18,-0.00597621314227581,0.0029900248628109694,-0.00102304108440876
1.7294244651647613e+18,-0.013077202253043652,0.003757657017558813,-0.008965082466602325
1.7294244651677614e+18,-0.01258919294923544,0.0011939145624637604,-0.01287555880844593
1.7294244651737615e+18,-0.01595032960176468,0.0013420877512544394,-0.027339525520801544
1.7294244651797617e+18,-0.01889614574611187,-0.0004422577621880919,-0.034636661410331726
1.7294244651827617e+18,-0.022139649838209152,-0.0012208977714180946,-0.037745218724012375
1.7294244651887619e+18,-0.018766099587082863,-5.637039430439472e-05,-0.03865524381399155
1.729424465194762e+18,-0.01808282546699047,-0.0007865235675126314,-0.0398050881922245
1.729424465200762e+18,-0.014973577111959457,-0.0004781727911904454,-0.04163894057273865
1.7294244652037622e+18,-0.014671447686851025,0.001474110409617424,-0.04027920216321945
1.7294244652097623e+18,-0.010705439373850822,0.0019652768969535828,-0.04202043265104294
1.7294244652157624e+18,-0.009236195124685764,0.004997570067644119,-0.0389733724296093
1.7294244652217626e+18,-0.007628433406352997,0.00355917913839221,-0.0396520234644413
1.7294244652247626e+18,-0.008677112869918346,0.00415347795933485,-0.03787335380911827
1.7294244652307628e+18,-0.008760537020862103,0.004901432432234287,-0.03667338564991951
1.729424465236763e+18,-0.008925165981054306,0.007295633666217327,-0.03554530069231987
1.729424465242763e+18,-0.009225782938301563,0.0027896331157535315,-0.038523536175489426
1.729424465245763e+18,-0.012679433450102806,0.0011397275375202298,-0.03950989618897438
1.7294244652517632e+18,-0.012242932803928852,0.0051638660952448845,-0.039848778396844864
1.7294244652577633e+18,-0.009340991266071796,0.0021458601113408804,-0.03771563619375229
1.7294244652607634e+18,-0.00782619509845972,0.0015146052464842796,-0.03483903780579567
1.7294244652667635e+18,-0.00855870358645916,0.002306389156728983,-0.03485047444701195
1.7294244652727636e+18,-0.005050613544881344,0.004466366488486528,-0.036024030297994614
1.7294244652787638e+18,-0.001608036458492279,0.0025142915546894073,-0.03661282733082771
1.729424465284764e+18,0.0004523731768131256,0.006042853929102421,-0.03541213274002075
1.729424465290764e+18,-0.0010184913408011198,0.008544350042939186,-0.03162374347448349
1.729424465293764e+18,-0.0024281409569084644,0.004774780478328466,-0.03333292156457901
1.7294244652997642e+18,-0.0027426606975495815,0.007547793909907341,-0.03376590833067894
1.7294244653057644e+18,-0.0027165089268237352,0.006976782344281673,-0.032522138208150864
1.7294244653087644e+18,-0.005973687395453453,0.006955017801374197,-0.03084910288453102
1.7294244653147645e+18,-0.0036865207366645336,0.004865867085754871,-0.03008924424648285
1.7294244653207647e+18,-0.005395702086389065,0.00622212328016758,-0.03201515972614288
1.7294244653267648e+18,-0.00833593774586916,0.007858553901314735,-0.02884654514491558
1.7294244653297649e+18,-0.006179571617394686,0.008424661122262478,-0.02864214777946472
1.729424465335765e+18,-0.0033687821123749018,0.006778165698051453,-0.025945063680410385
1.729424465341765e+18,-0.0030359302181750536,0.009697766974568367,-0.025949960574507713
1.7294244653447652e+18,-0.002009408315643668,0.007389002479612827,-0.023464471101760864
1.7294244653507653e+18,-0.0012936394196003675,0.008378608152270317,-0.02492927387356758
1.7294244653567654e+18,0.002110412809997797,0.01040417980402708,-0.020153282210230827
1.7294244653627656e+18,-0.0015238600317388773,0.010186169296503067,-0.021593281999230385
1.7294244653657656e+18,0.0011041676625609398,0.010342570021748543,-0.020009014755487442
1.7294244653717658e+18,0.0007767835631966591,0.01198525819927454,-0.01708318665623665
1.729424465377766e+18,0.001830210443586111,0.014820106327533722,-0.01605129987001419
1.729424465383766e+18,-0.0009199632331728935,0.014528149738907814,-0.015458011999726295
1.729424465386766e+18,-0.001989385113120079,0.011112650856375694,-0.01712590828537941
1.7294244653927662e+18,-0.003448332892730832,0.013477005064487457,-0.015554583631455898
1.7294244653987663e+18,-0.005579158663749695,0.0110051603987813,-0.01417606882750988
1.7294244654047665e+18,-0.0017113132635131478,0.010564482770860195,-0.00898993294686079
1.7294244654077665e+18,-0.0008791316067799926,0.009857336059212685,-0.009444225579500198
1.7294244654137667e+18,0.000580139341764152,0.012120770290493965,-0.006885888986289501
1.7294244654197668e+18,-0.0022902232594788074,0.01190915610641241,-0.009758837521076202
1.729424465425767e+18,0.004093054682016373,0.012766996398568153,-0.005023636855185032
1.729424465431767e+18,0.0020801133941859007,0.01352757215499878,-0.006249699741601944
1.729424465434767e+18,0.0025129010900855064,0.01223292201757431,-0.006340796127915382
1.7294244654407672e+18,0.0008129207417368889,0.01135355792939663,-0.0011792064178735018
1.7294244654467674e+18,0.0022028982639312744,0.011669566854834557,-0.001805322477594018
1.7294244654497674e+18,0.0028479723259806633,0.014347242191433907,0.00020811933791264892
1.7294244654557676e+18,-0.004298007115721703,0.013196931220591068,0.0024140472523868084
1.7294244654617677e+18,-0.002794944914057851,0.013398652896285057,0.0018961718305945396
1.7294244654677678e+18,-0.003248433116823435,0.011533024720847607,0.0055008260533213615
1.7294244654707679e+18,-0.008971264585852623,0.010573006235063076,0.0032485397532582283
1.729424465476768e+18,-0.0028362073935568333,0.011119559407234192,0.007649143226444721
1.7294244654827681e+18,-0.002375677227973938,0.012419176287949085,0.008779516443610191
1.7294244654857682e+18,-0.0017375878524035215,0.007609211374074221,0.007432847283780575
1.7294244654917683e+18,-0.00034550088457763195,0.011088945902884007,0.009904620237648487
1.7294244654977684e+18,0.004188524559140205,0.010604648850858212,0.01235841866582632
1.7294244655037686e+18,0.004601499997079372,0.01179218478500843,0.011854945681989193
1.7294244655097687e+18,0.004718732088804245,0.01382179744541645,0.014045163057744503
1.7294244655127688e+18,0.006193033419549465,0.012687575072050095,0.015467002987861633
1.729424465518769e+18,0.001942276954650879,0.011464356444776058,0.012224607169628143
1.729424465524769e+18,0.0028144214302301407,0.010584297589957714,0.01653185673058033
1.7294244655307692e+18,0.0026836914476007223,0.013914191164076328,0.020946895703673363
1.7294244655337692e+18,0.002573656849563122,0.013002488762140274,0.01972757838666439
1.7294244655397693e+18,0.00039447570452466607,0.010604760609567165,0.021969804540276527
1.7294244655457695e+18,-0.0008494802750647068,0.012409806251525879,0.025687478482723236
1.7294244655487695e+18,0.005482460372149944,0.013031848706305027,0.022377829998731613
1.7294244655547697e+18,0.0022972640581429005,0.009546375833451748,0.026146642863750458
1.7294244655607698e+18,0.00699990801513195,0.013746559619903564,0.029880361631512642
1.7294244655637699e+18,0.001838840777054429,0.011177835054695606,0.027366232126951218
1.72942446556977e+18,0.006414568517357111,0.012022112496197224,0.027658848091959953
1.72942446557577e+18,0.007218457292765379,0.010769551619887352,0.03143497556447983
1.7294244655817702e+18,0.006166683975607157,0.011416261084377766,0.03258080407977104
1.7294244655847703e+18,0.008025923743844032,0.013842481188476086,0.0366731658577919
1.7294244655907704e+18,0.004029112868010998,0.008805131539702415,0.03388162702322006
1.7294244655967706e+18,0.0017570373602211475,0.009433581493794918,0.03659973666071892
1.7294244656027707e+18,0.0019476329907774925,0.011656767688691616,0.039269328117370605
1.7294244656057708e+18,0.004707754123955965,0.011839601211249828,0.04155111312866211
1.729424465611771e+18,0.0028634052723646164,0.013518045656383038,0.04363279044628143
1.729424465617771e+18,0.0031797033734619617,0.011538677848875523,0.04241209104657173
1.729424465620771e+18,0.002619766630232334,0.014001280069351196,0.044624216854572296
1.7294244656267712e+18,0.0036742943339049816,0.014734636060893536,0.048976603895425797
1.7294244656327713e+18,0.0053166793659329414,0.013174816966056824,0.04850536957383156
1.7294244656357714e+18,0.004152336157858372,0.013390420004725456,0.04841218888759613
1.7294244656417715e+18,0.005136544816195965,0.012076501734554768,0.04784981533885002
1.7294244656477716e+18,0.005060892086476088,0.013319358229637146,0.048690129071474075
1.7294244656537718e+18,-0.0007623820565640926,0.010461092926561832,0.05609217658638954
1.7294244656567718e+18,0.0026787579990923405,0.009614275768399239,0.05480111017823219
1.729424465662772e+18,0.0015797462547197938,0.008517386391758919,0.055453814566135406
1.729424465668772e+18,0.003458422841504216,0.011546486988663673,0.05596619099378586
1.7294244656747722e+18,0.0033911168575286865,0.01222629938274622,0.06306777894496918
1.7294244656777723e+18,0.0009173438884317875,0.007883444428443909,0.06089441850781441
1.7294244656837724e+18,0.006320975720882416,0.011385227553546429,0.05963468179106712
1.7294244656897725e+18,0.004335899371653795,0.011280186474323273,0.06272944808006287
1.7294244656927726e+18,0.003823468927294016,0.012622722424566746,0.061114758253097534
1.7294244656987727e+18,0.005110844504088163,0.00723668746650219,0.06615866720676422
1.7294244657047729e+18,0.004133495036512613,0.007509737275540829,0.06372768431901932
1.729424465710773e+18,0.0053201778791844845,0.007540854625403881,0.06781136989593506
1.729424465713773e+18,0.0009431068319827318,0.008614299818873405,0.06916704028844833
1.7294244657197732e+18,0.002895719837397337,0.010461621917784214,0.06875813007354736
1.7294244657257733e+18,0.0019291320350021124,0.008207320235669613,0.06964972615242004
1.7294244657287734e+18,0.005840843077749014,0.010019528679549694,0.06944025307893753
1.7294244657347735e+18,0.002347654663026333,0.009120340459048748,0.07148399949073792
1.7294244657407736e+18,0.0025944660883396864,0.005614188499748707,0.07402950525283813
1.7294244657467738e+18,0.0012488487409427762,0.011537227779626846,0.07600049674510956
1.729424465752774e+18,0.004602015018463135,0.006399447098374367,0.07428152114152908
1.729424465758774e+18,0.0034959628246724606,0.008287835866212845,0.07793858647346497
1.729424465761774e+18,0.00039222295163199306,0.009962378069758415,0.07719802856445312
1.7294244657677742e+18,0.0025971776340156794,0.011072011664509773,0.07862210273742676
1.7294244657737743e+18,-0.0005940814735367894,0.006686441134661436,0.08154618740081787
1.7294244657797745e+18,0.0006302554975263774,0.007593489717692137,0.08048268407583237
1.7294244657857746e+18,-0.002858162857592106,0.011166691780090332,0.08218152821063995
1.7294244657887747e+18,-4.743225872516632e-06,0.00633393507450819,0.08068720996379852
1.7294244657947748e+18,-0.002265464048832655,0.006261724513024092,0.08545953035354614
1.729424465800775e+18,-0.004074340220540762,0.005845646373927593,0.08546236157417297
1.729424465806775e+18,-0.0031885895878076553,0.010335738770663738,0.08588848263025284
1.729424465809775e+18,-0.0033995131962001324,0.008377302438020706,0.0854971781373024
1.7294244658157752e+18,0.0006456160917878151,0.01047040056437254,0.08615415543317795
1.7294244658217754e+18,-0.000796913227532059,0.008933710865676403,0.08657540380954742
1.7294244658277755e+18,0.0009091715328395367,0.0070547787472605705,0.08792783319950104
1.7294244658307756e+18,0.0020427238196134567,0.008404675871133804,0.09236571937799454
1.7294244658367757e+18,0.0008338171755895019,0.009352173656225204,0.0882398784160614
1.7294244658427758e+18,0.002083740197122097,0.011957598850131035,0.09198329597711563
1.729424465845776e+18,-0.0008444873383268714,0.00941232405602932,0.09324463456869125
1.729424465851776e+18,0.00024204184592235833,0.013965828344225883,0.09304787218570709
1.729424465857776e+18,-0.0017748121172189713,0.011852461844682693,0.09304618090391159
1.7294244658637763e+18,-0.002405805280432105,0.010521795600652695,0.09353534877300262
1.7294244658667763e+18,-0.002093132119625807,0.011451546102762222,0.09723147004842758
1.7294244658727764e+18,-0.0019723596051335335,0.008724420331418514,0.0970049574971199
1.7294244658787766e+18,-0.001692110439762473,0.010966213420033455,0.09345021098852158
1.7294244658817766e+18,-0.0021942893508821726,0.010023148730397224,0.09584194421768188
1.7294244658877768e+18,-0.0032068132422864437,0.009625150822103024,0.09719768166542053
1.729424465893777e+18,-0.004215836990624666,0.008932537399232388,0.0964684784412384
1.729424465896777e+18,-0.0036043724976480007,0.008468007668852806,0.09538911283016205
1.729424465902777e+18,-0.0006588668329641223,0.01064292248338461,0.09696448594331741
1.7294244659087772e+18,-0.0007229860057123005,0.00904100202023983,0.10007118433713913
1.7294244659117773e+18,-0.0030143847689032555,0.00875500775873661,0.09577085077762604
1.7294244659177774e+18,-0.002965476829558611,0.006195302587002516,0.0969279408454895
1.7294244659237775e+18,0.0001309172948822379,0.007973304018378258,0.097468301653862
1.7294244659297777e+18,-0.0036927987821400166,0.009221279993653297,0.0986669510602951
1.7294244659327777e+18,-0.0028552734293043613,0.00586472824215889,0.09856199473142624
1.7294244659387779e+18,-0.0037139831110835075,0.011052345857024193,0.10154104232788086
1.729424465944778e+18,0.00018267706036567688,0.0061689093708992004,0.09963759034872055
1.729424465950778e+18,-0.0030631714034825563,0.004608545918017626,0.09749554097652435
1.7294244659567782e+18,-0.003570688422769308,0.0064071048982441425,0.09692005813121796
1.7294244659597783e+18,0.00012040417641401291,0.005112359765917063,0.1008361354470253
1.7294244659657784e+18,-0.0016973146703094244,0.006899902131408453,0.09942891448736191
1.7294244659717786e+18,-0.004888338036835194,0.004721993580460548,0.10153327137231827
1.7294244659777787e+18,7.439893670380116e-05,0.005363520700484514,0.10091271251440048
1.7294244659807788e+18,-0.0038904985412955284,0.005424996837973595,0.10096275061368942
1.729424465986779e+18,-0.0009349909378215671,0.004023436456918716,0.10115841776132584
1.729424465992779e+18,-0.0006289288867264986,0.007432714570313692,0.10040398687124252
1.7294244659987791e+18,0.00018664455274119973,0.003942668437957764,0.10093429684638977
1.7294244660017792e+18,0.0015595777658745646,0.004537955857813358,0.10383088141679764
1.7294244660077793e+18,-0.0021824657451361418,0.00528356060385704,0.10194681584835052
1.7294244660137795e+18,-0.00039171925163827837,0.006790214218199253,0.10330193489789963
1.7294244660197796e+18,0.0011028270237147808,0.006656678393483162,0.10021219402551651
1.7294244660227796e+18,0.00021383113926276565,0.004750619642436504,0.10228621959686279
1.7294244660287798e+18,-0.002258892171084881,0.005046227015554905,0.10312842577695847
1.72942446603478e+18,-0.002552852500230074,0.007278868462890387,0.10092554241418839
1.72942446604078e+18,-0.0035361391492187977,0.005597651936113834,0.10008401423692703
1.72942446604378e+18,0.002345119370147586,0.005356739275157452,0.10080581903457642
1.7294244660497802e+18,-0.001682821661233902,0.0072896406054496765,0.10091836005449295
1.7294244660557804e+18,-0.0006835286621935666,0.006259727757424116,0.09733089804649353
1.7294244660617805e+18,0.00388088496401906,0.004306841641664505,0.10167065262794495
1.7294244660677806e+18,0.001201205188408494,0.007685717195272446,0.1009284183382988
1.7294244660737807e+18,0.0023984359577298164,0.003968709148466587,0.09842108190059662
1.7294244660767808e+18,-0.0004093019524589181,0.00711527606472373,0.10220909118652344
1.729424466082781e+18,0.000483757903566584,0.00682296697050333,0.10504964739084244
1.729424466088781e+18,-0.0003840414574369788,0.009939569048583508,0.0976603627204895
1.7294244660947812e+18,-0.0007322432938963175,0.007687710225582123,0.09911032766103745
1.7294244660977812e+18,-0.0027185010258108377,0.008630753494799137,0.1045454740524292
1.7294244661037814e+18,-0.0010568543802946806,0.008515918627381325,0.10345542430877686
1.7294244661097815e+18,-0.00405029347166419,0.007025728467851877,0.10178536921739578
1.7294244661127816e+18,-0.0032666632905602455,0.007472536526620388,0.0998702123761177
1.7294244661187817e+18,-0.004524527117609978,0.008713986724615097,0.10088231414556503
1.7294244661247818e+18,-0.006075419485569,0.008398273028433323,0.1003490760922432
1.729424466130782e+18,-0.0025829605292528868,0.008219687268137932,0.10155665874481201
1.729424466136782e+18,-0.0039040311239659786,0.01057066023349762,0.09833009541034698
1.7294244661427822e+18,-0.003837188705801964,0.009415383450686932,0.09742297977209091
1.7294244661457823e+18,-0.0007216014200821519,0.009163672104477882,0.0994163304567337
1.7294244661517824e+18,-0.0017436938360333443,0.007452898658812046,0.09866884350776672
1.7294244661577825e+18,0.0005479364190250635,0.00807978492230177,0.0965133011341095
1.7294244661607826e+18,0.0005322159267961979,0.00825559627264738,0.09927181899547577
1.7294244661667827e+18,-0.0018710489384829998,0.009341712109744549,0.09879490733146667
1.7294244661727828e+18,-0.0007399020250886679,0.008884173817932606,0.09978196024894714
1.729424466178783e+18,-0.0019193155458196998,0.007772260345518589,0.09784600883722305
1.729424466184783e+18,-0.0025256455410271883,0.010855215601623058,0.09851399064064026
1.7294244661877832e+18,-0.006031544413417578,0.010226377286016941,0.09902115166187286
1.7294244661937833e+18,-0.007306193932890892,0.006871800869703293,0.10004275292158127
1.7294244661997834e+18,-0.005636076908558607,0.006932341028004885,0.09722336381673813
1.7294244662057836e+18,-0.0029924025293439627,0.006342561449855566,0.09927229583263397
1.7294244662087836e+18,-0.004557674750685692,0.006271773017942905,0.09833873808383942
1.7294244662147837e+18,-0.0032611165661364794,0.0064346669241786,0.09446453303098679
1.7294244662207839e+18,-0.0018462934531271458,0.007320364471524954,0.09306343644857407
1.729424466226784e+18,0.0006025434704497457,0.0016169315204024315,0.095945343375206
1.729424466229784e+18,0.0031322333961725235,0.005001306999474764,0.09288188815116882
1.7294244662357842e+18,0.003020739648491144,0.004472273867577314,0.09597065299749374
1.7294244662417843e+18,0.0067334347404539585,0.010926378890872002,0.09021756052970886
1.7294244662477844e+18,0.002173049608245492,0.007540986407548189,0.09296006709337234
1.7294244662507845e+18,0.0013602097751572728,0.004746913909912109,0.09353252500295639
1.7294244662567846e+18,-0.0026105018332600594,0.008090347982943058,0.09258782863616943
1.7294244662627848e+18,-0.0009445156902074814,0.008520359173417091,0.09086791425943375
1.729424466268785e+18,-0.0032123795244842768,0.005715488456189632,0.08882878720760345
1.729424466274785e+18,-0.0019682813435792923,0.004142987076193094,0.08797703683376312
1.7294244662807852e+18,-0.0012630970450118184,0.0036159195005893707,0.08909684419631958
1.7294244662837852e+18,9.795684309210628e-05,0.00773450406268239,0.08972184360027313
1.7294244662897853e+18,-5.241017788648605e-06,0.00567733496427536,0.08909106254577637
1.7294244662957855e+18,0.0024713249877095222,0.006654524244368076,0.08854936063289642
1.7294244662987855e+18,0.0029955985955893993,0.004591471049934626,0.08859999477863312
1.7294244663047857e+18,0.0005080308765172958,0.009596522897481918,0.08664244413375854
1.7294244663107858e+18,0.004530967213213444,0.008564241230487823,0.08561208844184875
1.729424466316786e+18,0.0023112688213586807,0.0035083298571407795,0.08146467804908752
1.729424466319786e+18,0.0014892921317368746,0.006587404757738113,0.08718511462211609
1.729424466325786e+18,0.0002752302389126271,0.012797354720532894,0.08370428532361984
1.7294244663317862e+18,0.002117193304002285,0.006722490303218365,0.0834982842206955
1.7294244663377864e+18,-0.0005098452093079686,0.01178695634007454,0.08191212266683578
1.7294244663437865e+18,-0.0002344253589399159,0.007924254983663559,0.08325304836034775
1.7294244663467866e+18,-0.0031892177648842335,0.007972203195095062,0.08016999810934067
1.7294244663527867e+18,0.0041815550066530704,0.0033742664381861687,0.08150922507047653
1.7294244663587868e+18,0.003385842777788639,0.006269666366279125,0.07645566761493683
1.729424466364787e+18,-0.0016605074051767588,0.004519904498010874,0.07465583086013794
1.729424466367787e+18,0.0009501962922513485,0.00736282579600811,0.0787968561053276
1.7294244663737871e+18,-0.00625429954379797,0.013366801664233208,0.07476267963647842
1.7294244663797873e+18,-0.015527687035501003,0.018603485077619553,0.0742131769657135
1.7294244663857874e+18,-0.025174854323267937,0.023787690326571465,0.07237198203802109
1.7294244663887875e+18,-0.028394341468811035,0.029258843511343002,0.0746084451675415
1.7294244663947876e+18,-0.03684182092547417,0.03595315292477608,0.06966342777013779
1.7294244664007877e+18,-0.03628155589103699,0.0354970246553421,0.07088608294725418
1.7294244664037878e+18,-0.037298187613487244,0.03610765561461449,0.06968235969543457
1.729424466409788e+18,-0.03498354181647301,0.03632235527038574,0.06748589128255844
1.729424466415788e+18,-0.03297403082251549,0.03466351330280304,0.06856931000947952
1.7294244664217882e+18,-0.02854304201900959,0.03419230505824089,0.06854858249425888
1.7294244664277883e+18,-0.0250861756503582,0.03142423555254936,0.06849102675914764
1.7294244664307884e+18,-0.024202123284339905,0.033783797174692154,0.06455568224191666
1.7294244664367885e+18,-0.02736557088792324,0.034216199070215225,0.06381189078092575
1.7294244664427886e+18,-0.030832769349217415,0.03424210473895073,0.064857617020607
1.7294244664487887e+18,-0.03522481396794319,0.034790024161338806,0.0655595138669014
1.7294244664547889e+18,-0.038069866597652435,0.0346621572971344,0.06326324492692947
1.729424466457789e+18,-0.038297414779663086,0.0370030552148819,0.061848241835832596
1.729424466463789e+18,-0.04173482581973076,0.03798285871744156,0.05809416621923447
1.7294244664697892e+18,-0.043456126004457474,0.040590737015008926,0.06249959394335747
1.7294244664757893e+18,-0.03948033228516579,0.039816394448280334,0.0612405389547348
1.7294244664787894e+18,-0.036964051425457,0.042042143642902374,0.0565943643450737
1.7294244664847895e+18,-0.031041081994771957,0.03751407936215401,0.05954878404736519
1.7294244664907896e+18,-0.026072924956679344,0.03543180972337723,0.055846843868494034
1.7294244664967898e+18,-0.025761397555470467,0.037878815084695816,0.05411282926797867
1.72942446650279e+18,-0.024785220623016357,0.0345756821334362,0.054370325058698654
1.72942446650579e+18,-0.0194825679063797,0.033218495547771454,0.05593862757086754
1.72942446651179e+18,-0.025091340765357018,0.03517353534698486,0.055025387555360794
1.7294244665177902e+18,-0.026555178686976433,0.034689899533987045,0.05444730818271637
1.7294244665237903e+18,-0.025741033256053925,0.033759213984012604,0.053436096757650375
1.7294244665297905e+18,-0.02824261039495468,0.03488573804497719,0.0510651133954525
1.7294244665327905e+18,-0.028331173583865166,0.03482485190033913,0.05237636715173721
1.7294244665387907e+18,-0.025509143248200417,0.03183155879378319,0.052674148231744766
1.7294244665447908e+18,-0.022260161116719246,0.030469754710793495,0.049717068672180176
1.729424466550791e+18,-0.016815317794680595,0.03141247481107712,0.04874797910451889
1.729424466553791e+18,-0.016824996098876,0.03153271600604057,0.045284733176231384
1.729424466559791e+18,-0.009265266358852386,0.028660517185926437,0.048229996114969254
1.7294244665657912e+18,-0.006973555777221918,0.02816431038081646,0.04752486199140549
1.7294244665717914e+18,-0.009807717055082321,0.02307223156094551,0.04456828162074089
1.7294244665777915e+18,-0.012079345062375069,0.020383479073643684,0.045378316193819046
1.7294244665807916e+18,-0.009421220049262047,0.021704835817217827,0.043021414428949356
1.7294244665867917e+18,-0.01371804904192686,0.021253937855362892,0.04549180343747139
1.7294244665927918e+18,-0.013058432377874851,0.01997256837785244,0.04307970404624939
1.729424466598792e+18,-0.010648850351572037,0.021703150123357773,0.041519895195961
1.729424466601792e+18,-0.012621613219380379,0.01806536316871643,0.04152685031294823
1.729424466607792e+18,-0.014213570393621922,0.017818881198763847,0.042228687554597855
1.7294244666137923e+18,-0.006741981953382492,0.014146971516311169,0.03951997682452202
1.7294244666197924e+18,-0.0061347405426204205,0.01689011976122856,0.03948167711496353
1.7294244666257925e+18,-0.005543818697333336,0.015115693211555481,0.041472163051366806
1.7294244666287926e+18,-0.003148888936266303,0.013459082692861557,0.03935220092535019
1.7294244666347927e+18,-0.0020918899681419134,0.014231666922569275,0.04076750949025154
1.7294244666407928e+18,-0.0013235793448984623,0.012372152879834175,0.03906348720192909
1.729424466646793e+18,0.00028495510923676193,0.012640004977583885,0.04025712236762047
1.729424466652793e+18,0.002032499061897397,0.006989530753344297,0.039994750171899796
1.7294244666587932e+18,-0.0016706784954294562,0.00798090547323227,0.03660940006375313
1.7294244666617933e+18,0.00046169699635356665,0.0027759545482695103,0.03577065095305443
1.7294244666677934e+18,-0.00034246593713760376,0.00019796681590378284,0.035759344696998596
1.7294244666737935e+18,0.0023111682385206223,0.000435122346971184,0.03769917041063309
1.7294244666767936e+18,0.0052764806896448135,-0.0011852284660562873,0.03480446711182594
1.7294244666827937e+18,0.0035874866880476475,0.00021486803598236293,0.035065822303295135
1.7294244666887939e+18,0.004439756739884615,0.0010733975796028972,0.03579467535018921
1.729424466691794e+18,0.0028725124429911375,-0.0010564723052084446,0.031313665211200714
1.729424466697794e+18,0.010103697888553143,0.000878700171597302,0.034311894327402115
1.7294244667037942e+18,0.006421195808798075,-0.0031938101164996624,0.030959060415625572
1.7294244667097943e+18,0.008202976547181606,-0.00016196454816963524,0.030863037332892418
1.7294244667157944e+18,0.005018855445086956,-0.00532106589525938,0.033313289284706116
1.7294244667187945e+18,0.008673984557390213,0.0012526859063655138,0.03080064244568348
1.7294244667247946e+18,0.004565431270748377,-0.005030769854784012,0.031008439138531685
1.7294244667307948e+18,0.005569423548877239,-0.004173836205154657,0.031607989221811295
1.729424466736795e+18,0.004640625789761543,-0.002913351636379957,0.02651110105216503
1.729424466739795e+18,0.007007237523794174,-0.0032464454416185617,0.02648571878671646
1.729424466745795e+18,0.00645270012319088,-0.004409318789839745,0.028974566608667374
1.7294244667517952e+18,0.007994289509952068,-0.005144005641341209,0.02642935886979103
1.7294244667577953e+18,0.007670044433325529,-0.0007671648636460304,0.026221100240945816
1.7294244667607954e+18,0.007482890971004963,-0.003350264858454466,0.02526492066681385
1.7294244667667955e+18,0.007638587616384029,-0.002602123422548175,0.028613051399588585
1.7294244667727956e+18,0.009500095620751381,-0.002725656609982252,0.027313966304063797
1.7294244667787958e+18,0.009051158092916012,-0.0036188808735460043,0.02574768289923668
1.729424466784796e+18,0.010460282675921917,-0.0034605059772729874,0.02364368736743927
1.729424466790796e+18,0.006610345561057329,-0.003617364214733243,0.02638971619307995
1.729424466793796e+18,0.005543726962059736,-0.0050847940146923065,0.026426969096064568
1.7294244667997962e+18,0.007497711107134819,-0.0031840032897889614,0.023482713848352432
1.7294244668057964e+18,0.00786992721259594,-0.003828849410638213,0.022142136469483376
1.7294244668087964e+18,0.004045763984322548,-5.9555284678936005e-05,0.02743237279355526
1.7294244668147965e+18,0.006832607556134462,-0.003326461184769869,0.022877708077430725
1.7294244668207967e+18,0.006140889599919319,0.0009748192969709635,0.023418111726641655
1.7294244668267968e+18,0.00473847147077322,-0.0043327584862709045,0.023083355277776718
1.7294244668297969e+18,0.003997973632067442,-0.0019266726449131966,0.02057863399386406
1.729424466835797e+18,0.006790063809603453,-0.004244682379066944,0.022898336872458458
1.729424466841797e+18,0.005568483844399452,-0.0022524897940456867,0.023279402405023575
1.7294244668477972e+18,0.004561677575111389,-0.006433364935219288,0.022687245160341263
1.7294244668537974e+18,0.0023802448995411396,-0.002534942002967,0.020828086882829666
1.7294244668567974e+18,0.004979779943823814,-0.00029536173678934574,0.02118563838303089
1.7294244668627976e+18,0.0027770346496254206,-0.0012568163219839334,0.021795088425278664
1.7294244668687977e+18,0.003648584010079503,-0.006416746415197849,0.020450055599212646
1.7294244668747978e+18,0.001670141122303903,-0.0010750873479992151,0.019022494554519653
1.729424466877798e+18,0.005292339716106653,-0.0006561323534697294,0.016336461529135704
1.729424466883798e+18,0.0012819839175790548,-0.0035851765424013138,0.021520530804991722
1.7294244668897981e+18,0.002448722254484892,-0.007554089650511742,0.018213322386145592
1.7294244668957983e+18,0.002555550541728735,-0.003417548257857561,0.017831090837717056
1.7294244668987983e+18,0.002406170591711998,-0.004842664115130901,0.01951555348932743
1.7294244669047985e+18,0.0027753636240959167,-0.003284542355686426,0.018647585064172745
1.7294244669107986e+18,0.0030294926837086678,-0.004128186032176018,0.015164600685238838
1.7294244669167987e+18,0.0019275238737463951,-0.006305831950157881,0.01741660200059414
1.7294244669197988e+18,0.005204830784350634,-0.0045089456252753735,0.017606209963560104
1.729424466925799e+18,0.0015189468394964933,-0.004885023459792137,0.0172700434923172
1.729424466931799e+18,0.003325466997921467,-0.004286529496312141,0.01362950075417757
1.7294244669377992e+18,0.002862961497157812,-0.005938064772635698,0.018345659598708153
1.7294244669407992e+18,0.003953698556870222,-0.0032184598967432976,0.012762291356921196
1.7294244669467994e+18,0.003462354652583599,-0.004032582510262728,0.015259072184562683
1.7294244669527995e+18,0.00345760490745306,-0.004108547233045101,0.014656328596174717
1.7294244669587996e+18,0.004185633268207312,-0.0038545518182218075,0.013684232719242573
1.7294244669617997e+18,0.0021491385996341705,-0.00633994909003377,0.0156730804592371
1.7294244669677998e+18,0.001975737977772951,-0.011877326294779778,0.012271805666387081
1.7294244669738e+18,0.0009765137801878154,-0.0050715431571006775,0.015693262219429016
1.7294244669798e+18,0.0014285658253356814,-0.006171918474137783,0.012915975414216518
1.7294244669858002e+18,3.156444290652871e-05,-0.008592681027948856,0.009782903827726841
1.7294244669888003e+18,0.0014549631159752607,-0.0067415377125144005,0.011475751176476479
1.7294244669948004e+18,0.0030264779925346375,-0.008482087403535843,0.014601338654756546
1.7294244670008005e+18,3.486371133476496e-05,-0.011221630498766899,0.011220363900065422
1.7294244670068006e+18,0.0016386214410886168,-0.00948351714760065,0.011722972616553307
1.7294244670128008e+18,0.0024200512561947107,-0.010549548082053661,0.011723598465323448
1.7294244670158008e+18,0.004745000973343849,-0.010942642576992512,0.01314990408718586
1.729424467021801e+18,0.003588201943784952,-0.008037559688091278,0.010725682601332664
1.729424467027801e+18,0.0029635364189743996,-0.008432181552052498,0.008481388911604881
1.7294244670338012e+18,0.0016352327074855566,-0.008071324788033962,0.009680278599262238
1.7294244670398013e+18,0.00024159089662134647,-0.009427874349057674,0.00995657779276371
1.7294244670428014e+18,0.0006793179782107472,-0.010155742056667805,0.008904009126126766
1.7294244670488015e+18,0.0003263619728386402,-0.008186522871255875,0.01133743580430746
1.7294244670548017e+18,0.0014560585841536522,-0.011795973405241966,0.01185885164886713
1.7294244670608018e+18,0.0021523432806134224,-0.007710374426096678,0.008391964249312878
1.729424467066802e+18,0.0014529692707583308,-0.01199206244200468,0.007028219755738974
1.729424467072802e+18,0.0012409959454089403,-0.008062728680670261,0.0104804253205657
1.7294244670788022e+18,0.0015644505620002747,-0.006569063290953636,0.010736912488937378
1.7294244670818022e+18,0.0019661851692944765,-0.01098658423870802,0.007711316924542189
1.7294244670878024e+18,-0.0003422115696594119,-0.007558989804238081,0.004833086393773556
1.7294244670938025e+18,-0.0008719057659618556,-0.010012048296630383,0.009621096774935722
1.7294244670998026e+18,-0.0007549727451987565,-0.008136071264743805,0.011181484907865524
1.7294244671058028e+18,-0.0006349955219775438,-0.007539437152445316,0.005605025216937065
1.729424467111803e+18,-0.00018919759895652533,-0.01097087562084198,0.004465501755475998
1.729424467114803e+18,0.0020192600786685944,-0.009091411717236042,0.007480797357857227
1.729424467120803e+18,-0.0019310362404212356,-0.010587668046355247,0.006110730115324259
1.7294244671268032e+18,0.0011828031856566668,-0.013315223157405853,0.006528019439429045
1.7294244671328033e+18,0.000267383293248713,-0.012507863342761993,0.0030105828773230314
1.7294244671358034e+18,0.0007600354147143662,-0.009719504043459892,0.005125931464135647
1.7294244671418035e+18,-0.0009888673666864634,-0.011797317303717136,0.006201338022947311
1.7294244671478036e+18,-0.00045278831385076046,-0.007716244086623192,0.007458096835762262
1.7294244671538038e+18,-0.0008614567923359573,-0.007872013375163078,0.005595549941062927
1.7294244671568038e+18,0.0020886678248643875,-0.010567993856966496,0.009277846664190292
1.729424467162804e+18,-0.0033565969206392765,-0.006124693900346756,0.006137244403362274
1.729424467168804e+18,-0.0010324784088879824,-0.009592769667506218,0.0072717624716460705
1.7294244671748042e+18,0.0010712710209190845,-0.007981586270034313,0.006994845345616341
1.7294244671778043e+18,0.0015558898448944092,-0.006948992144316435,0.005853036884218454
1.7294244671838044e+18,0.003006368177011609,-0.0067636920139193535,-0.00018000416457653046
1.7294244671898045e+18,0.005918433889746666,-0.008535558357834816,0.007741887588053942
1.7294244671958047e+18,0.004932141862809658,-0.01031428575515747,0.007001651916652918
1.7294244671988047e+18,0.005784001667052507,-0.012735755182802677,0.00588514469563961
1.7294244672048049e+18,0.0031792991794645786,-0.01314309611916542,0.002950455993413925
1.729424467210805e+18,0.0047938949428498745,-0.016849879175424576,0.003883032128214836
1.729424467216805e+18,0.003461001440882683,-0.016265202313661575,0.006583218462765217
1.7294244672198052e+18,-0.0007277200929820538,-0.014070596545934677,0.005123648792505264
1.7294244672258053e+18,0.001874321373179555,-0.012153253890573978,0.0049471985548734665
1.7294244672318054e+18,0.0038464737590402365,-0.01048087328672409,0.005554886534810066
1.7294244672378056e+18,0.003801275510340929,-0.011341613717377186,0.0049002207815647125
1.7294244672408056e+18,0.005363660864531994,-0.013690421357750893,0.005030847154557705
1.7294244672468058e+18,0.0044603170827031136,-0.008936002850532532,0.004933756310492754
1.729424467252806e+18,0.003065868280827999,-0.0102977454662323,0.003197204554453492
1.729424467258806e+18,0.004523449577391148,-0.009803635999560356,-0.0027717072516679764
1.7294244672648061e+18,0.005176843143999577,-0.013785075396299362,0.0032932893373072147
1.7294244672678062e+18,0.004324641544371843,-0.014316173270344734,0.00272827735170722
1.7294244672738063e+18,0.001496137585490942,-0.008731624111533165,0.0005027265287935734
1.7294244672798065e+18,0.001475343480706215,-0.012930597178637981,0.005622413940727711
1.7294244672858066e+18,0.0017072719056159258,-0.015240723267197609,0.0009406146127730608
1.7294244672888067e+18,0.002379082143306732,-0.011461649090051651,0.0019429776584729552
1.7294244672948068e+18,-0.0002750800922513008,-0.010700722225010395,0.0018766379216685891
1.729424467300807e+18,0.0024066325277090073,-0.011118928901851177,0.003221691818907857
1.729424467306807e+18,0.00396214984357357,-0.013329056091606617,0.005126508884131908
1.729424467309807e+18,0.004219825379550457,-0.015741582959890366,0.0025638870429247618
1.7294244673158072e+18,0.0032385871745646,-0.012928134761750698,0.001346077537164092
1.7294244673218074e+18,0.004767091013491154,-0.01268040295690298,0.0030852651689201593
1.7294244673278075e+18,0.004389830399304628,-0.013531044125556946,0.0027499105781316757
1.7294244673308076e+18,0.007242846768349409,-0.011858482845127583,0.003899986855685711
1.7294244673368077e+18,0.0031005162745714188,-0.012628758326172829,0.0033383099362254143
1.7294244673428078e+18,0.002521964255720377,-0.012274065986275673,0.0009272822644561529
1.729424467348808e+18,0.00028597278287634254,-0.009987215511500835,0.00025745260063558817
1.729424467351808e+18,0.0025406484492123127,-0.01484073419123888,-0.0005155521212145686
1.729424467357808e+18,-0.00421306025236845,-0.015893803909420967,0.0038862673100084066
1.7294244673638083e+18,-0.0032932977192103863,-0.0139267947524786,0.0035523297265172005
1.7294244673698084e+18,-0.0022958090994507074,-0.014638654887676239,0.0010758533608168364
1.7294244673758085e+18,-0.0007713006343692541,-0.015193862840533257,0.001875173533335328
1.7294244673788086e+18,-0.004850489553064108,-0.015012324787676334,0.001835815841332078
1.7294244673848087e+18,0.0005787250120192766,-0.014477151446044445,0.001663844333961606
1.7294244673908088e+18,-0.0002739632036536932,-0.013097615912556648,0.0010754055110737681
1.729424467396809e+18,0.004772040992975235,-0.012475408613681793,0.0002098668774124235
1.729424467402809e+18,-0.0018400626722723246,-0.01158210076391697,0.001613434636965394
1.7294244674058092e+18,0.001295317430049181,-0.0130184106528759,0.000710495631210506
1.7294244674118093e+18,0.0015679855132475495,-0.01466559898108244,0.000769309583120048
1.7294244674178094e+18,0.0008335311431437731,-0.012617908418178558,0.004022788722068071
1.7294244674238095e+18,-0.001118635293096304,-0.014653579331934452,-0.0005979146808385849
1.7294244674268096e+18,-0.001981156412512064,-0.01606730744242668,0.0008670472307130694
1.7294244674328097e+18,-0.0044839270412921906,-0.01428487990051508,-0.00015271635493263602
1.7294244674388099e+18,-0.00413548806682229,-0.014511121436953545,0.0008383913664147258
1.72942446744181e+18,-0.004385831765830517,-0.013729737140238285,-0.0010395422577857971
1.72942446744781e+18,-0.0030337327625602484,-0.016105718910694122,0.00028155080508440733
1.7294244674538102e+18,-0.004532654769718647,-0.013660776428878307,-0.0019570724107325077
1.7294244674598103e+18,-0.001170600880868733,-0.01433569099754095,-0.0013418798334896564
1.7294244674658104e+18,0.0016912154387682676,-0.017891259863972664,-0.0016408527735620737
1.7294244674688105e+18,0.0016216123476624489,-0.01184940617531538,-0.002702146302908659
1.7294244674748106e+18,0.0005095685482956469,-0.01423665415495634,-0.001592586049810052
1.7294244674808108e+18,-0.0004946358967572451,-0.012343592941761017,-0.0010917725740000606
1.729424467486811e+18,-0.004069098737090826,-0.014340179972350597,-0.00279158353805542
1.729424467492811e+18,0.0004937655758112669,-0.009733499959111214,-0.0030702990479767323
1.729424467495811e+18,-0.004762493539601564,-0.013646643608808517,-0.002642870880663395
1.7294244675018112e+18,-0.004660608246922493,-0.014587987214326859,-0.0033015343360602856
1.7294244675078113e+18,-0.0034885357599705458,-0.01457002479583025,-0.0023717877920717
1.7294244675138115e+18,-0.0006674313917756081,-0.014421365223824978,-0.005537914577871561
1.7294244675168115e+18,-0.0012819457333534956,-0.018023625016212463,-0.002213157480582595
1.7294244675228116e+18,-0.0005086829769425094,-0.013535302132368088,-0.0028690628241747618
1.7294244675288118e+18,-0.0032146170269697905,-0.01733393967151642,-0.0047253151424229145
1.729424467534812e+18,-0.001797197968699038,-0.01249916385859251,-0.0019336855039000511
1.729424467540812e+18,0.0019502071663737297,-0.014212400652468204,-0.0028859314043074846
1.729424467543812e+18,-0.0003390055208001286,-0.018188077956438065,-0.0045656561851501465
1.7294244675498122e+18,-0.001972923753783107,-0.01295669935643673,-0.0021789956372231245
1.7294244675558124e+18,-0.0026550819166004658,-0.010415829718112946,-0.0026890544686466455
1.7294244675618125e+18,0.0009731503669172525,-0.013811388984322548,4.8572197556495667e-05
1.7294244675648125e+18,0.00073960330337286,-0.01588047668337822,-0.00252615031786263
1.7294244675708127e+18,-0.0011005097767338157,-0.013263764791190624,-0.0017699451418593526
1.7294244675768128e+18,-0.0031488104723393917,-0.014788142405450344,-0.004611119627952576
1.729424467582813e+18,0.0003941227914765477,-0.015401038341224194,-0.00173970649484545
1.729424467588813e+18,-0.0011018965160474181,-0.011708836071193218,-0.003385123098269105
1.729424467591813e+18,0.00018408941105008125,-0.015355369076132774,-0.002320960396900773
1.7294244675978132e+18,0.00373608386144042,-0.016937771812081337,-0.0016324499156326056
1.7294244676038134e+18,0.0023654731921851635,-0.012906896881759167,-0.0020705005154013634
1.7294244676098135e+18,0.002193933818489313,-0.015032975003123283,-0.003225481603294611
1.7294244676128136e+18,0.006353458855301142,-0.011203596368432045,-0.0007898805197328329
1.7294244676188137e+18,0.004955736920237541,-0.013267343863844872,-0.004398943856358528
1.7294244676248138e+18,0.0048528448678553104,-0.010916988365352154,-0.004326625261455774
1.729424467630814e+18,0.0011268486268818378,-0.006023157387971878,-0.002938770456239581
1.729424467633814e+18,0.007250058464705944,-0.009507597424089909,-0.0021434735972434282
1.7294244676398141e+18,0.006005802657455206,-0.009807275608181953,-0.00395364360883832
1.7294244676458143e+18,0.0028854412958025932,-0.012106827460229397,-0.002677984070032835
1.7294244676518144e+18,0.0030315276235342026,-0.014964436180889606,-0.002696594223380089
1.7294244676548145e+18,0.0022423090413212776,-0.013026554137468338,-0.004500010050833225
1.7294244676608146e+18,0.0022551827132701874,-0.01806105300784111,-0.005344528704881668
1.7294244676668147e+18,0.0010540043003857136,-0.012928294949233532,-0.0024470705538988113
1.7294244676728148e+18,0.0028296243399381638,-0.016279295086860657,-0.0012604123912751675
1.729424467675815e+18,0.0003544531646184623,-0.014333636499941349,-0.0043525369837880135
1.729424467681815e+18,0.0009179569315165281,-0.015475320629775524,-0.003985482268035412
1.7294244676878152e+18,0.0011249780654907227,-0.014541680924594402,-0.0027429822366684675
1.7294244676938153e+18,-0.00021161732729524374,-0.012522578239440918,-0.004775338806211948
1.7294244676998154e+18,-0.004080268554389477,-0.016655614599585533,-0.006686948239803314
1.7294244677028155e+18,2.438074443489313e-05,-0.014387093484401703,-0.0017920000245794654
1.7294244677088156e+18,-0.0022490601986646652,-0.01627928391098976,-0.002042206237092614
1.7294244677148157e+18,-0.004410185851156712,-0.018225012347102165,-0.00401449715718627
1.7294244677178158e+18,-0.005907989107072353,-0.015899263322353363,-0.004503810312598944
1.729424467723816e+18,-0.001985842129215598,-0.01898200623691082,-0.0024274559691548347
1.729424467729816e+18,-0.0021509346552193165,-0.017756102606654167,-0.0016190940514206886
1.7294244677358162e+18,-0.0017264930065721273,-0.015429493971168995,-0.005429202225059271
1.7294244677388163e+18,-0.0031964974477887154,-0.01676180586218834,-0.0025407355278730392
1.7294244677448164e+18,-0.0008122976869344711,-0.015861647203564644,-0.0038317576982080936
1.7294244677508165e+18,-0.0030535170808434486,-0.014595809392631054,-0.004306355025619268
1.7294244677538166e+18,-0.002749103121459484,-0.012887600809335709,-0.002749307081103325
1.7294244677598167e+18,0.0012492712121456861,-0.01566007174551487,-0.004803371615707874
1.7294244677658168e+18,0.002730991691350937,-0.01218725461512804,-0.0021860944107174873
1.729424467768817e+18,6.831815699115396e-05,-0.012367847375571728,-0.0025508005637675524
1.729424467774817e+18,-0.0014513100031763315,-0.018826687708497047,-0.003197804559022188
1.7294244677808172e+18,-0.003112050471827388,-0.017283281311392784,-0.0015390028711408377
1.7294244677868173e+18,-0.0010168311418965459,-0.013886172324419022,-0.006129673682153225
1.7294244677898173e+18,-0.0008804879616945982,-0.0218672975897789,-0.00594957172870636
1.7294244677958175e+18,-0.004501442424952984,-0.016643937677145004,-0.00562447402626276
1.7294244678018176e+18,-0.0037320354022085667,-0.020785683766007423,-0.003236895427107811
1.7294244678078177e+18,0.00013583048712462187,-0.017673511058092117,-0.005658767651766539
1.7294244678108178e+18,-0.0019747866317629814,-0.017064249143004417,-0.006742243655025959
1.729424467816818e+18,-0.0036307554692029953,-0.016232557594776154,-0.004165342543274164
1.729424467822818e+18,-0.0006338441162370145,-0.01407148689031601,-0.005038956645876169
1.7294244678288182e+18,-0.001060132635757327,-0.015100269578397274,-0.004240651614964008
1.7294244678348183e+18,0.003290777560323477,-0.014768590219318867,-0.0026854383759200573
1.7294244678378184e+18,-0.0016011018306016922,-0.017083285376429558,-0.0013060180936008692
1.7294244678438185e+18,0.00011963950237259269,-0.01914304494857788,-0.004212318919599056
1.7294244678498186e+18,0.0012663730885833502,-0.017403408885002136,-0.004000863526016474
1.7294244678528187e+18,0.00032331119291484356,-0.01940290816128254,-0.004843734670430422
1.7294244678588188e+18,0.0009119347669184208,-0.017712218686938286,-0.0048081898130476475
1.729424467864819e+18,0.001494073192588985,-0.021197201684117317,-0.006264073774218559
1.729424467870819e+18,0.001632975647225976,-0.019818052649497986,-0.0011357853654772043
1.7294244678738191e+18,4.601749242283404e-05,-0.015396847389638424,-0.0026276144199073315
1.7294244678798193e+18,0.0006526025244966149,-0.018449313938617706,-0.005119497887790203
1.7294244678858194e+18,-0.0012980496976524591,-0.01615956611931324,-0.0015427214093506336
1.7294244678918195e+18,4.924205131828785e-05,-0.01572275348007679,-0.004134427290409803
1.7294244678948196e+18,-0.000528130040038377,-0.019946591928601265,-0.0010706721805036068
1.7294244679008197e+18,-0.0028094525914639235,-0.01644333079457283,-0.005856095813214779
1.7294244679068198e+18,-0.00010507390834391117,-0.016199426725506783,-0.004332888405770063
1.72942446791282e+18,-0.0015090921660885215,-0.016779879108071327,-0.0020912131294608116
1.72942446791882e+18,0.0007284614257514477,-0.01303500309586525,-0.004887612536549568
1.7294244679248202e+18,-0.0041245631873607635,-0.01552884466946125,-0.00407019630074501
1.7294244679278203e+18,-0.005200329702347517,-0.015637189149856567,-0.0034994673915207386
1.7294244679338204e+18,-0.006325633265078068,-0.01358292531222105,-0.006009744014590979
1.7294244679398205e+18,-0.005698805674910545,-0.01648421585559845,-0.0037462743930518627
1.7294244679458207e+18,-0.005548904649913311,-0.01544242724776268,-0.00562009634450078
1.7294244679488207e+18,-0.0062440563924610615,-0.014624140225350857,-0.00411266041919589
1.7294244679548209e+18,-0.0016790676163509488,-0.01285354234278202,-0.005337282083928585
1.729424467960821e+18,-0.0023669637739658356,-0.015554636716842651,-0.0026684929616749287
1.729424467963821e+18,-0.0008017911459319293,-0.014654038473963737,-0.006856460124254227
1.7294244679698212e+18,0.0005823710816912353,-0.012739239260554314,-0.006674180738627911
1.7294244679758213e+18,0.0038926713168621063,-0.01218729093670845,-0.005179338622838259
1.7294244679818214e+18,-0.0005262641934677958,-0.01471121609210968,-0.0077397990971803665
1.7294244679848215e+18,0.0014595460379496217,-0.011991479434072971,-0.005159891210496426
1.7294244679908216e+18,2.6685534976422787e-05,-0.014036922715604305,-0.005923832766711712
1.7294244679968218e+18,-0.0014063242124393582,-0.016122419387102127,-0.006376045756042004
1.729424468002822e+18,-0.004781731870025396,-0.014837350696325302,-0.005721135996282101
1.729424468008822e+18,-0.004362134728580713,-0.009962530806660652,-0.004649106878787279
1.729424468011822e+18,-0.0036663098726421595,-0.010216107591986656,-0.006080763414502144
1.7294244680178222e+18,-0.0045752376317977905,-0.0147861922159791,-0.0052297357469797134
1.7294244680238223e+18,-0.005186314694583416,-0.010783476755023003,-0.007348846178501844
