timestamp,accel_x,accel_y,accel_z
1.7294938872261742e+18,-0.04019350931048393,-0.00424267677590251,-9.86314582824707
1.7294938872351744e+18,-0.02474880963563919,-0.017599090933799744,-9.762754440307617
1.7294938872441746e+18,0.047299593687057495,0.053585126996040344,-9.883111953735352
1.7294938872531748e+18,-0.028293922543525696,0.00356313050724566,-9.796143531799316
1.729493887262175e+18,-0.08712555468082428,-0.07299699634313583,-9.7979736328125
1.7294938872711752e+18,-0.018380017951130867,0.03998216986656189,-9.786253929138184
1.7294938872801754e+18,0.019547462463378906,0.09497813135385513,-9.762340545654297
1.7294938872891756e+18,-0.01927388273179531,-0.03533262014389038,-9.835010528564453
1.7294938872981757e+18,-0.015506378374993801,0.006972309201955795,-9.816533088684082
1.729493887307176e+18,-0.03969542682170868,-0.017263080924749374,-9.772911071777344
1.7294938873161761e+18,0.07133452594280243,-0.06837009638547897,-9.781383514404297
1.7294938873251763e+18,0.015580744482576847,-0.08198802918195724,-9.762205123901367
1.7294938873341765e+18,-0.021611569449305534,0.045959074050188065,-9.835357666015625
1.7294938873431767e+18,-0.0030109293293207884,0.006283665541559458,-9.831939697265625
1.729493887352177e+18,0.017870623618364334,-0.0006364506552927196,-9.813692092895508
1.729493887361177e+18,-0.017268458381295204,0.05148395523428917,-9.792128562927246
1.7294938873701773e+18,-0.0517456941306591,0.010061529465019703,-9.809724807739258
1.7294938873791775e+18,0.004644676111638546,-0.0030538050923496485,-9.807143211364746
1.7294938873881777e+18,-0.027123788371682167,0.011663960292935371,-9.869544982910156
1.7294938873971779e+18,0.042421791702508926,-0.050045039504766464,-9.792752265930176
1.729493887406178e+18,-0.10032054036855698,-0.027357500046491623,-9.849967002868652
1.7294938874121782e+18,-0.051702890545129776,-0.058394867926836014,-9.802323341369629
1.7294938874241784e+18,-0.03260267525911331,-0.09146695584058762,-9.848126411437988
1.7294938874331786e+18,-0.018286673352122307,-0.004179229959845543,-9.802849769592285
1.7294938874421788e+18,-0.008790011517703533,-0.05721025541424751,-9.766613006591797
1.729493887448179e+18,-0.035469215363264084,-0.024382740259170532,-9.828131675720215
1.7294938874571791e+18,-0.05418454855680466,-0.01351330615580082,-9.791823387145996
1.7294938874661793e+18,0.06384386867284775,0.002332849195227027,-9.841292381286621
1.7294938874751795e+18,-0.06092170253396034,0.032388508319854736,-9.790227890014648
1.7294938874841797e+18,-0.0723281279206276,-0.033630531281232834,-9.721022605895996
1.7294938874901798e+18,0.009108660742640495,0.05292719975113869,-9.769187927246094
1.72949388749918e+18,0.005177333019673824,0.059949327260255814,-9.856247901916504
1.7294938875081802e+18,-0.04887668788433075,0.03503319248557091,-9.770064353942871
1.7294938875171804e+18,-0.018386689946055412,0.08714243769645691,-9.820850372314453
1.7294938875231805e+18,0.03802664577960968,0.03474673256278038,-9.814095497131348
1.7294938875321807e+18,-0.08313682675361633,0.01829407922923565,-9.736801147460938
1.729493887541181e+18,0.025945082306861877,0.02403133362531662,-9.688549995422363
1.729493887550181e+18,0.006507405079901218,-0.04778970777988434,-9.743797302246094
1.7294938875561812e+18,0.006165818776935339,0.09182585775852203,-9.831863403320312
1.7294938875651814e+18,-0.022698991000652313,0.008221308700740337,-9.769344329833984
1.7294938875741816e+18,0.01252124086022377,0.01564561203122139,-9.842046737670898
1.7294938875801818e+18,-0.039363421499729156,-0.035167157649993896,-9.789284706115723
1.729493887589182e+18,0.023006092756986618,-0.028962915763258934,-9.84830379486084
1.7294938875981821e+18,0.01915864273905754,-0.03596927970647812,-9.820034980773926
1.7294938876071823e+18,-0.04504697769880295,-0.030309181660413742,-9.867809295654297
1.7294938876161825e+18,-0.0693306103348732,-0.07849887758493423,-9.84248161315918
1.7294938876251827e+18,0.011131400242447853,0.041120730340480804,-9.89564037322998
1.729493887634183e+18,-0.019765175879001617,-0.035079602152109146,-9.82780647277832
1.729493887640183e+18,0.08136748522520065,0.02249005064368248,-9.752251625061035
1.7294938876491832e+18,-0.09523820132017136,-0.038426030427217484,-9.757893562316895
1.7294938876551834e+18,-0.017294714227318764,-0.015282591804862022,-9.83457088470459
1.7294938876641836e+18,0.022066764533519745,0.0029845195822417736,-9.791046142578125
1.7294938876731837e+18,-0.044024329632520676,0.02201540581882,-9.793070793151855
1.729493887682184e+18,0.08177921175956726,0.02900128997862339,-9.836181640625
1.729493887691184e+18,0.03170325979590416,-0.018854543566703796,-9.785539627075195
1.7294938876971843e+18,-0.00886111706495285,-0.007766358088701963,-9.749634742736816
1.7294938877061844e+18,0.005910281091928482,-0.004469054751098156,-9.746504783630371
1.7294938877151846e+18,-0.07363630831241608,0.09815112501382828,-9.806273460388184
1.7294938877211848e+18,0.09088883548974991,0.0609583742916584,-9.72489070892334
1.729493887730185e+18,-0.011133302934467793,0.037429969757795334,-9.849493026733398
1.729493887736185e+18,0.022438040003180504,-0.020873146131634712,-9.796737670898438
1.7294938877451853e+18,-0.002200623508542776,-0.02062086947262287,-9.75070858001709
1.7294938877541855e+18,-0.020771758630871773,-0.00703134061768651,-9.859004974365234
1.7294938877631857e+18,-0.003898237133398652,-0.003743738867342472,-9.79113483428955
1.7294938877691858e+18,-0.031272806227207184,0.04502135142683983,-9.748635292053223
1.729493887778186e+18,-0.0025220203679054976,-0.004299480933696032,-9.837206840515137
1.7294938877871862e+18,0.009593219496309757,0.005685227923095226,-9.851120948791504
1.7294938877931863e+18,0.015357650816440582,0.02996145933866501,-9.82072639465332
1.7294938878021865e+18,-0.00709555996581912,0.0024199604522436857,-9.823638916015625
1.7294938878111867e+18,0.07177858799695969,-0.04550156369805336,-9.782133102416992
1.729493887820187e+18,-0.007459103595465422,0.011433486826717854,-9.78715705871582
1.729493887826187e+18,-0.01978791505098343,-0.03639617934823036,-9.785353660583496
1.7294938878351872e+18,0.0721670538187027,-0.0068078674376010895,-9.877462387084961
1.7294938878411873e+18,0.006104043684899807,0.045156754553318024,-9.768661499023438
1.7294938878501875e+18,-0.050661273300647736,0.02623157761991024,-9.80728530883789
1.7294938878591877e+18,0.009425533935427666,0.004562456626445055,-9.809932708740234
1.7294938878651878e+18,-0.08562823385000229,0.08043409138917923,-9.90185546875
1.729493887874188e+18,0.03478238731622696,-0.05786748602986336,-9.84231185913086
1.7294938878831882e+18,0.03851597011089325,-0.03129594400525093,-9.847342491149902
1.7294938878921884e+18,-0.07185377180576324,-0.0439889132976532,-9.840246200561523
1.7294938878981885e+18,-0.03741303086280823,0.04353507235646248,-9.822269439697266
1.7294938879071887e+18,-0.005147638265043497,0.05836391821503639,-9.850506782531738
1.7294938879131889e+18,-0.01163122896105051,0.09217620640993118,-9.881891250610352
1.729493887922189e+18,0.0865514725446701,0.005669377278536558,-9.915640830993652
1.7294938879311892e+18,-0.060177091509103775,-0.02481262758374214,-9.764814376831055
1.7294938879401894e+18,-0.012838237918913364,0.0187547504901886,-9.864249229431152
1.7294938879461896e+18,0.07231289148330688,-0.11188244819641113,-9.846820831298828
1.7294938879551898e+18,0.03232264891266823,-0.002862193388864398,-9.804092407226562
1.72949388796419e+18,0.010343082249164581,0.008680720813572407,-9.743392944335938
1.72949388797019e+18,0.12576226890087128,0.008152851834893227,-9.845882415771484
1.7294938879791903e+18,-0.007680133916437626,0.11361201852560043,-9.809172630310059
1.7294938879881905e+18,0.07314558327198029,-0.060555435717105865,-9.748408317565918
1.7294938879941906e+18,-0.0032286837231367826,0.02166806533932686,-9.800877571105957
1.7294938880031908e+18,-0.1618598997592926,0.06462300568819046,-9.77810287475586
1.729493888012191e+18,0.0047030276618897915,-0.0013056115712970495,-9.83373737335205
1.7294938880211912e+18,0.029887203127145767,0.03605395928025246,-9.821930885314941
1.7294938880301914e+18,0.054755471646785736,0.045856866985559464,-9.814908981323242
1.7294938880361915e+18,-0.04927220568060875,-0.12246504426002502,-9.7952241897583
1.7294938880451917e+18,-0.01209658570587635,0.04203028604388237,-9.733400344848633
1.7294938880541919e+18,0.032383233308792114,0.0383429192006588,-9.89854621887207
1.729493888063192e+18,0.058466587215662,0.06328848749399185,-9.836174011230469
1.7294938880721923e+18,-0.015771927312016487,-0.02517561987042427,-9.807557106018066
1.7294938880811924e+18,-0.042519621551036835,0.0021490571089088917,-9.81928539276123
1.7294938880871926e+18,0.013307060115039349,0.02549215592443943,-9.783546447753906
1.7294938880961928e+18,-0.001013069530017674,0.03628835454583168,-9.778043746948242
1.729493888105193e+18,-0.02956649288535118,-0.00029387400718405843,-9.850444793701172
1.7294938881141932e+18,0.013386725448071957,-0.027142932638525963,-9.827128410339355
1.7294938881231933e+18,-0.06102699413895607,0.0698026791214943,-9.841719627380371
1.7294938881291935e+18,-0.02256697416305542,-0.058878812938928604,-9.778696060180664
1.7294938881381937e+18,-0.052159350365400314,-0.06602016091346741,-9.759306907653809
1.7294938881471939e+18,0.02649913914501667,0.06631165742874146,-9.795366287231445
1.729493888156194e+18,0.0033047785982489586,0.007051663473248482,-9.829750061035156
1.7294938881651942e+18,0.012961428612470627,-0.07711288332939148,-9.869236946105957
1.7294938881741944e+18,-0.08006930351257324,0.023371798917651176,-9.80807113647461
1.7294938881801946e+18,0.04030584916472435,-0.011030648835003376,-9.791748046875
1.7294938881891948e+18,-0.04695708677172661,-0.0017483934061601758,-9.72396469116211
1.729493888198195e+18,0.017794840037822723,-0.000625694403424859,-9.858187675476074
1.7294938882071951e+18,-0.004082242958247662,0.00838383473455906,-9.76855754852295
1.7294938882131953e+18,0.045597922056913376,-0.06323505192995071,-9.846392631530762
1.7294938882221955e+18,0.01133580133318901,-0.020319534465670586,-9.87171745300293
1.7294938882311956e+18,0.0008929595351219177,0.020245157182216644,-9.838581085205078
1.7294938882401958e+18,0.028276197612285614,0.0010128216817975044,-9.916614532470703
1.729493888249196e+18,-0.04081180691719055,-0.04119553044438362,-9.8522367477417
1.7294938882581962e+18,-0.003081698901951313,-0.05447530373930931,-9.767584800720215
1.7294938882671964e+18,-0.012797596864402294,-0.022824011743068695,-9.765541076660156
1.7294938882731965e+18,0.04202612116932869,-0.03557291999459267,-9.772379875183105
1.7294938882821967e+18,0.007656239438802004,-0.09145867824554443,-9.771219253540039
1.729493888291197e+18,-0.022079719230532646,-0.023420341312885284,-9.762231826782227
1.729493888300197e+18,-0.05230797454714775,0.11302996426820755,-9.849658966064453
1.7294938883091973e+18,-0.07032135128974915,0.01199989952147007,-9.865068435668945
1.7294938883181975e+18,0.020557381212711334,0.010095220059156418,-9.814411163330078
1.7294938883241976e+18,0.00929111335426569,0.104263074696064,-9.823869705200195
1.7294938883331978e+18,0.008180362172424793,-0.05954877287149429,-9.771553993225098
1.729493888342198e+18,0.053972966969013214,0.028174325823783875,-9.795280456542969
1.7294938883511982e+18,0.029099812731146812,-0.026023603975772858,-9.802105903625488
1.7294938883601984e+18,0.0204828679561615,-0.012298144400119781,-9.827522277832031
1.7294938883661985e+18,-0.007526966743171215,-0.006768368650227785,-9.809155464172363
1.7294938883751987e+18,0.008301532827317715,0.02124985121190548,-9.827105522155762
1.729493888384199e+18,-0.060636769980192184,0.024175874888896942,-9.763588905334473
1.729493888393199e+18,-0.0626121237874031,-0.030463915318250656,-9.806243896484375
1.7294938883991992e+18,0.052805665880441666,-0.03516034409403801,-9.802688598632812
1.7294938884081994e+18,0.049746375530958176,-0.0063807908445596695,-9.699358940124512
1.7294938884171996e+18,-0.008392306044697762,-0.036058880388736725,-9.827754020690918
1.7294938884231997e+18,-0.03817788511514664,0.011134319938719273,-9.867688179016113
1.7294938884322e+18,-0.11344604939222336,0.08851414918899536,-9.81541919708252
1.7294938884412e+18,0.033864181488752365,0.005685186944901943,-9.791803359985352
1.7294938884502003e+18,0.03704623878002167,0.03138214722275734,-9.7850923538208
1.7294938884562004e+18,-0.008111640810966492,-0.02496097981929779,-9.826395034790039
1.7294938884652006e+18,0.008023933507502079,0.001797546399757266,-9.808597564697266
1.7294938884742008e+18,-0.04466170817613602,0.015388271771371365,-9.716182708740234
1.729493888483201e+18,-0.004603581503033638,0.04277791082859039,-9.856660842895508
1.7294938884892012e+18,0.0017581564607098699,0.013941963203251362,-9.77601146697998
1.7294938884982013e+18,0.058216631412506104,0.023783907294273376,-9.840786933898926
1.7294938885072015e+18,-0.07645376026630402,-0.012716693803668022,-9.844078063964844
1.7294938885132017e+18,0.012569745071232319,-0.02669597789645195,-9.786090850830078
1.7294938885222019e+18,-0.02369174361228943,-0.015468367375433445,-9.70383071899414
1.729493888528202e+18,0.020692557096481323,-0.004459155257791281,-9.817851066589355
1.7294938885372022e+18,0.04831375181674957,-0.03127670660614967,-9.81580638885498
1.7294938885462024e+18,-0.014277474023401737,0.07228261232376099,-9.798237800598145
1.7294938885522025e+18,-0.00984903983771801,-0.005338997580111027,-9.884539604187012
1.7294938885612027e+18,-0.023019567131996155,-0.0023452439345419407,-9.741504669189453
1.729493888570203e+18,0.000756719324272126,-0.046934474259614944,-9.778728485107422
1.729493888576203e+18,-0.051346439868211746,-0.03566799685359001,-9.781875610351562
1.7294938885852032e+18,-0.05648129805922508,-0.06352866441011429,-9.778843879699707
1.7294938885942034e+18,0.03207632526755333,-0.03964541479945183,-9.810291290283203
1.7294938886002035e+18,-0.060436978936195374,0.015761492773890495,-9.816509246826172
1.7294938886092037e+18,-0.03575640544295311,0.016875237226486206,-9.8737154006958
1.729493888618204e+18,0.012071024626493454,0.0816645622253418,-9.822202682495117
1.729493888627204e+18,-0.02237563021481037,0.05519372224807739,-9.773266792297363
1.7294938886362043e+18,0.035372138023376465,-0.05593940615653992,-9.884568214416504
1.7294938886422044e+18,0.008028925396502018,0.01895933784544468,-9.773017883300781
1.7294938886512046e+18,-0.029986286535859108,0.015359653159976006,-9.814212799072266
1.7294938886602048e+18,0.014644758775830269,0.03345966711640358,-9.834282875061035
1.729493888669205e+18,0.057204749435186386,0.006778255105018616,-9.82329273223877
1.7294938886782052e+18,0.013941804878413677,0.07253444939851761,-9.793096542358398
1.7294938886872054e+18,-0.0002841521054506302,0.04878018796443939,-9.800217628479004
1.7294938886932055e+18,0.06397965550422668,-0.010953566990792751,-9.774727821350098
1.7294938887022057e+18,0.0021732819732278585,-0.030414536595344543,-9.850726127624512
1.729493888714206e+18,0.022475896403193474,0.06256375461816788,-9.860142707824707
1.7294938887232061e+18,0.015506740659475327,-0.051358580589294434,-9.754332542419434
1.7294938887292063e+18,0.04032571613788605,-0.03615834191441536,-9.867483139038086
1.7294938887382065e+18,0.06531500816345215,0.0009161040070466697,-9.831327438354492
1.7294938887472067e+18,-0.012815864756703377,0.05568796396255493,-9.902227401733398
1.7294938887562068e+18,0.014900555834174156,0.036915190517902374,-9.836920738220215
1.729493888765207e+18,0.04998723417520523,-0.032191354781389236,-9.822952270507812
1.7294938887772073e+18,-0.020278707146644592,-0.014958212152123451,-9.78982925415039
1.7294938887862075e+18,-0.05142563581466675,0.03354920446872711,-9.754583358764648
1.7294938887922076e+18,-0.04911212623119354,-0.028577614575624466,-9.807476997375488
1.7294938888012078e+18,0.04520630091428757,0.030949989333748817,-9.805571556091309
1.729493888810208e+18,0.018065720796585083,-0.06051361933350563,-9.752029418945312
1.7294938888192082e+18,-0.06717999279499054,-0.002731573535129428,-9.86666202545166
1.7294938888282084e+18,0.025726083666086197,0.07680825144052505,-9.868517875671387
1.7294938888342085e+18,-0.004415156319737434,0.011626855470240116,-9.79426097869873
1.7294938888432087e+18,-0.05060414969921112,0.016981806606054306,-9.863382339477539
1.729493888852209e+18,0.006602822337299585,0.07984907180070877,-9.829906463623047
1.729493888861209e+18,-0.10011821985244751,-0.00018374632054474205,-9.821945190429688
1.7294938888702093e+18,-0.016743933781981468,-0.015338392928242683,-9.81354808807373
1.7294938888762094e+18,-0.07062240689992905,-0.061223696917295456,-9.816469192504883
1.7294938888852096e+18,-0.07871145009994507,-0.003032076172530651,-9.78039836883545
1.7294938888942098e+18,0.02093147300183773,0.037591706961393356,-9.792771339416504
1.72949388890021e+18,-0.0298605989664793,-0.07102920860052109,-9.827314376831055
1.72949388890921e+18,0.006432550027966499,-0.05938019976019859,-9.835925102233887
1.7294938889152102e+18,0.023196201771497726,0.08008883148431778,-9.759514808654785
1.7294938889242104e+18,-0.060937751084566116,-0.03344910591840744,-9.783731460571289
1.7294938889332106e+18,0.043617259711027145,0.0757034495472908,-9.767906188964844
1.7294938889392108e+18,-0.12495216727256775,0.09018087387084961,-9.862994194030762
1.729493888948211e+18,0.011966816149652004,0.015604146756231785,-9.83802318572998
1.7294938889572111e+18,-0.06429800391197205,-0.021702757105231285,-9.824309349060059
1.7294938889662113e+18,0.00861668586730957,-0.08850075304508209,-9.786856651306152
1.7294938889722115e+18,0.028075125068426132,-0.004155035130679607,-9.813000679016113
1.7294938889812116e+18,0.08525960147380829,-0.027487097308039665,-9.831009864807129
1.7294938889902118e+18,-0.008478750474750996,-0.044594328850507736,-9.81303882598877
1.729493888999212e+18,0.0679396465420723,0.06006883829832077,-9.832037925720215
1.7294938890052122e+18,-0.038914069533348083,0.04886699095368385,-9.847877502441406
1.7294938890142124e+18,-0.012313208542764187,-0.025482937693595886,-9.788320541381836
1.7294938890232125e+18,0.04422173276543617,0.001408686744980514,-9.809048652648926
1.7294938890292127e+18,-0.0260961651802063,-0.03371626138687134,-9.819404602050781
1.7294938890382129e+18,0.024300141260027885,-0.04065246507525444,-9.778146743774414
1.729493889047213e+18,0.05108223110437393,-0.057582005858421326,-9.811164855957031
1.7294938890532132e+18,-0.1057707816362381,-0.05706269294023514,-9.828262329101562
1.7294938890622134e+18,-0.03635672852396965,0.051677316427230835,-9.820645332336426
1.7294938890712136e+18,-0.010592401027679443,-0.06186452507972717,-9.831795692443848
1.7294938890802138e+18,0.0024959712754935026,-0.01699346862733364,-9.833638191223145
1.729493889086214e+18,0.014777440577745438,-0.026614544913172722,-9.845463752746582
1.729493889095214e+18,-0.02887129969894886,0.021688854321837425,-9.79727554321289
1.7294938891012142e+18,0.03456336632370949,-0.04747486487030983,-9.823267936706543
1.7294938891102144e+18,-0.04575890675187111,0.012789755128324032,-9.777073860168457
1.7294938891192146e+18,0.0028272317722439766,-0.04931972920894623,-9.745558738708496
1.7294938891252147e+18,0.017461862415075302,-0.006054197903722525,-9.732662200927734
1.729493889134215e+18,-0.028145354241132736,0.060108814388513565,-9.798330307006836
1.729493889143215e+18,0.065819650888443,-0.03950793668627739,-9.821450233459473
1.7294938891492152e+18,0.04243694618344307,0.006894123740494251,-9.758160591125488
1.7294938891582154e+18,-0.04610469192266464,0.048008084297180176,-9.8545560836792
1.7294938891672156e+18,-0.023452062159776688,0.0016872207634150982,-9.84549331665039
1.7294938891762158e+18,-0.04681457579135895,0.010914038866758347,-9.888955116271973
1.729493889182216e+18,-0.012035444378852844,-0.05936974287033081,-9.916788101196289
1.729493889191216e+18,0.002055625431239605,0.010854097083210945,-9.915194511413574
1.7294938892002163e+18,0.03950227051973343,-0.013743319548666477,-9.899758338928223
1.7294938892062164e+18,0.016629904508590698,-0.06718752533197403,-9.906193733215332
1.7294938892152166e+18,-0.06717146933078766,-0.0238356776535511,-10.008459091186523
1.7294938892242168e+18,-0.014905585907399654,0.03102206066250801,-9.955769538879395
1.729493889230217e+18,0.014975815080106258,-0.07741165161132812,-9.994646072387695
1.7294938892392172e+18,0.0289105623960495,-0.06611885130405426,-9.969070434570312
1.7294938892482173e+18,-0.05932353436946869,0.03340071812272072,-10.016668319702148
1.7294938892572175e+18,0.047322534024715424,0.037337832152843475,-10.041693687438965
1.7294938892632177e+18,-0.012829053215682507,0.03845575079321861,-10.065954208374023
1.7294938892722179e+18,0.008285721763968468,-0.007296499330550432,-10.06458568572998
1.729493889281218e+18,-0.07844921201467514,0.010322343558073044,-10.29018783569336
1.7294938892872182e+18,0.001948067918419838,0.003669498022645712,-10.479894638061523
1.7294938892962184e+18,0.025933392345905304,-0.07997758686542511,-10.420618057250977
1.7294938893022185e+18,0.02158372662961483,0.009614517912268639,-10.447321891784668
1.7294938893112187e+18,-0.02634916827082634,-0.01034994050860405,-10.47533893585205
1.729493889320219e+18,0.0034348368644714355,-0.039132654666900635,-10.4437837600708
1.729493889326219e+18,-0.0066544972360134125,-0.03269548341631889,-10.440702438354492
1.7294938893352192e+18,-0.03624578192830086,-0.042971979826688766,-10.468828201293945
1.7294938893442194e+18,0.07248151302337646,-0.054539844393730164,-10.56199836730957
1.7294938893502195e+18,-0.008045390248298645,-0.023042460903525352,-10.46860122680664
1.7294938893592197e+18,0.020184878259897232,-0.060311343520879745,-10.467169761657715
1.7294938893652198e+18,0.05599253252148628,-0.05098044499754906,-10.432979583740234
1.72949388937422e+18,0.04812956228852272,-0.018931919708848,-10.48044490814209
1.7294938893832202e+18,-0.03476365655660629,-0.04189032316207886,-10.570915222167969
1.7294938893922204e+18,-0.07409260421991348,0.004935178905725479,-10.587479591369629
1.7294938894012206e+18,0.03092767857015133,-0.03214079514145851,-10.61652946472168
1.7294938894102208e+18,0.02510428987443447,0.026880046352744102,-10.482547760009766
1.729493889416221e+18,0.005628163460642099,-0.07245594263076782,-10.536434173583984
1.729493889425221e+18,-0.035069581121206284,0.04992914944887161,-10.471096992492676
1.7294938894342213e+18,-0.028939655050635338,0.003721723100170493,-10.54924201965332
1.7294938894432215e+18,0.011849330738186836,0.026957368478178978,-10.532447814941406
1.7294938894492216e+18,0.012412574142217636,0.06078699976205826,-10.525921821594238
1.7294938894582218e+18,-0.08552645146846771,0.004221026785671711,-10.559778213500977
1.729493889467222e+18,-0.007166239432990551,0.023828817531466484,-10.510729789733887
1.7294938894762222e+18,-0.035197027027606964,0.011597075499594212,-10.566903114318848
1.7294938894822223e+18,0.04523766413331032,0.03739316016435623,-10.585099220275879
1.7294938894912225e+18,-0.05163096636533737,0.032934047281742096,-10.56709098815918
1.7294938895002227e+18,-0.0077638267539441586,-0.04110006242990494,-10.617915153503418
1.7294938895062228e+18,0.017429891973733902,-0.026785625144839287,-10.583869934082031
1.729493889515223e+18,-0.004158732946962118,0.05203990638256073,-10.571771621704102
1.7294938895212232e+18,0.0032175881788134575,-0.003302467754110694,-10.540672302246094
1.7294938895302234e+18,-0.0001121368259191513,0.057602979242801666,-10.628589630126953
1.7294938895392236e+18,0.036878567188978195,0.019222168251872063,-10.645735740661621
1.7294938895482237e+18,-0.03990352898836136,-0.05383441969752312,-10.542354583740234
1.7294938895542239e+18,0.030399689450860023,0.03536832705140114,-10.599539756774902
1.729493889563224e+18,-0.007092648185789585,0.023310817778110504,-10.649589538574219
1.7294938895722243e+18,-0.009687697514891624,-0.05655444785952568,-10.65463638305664
1.7294938895812244e+18,-0.006404660176485777,0.014127662405371666,-10.539795875549316
1.7294938895872246e+18,-0.0632714256644249,-0.040823981165885925,-10.609943389892578
1.7294938895992248e+18,0.0005116686224937439,0.0025482703931629658,-10.650607109069824
1.729493889605225e+18,-0.05886492505669594,-0.04308896139264107,-10.605353355407715
1.7294938896142252e+18,0.02077467367053032,0.003181631211191416,-10.553149223327637
1.7294938896202253e+18,0.025057759135961533,0.0008478849194943905,-10.468371391296387
1.7294938896292255e+18,-0.013067902997136116,-0.00150822545401752,-10.594259262084961
1.7294938896382257e+18,0.001937192166224122,-0.015451077371835709,-10.646444320678711
1.7294938896442258e+18,0.03417082130908966,-0.058453384786844254,-10.626908302307129
1.729493889653226e+18,0.004785296972841024,0.052371054887771606,-10.538541793823242
1.7294938896622262e+18,-0.03465733304619789,-0.09638963639736176,-10.6325101852417
1.7294938896682263e+18,-0.049461301416158676,0.020679254084825516,-10.601616859436035
1.7294938896772265e+18,0.007755551487207413,-0.0678541511297226,-10.606127738952637
1.7294938896862267e+18,-0.07099172472953796,-0.010842224583029747,-10.582890510559082
1.7294938896922268e+18,-0.015646036714315414,0.053887948393821716,-10.644131660461426
1.729493889701227e+18,-0.014214754104614258,-0.018802642822265625,-10.605262756347656
1.7294938897102272e+18,-0.04748347029089928,0.01579478569328785,-10.609034538269043
1.7294938897162273e+18,-0.054565560072660446,0.008374682627618313,-10.611205101013184
1.7294938897252275e+18,0.025890877470374107,-0.060283590108156204,-10.595382690429688
1.7294938897312276e+18,-0.039430178701877594,-0.03681425005197525,-10.683095932006836
1.7294938897402278e+18,0.01188381016254425,0.015365049242973328,-10.654979705810547
1.729493889749228e+18,3.587920218706131e-05,0.07167384028434753,-10.631864547729492
1.7294938897582282e+18,0.010570544749498367,-0.0689830631017685,-10.620261192321777
1.7294938897642284e+18,0.0010545514523983002,0.06306222081184387,-10.599666595458984
1.7294938897732285e+18,0.01869339868426323,0.0011156332911923528,-10.593235969543457
1.7294938897822287e+18,-0.05598905682563782,0.04313696548342705,-10.592041015625
1.7294938897882289e+18,-0.0712418258190155,0.06739001721143723,-10.573125839233398
1.729493889797229e+18,0.07758941501379013,0.0332779660820961,-10.612829208374023
1.7294938898062292e+18,0.021225538104772568,-0.011026442982256413,-10.568086624145508
1.7294938898122294e+18,0.003322397358715534,0.015722882002592087,-10.560104370117188
1.7294938898212296e+18,-0.006126798689365387,-0.002831089776009321,-10.559808731079102
1.7294938898302298e+18,0.006404202431440353,0.037990909069776535,-10.58173942565918
1.72949388983923e+18,-0.030958544462919235,0.08087998628616333,-10.648992538452148
1.72949388984523e+18,0.020715266466140747,-0.008858215995132923,-10.597145080566406
1.7294938898542303e+18,0.05094321072101593,0.001745316432788968,-10.5310640335083
1.7294938898632305e+18,0.08083463460206985,0.02328607253730297,-10.559806823730469
1.7294938898722307e+18,0.06755025684833527,-0.07059881091117859,-10.680130958557129
1.7294938898782308e+18,0.051654405891895294,0.019913865253329277,-10.585126876831055
1.729493889887231e+18,-0.0570993535220623,-0.026927273720502853,-10.52249813079834
1.7294938898962312e+18,0.07011353224515915,-0.024822898209095,-10.588157653808594
1.7294938899022313e+18,0.061668649315834045,0.010368332266807556,-10.551397323608398
1.7294938899112315e+18,-0.003669544355943799,-0.05447942763566971,-10.6442232131958
1.7294938899202317e+18,-0.006146746687591076,-0.03337628394365311,-10.61540412902832
1.7294938899262318e+18,9.938573930412531e-05,0.0007849391549825668,-10.510936737060547
1.729493889935232e+18,-0.02587038092315197,-0.0012458510464057326,-10.611433029174805
1.7294938899442322e+18,-0.04145191237330437,0.01258190255612135,-10.54079532623291
1.7294938899532324e+18,-0.059567779302597046,0.05916260927915573,-10.52127456665039
1.7294938899622326e+18,0.04907355085015297,-0.010390324518084526,-10.556395530700684
1.7294938899682327e+18,-0.021155469119548798,-0.07794973254203796,-10.587965965270996
1.729493889977233e+18,-0.04356853663921356,-0.0065897670574486256,-10.61586856842041
1.729493889986233e+18,-0.04012679681181908,-0.026088429614901543,-10.553531646728516
1.7294938899922332e+18,-0.005097173620015383,-0.013413558714091778,-10.611916542053223
1.7294938900012334e+18,-0.03610043227672577,0.0050120847299695015,-10.574480056762695
1.7294938900102336e+18,-0.020239777863025665,0.046152256429195404,-10.588155746459961
1.7294938900192338e+18,-0.010436461307108402,-0.01103444304317236,-10.563590049743652
1.729493890031234e+18,0.03510928899049759,-0.022486722096800804,-10.599958419799805
1.7294938900402342e+18,0.02765640988945961,0.019253335893154144,-10.597289085388184
1.7294938900462344e+18,-0.04107999429106712,-0.06756597757339478,-10.633871078491211
1.7294938900552346e+18,0.016751378774642944,-0.0218884889036417,-10.622467994689941
1.7294938900642348e+18,0.05288352817296982,-0.025383343920111656,-10.662096977233887
1.729493890073235e+18,-0.0661010816693306,-0.0028791397344321012,-10.623884201049805
1.7294938900822351e+18,0.033058155328035355,0.002969141583889723,-10.60222339630127
1.7294938900912353e+18,-0.03337821736931801,-0.02140490710735321,-10.60571575164795
1.7294938901002355e+18,0.03664030879735947,-0.04473043233156204,-10.55713176727295
1.7294938901062356e+18,0.010240848176181316,0.025647249072790146,-10.582066535949707
1.7294938901152358e+18,0.02386045642197132,0.013132629916071892,-10.54293441772461
1.729493890124236e+18,0.012407305650413036,0.007961280643939972,-10.510059356689453
1.7294938901332362e+18,-0.00699009420350194,-0.010269365273416042,-10.59792423248291
1.7294938901422364e+18,0.10191276669502258,0.0717625692486763,-10.603996276855469
1.7294938901482365e+18,0.03016364760696888,0.05462389439344406,-10.583417892456055
1.7294938901572367e+18,-0.016562076285481453,0.017977876588702202,-10.682110786437988
1.729493890166237e+18,-0.025224022567272186,-0.07775859534740448,-10.602177619934082
1.729493890175237e+18,0.013403668999671936,-0.041175395250320435,-10.60453987121582
1.7294938901842373e+18,0.03121182508766651,-0.022635383531451225,-10.552194595336914
1.7294938901932375e+18,0.01580849662423134,-0.01574084348976612,-10.511147499084473
1.7294938901992376e+18,-0.011921077035367489,-0.018175017088651657,-10.597570419311523
1.7294938902082378e+18,-0.08165531605482101,0.04102479666471481,-10.594676971435547
1.729493890217238e+18,0.04790373519062996,0.003468581475317478,-10.49942398071289
1.7294938902262382e+18,-0.015799688175320625,-0.023009492084383965,-10.522825241088867
1.7294938902322383e+18,-0.013677751645445824,0.02346060425043106,-10.61103630065918
1.7294938902412385e+18,0.06496461480855942,-0.07116639614105225,-10.508261680603027
1.7294938902502387e+18,0.034235160797834396,-0.0747334286570549,-10.554459571838379
1.729493890259239e+18,-0.010954388417303562,0.005739355459809303,-10.565196990966797
1.729493890268239e+18,0.06031803414225578,0.03471576049923897,-10.543914794921875
1.7294938902742392e+18,0.08301945775747299,-0.004152923356741667,-10.560235023498535
1.7294938902832394e+18,0.002544392365962267,-0.029879190027713776,-10.5684232711792
1.7294938902922396e+18,-0.04738108068704605,-0.06623832881450653,-10.630260467529297
1.7294938902982397e+18,-0.0005890837637707591,0.00301837595179677,-10.551566123962402
1.72949389030724e+18,-0.03665639087557793,0.03763402998447418,-10.530580520629883
1.7294938903162401e+18,-0.07589579373598099,0.004478177055716515,-10.560766220092773
1.7294938903252403e+18,0.07273884117603302,-0.009992636740207672,-10.45005989074707
1.7294938903342405e+18,-0.07597260922193527,0.013203774578869343,-10.510223388671875
1.7294938903402406e+18,0.023215575143694878,-0.024394270032644272,-10.604069709777832
1.7294938903492408e+18,-0.0018364159623160958,0.015353863127529621,-10.523714065551758
1.729493890358241e+18,0.026848820969462395,0.007054189220070839,-10.5160551071167
1.7294938903672412e+18,-0.12793885171413422,0.025918008759617805,-10.494429588317871
1.7294938903762414e+18,-0.01534316036850214,0.0535198450088501,-10.525309562683105
1.7294938903822415e+18,0.05921529605984688,-0.02459367923438549,-10.546791076660156
1.7294938903912417e+18,0.07548528909683228,-0.01978597231209278,-10.545053482055664
1.729493890400242e+18,-0.042061906307935715,-0.025299225002527237,-10.462237358093262
1.729493890406242e+18,-0.047348275780677795,-0.062171634286642075,-10.582457542419434
1.7294938904152422e+18,-0.008107755333185196,-0.06148790195584297,-10.47266674041748
1.7294938904242424e+18,0.10867054015398026,-0.022366691380739212,-10.554248809814453
1.7294938904332426e+18,0.004506567493081093,-0.01571442000567913,-10.535517692565918
1.7294938904392428e+18,-0.011482174508273602,0.00521488580852747,-10.538938522338867
1.729493890448243e+18,-0.07771915197372437,0.015593503601849079,-10.493379592895508
1.7294938904572431e+18,-0.01976819336414337,-0.051811281591653824,-10.561161041259766
1.7294938904632433e+18,-0.06573183089494705,-0.03332090750336647,-10.52248764038086
1.7294938904722435e+18,0.03987450152635574,0.0027715060859918594,-10.516276359558105
1.7294938904812436e+18,-0.01791168563067913,0.08144710958003998,-10.433221817016602
1.7294938904902438e+18,0.08663114160299301,0.021077092736959457,-10.542284965515137
1.729493890496244e+18,-0.007167218718677759,0.0689399316906929,-10.455984115600586
1.7294938905052442e+18,0.031035898253321648,-0.056504495441913605,-10.50373649597168
1.7294938905142444e+18,0.06015712395310402,-0.07571382075548172,-10.550507545471191
1.7294938905202445e+18,-0.0361318439245224,-0.00671337591484189,-10.50650405883789
1.7294938905292447e+18,-0.015186218544840813,0.0012849641498178244,-10.504417419433594
1.7294938905382449e+18,0.005582564510405064,0.07782480120658875,-10.480424880981445
1.729493890547245e+18,0.016927149146795273,0.06964663416147232,-10.494710922241211
1.7294938905532452e+18,0.015238376334309578,-0.011632195673882961,-10.452169418334961
1.7294938905622454e+18,-0.03800969570875168,0.04470356926321983,-10.51842212677002
1.7294938905712456e+18,0.11203368753194809,-0.011493638157844543,-10.467443466186523
1.7294938905802458e+18,0.07014790922403336,0.05715754255652428,-10.43968677520752
1.729493890586246e+18,-0.07929369807243347,-0.010775966569781303,-10.495606422424316
1.729493890595246e+18,-0.019908463582396507,0.081991046667099,-10.461074829101562
1.7294938906042463e+18,-0.015019484795629978,-0.03359396383166313,-10.505596160888672
1.7294938906102464e+18,-0.03616686910390854,-0.03044416382908821,-10.430380821228027
1.7294938906192466e+18,-0.03156290203332901,0.014890038408339024,-10.456233024597168
1.7294938906282468e+18,-0.018939711153507233,0.00699568260461092,-10.487081527709961
1.729493890634247e+18,0.010787783190608025,0.030198436230421066,-10.378327369689941
1.729493890643247e+18,-0.0708044171333313,-0.04773295298218727,-10.384448051452637
1.7294938906522473e+18,0.054014723747968674,0.040969155728816986,-10.424938201904297
1.7294938906582474e+18,0.016737699508666992,0.020781822502613068,-10.368819236755371
1.7294938906672476e+18,0.0105038583278656,-0.04529830068349838,-10.352425575256348
1.7294938906762478e+18,0.013416251167654991,-0.032613564282655716,-10.318829536437988
1.729493890682248e+18,-0.0328403040766716,-0.0921720489859581,-10.351944923400879
1.729493890691248e+18,0.06741103529930115,0.013980821706354618,-10.251951217651367
1.7294938907002483e+18,-0.04600192978978157,-0.030152037739753723,-10.323251724243164
1.7294938907062484e+18,0.0616954043507576,0.034605156630277634,-10.28320026397705
1.7294938907152486e+18,0.015528518706560135,0.024391891434788704,-10.208174705505371
1.7294938907242488e+18,-0.03951365500688553,0.06078262999653816,-10.169748306274414
1.729493890733249e+18,0.02402770146727562,-0.06727296859025955,-10.177918434143066
1.7294938907392492e+18,0.07495158165693283,0.024570874869823456,-10.161338806152344
1.7294938907482493e+18,-0.03635808080434799,-0.07183098793029785,-10.111669540405273
1.7294938907572495e+18,-0.013808107003569603,0.0026652768719941378,-10.075455665588379
1.7294938907632497e+18,-0.018699605017900467,0.02192820981144905,-10.070229530334473
1.7294938907722499e+18,-0.00492219440639019,0.002709542866796255,-9.997215270996094
1.72949389078125e+18,0.027277473360300064,0.021616853773593903,-10.030250549316406
1.7294938907902502e+18,-0.050626009702682495,0.002523015020415187,-9.97688102722168
1.7294938907962504e+18,-0.06496002525091171,-0.013888302259147167,-10.046233177185059
1.7294938908052506e+18,0.05289527028799057,0.02708345651626587,-9.9414701461792
1.7294938908112507e+18,-0.018132774159312248,-0.003559471806511283,-9.913814544677734
1.729493890820251e+18,0.027257446199655533,0.038364067673683167,-9.952082633972168
1.729493890829251e+18,0.009737559594213963,-0.03937050700187683,-9.936391830444336
1.7294938908352512e+18,-0.021629855036735535,-0.05747821182012558,-9.92069149017334
1.7294938908442514e+18,0.03188890218734741,0.004502029158174992,-9.864592552185059
1.7294938908532516e+18,0.03964974731206894,0.013855302706360817,-9.833219528198242
1.7294938908592517e+18,-0.042283620685338974,-0.03538738563656807,-9.802623748779297
1.729493890868252e+18,0.011314562521874905,0.03807377815246582,-9.800276756286621
1.729493890877252e+18,0.019406070932745934,0.00903781782835722,-9.712924003601074
1.7294938908862523e+18,-0.024237213656306267,0.07330116629600525,-9.7255277633667
1.7294938908952525e+18,0.02524413913488388,-0.01233277190476656,-9.651973724365234
1.7294938909042527e+18,0.030498959124088287,0.02214452251791954,-9.730254173278809
1.7294938909132529e+18,-0.055427391082048416,0.028513217344880104,-9.650150299072266
1.729493890922253e+18,0.02800069749355316,-0.033096447587013245,-9.600443840026855
1.7294938909282532e+18,-0.03540912643074989,-0.013101959601044655,-9.623773574829102
1.7294938909372534e+18,-0.057408060878515244,-0.030910728499293327,-9.641674995422363
1.7294938909462536e+18,-0.008022142574191093,0.024713637307286263,-9.686399459838867
1.7294938909552538e+18,-0.059530679136514664,0.05711860582232475,-9.644560813903809
1.729493890964254e+18,0.019134143367409706,0.027234047651290894,-9.68626880645752
1.7294938909732541e+18,0.004549241624772549,-0.007747330702841282,-9.704536437988281
1.7294938909792543e+18,0.033235155045986176,-0.046642154455184937,-9.644373893737793
1.7294938909882545e+18,-0.04891360551118851,-0.027380604296922684,-9.70909309387207
1.7294938909972547e+18,0.019613398239016533,0.038617756217718124,-9.673828125
1.7294938910062548e+18,-0.03685365617275238,-0.03445634990930557,-9.639205932617188
1.729493891012255e+18,-0.024746866896748543,0.00336458464153111,-9.63675308227539
1.7294938910212552e+18,0.030193110927939415,-0.0013870737748220563,-9.656257629394531
1.7294938910302554e+18,0.00576397217810154,-0.016410335898399353,-9.682714462280273
1.7294938910392556e+18,0.1135534942150116,-0.027218112722039223,-9.564325332641602
1.7294938910482557e+18,0.055086154490709305,-0.06626268476247787,-9.664862632751465
1.7294938910542559e+18,0.007055768743157387,0.05762198939919472,-9.550579071044922
1.7294938910662561e+18,-0.01080551091581583,0.0653621181845665,-9.689346313476562
1.7294938910722563e+18,-0.033127713948488235,0.04230794683098793,-9.62923812866211
1.7294938910812564e+18,0.006526492536067963,-0.0031406013295054436,-9.64176082611084
1.7294938910902566e+18,-0.07614253461360931,0.02506735548377037,-9.629426956176758
1.7294938910992568e+18,-0.02732827141880989,-0.0755978524684906,-9.595362663269043
1.729493891108257e+18,0.012321575544774532,0.06258750706911087,-9.670210838317871
1.7294938911172572e+18,-0.007650375831872225,-0.04618476703763008,-9.660908699035645
1.7294938911262574e+18,0.02059331163764,0.006511804182082415,-9.526612281799316
1.7294938911322575e+18,-0.02277335524559021,0.02928260527551174,-9.686572074890137
1.7294938911412577e+18,-0.014523345977067947,-0.07763361185789108,-9.54538631439209
1.729493891150258e+18,-0.014598083682358265,-0.07468974590301514,-9.605661392211914
1.729493891159258e+18,0.02926125004887581,-0.07835731655359268,-9.664769172668457
1.7294938911682583e+18,0.047633133828639984,-0.016686679795384407,-9.550007820129395
1.7294938911772585e+18,0.08077987283468246,0.011620014905929565,-9.595993995666504
1.7294938911832586e+18,-0.03457164019346237,-0.05263517424464226,-9.606780052185059
1.7294938911922588e+18,-0.003865609411150217,-0.011452888138592243,-9.66033935546875
1.729493891198259e+18,-0.004282686393707991,0.005769795272499323,-9.560582160949707
1.7294938912072591e+18,0.006076012272387743,0.016251254826784134,-9.621125221252441
1.7294938912162593e+18,0.026105297729372978,0.05286956951022148,-9.598987579345703
1.7294938912222595e+18,0.006679972168058157,0.005397218279540539,-9.608085632324219
1.7294938912312596e+18,-0.013552015647292137,0.06286009401082993,-9.664596557617188
1.7294938912402598e+18,-0.04900260269641876,-0.07546735554933548,-9.525727272033691
1.72949389124926e+18,-0.07006897777318954,0.004018690437078476,-9.611054420471191
1.7294938912582602e+18,0.010159849189221859,0.009669729508459568,-9.51170539855957
1.7294938912642604e+18,-0.06505171209573746,0.03835901990532875,-9.517791748046875
1.7294938912732605e+18,0.008034219034016132,0.004526181146502495,-9.561249732971191
1.7294938912822607e+18,-0.019037669524550438,-0.022842425853013992,-9.601570129394531
1.7294938912882609e+18,0.02709401212632656,-0.007229597773402929,-9.566817283630371
1.729493891297261e+18,-0.0712168887257576,-0.08209799230098724,-9.56541919708252
1.7294938913062612e+18,0.047868512570858,0.103255495429039,-9.566947937011719
1.7294938913122614e+18,-0.0065003084018826485,0.03425310552120209,-9.545724868774414
1.7294938913212616e+18,-0.052702102810144424,0.017164621502161026,-9.537029266357422
1.7294938913302618e+18,-0.01833280920982361,0.10142487287521362,-9.586039543151855
1.729493891336262e+18,-0.043716005980968475,-0.03762005269527435,-9.563111305236816
1.729493891345262e+18,0.008680632337927818,-0.006389395799487829,-9.495115280151367
1.7294938913542623e+18,-0.0705372765660286,0.02046206407248974,-9.5285062789917
1.7294938913602624e+18,0.03458138182759285,0.028811657801270485,-9.540756225585938
1.7294938913692626e+18,-0.027597391977906227,0.056006573140621185,-9.493374824523926
1.7294938913782628e+18,-0.016895316541194916,0.04060293361544609,-9.486715316772461
1.729493891387263e+18,-0.006120509002357721,0.04183323308825493,-9.58036994934082
1.729493891393263e+18,-0.05079374462366104,-0.0634850561618805,-9.561440467834473
1.7294938914022633e+18,0.02232462167739868,0.030507821589708328,-9.477660179138184
1.7294938914112635e+18,-0.004787388723343611,0.05994924157857895,-9.550881385803223
1.7294938914172636e+18,-0.02337241917848587,0.004498674068599939,-9.529905319213867
1.7294938914262638e+18,0.04847799241542816,-0.004414805211126804,-9.525565147399902
1.729493891435264e+18,-0.022769004106521606,0.03036421909928322,-9.526159286499023
1.7294938914442642e+18,-0.05228175222873688,0.02827025204896927,-9.56542682647705
1.7294938914502643e+18,-0.05056607723236084,-0.06061010807752609,-9.554068565368652
1.7294938914592645e+18,0.02154124528169632,-0.027268776670098305,-9.491211891174316
1.7294938914682647e+18,-0.033456455916166306,0.06537898629903793,-9.500349998474121
1.729493891477265e+18,0.004223403986543417,0.014395209960639477,-9.463476181030273
1.729493891483265e+18,0.03242577984929085,-0.056442197412252426,-9.551509857177734
1.7294938914922652e+18,0.09356851130723953,-0.011578750796616077,-9.600471496582031
1.7294938915012654e+18,-0.003537389449775219,0.03680780902504921,-9.502477645874023
1.7294938915102656e+18,0.07097102701663971,-0.017508329823613167,-9.532081604003906
1.7294938915192658e+18,0.04289891943335533,0.02908170409500599,-9.580127716064453
1.729493891525266e+18,0.028672214597463608,-0.028898091986775398,-9.515188217163086
1.729493891534266e+18,0.03856194019317627,-0.062449146062135696,-9.484683990478516
1.7294938915432663e+18,0.04610219597816467,-0.0901954248547554,-9.518274307250977
1.7294938915522665e+18,0.024895895272493362,-0.06237301975488663,-9.5093994140625
1.7294938915612667e+18,0.012554747052490711,-0.01420802902430296,-9.544066429138184
1.729493891570267e+18,0.0011184155009686947,-0.0580812431871891,-9.49085807800293
1.729493891576267e+18,0.014444618485867977,-0.07141570001840591,-9.494067192077637
1.7294938915852672e+18,-0.02022109553217888,0.006264452822506428,-9.468252182006836
1.7294938915942674e+18,-0.029267091304063797,0.005141982808709145,-9.540287971496582
1.7294938916032676e+18,0.05071287229657173,-0.03631460666656494,-9.50594425201416
1.7294938916122678e+18,-0.09419144690036774,-0.04758806526660919,-9.529817581176758
1.729493891621268e+18,0.01350234355777502,-0.06077529489994049,-9.492673873901367
1.729493891627268e+18,-0.008367958478629589,-0.01905531994998455,-9.523794174194336
1.7294938916362683e+18,0.01782434992492199,0.029011260718107224,-9.522592544555664
1.7294938916452685e+18,0.013706390745937824,0.0007122326060198247,-9.56895923614502
1.7294938916542687e+18,-0.011412600055336952,-0.015773955732584,-9.545093536376953
1.7294938916632689e+18,0.11952120065689087,0.05391106754541397,-9.514026641845703
1.729493891672269e+18,-0.02762831747531891,0.017994936555624008,-9.546270370483398
1.7294938916812692e+18,0.001770603354088962,0.01935792714357376,-9.555109024047852
1.7294938916902694e+18,0.008718055672943592,0.062378671020269394,-9.549495697021484
1.7294938916962696e+18,-0.00996706634759903,-0.030512778088450432,-9.51925277709961
1.7294938917052698e+18,0.0708271935582161,0.010633101686835289,-9.534719467163086
1.72949389171427e+18,0.06521167606115341,-0.04190216213464737,-9.57586669921875
1.7294938917232701e+18,0.13117852807044983,0.014893583953380585,-9.479508399963379
1.7294938917322703e+18,-0.05698871240019798,-0.07585476338863373,-9.503494262695312
1.7294938917412705e+18,-0.0032999140676110983,0.09161939471960068,-9.485580444335938
1.7294938917472707e+18,-0.013938220217823982,0.04086017608642578,-9.513833999633789
1.7294938917562708e+18,0.0567115843296051,0.04433717951178551,-9.544099807739258
1.729493891765271e+18,-0.018586959689855576,9.140488691627979e-05,-9.521506309509277
1.7294938917712712e+18,0.012441669590771198,-0.055841606110334396,-9.54133415222168
1.7294938917802714e+18,0.01394308265298605,0.00981730967760086,-9.532423973083496
1.7294938917892716e+18,-0.021568017080426216,-0.003313979599624872,-9.477508544921875
1.7294938917952717e+18,0.026625635102391243,-0.005442801397293806,-9.536866188049316
1.7294938918042719e+18,0.07032918184995651,0.04699178785085678,-9.481719017028809
1.729493891813272e+18,-0.027548445388674736,0.051100149750709534,-9.447770118713379
1.7294938918192722e+18,0.03092304617166519,0.011763056740164757,-9.363906860351562
1.7294938918282724e+18,-0.0737210288643837,0.020502978935837746,-9.505318641662598
1.7294938918372726e+18,0.01746509037911892,0.04275963082909584,-9.535868644714355
1.7294938918432727e+18,0.00445985235273838,-0.022415515035390854,-9.558572769165039
1.729493891852273e+18,-0.008974496275186539,-0.0570930652320385,-9.559351921081543
1.729493891861273e+18,-0.03543698787689209,-0.027862315997481346,-9.476242065429688
1.7294938918672732e+18,0.07896464318037033,0.006463982630521059,-9.589335441589355
1.7294938918762734e+18,0.0005711804842576385,-0.043503183871507645,-9.504281044006348
1.7294938918852736e+18,0.05515893176198006,-0.004629351664334536,-9.485285758972168
1.7294938918942738e+18,0.016685819253325462,0.04886015132069588,-9.46380615234375
1.729493891900274e+18,-0.06589387357234955,0.0505397766828537,-9.470355987548828
1.729493891909274e+18,-0.02602330781519413,0.08156096935272217,-9.391490936279297
1.7294938919182743e+18,0.006476400885730982,-0.003923390526324511,-9.518451690673828
1.7294938919272745e+18,-0.038542792201042175,-0.0036004730500280857,-9.589051246643066
1.7294938919332746e+18,0.01231234148144722,-0.0798976793885231,-9.420851707458496
1.7294938919422748e+18,0.02679491601884365,-0.0681014284491539,-9.504366874694824
1.729493891951275e+18,0.062172915786504745,-0.006792605854570866,-9.548330307006836
1.7294938919572751e+18,-0.003587928833439946,-0.009993399493396282,-9.443672180175781
1.7294938919662753e+18,-0.03852193430066109,0.00943327508866787,-9.53128433227539
1.7294938919722755e+18,-0.014142414554953575,-0.01543867401778698,-9.452991485595703
1.7294938919812756e+18,0.00896822102367878,-0.025951851159334183,-9.4034423828125
1.7294938919902758e+18,-0.05633143335580826,-0.0007904957747086883,-9.451078414916992
1.729493891999276e+18,-0.04512561857700348,-0.046007487922906876,-9.411202430725098
1.7294938920082762e+18,-0.0026026375126093626,-0.011869031004607677,-9.503372192382812
1.7294938920142764e+18,0.05807057395577431,-0.0019290691707283258,-9.427592277526855
1.7294938920262766e+18,0.0014875069027766585,-0.046223483979701996,-9.444169998168945
1.7294938920352768e+18,0.014764244668185711,0.05045395344495773,-9.420165061950684
1.729493892044277e+18,0.05071515217423439,0.04127630218863487,-9.474954605102539
1.7294938920532772e+18,-0.033591803163290024,-0.04618729650974274,-9.438826560974121
1.7294938920622774e+18,-0.00897298939526081,0.02713945508003235,-9.492228507995605
1.7294938920712776e+18,0.023207129910588264,0.011788547970354557,-9.488211631774902
1.7294938920802778e+18,-0.07939901202917099,0.014011665247380733,-9.460166931152344
1.729493892089278e+18,0.024470452219247818,-0.059771254658699036,-9.539144515991211
1.7294938920982781e+18,0.024777784943580627,0.01936105079948902,-9.455857276916504
1.7294938921072783e+18,-0.017599884420633316,-0.021364586427807808,-9.51063060760498
1.7294938921162785e+18,0.03899066895246506,-0.010730857960879803,-9.392389297485352
1.7294938921252787e+18,0.0012495442060753703,-0.04022334888577461,-9.50485897064209
1.729493892134279e+18,0.026331713423132896,0.037907928228378296,-9.416349411010742
1.7294938921462792e+18,-0.0019070536363869905,-0.004692882765084505,-9.478531837463379
1.7294938921552794e+18,-0.08337362110614777,-0.009988914243876934,-9.415643692016602
1.7294938921642796e+18,0.01938512548804283,0.0067248535342514515,-9.453269004821777
1.7294938921732797e+18,0.019943000748753548,-0.05984344705939293,-9.493951797485352
1.72949389218528e+18,0.0216226726770401,-0.06698431074619293,-9.489516258239746
1.72949389219128e+18,0.00010655054938979447,0.020983170717954636,-9.472482681274414
1.7294938922002803e+18,-0.07254521548748016,-0.04350162297487259,-9.397407531738281
1.7294938922122806e+18,-0.020253926515579224,-0.0007997759385034442,-9.515449523925781
1.7294938922182807e+18,0.002168144565075636,-0.05517679452896118,-9.437867164611816
1.729493892230281e+18,-0.019251827150583267,0.0818832516670227,-9.340339660644531
1.729493892236281e+18,-0.030722208321094513,0.05130349099636078,-9.446621894836426
1.7294938922452813e+18,0.03384185954928398,0.05492453649640083,-9.43710994720459
1.7294938922572815e+18,-0.002163507277145982,-0.012220376171171665,-9.374120712280273
1.7294938922662817e+18,0.006701103411614895,0.0805821344256401,-9.488266944885254
1.729493892275282e+18,-0.032800301909446716,0.004472977947443724,-9.433027267456055
1.729493892284282e+18,-0.0015126834623515606,-0.012066674418747425,-9.366846084594727
1.7294938922932823e+18,-0.07142790406942368,-0.051461100578308105,-9.436738967895508
1.7294938923052826e+18,-0.03933535888791084,-0.03410311043262482,-9.416278839111328
1.7294938923142828e+18,0.10287332534790039,0.014946332201361656,-9.31314754486084
1.729493892323283e+18,0.0617762953042984,-0.01935449428856373,-9.262922286987305
1.7294938923322831e+18,-0.026438795030117035,-0.04845062643289566,-9.191313743591309
1.7294938923412833e+18,-0.0661429911851883,-0.019107701256871223,-9.1922607421875
1.7294938923472835e+18,-0.024388588964939117,0.01108383946120739,-9.189379692077637
1.7294938923592837e+18,-0.031502898782491684,0.024621039628982544,-9.178698539733887
1.729493892368284e+18,0.08133483678102493,-0.021378759294748306,-9.110502243041992
1.729493892377284e+18,0.006341916508972645,-0.1028623878955841,-9.086216926574707
1.7294938923862843e+18,-0.00013533775927498937,0.008306018076837063,-9.174285888671875
1.7294938923952845e+18,0.023162411525845528,-0.02431214042007923,-9.102109909057617
1.7294938924042847e+18,0.0030478406697511673,0.02804184891283512,-9.008651733398438
1.7294938924132849e+18,-0.03048255667090416,0.01850992999970913,-9.029494285583496
1.729493892422285e+18,-0.02243182621896267,0.027700327336788177,-9.0111722946167
1.7294938924312852e+18,0.009564219042658806,-0.024962756782770157,-8.985194206237793
1.7294938924402854e+18,0.06915011256933212,0.06617787480354309,-8.935029029846191
1.7294938924492856e+18,0.053500980138778687,-0.03338358923792839,-8.838533401489258
1.7294938924582858e+18,-0.04176172614097595,0.02318158932030201,-8.900680541992188
1.729493892467286e+18,0.013465977273881435,0.016686104238033295,-8.824665069580078
1.7294938924762862e+18,-0.08894262462854385,0.09401871263980865,-8.815022468566895
1.7294938924852864e+18,0.07201230525970459,-0.003704681061208248,-8.80900764465332
1.7294938924942866e+18,0.039544280618429184,-0.02232903614640236,-8.752161026000977
1.7294938925032868e+18,0.0031425857450813055,0.03715740889310837,-8.777429580688477
1.729493892512287e+18,-0.03212549909949303,0.04599298536777496,-8.621604919433594
1.7294938925212872e+18,0.05293722450733185,0.01997831091284752,-8.76624584197998
1.7294938925302874e+18,-0.05123297497630119,-0.019893353804945946,-8.601987838745117
1.7294938925422876e+18,-0.005400476511567831,-0.06758783012628555,-8.66031551361084
1.7294938925512878e+18,0.011064444668591022,0.06388353556394577,-8.595891952514648
1.729493892560288e+18,0.05693107098340988,-0.014889979735016823,-8.664741516113281
1.7294938925692882e+18,-0.007350970059633255,-0.04579029232263565,-8.627285957336426
1.7294938925782884e+18,0.06220666691660881,0.004910985007882118,-8.604573249816895
1.7294938925842885e+18,-0.015090630389750004,-0.0376741886138916,-8.57665729522705
1.7294938925932887e+18,0.04834509268403053,0.06338873505592346,-8.614495277404785
1.729493892602289e+18,0.042549408972263336,0.011949666775763035,-8.71906852722168
1.729493892611289e+18,0.03349767252802849,0.012514869682490826,-8.74060344696045
1.7294938926202893e+18,0.06072721630334854,-0.04538961872458458,-8.746191024780273
1.7294938926292895e+18,-0.04959920048713684,-0.034906055778265,-8.800317764282227
1.7294938926382897e+18,-0.060820095241069794,0.003914969973266125,-8.746173858642578
1.7294938926472899e+18,0.04077622666954994,-0.0019970452412962914,-8.78370475769043
1.72949389265629e+18,-0.022604305297136307,-0.0701344907283783,-8.808168411254883
1.7294938926652902e+18,0.05757281929254532,-0.016863467171788216,-8.837845802307129
1.7294938926742904e+18,0.03775617480278015,-0.017962422221899033,-8.836372375488281
1.7294938926832906e+18,-0.0269341878592968,-0.05161091312766075,-8.897629737854004
1.7294938926892908e+18,-0.05439884588122368,-0.017624065279960632,-8.897040367126465
1.729493892698291e+18,0.021423349156975746,0.008556795306503773,-8.867624282836914
1.7294938927072911e+18,-0.03189412131905556,-0.06428824365139008,-12.176868438720703
1.7294938927162913e+18,-0.000626864202786237,0.006770721636712551,-15.541009902954102
1.7294938927222915e+18,-0.06701682507991791,-0.031143516302108765,-15.968477249145508
1.7294938927312916e+18,0.02361317351460457,0.0009312307229265571,-16.14666748046875
1.7294938927402918e+18,0.026141947135329247,0.030202139168977737,-16.111135482788086
1.729493892749292e+18,0.012733424082398415,0.014780985191464424,-16.19464874267578
1.7294938927582922e+18,-0.0007145933341234922,-0.06558281928300858,-16.14053726196289
1.7294938927672924e+18,-0.029788747429847717,0.0320693701505661,-16.060081481933594
1.7294938927732925e+18,-0.045226067304611206,-0.02403075620532036,-16.03594398498535
1.7294938927822927e+18,-0.017837312072515488,-0.05339357629418373,-15.805083274841309
1.729493892791293e+18,0.059645164757966995,0.010660480707883835,-15.799448013305664
1.729493892797293e+18,-0.023529082536697388,0.04581982269883156,-15.647048950195312
1.7294938928062932e+18,-0.012982688844203949,0.16288504004478455,-15.527400016784668
1.7294938928152934e+18,0.006208764389157295,-0.06184692308306694,-15.433727264404297
1.7294938928242936e+18,0.07216578722000122,0.018375825136899948,-15.266834259033203
1.7294938928302938e+18,-0.049080077558755875,0.00991078931838274,-15.22768783569336
1.729493892839294e+18,0.00544251361861825,-0.04527699947357178,-15.122432708740234
1.7294938928482941e+18,-0.04444866627454758,-0.07727418094873428,-15.034234046936035
1.7294938928542943e+18,-0.006264166906476021,0.035692814737558365,-14.92440414428711
1.7294938928632945e+18,0.0037154387682676315,-0.014815766364336014,-14.840123176574707
1.7294938928722947e+18,0.06373125314712524,-0.011292757466435432,-14.639451026916504
1.7294938928812948e+18,-0.06521499902009964,-0.06106854975223541,-14.589792251586914
1.729493892887295e+18,-0.031852249056100845,-0.023666195571422577,-14.454395294189453
1.7294938928962952e+18,-0.013844859786331654,-0.044691212475299835,-14.317778587341309
1.7294938929052954e+18,-0.07026654481887817,0.004586554132401943,-14.147506713867188
1.7294938929112955e+18,-0.070468969643116,0.022054169327020645,-14.177531242370605
1.7294938929202957e+18,-0.007374083157628775,0.01106200274080038,-13.96109676361084
1.729493892929296e+18,0.019989164546132088,0.0009044455364346504,-13.922121047973633
1.729493892938296e+18,-0.03859546408057213,0.07269980758428574,-13.856865882873535
1.7294938929472963e+18,0.03821201249957085,0.09809260070323944,-13.805170059204102
1.7294938929532964e+18,0.0014008062426000834,-0.024198830127716064,-13.690278053283691
1.7294938929622966e+18,0.02470969781279564,-0.022882763296365738,-13.578753471374512
1.7294938929712968e+18,0.004007862880825996,0.0071114180609583855,-13.47508430480957
1.729493892977297e+18,0.04130440950393677,-0.035047050565481186,-13.447568893432617
1.729493892986297e+18,-0.012307260185480118,-0.052852436900138855,-13.43608570098877
1.7294938929952973e+18,0.05527923256158829,0.00758625753223896,-13.246745109558105
1.7294938930042975e+18,0.0056609236635267735,-0.019486069679260254,-13.19799518585205
1.7294938930132977e+18,0.037796977907419205,-0.04873058572411537,-13.056513786315918
1.7294938930222979e+18,-0.034468039870262146,-0.007481556385755539,-13.11048698425293
1.729493893028298e+18,-0.042899176478385925,-0.001685526454821229,-13.024802207946777
1.7294938930402982e+18,-0.08372850716114044,-0.07178256660699844,-12.905019760131836
1.7294938930492984e+18,0.008244449272751808,-0.0027072543743997812,-12.903515815734863
1.7294938930552986e+18,-0.04468612000346184,0.09712730348110199,-12.832141876220703
1.7294938930642988e+18,-0.04163867607712746,-0.034972865134477615,-12.637055397033691
1.729493893073299e+18,0.06790712475776672,-0.04140259325504303,-12.659405708312988
1.7294938930822991e+18,0.057789452373981476,-0.016234226524829865,-12.566681861877441
1.7294938930912993e+18,-0.028773069381713867,-0.022174324840307236,-12.430686950683594
1.7294938931002995e+18,-0.07462500035762787,-0.03652384877204895,-12.448874473571777
1.7294938931092997e+18,0.037966251373291016,-0.005742847919464111,-12.379302978515625
1.7294938931183e+18,0.021652812138199806,0.014545829966664314,-12.366575241088867
1.7294938931273e+18,0.05817526578903198,0.02257411554455757,-12.21630573272705
1.7294938931363003e+18,0.010828269645571709,0.007610652595758438,-12.267072677612305
1.7294938931453005e+18,-0.00975403469055891,-0.010978100821375847,-12.248478889465332
1.7294938931543007e+18,-0.08693096786737442,-0.07864212244749069,-12.087456703186035
1.7294938931633009e+18,0.05802339315414429,-0.043417174369096756,-12.051746368408203
1.729493893172301e+18,0.04798688367009163,0.009214870631694794,-12.028234481811523
1.7294938931813012e+18,-0.006669402588158846,-0.040249913930892944,-11.92335319519043
1.7294938931873014e+18,-0.05886024609208107,-0.005051447078585625,-11.937837600708008
1.7294938931993016e+18,0.014376908540725708,-0.01903257891535759,-11.947928428649902
1.7294938932053018e+18,0.07827702164649963,-0.03361934795975685,-11.800315856933594
1.729493893214302e+18,-0.015275252982974052,0.08263994008302689,-11.733943939208984
1.7294938932233021e+18,0.03960505127906799,0.06794828176498413,-11.75894546508789
1.7294938932323023e+18,0.037392329424619675,-0.005629403982311487,-11.67821216583252
1.7294938932383025e+18,-0.006945128086954355,-0.020181823521852493,-11.773176193237305
1.7294938932473027e+18,-0.043233904987573624,-0.00444012088701129,-11.685693740844727
1.7294938932563028e+18,0.004451381508260965,-0.002303018933162093,-11.640915870666504
1.729493893265303e+18,0.002607709961012006,-0.029055949300527573,-11.619579315185547
1.7294938932743032e+18,0.010851413011550903,-0.02573554962873459,-11.549704551696777
1.7294938932833034e+18,-0.058669205754995346,-0.013653874397277832,-11.560940742492676
1.7294938932923036e+18,-0.03749370947480202,0.09328830242156982,-11.47019100189209
1.7294938933013038e+18,0.038560256361961365,-0.005700612440705299,-11.39917278289795
1.729493893310304e+18,-0.004397782031446695,0.03326892480254173,-11.453384399414062
1.7294938933193042e+18,-0.02487502247095108,-0.025201044976711273,-11.37358570098877
1.7294938933283044e+18,-0.013369659893214703,-0.010474509559571743,-11.259162902832031
1.7294938933373046e+18,0.09042216837406158,-0.0027935379184782505,-11.246292114257812
1.7294938933463048e+18,0.03421526402235031,0.033326294273138046,-11.235576629638672
1.729493893355305e+18,-0.05825379490852356,0.03610909730195999,-11.239943504333496
1.7294938933673052e+18,0.04616440087556839,0.1104593575000763,-11.183709144592285
1.7294938933763054e+18,0.06698169559240341,0.01910635083913803,-11.21417236328125
1.7294938933853056e+18,-0.008173579350113869,-0.032325781881809235,-11.060997009277344
1.7294938933973059e+18,0.07706031203269958,-0.046552643179893494,-11.085938453674316
1.729493893403306e+18,-0.03098166361451149,-0.010509083047509193,-11.032975196838379
1.7294938934153062e+18,-0.09113194793462753,0.0452268160879612,-11.040635108947754
1.7294938934243064e+18,0.016009148210287094,-0.07641404122114182,-10.986220359802246
1.7294938934333066e+18,-0.009545127861201763,-0.06064783036708832,-10.953919410705566
1.7294938934423068e+18,0.01161206141114235,0.04196881502866745,-10.95670223236084
1.729493893451307e+18,0.06124154105782509,0.036607276648283005,-10.92597484588623
1.7294938934633073e+18,-0.02178696170449257,0.028140375390648842,-10.847779273986816
1.7294938934723075e+18,0.016353460028767586,0.030736329033970833,-10.86495304107666
1.7294938934813076e+18,-0.010851917788386345,0.014101611450314522,-10.849098205566406
1.729493893493308e+18,-0.02991286851465702,-0.0806088000535965,-10.799365997314453
1.729493893502308e+18,-0.02237841859459877,-0.03566119447350502,-10.798117637634277
1.7294938935113083e+18,-0.023789450526237488,0.02609468623995781,-10.791873931884766
1.7294938935203085e+18,-0.02412097528576851,-0.0048330193385481834,-10.75041389465332
1.7294938935293087e+18,-0.029265034943819046,0.07003849744796753,-10.785441398620605
1.7294938935383089e+18,0.045334964990615845,-0.024352651089429855,-10.644333839416504
1.729493893547309e+18,-0.010045858100056648,0.038318514823913574,-10.728960037231445
1.7294938935593093e+18,0.0015805569710209966,-0.008161365985870361,-10.683066368103027
1.7294938935683095e+18,0.026927940547466278,-0.025937775149941444,-10.586662292480469
1.7294938935773097e+18,-0.09601899981498718,-0.0157786775380373,-10.60659408569336
1.72949389358631e+18,-0.010983007960021496,-0.012887034565210342,-10.658465385437012
1.72949389359531e+18,-0.0011806429829448462,0.011317103169858456,-10.52640438079834
1.7294938936013102e+18,0.06227269768714905,-0.047149188816547394,-10.601971626281738
1.7294938936103104e+18,0.0078039104118943214,0.11561944335699081,-10.563716888427734
1.7294938936193106e+18,-0.06234482303261757,0.0832795798778534,-10.51718807220459
1.7294938936283108e+18,0.029422147199511528,0.033566515892744064,-10.434715270996094
1.729493893634311e+18,-0.00156998704187572,-0.0611870139837265,-10.4447603225708
1.729493893643311e+18,0.053098518401384354,-0.095808245241642,-10.438508033752441
1.7294938936523113e+18,0.01079258881509304,-0.03657632693648338,-10.500082969665527
1.7294938936613115e+18,-0.008838695473968983,-0.04243045300245285,-10.430180549621582
1.7294938936703117e+18,0.019978314638137817,0.03783322870731354,-10.41002082824707
1.729493893679312e+18,0.06247818097472191,0.018064294010400772,-10.422567367553711
1.729493893688312e+18,0.12430648505687714,0.00758372014388442,-10.375856399536133
1.7294938936973123e+18,0.010592969134449959,0.008691912516951561,-10.389920234680176
1.7294938937033124e+18,0.0329584926366806,0.04745069146156311,-10.369524002075195
1.7294938937123126e+18,0.029716869816184044,0.029658712446689606,-10.335150718688965
1.7294938937213128e+18,-0.03675726428627968,-0.036495309323072433,-10.437042236328125
1.729493893730313e+18,0.03605492785573006,0.009345927275717258,-10.360039710998535
1.729493893736313e+18,0.004066536668688059,0.023283513262867928,-10.319072723388672
1.7294938937483133e+18,0.0394384041428566,0.033833444118499756,-10.371150970458984
1.7294938937543135e+18,0.02845248207449913,0.007234640885144472,-10.287033081054688
1.7294938937633137e+18,0.023545708507299423,-0.04011848568916321,-10.291084289550781
1.7294938937723139e+18,0.010836868546903133,0.00553972227498889,-10.314567565917969
1.729493893781314e+18,0.029079923406243324,0.020311325788497925,-10.35242748260498
1.7294938937903142e+18,0.03862910345196724,0.044922202825546265,-10.230215072631836
1.7294938937993144e+18,0.001135379308834672,-0.015111894346773624,-10.241652488708496
1.7294938938053146e+18,0.025754518806934357,0.002332415897399187,-10.168127059936523
1.7294938938173148e+18,-0.0268643070012331,-0.04245349019765854,-10.292343139648438
1.729493893823315e+18,-0.017054451629519463,-0.06566375494003296,-10.21801471710205
1.7294938938323151e+18,-0.08281861990690231,0.005688267294317484,-10.12297534942627
1.7294938938413153e+18,-0.020862318575382233,0.016854582354426384,-10.142847061157227
1.7294938938503155e+18,0.010135581716895103,-0.04886484518647194,-10.224873542785645
1.7294938938593157e+18,0.0009180083870887756,0.018346348777413368,-10.252324104309082
1.729493893868316e+18,0.014720235951244831,-0.012108562514185905,-10.202218055725098
1.729493893877316e+18,-0.004387935623526573,0.0025006753858178854,-10.158804893493652
1.7294938938863163e+18,0.0283332709223032,0.004392465576529503,-10.150141716003418
1.7294938938953165e+18,-0.043374404311180115,0.0327872596681118,-10.091968536376953
1.7294938939013166e+18,-0.010335494764149189,-0.005264680832624435,-10.12820053100586
1.7294938939103168e+18,0.05550479143857956,0.005416455212980509,-10.08924388885498
1.729493893919317e+18,0.04223453998565674,0.025455407798290253,-10.102757453918457
1.7294938939283172e+18,0.02391679584980011,0.0729391947388649,-10.0548095703125
1.7294938939343173e+18,-0.0012688267743214965,-0.012496872805058956,-10.14309310913086
1.7294938939433175e+18,-0.054551783949136734,0.0006799299735575914,-10.065518379211426
1.7294938939523177e+18,-0.021020643413066864,-0.04903195798397064,-10.130074501037598
1.729493893961318e+18,-0.0033151889219880104,-0.018620915710926056,-9.988364219665527
1.729493893970318e+18,0.0770229622721672,0.05894196778535843,-10.04015827178955
1.7294938939763182e+18,-0.018548645079135895,0.0844043716788292,-10.038068771362305
1.7294938939853184e+18,-0.05282608047127724,0.041765786707401276,-10.052542686462402
1.7294938939943186e+18,0.07347762584686279,0.013536578975617886,-10.003507614135742
1.7294938940003187e+18,0.04057818651199341,0.024068867787718773,-9.998833656311035
1.729493894009319e+18,-0.05664172023534775,-0.08783584833145142,-10.046780586242676
1.729493894018319e+18,-0.0051583657041192055,-0.020178910344839096,-10.043251037597656
1.7294938940273193e+18,0.042622920125722885,0.06188024953007698,-10.016838073730469
1.7294938940333194e+18,0.02514064684510231,-0.04428983852267265,-9.989519119262695
1.7294938940423196e+18,-0.09226202964782715,0.11189041286706924,-9.948959350585938
1.7294938940513198e+18,-0.023914139717817307,0.03749609366059303,-9.944379806518555
1.72949389406032e+18,-0.01021184679120779,-0.05635775998234749,-9.9825439453125
1.7294938940663201e+18,0.02163313515484333,0.0047516231425106525,-9.994296073913574
1.7294938940753203e+18,-0.0259841401129961,0.00015243806410580873,-10.032930374145508
1.7294938940843205e+18,-0.0055091469548642635,0.045500122010707855,-9.980547904968262
1.7294938940933207e+18,-0.028567083179950714,-0.007968887686729431,-9.977904319763184
1.729493894102321e+18,-0.021478135138750076,-0.027124842628836632,-9.899365425109863
1.729493894111321e+18,-0.024704240262508392,0.08860746771097183,-9.929908752441406
1.7294938941203213e+18,-0.05410374701023102,-0.006852721329778433,-9.9531831741333
1.7294938941293215e+18,-0.03205079585313797,-0.029535677284002304,-9.911077499389648
1.7294938941383217e+18,-0.01824505813419819,0.0662672221660614,-9.978598594665527
1.7294938941443218e+18,0.030919194221496582,0.014437436126172543,-9.921443939208984
1.729493894153322e+18,-0.0630197525024414,0.05148651450872421,-9.940556526184082
1.7294938941623222e+18,-0.031551018357276917,0.006823793984949589,-9.930709838867188
1.7294938941713224e+18,-0.03487107902765274,-0.06764349341392517,-9.925414085388184
1.7294938941803226e+18,-0.012855305336415768,-0.006629987619817257,-9.899091720581055
1.7294938941893228e+18,0.019176578149199486,-0.005226227454841137,-9.821578979492188
1.729493894198323e+18,-0.025914670899510384,-0.01996910199522972,-9.850508689880371
1.729493894204323e+18,-0.059499118477106094,0.040730781853199005,-9.85768985748291
1.7294938942133233e+18,0.03355997055768967,-0.033984068781137466,-9.926902770996094
1.7294938942223235e+18,0.0016065830131992698,-0.02583126537501812,-9.810702323913574
1.7294938942313236e+18,-0.0826873853802681,-0.014180595986545086,-9.790592193603516
1.7294938942403238e+18,0.029680747538805008,-0.015924029052257538,-9.881488800048828
1.729493894249324e+18,-0.010661553591489792,-0.027316864579916,-9.866095542907715
1.7294938942583242e+18,-0.042327575385570526,-0.054475557059049606,-9.898138999938965
1.7294938942673244e+18,0.01427354384213686,0.033813826739788055,-9.881853103637695
1.7294938942763246e+18,-0.06486403942108154,0.01027008704841137,-9.848126411437988
1.7294938942883249e+18,0.021093741059303284,-0.06311683356761932,-9.828079223632812
1.729493894297325e+18,0.040691256523132324,0.07251757383346558,-9.845647811889648
1.7294938943093253e+18,0.006973758805543184,0.03779713809490204,-9.86268138885498
1.7294938943183255e+18,-0.018001042306423187,-0.007138043642044067,-9.702701568603516
1.7294938943273257e+18,0.06783892214298248,-0.011242690496146679,-9.768264770507812
1.729493894336326e+18,-0.01406180765479803,0.032681986689567566,-9.836292266845703
1.7294938943483261e+18,0.04194501042366028,-0.07249113917350769,-9.94184398651123
1.7294938943573263e+18,0.024664435535669327,-0.01910487189888954,-9.889470100402832
1.7294938943693266e+18,-0.0034817159175872803,-0.009724333882331848,-9.781079292297363
1.7294938943783268e+18,0.026911407709121704,-0.028534479439258575,-9.859687805175781
1.729493894387327e+18,-0.013965836726129055,-0.012235534377396107,-9.818267822265625
1.7294938943993272e+18,-0.08568167686462402,-0.0015740166418254375,-9.776359558105469
1.7294938944113275e+18,-0.023185694590210915,-0.11139141023159027,-9.84179401397705
1.7294938944203277e+18,-0.04785693436861038,0.0017279486637562513,-9.782943725585938
1.729493894429328e+18,0.012457231990993023,0.017491616308689117,-9.83115005493164
1.729493894441328e+18,-0.010316474363207817,0.02686246484518051,-9.791404724121094
1.7294938944503283e+18,-0.011344892904162407,-0.043183282017707825,-9.817610740661621
1.7294938944593285e+18,0.03930060565471649,0.049058880656957626,-9.793756484985352
1.7294938944713288e+18,0.006401263177394867,0.05193953588604927,-9.67209529876709
1.729493894480329e+18,0.005201594904065132,-0.01765201799571514,-9.783506393432617
1.7294938944893292e+18,-0.04215904325246811,0.03732021525502205,-9.771259307861328
1.7294938944983293e+18,0.02861289121210575,-0.020058203488588333,-9.80541706085205
1.7294938945073295e+18,-0.004214318934828043,-0.0314626470208168,-9.835016250610352
1.7294938945163297e+18,0.0654350221157074,0.061425045132637024,-9.718480110168457
1.72949389452533e+18,0.05015112832188606,-0.047825731337070465,-9.661165237426758
1.72949389453433e+18,0.011712799780070782,-0.050866879522800446,-9.72120189666748
1.7294938945433303e+18,-0.032567378133535385,0.017610158771276474,-9.713024139404297
1.7294938945523305e+18,0.029819540679454803,-0.05047272518277168,-9.80172348022461
1.7294938945613307e+18,0.016780752688646317,-0.08209681510925293,-9.837549209594727
1.729493894573331e+18,0.03949354961514473,0.01826193556189537,-9.734893798828125
1.7294938945823311e+18,0.06148019805550575,0.006135479547083378,-9.7996244430542
1.7294938945913313e+18,0.02021387405693531,-0.042652830481529236,-9.729691505432129
1.7294938946033316e+18,-0.0060967933386564255,0.09566497057676315,-9.754569053649902
1.7294938946123318e+18,-0.011663449928164482,-0.04057742655277252,-9.826982498168945
1.729493894624332e+18,-0.017395110800862312,-0.03792761638760567,-9.793907165527344
1.7294938946333322e+18,0.03338612988591194,0.01476493664085865,-9.769060134887695
1.7294938946423324e+18,-0.013567030429840088,0.05173085629940033,-9.776195526123047
1.7294938946513326e+18,0.04564468190073967,0.04804283753037453,-9.766097068786621
1.7294938946603328e+18,-0.038803525269031525,0.0683758556842804,-9.781905174255371
1.729493894669333e+18,-0.008627494797110558,-0.06184956058859825,-9.722809791564941
1.729493894675333e+18,-0.041367992758750916,-0.0022779149003326893,-9.699199676513672
1.7294938946843333e+18,-0.034460969269275665,-0.08026028424501419,-9.700909614562988
1.7294938946933335e+18,-0.01878604292869568,-0.046441927552223206,-9.801447868347168
1.7294938947023337e+18,0.02554318495094776,-0.030230507254600525,-9.775205612182617
1.729493894711334e+18,0.0015251628356054425,0.006816377397626638,-9.748616218566895
1.729493894720334e+18,-0.04429941624403,0.025840379297733307,-9.713624000549316
1.7294938947293343e+18,0.007549595087766647,-0.042189646512269974,-9.689640998840332
1.7294938947383345e+18,-0.010928802192211151,-0.06404326111078262,-9.792790412902832
1.7294938947473347e+18,0.0528818778693676,-0.05995003134012222,-9.800536155700684
1.729493894759335e+18,0.07235071063041687,-0.06809485703706741,-9.812660217285156
1.729493894768335e+18,-0.010542111471295357,0.012045750394463539,-9.832118034362793
1.7294938947773353e+18,0.00764838419854641,0.02480444498360157,-9.826375007629395
1.7294938947863355e+18,0.03203536570072174,-0.09102223813533783,-9.77892017364502
1.7294938947953357e+18,0.029293987900018692,0.06332075595855713,-9.836780548095703
1.7294938948043359e+18,-0.016346070915460587,0.02979455143213272,-9.781396865844727
1.729493894813336e+18,-0.0004163720295764506,0.0195741169154644,-9.826045989990234
1.7294938948253363e+18,-0.08612881600856781,0.008099120110273361,-9.735038757324219
1.7294938948343365e+18,-0.05653134733438492,-0.07601107656955719,-9.729215621948242
1.7294938948433367e+18,0.04152305796742439,0.028562182560563087,-9.78682804107666
1.729493894852337e+18,-0.007253521587699652,0.02456182800233364,-9.860749244689941
1.729493894861337e+18,-0.06966613233089447,-0.007847469300031662,-9.691787719726562
1.7294938948703373e+18,0.05089317262172699,-0.005433202255517244,-9.76555061340332
1.7294938948793375e+18,-0.02570435032248497,0.05212573707103729,-9.875795364379883
1.7294938948883377e+18,-0.03696088120341301,-0.05094621330499649,-9.81828498840332
1.7294938948973379e+18,-0.07295167446136475,0.038829050958156586,-9.825506210327148
1.729493894906338e+18,-0.0017698188312351704,-0.00010022548667620867,-9.81432819366455
1.7294938949153382e+18,-0.034977421164512634,-0.07465606182813644,-9.772065162658691
1.7294938949243384e+18,-0.025892186909914017,0.06912946701049805,-9.74023151397705
1.7294938949333386e+18,0.11657721549272537,0.013334693387150764,-9.737866401672363
1.7294938949423388e+18,-0.02401939406991005,-0.0007740611908957362,-9.757083892822266
1.729493894951339e+18,-0.011762082576751709,0.03964488208293915,-9.73233699798584
1.7294938949573391e+18,-0.01475091464817524,-0.03238093852996826,-9.710640907287598
1.7294938949663393e+18,-0.01291771698743105,0.02278505451977253,-9.726997375488281
1.7294938949753395e+18,0.006993062794208527,-0.052357591688632965,-9.717373847961426
1.7294938949843397e+18,-0.014660732820630074,0.07843878120183945,-9.768460273742676
1.72949389499334e+18,-0.00573371397331357,-0.05518792197108269,-9.717485427856445
1.72949389500234e+18,0.02774822898209095,0.07591383904218674,-9.747406959533691
1.7294938950113403e+18,0.04024738073348999,0.027206892147660255,-9.702986717224121
1.7294938950203405e+18,0.023244349285960197,0.0409722663462162,-9.742647171020508
1.7294938950293407e+18,-0.02459527924656868,0.027364281937479973,-9.679444313049316
1.7294938950383409e+18,0.05199160426855087,0.08944763243198395,-9.743003845214844
1.729493895047341e+18,-0.054048530757427216,0.056565601378679276,-9.790409088134766
1.7294938950563412e+18,0.02625199593603611,-0.027300957590341568,-9.623303413391113
1.7294938950683415e+18,0.04490145295858383,0.009157480672001839,-9.773816108703613
1.7294938950773417e+18,-0.006806357763707638,-0.03235001116991043,-9.74435043334961
1.729493895086342e+18,0.029378322884440422,-0.03973739966750145,-9.742767333984375
1.729493895095342e+18,0.006492163520306349,0.06357022374868393,-9.75869083404541
1.7294938951043423e+18,-0.08534005284309387,0.015856869518756866,-9.751190185546875
1.7294938951133425e+18,-0.07601538300514221,0.013432439416646957,-9.701631546020508
1.7294938951223427e+18,-0.061454370617866516,0.044286299496889114,-9.739225387573242
1.7294938951283428e+18,-0.050194475799798965,-0.051203832030296326,-9.738401412963867
1.729493895137343e+18,-0.02944536879658699,-0.00709879444912076,-9.77251148223877
1.7294938951463432e+18,-0.02777417190372944,-0.052037399262189865,-9.70986270904541
1.7294938951553434e+18,0.04168618097901344,-0.038408804684877396,-9.799102783203125
1.7294938951643436e+18,0.06779008358716965,0.011511468328535557,-9.68974781036377
1.7294938951733437e+18,-0.022652313113212585,-0.004827610217034817,-9.729427337646484
1.729493895182344e+18,-0.028179317712783813,0.009079962968826294,-9.730992317199707
1.729493895191344e+18,-0.022166620939970016,0.05911938473582268,-9.763581275939941
1.7294938952003443e+18,-0.009134680032730103,0.026448601856827736,-9.705117225646973
1.7294938952093445e+18,0.06278012692928314,-0.014675706624984741,-9.631519317626953
1.7294938952183447e+18,0.05156320333480835,0.08279149979352951,-9.676294326782227
1.729493895227345e+18,-0.12483175098896027,-0.0007627082522958517,-9.74728012084961
1.729493895236345e+18,-0.004241812974214554,-0.032847002148628235,-9.711581230163574
1.7294938952453453e+18,-0.05011354386806488,-0.025797288864850998,-9.663317680358887
1.7294938952543455e+18,0.006551418453454971,0.03948212414979935,-9.737972259521484
1.7294938952633457e+18,-0.013182731345295906,-0.00409992691129446,-9.62051773071289
1.7294938952723459e+18,0.0557401180267334,-0.021132946014404297,-9.7087984085083
1.729493895281346e+18,0.07389017939567566,0.07279758155345917,-9.701391220092773
1.7294938952903462e+18,0.06788468360900879,-0.010903988033533096,-9.619309425354004
1.7294938952993464e+18,0.00033083377638831735,0.03479800000786781,-9.755573272705078
1.7294938953083466e+18,-0.008952181786298752,-0.07165664434432983,-9.73026180267334
1.7294938953173468e+18,0.022848330438137054,-0.042358752340078354,-9.689488410949707
1.729493895326347e+18,-0.03756451979279518,0.009028845466673374,-9.729684829711914
1.7294938953353472e+18,-0.022562779486179352,0.004317562095820904,-9.70828914642334
1.7294938953443474e+18,0.041553325951099396,-0.07372719049453735,-9.725278854370117
1.7294938953533476e+18,0.026331137865781784,0.026835428550839424,-9.735468864440918
1.7294938953623478e+18,0.0008079815888777375,0.0218658484518528,-9.727614402770996
1.729493895371348e+18,-0.036317501217126846,-0.08926592022180557,-9.712772369384766
1.729493895377348e+18,-0.020856745541095734,-0.08859701454639435,-9.81370735168457
1.7294938953863483e+18,0.10276568681001663,-0.012513481080532074,-9.733370780944824
1.7294938953953485e+18,-0.03730368986725807,-0.02547556161880493,-9.698074340820312
1.7294938954043487e+18,-0.056191205978393555,0.051247697323560715,-9.749723434448242
1.7294938954133489e+18,-0.0063807000406086445,-0.02327360212802887,-9.777602195739746
1.729493895422349e+18,-0.06807062029838562,0.007160171400755644,-9.718509674072266
1.7294938954283492e+18,0.00762978196144104,0.0011647138744592667,-9.772272109985352
1.7294938954373494e+18,-0.0008156702388077974,-0.06097199767827988,-9.735994338989258
1.7294938954463496e+18,-0.005838786251842976,-0.10251671820878983,-9.724783897399902
1.7294938954553498e+18,0.027677293866872787,0.01594255492091179,-9.819458961486816
1.72949389546435e+18,0.010816048830747604,0.01656128093600273,-9.723101615905762
1.7294938954733501e+18,-0.058056339621543884,0.004487684462219477,-9.809194564819336
1.7294938954823503e+18,0.07931923866271973,0.06088471785187721,-9.658914566040039
1.7294938954913505e+18,0.030495809391140938,0.022085221484303474,-9.748322486877441
1.7294938955003507e+18,-0.04194618761539459,0.05680914223194122,-9.753700256347656
1.729493895509351e+18,-1.748325303196907e-06,0.0028979021590203047,-9.678251266479492
1.729493895515351e+18,0.023463405668735504,1.5871773939579725e-06,-9.677987098693848
1.7294938955243512e+18,-0.016863809898495674,0.016235526651144028,-9.716428756713867
1.7294938955333514e+18,-0.013411357998847961,-0.0022232672199606895,-9.790281295776367
1.7294938955423516e+18,-0.0023532118648290634,0.03093748539686203,-9.72131633758545
1.7294938955513518e+18,-0.049413297325372696,-0.06583325564861298,-9.759503364562988
1.729493895560352e+18,0.0019343059975653887,-0.065985769033432,-9.796441078186035
1.7294938955693522e+18,0.039548132568597794,0.031590379774570465,-9.798796653747559
1.7294938955783524e+18,0.027304314076900482,-0.03731384500861168,-9.796185493469238
1.7294938955873526e+18,-0.0024589996319264174,0.039949264377355576,-9.761880874633789
1.7294938955933527e+18,-0.004461091943085194,0.0408359169960022,-9.719351768493652
1.729493895602353e+18,0.05486388877034187,0.0007809171220287681,-9.73075008392334
1.729493895611353e+18,0.09886347502470016,-0.012976575642824173,-9.795392990112305
1.7294938956203533e+18,0.003356390865519643,0.023444898426532745,-9.633340835571289
1.7294938956293535e+18,-0.012773403897881508,0.07778850942850113,-9.748348236083984
1.7294938956383537e+18,0.010355737991631031,0.02240728959441185,-9.771587371826172
1.7294938956473539e+18,-0.047831326723098755,-0.01695019192993641,-9.786237716674805
1.729493895656354e+18,-0.06033838540315628,-0.059200190007686615,-9.752991676330566
1.7294938956653542e+18,0.056357283145189285,0.0599609911441803,-9.763811111450195
1.7294938956743544e+18,0.05081706494092941,0.04302869364619255,-9.7003173828125
1.7294938956833546e+18,-0.01886036805808544,0.01326042227447033,-9.681133270263672
1.7294938956923548e+18,-0.08105383813381195,0.03646678850054741,-9.70815658569336
1.729493895701355e+18,0.027708882465958595,-0.08786700665950775,-9.74303150177002
1.7294938957103552e+18,0.06340562552213669,0.005611731670796871,-9.726763725280762
1.7294938957193554e+18,-0.024043044075369835,0.007787248119711876,-9.760502815246582
1.7294938957283556e+18,0.017738504335284233,-0.0525687113404274,-9.756575584411621
1.7294938957373558e+18,0.0013478336622938514,-0.03786461055278778,-9.770201683044434
1.729493895746356e+18,-0.10200011730194092,0.011186440475285053,-9.732070922851562
1.7294938957553562e+18,0.02483966201543808,0.03899407386779785,-9.75111198425293
1.7294938957643564e+18,-0.05969595909118652,-0.014987588860094547,-9.725434303283691
1.7294938957733565e+18,-0.08651867508888245,0.04127688705921173,-9.711706161499023
1.7294938957823567e+18,-0.028006436303257942,0.004968706518411636,-9.75269603729248
1.729493895794357e+18,0.018137630075216293,-0.044555727392435074,-9.702228546142578
1.7294938958033572e+18,0.024300258606672287,-0.06887827068567276,-9.875166893005371
1.7294938958123574e+18,0.02813255414366722,0.03397578001022339,-9.724200248718262
1.7294938958213576e+18,-0.030248919501900673,0.015890618786215782,-9.716936111450195
1.7294938958303578e+18,-0.02909792587161064,-0.004547812044620514,-9.740130424499512
1.729493895836358e+18,-0.0023043593391776085,-0.05974370241165161,-9.772771835327148
1.7294938958483581e+18,0.032700277864933014,0.06545639783143997,-9.71566104888916
1.7294938958543583e+18,0.010846122168004513,-0.03919011354446411,-9.735137939453125
1.7294938958633585e+18,0.035567380487918854,0.0039087822660803795,-9.711661338806152
1.7294938958723587e+18,-0.0018003069562837481,-0.041626572608947754,-9.781878471374512
1.7294938958813588e+18,0.01905173622071743,-0.012443955056369305,-9.762977600097656
1.729493895890359e+18,-0.033463384956121445,-0.02249796874821186,-9.758026123046875
1.7294938958993592e+18,-0.027692873030900955,-0.01579335331916809,-9.757912635803223
1.7294938959083594e+18,0.04753286764025688,0.010996395722031593,-9.74167537689209
1.7294938959143596e+18,0.001162965316325426,-0.031928326934576035,-9.813750267028809
1.7294938959233597e+18,0.008064045570790768,-0.03387888893485069,-9.728092193603516
1.72949389593236e+18,0.010975888930261135,0.011904705315828323,-9.67173957824707
1.72949389594136e+18,0.007802107837051153,0.08552622050046921,-9.744579315185547
1.7294938959473603e+18,0.0018881942378357053,-0.006895455066114664,-9.766289710998535
1.7294938959563604e+18,-0.03841055557131767,0.0009895949624478817,-9.791887283325195
1.7294938959653606e+18,0.05161280930042267,-0.037060193717479706,-9.775359153747559
1.7294938959743608e+18,-0.06722282618284225,0.05056821554899216,-9.759391784667969
1.729493895983361e+18,0.0022459018509835005,-0.04649743437767029,-9.740667343139648
1.7294938959923612e+18,-0.00023875603801570833,0.08027918636798859,-9.715712547302246
1.7294938959983613e+18,-0.027638375759124756,-0.01940401829779148,-9.765786170959473
1.7294938960073615e+18,-0.05837442725896835,0.004113483242690563,-9.746702194213867
1.7294938960163617e+18,0.008647700771689415,-0.00861524511128664,-9.795991897583008
1.729493896025362e+18,0.014074263162910938,0.012656099162995815,-9.845242500305176
1.729493896034362e+18,0.011766321957111359,0.05011008307337761,-9.672487258911133
1.7294938960433623e+18,-0.0335892029106617,-0.03845389187335968,-9.899502754211426
1.7294938960523625e+18,-0.02719144895672798,0.0031561730429530144,-9.749786376953125
1.7294938960613627e+18,0.06443605571985245,-0.04516911879181862,-9.689615249633789
1.7294938960673628e+18,-0.06606525182723999,-0.06555023789405823,-9.81119441986084
1.729493896079363e+18,0.002210287842899561,-0.09376182407140732,-9.84522533416748
1.7294938960883633e+18,-0.00045190658420324326,-0.051380693912506104,-9.762969970703125
1.7294938960973635e+18,0.017208509147167206,0.027188539505004883,-9.721444129943848
1.7294938961063636e+18,-0.05286362022161484,-0.08128610998392105,-9.769805908203125
1.7294938961153638e+18,0.042171139270067215,-0.09137049317359924,-9.754822731018066
1.729493896124364e+18,0.05843918398022652,-0.07722003012895584,-9.700559616088867
1.7294938961333642e+18,0.034468602389097214,-0.05590350180864334,-9.782663345336914
1.7294938961423644e+18,-0.059703513979911804,0.06928389519453049,-9.748251914978027
1.7294938961483645e+18,0.04383515194058418,-0.06895764917135239,-9.731584548950195
1.7294938961603648e+18,-0.04968065395951271,-0.022307753562927246,-9.817474365234375
1.729493896169365e+18,0.0024197285529226065,0.007280639372766018,-9.782663345336914
1.7294938961783652e+18,-0.04001794010400772,0.016820434480905533,-9.739459037780762
1.7294938961843653e+18,0.0009065442718565464,-0.13217851519584656,-9.739522933959961
1.7294938961933655e+18,-0.028666798025369644,-0.016807379201054573,-9.802117347717285
1.7294938962023657e+18,-0.00218025385402143,-0.06831846386194229,-9.749654769897461
1.7294938962083658e+18,-0.004303812514990568,0.0719907283782959,-9.720054626464844
1.729493896217366e+18,0.021566642448306084,-0.08514800667762756,-9.78365707397461
1.7294938962263662e+18,-0.016434447839856148,-0.0007902169018052518,-9.688584327697754
1.7294938962353664e+18,-0.03333384916186333,-0.06283598393201828,-9.792108535766602
1.7294938962443666e+18,0.04717978835105896,-0.06680729240179062,-9.820992469787598
1.7294938962533668e+18,0.08335216343402863,0.03881504014134407,-9.80570125579834
1.729493896262367e+18,0.028820645064115524,-0.0368599072098732,-9.790574073791504
1.7294938962713672e+18,0.026374638080596924,-0.0022922505158931017,-9.720852851867676
1.7294938962803674e+18,-0.0434928797185421,-0.02135990560054779,-9.76611614227295
1.7294938962893676e+18,-0.03082157112658024,0.013081548735499382,-9.830179214477539
1.7294938962953677e+18,0.005571497138589621,0.01733884960412979,-9.725335121154785
1.7294938963043679e+18,0.06448030471801758,0.028822731226682663,-9.850678443908691
1.729493896313368e+18,0.08907001465559006,-0.010506006889045238,-9.7737398147583
1.7294938963193682e+18,-0.048011187463998795,0.013211595825850964,-9.746573448181152
1.7294938963283684e+18,-0.025934841483831406,0.03387314826250076,-9.699782371520996
1.7294938963373686e+18,0.04091275483369827,-0.06605805456638336,-9.746663093566895
1.7294938963463688e+18,-0.011887485161423683,0.003280369099229574,-9.822726249694824
1.729493896355369e+18,0.001578429015353322,-0.004213748965412378,-9.792558670043945
1.729493896361369e+18,-0.016034705564379692,0.06366541236639023,-9.794698715209961
1.7294938963703693e+18,-0.03968034312129021,0.052529945969581604,-9.774401664733887
1.7294938963793695e+18,0.0058416868560016155,0.014574133791029453,-9.852855682373047
1.7294938963883697e+18,-0.04357156530022621,-0.018024589866399765,-9.734940528869629
1.7294938963973699e+18,0.022093478590250015,-0.0474163256585598,-9.788928985595703
1.72949389640637e+18,-0.0685596764087677,-0.030419958755373955,-9.774386405944824
1.7294938964123702e+18,-0.0137968510389328,-0.037736110389232635,-9.863271713256836
1.7294938964213704e+18,-0.021518971771001816,0.0612984299659729,-9.817802429199219
1.7294938964303706e+18,-0.006084771826863289,-0.0009172079153358936,-9.811652183532715
1.7294938964393708e+18,-0.04124370217323303,0.07625624537467957,-9.77206802368164
1.729493896448371e+18,-0.04491797834634781,0.039172206073999405,-9.888768196105957
1.729493896454371e+18,-0.04684886336326599,-0.05841074883937836,-9.80760669708252
1.7294938964633713e+18,0.09332327544689178,0.035129114985466,-9.780981063842773
1.7294938964723715e+18,-0.10198253393173218,-0.014683615416288376,-9.785346031188965
1.7294938964813716e+18,-0.0078099798411130905,-0.05249342322349548,-9.715312004089355
1.7294938964873718e+18,0.04295187070965767,0.002605570014566183,-9.771626472473145
1.729493896496372e+18,-0.0645083636045456,-0.03467269241809845,-9.816367149353027
1.7294938965053722e+18,0.032513462007045746,-0.06296465545892715,-9.73823070526123
1.7294938965143724e+18,-0.09895671904087067,-0.02400260977447033,-9.764311790466309
1.7294938965203725e+18,0.013670552521944046,0.0015983151970431209,-9.811909675598145
1.7294938965293727e+18,0.016337284818291664,-0.0821472555398941,-9.746560096740723
1.7294938965383729e+18,-0.0776963010430336,0.07407403737306595,-9.736952781677246
1.729493896547373e+18,0.034217994660139084,0.025464437901973724,-9.763347625732422
1.7294938965563732e+18,-0.04868866875767708,5.375270848162472e-05,-9.796046257019043
1.7294938965623734e+18,-0.0588514618575573,-0.04132187366485596,-9.75460147857666
1.7294938965713736e+18,0.018481366336345673,0.03503521904349327,-9.766702651977539
1.7294938965773737e+18,-0.03558948636054993,0.010940243490040302,-9.740787506103516
1.729493896586374e+18,-0.01124543510377407,-0.06378728151321411,-9.888432502746582
1.729493896595374e+18,0.07426682859659195,0.11383406072854996,-9.713277816772461
1.7294938966013742e+18,-0.038786496967077255,0.09242091327905655,-9.757878303527832
1.7294938966103744e+18,-0.0014538270188495517,0.007032007444649935,-9.788896560668945
1.7294938966193746e+18,-0.01098640076816082,0.09351330995559692,-9.770201683044434
1.7294938966283748e+18,-0.09634358435869217,-0.04246145486831665,-9.792729377746582
1.729493896637375e+18,-0.030131403356790543,-0.012206492014229298,-9.778546333312988
1.729493896643375e+18,-0.017958801239728928,0.02294859103858471,-9.846662521362305
1.7294938966523753e+18,0.009806560352444649,-0.050566915422677994,-9.767873764038086
1.7294938966613755e+18,0.04850223660469055,0.04083165526390076,-9.732361793518066
1.7294938966703757e+18,-0.05180825665593147,-0.003272517118602991,-9.849239349365234
1.7294938966763758e+18,-0.002633369527757168,-0.03076883591711521,-9.785825729370117
1.729493896685376e+18,-0.0024209062103182077,-0.034717921167612076,-9.71988296508789
1.7294938966943762e+18,0.0022721965797245502,0.04408608376979828,-9.695014953613281
1.7294938967033764e+18,-0.03196932002902031,0.019669052213430405,-9.723607063293457
1.7294938967123766e+18,0.038350045680999756,-0.033649858087301254,-9.685200691223145
1.7294938967183767e+18,0.04930470511317253,0.020298980176448822,-9.846118927001953
1.729493896727377e+18,-0.011866451241075993,-0.010720256716012955,-9.77744197845459
1.729493896736377e+18,0.02205176092684269,-0.025191500782966614,-9.77591323852539
1.7294938967453773e+18,0.027990859001874924,0.005042359698563814,-9.821172714233398
1.7294938967543775e+18,-0.053379908204078674,-0.015660516917705536,-9.87331485748291
1.7294938967633777e+18,0.026883723214268684,-0.03755166009068489,-9.742599487304688
1.7294938967723779e+18,-0.01574493758380413,0.06195562705397606,-9.739717483520508
1.729493896781378e+18,-0.01402190700173378,-0.09879718720912933,-9.827655792236328
1.7294938967903782e+18,0.03051205910742283,0.021263550966978073,-9.763519287109375
1.7294938967993784e+18,0.042935144156217575,-0.03315800800919533,-9.76014518737793
1.7294938968083786e+18,0.04213810712099075,0.026608800515532494,-9.773758888244629
1.7294938968143788e+18,-0.01623753271996975,-0.014060640707612038,-9.751791000366211
1.729493896823379e+18,-0.00033771590096876025,-0.05350456014275551,-9.80866527557373
1.7294938968323791e+18,-0.04555007442831993,0.008550159633159637,-9.733195304870605
1.7294938968413793e+18,-0.029327508062124252,-0.06161264330148697,-9.814412117004395
1.7294938968503795e+18,0.03653780743479729,-0.04265506565570831,-9.801118850708008
1.7294938968593797e+18,0.09620602428913116,0.01419827900826931,-9.792780876159668
1.72949389686838e+18,-0.09709080308675766,0.05039488524198532,-9.71699333190918
1.72949389687738e+18,0.01168590784072876,0.05322445183992386,-9.731585502624512
1.7294938968863803e+18,0.054111871868371964,-0.04217260703444481,-9.756787300109863
1.7294938968953805e+18,-0.03164931759238243,0.012986207380890846,-9.757285118103027
1.7294938969013806e+18,-0.009452559053897858,-0.047030240297317505,-9.884223937988281
1.7294938969103808e+18,0.02229982428252697,-0.013645889237523079,-9.773172378540039
1.729493896919381e+18,0.006236364133656025,-0.026599697768688202,-9.713496208190918
1.729493896925381e+18,-0.1347344070672989,-0.014925909228622913,-9.699176788330078
1.7294938969343813e+18,0.004087884910404682,0.010861281305551529,-9.785017013549805
1.7294938969433815e+18,-0.008148648776113987,-0.05876835435628891,-9.835734367370605
1.7294938969493816e+18,-0.004061585292220116,-0.08039253205060959,-9.778197288513184
1.7294938969583818e+18,0.012253153137862682,0.059860847890377045,-9.815642356872559
1.729493896967382e+18,-0.043091487139463425,-0.0030873098876327276,-9.800975799560547
1.7294938969733821e+18,-0.06126939505338669,-0.09936166554689407,-9.825220108032227
1.7294938969823823e+18,-0.015881147235631943,0.06259294599294662,-9.87186336517334
1.7294938969913825e+18,-0.006476645357906818,-0.009567314758896828,-9.80263614654541
1.7294938970003827e+18,0.04485515505075455,0.06320849061012268,-9.747093200683594
1.729493897009383e+18,0.017062461003661156,0.02960199862718582,-9.866964340209961
1.729493897015383e+18,0.0368599034845829,0.05623145028948784,-9.860791206359863
1.7294938970273833e+18,-0.029573336243629456,-0.0034298442769795656,-9.727387428283691
1.7294938970333834e+18,-0.05852247029542923,-0.0180952325463295,-9.813603401184082
1.7294938970423836e+18,0.046212151646614075,-0.053414758294820786,-9.7992525100708
1.7294938970513838e+18,0.020159875974059105,-0.11843707412481308,-9.807541847229004
1.729493897060384e+18,-0.11002341657876968,0.003086294047534466,-9.826454162597656
1.7294938970693842e+18,0.011299323290586472,-0.0044035762548446655,-9.806235313415527
1.7294938970783844e+18,0.013168230652809143,0.013423318974673748,-9.73876953125
1.7294938970843845e+18,-0.031025102362036705,0.014962481334805489,-9.803133964538574
1.7294938970933847e+18,0.05374540016055107,-0.037746623158454895,-9.797367095947266
1.729493897102385e+18,-0.02657100185751915,-0.016757331788539886,-9.783339500427246
1.729493897111385e+18,0.027020320296287537,-0.020024461671710014,-9.75527286529541
1.7294938971173852e+18,-0.0158214271068573,0.014477452263236046,-9.694945335388184
1.7294938971263854e+18,0.056633248925209045,0.054149024188518524,-9.843830108642578
1.7294938971353856e+18,-0.017069147899746895,0.0637264996767044,-9.709524154663086
1.7294938971443858e+18,0.02801826223731041,0.004691519774496555,-9.766768455505371
1.729493897150386e+18,0.029894093051552773,-0.0024956061970442533,-9.8089017868042
1.729493897159386e+18,-0.027541283518075943,-0.033526573330163956,-9.772600173950195
1.7294938971683863e+18,-0.08248422294855118,0.06875276565551758,-9.782875061035156
1.7294938971743864e+18,-0.016870662569999695,-0.07245000451803207,-9.737774848937988
1.7294938971833866e+18,-0.04092923179268837,0.01626705378293991,-9.79660415649414
1.7294938971893868e+18,-0.05434899032115936,0.05119398608803749,-9.78838062286377
1.729493897198387e+18,0.08008590340614319,-0.010694374330341816,-9.724406242370605
1.7294938972073871e+18,-0.020634151995182037,-0.022927753627300262,-9.764946937561035
1.7294938972163873e+18,-0.013299498707056046,-0.055040616542100906,-9.752462387084961
1.7294938972223875e+18,0.062097057700157166,0.007674528751522303,-9.855011940002441
1.7294938972313876e+18,0.0032213102094829082,0.01895003393292427,-9.84622859954834
1.7294938972373878e+18,-0.018018629401922226,0.026628579944372177,-9.765652656555176
1.729493897246388e+18,-0.014900924637913704,0.07079266011714935,-9.881181716918945
1.729493897252388e+18,0.009024546481668949,-0.026573317125439644,-9.79409122467041
1.7294938972613883e+18,-0.07281749695539474,0.03907361626625061,-9.758152961730957
1.7294938972703885e+18,-0.014840632677078247,-0.0378689281642437,-9.718597412109375
1.7294938972763886e+18,-0.020533178001642227,0.0460086390376091,-9.798039436340332
1.7294938972853888e+18,0.04554807022213936,0.06425602734088898,-9.821114540100098
1.729493897294389e+18,-0.017433419823646545,-0.03830750659108162,-9.801532745361328
1.7294938973033892e+18,-0.04177738353610039,-0.059494681656360626,-9.820487976074219
1.7294938973093893e+18,-0.023473544046282768,-0.04959677532315254,-9.806456565856934
1.7294938973183895e+18,-0.06275967508554459,-0.05469556897878647,-9.804256439208984
1.7294938973273897e+18,0.016502130776643753,-0.048715267330408096,-9.782797813415527
1.7294938973333898e+18,0.0008070726762525737,-0.05427655577659607,-9.864856719970703
1.72949389734239e+18,-0.04392586648464203,-0.06121014803647995,-9.850554466247559
1.7294938973513902e+18,-0.026308134198188782,-0.041116420179605484,-9.737667083740234
1.7294938973603904e+18,0.05663233995437622,-0.03358189016580582,-9.80202865600586
1.7294938973693906e+18,-0.06256583333015442,0.09831973165273666,-9.836907386779785
1.7294938973783908e+18,-0.03072631172835827,-0.0524047426879406,-9.761035919189453
1.729493897384391e+18,0.031424008309841156,-0.005894185043871403,-9.664429664611816
1.7294938973963912e+18,-0.01759692095220089,-0.046262990683317184,-9.808026313781738
1.7294938974023913e+18,-0.02519657090306282,-0.02408914640545845,-9.827478408813477
1.7294938974143916e+18,0.11518913507461548,0.06453606486320496,-9.791001319885254
1.7294938974233917e+18,-0.0283840149641037,0.05590721219778061,-9.806095123291016
1.729493897432392e+18,0.03874662518501282,0.06311480700969696,-9.79242992401123
1.729493897441392e+18,-0.017695657908916473,-0.031380005180835724,-9.811227798461914
1.7294938974473923e+18,0.007823324762284756,-0.035289112478494644,-9.831521034240723
1.7294938974563924e+18,0.09863393008708954,-0.1047658622264862,-9.84978199005127
1.7294938974623926e+18,0.01107903104275465,-0.009687376208603382,-9.805419921875
1.7294938974743928e+18,0.06916673481464386,0.03749457746744156,-9.705620765686035
1.729493897480393e+18,0.03774389252066612,-0.072097048163414,-9.809103012084961
1.7294938974893932e+18,0.0409485325217247,0.021283943206071854,-9.799444198608398
1.7294938974983933e+18,-0.03821611404418945,0.03763328120112419,-9.735993385314941
1.7294938975073935e+18,-0.05899345874786377,0.0264616496860981,-9.809076309204102
1.7294938975133937e+18,0.02007341757416725,-0.012711326591670513,-9.814617156982422
1.7294938975223939e+18,-0.03231359273195267,0.036658868193626404,-9.82700252532959
1.729493897528394e+18,0.0011407271958887577,-0.044745467603206635,-9.785944938659668
1.7294938975373942e+18,0.02905837446451187,0.04370349645614624,-9.812070846557617
1.7294938975463944e+18,-0.039232287555933,0.0019040126353502274,-9.816808700561523
1.7294938975553946e+18,0.06850437074899673,0.061581436544656754,-9.801787376403809
1.7294938975643948e+18,-0.035798560827970505,0.03344862908124924,-9.819031715393066
1.729493897570395e+18,-0.06520921736955643,-0.0020620874129235744,-9.788290023803711
1.729493897579395e+18,0.002773658372461796,0.07092379033565521,-9.82140064239502
1.7294938975883953e+18,-0.025493524968624115,-0.0313614085316658,-9.79610538482666
1.7294938975973955e+18,-0.0015221540816128254,0.009561682119965553,-9.793953895568848
1.7294938976033956e+18,0.08541420102119446,0.005857313983142376,-9.847763061523438
1.7294938976123958e+18,-0.029767194762825966,-0.02867964655160904,-9.824028968811035
1.729493897618396e+18,0.027630435302853584,0.049202609807252884,-9.830062866210938
1.729493897627396e+18,0.009104312397539616,-0.006240032613277435,-9.838541984558105
1.7294938976363963e+18,0.03246058151125908,-0.006110698916018009,-9.786957740783691
1.7294938976453965e+18,0.0072855353355407715,-0.00620294688269496,-9.818052291870117
1.7294938976543967e+18,-0.0037574288435280323,0.03767675533890724,-9.803528785705566
1.7294938976603968e+18,-0.0016698313411325216,-0.05159977823495865,-9.814353942871094
1.729493897669397e+18,0.06283119320869446,-0.012486587278544903,-9.851147651672363
1.7294938976783972e+18,-0.017304323613643646,-0.025777559727430344,-9.73968505859375
1.7294938976873974e+18,-0.024678697809576988,0.03556583821773529,-9.692142486572266
1.7294938976933975e+18,0.008367655798792839,8.997890108730644e-05,-9.799202919006348
1.7294938977023977e+18,-0.04203767701983452,0.02950606495141983,-9.788642883300781
1.729493897711398e+18,0.04072241485118866,-0.04425061494112015,-9.807951927185059
1.729493897717398e+18,0.0029890290461480618,-0.04281612113118172,-9.770147323608398
1.7294938977263982e+18,-0.03315035626292229,-0.04748591408133507,-9.747650146484375
1.7294938977353984e+18,0.0692252591252327,-0.030446937307715416,-9.772561073303223
1.7294938977443986e+18,0.034127358347177505,0.0072790454141795635,-9.842822074890137
1.7294938977503987e+18,0.0346047505736351,-0.04949651658535004,-9.84537410736084
1.729493897759399e+18,-0.011945652775466442,-0.026060476899147034,-9.721894264221191
1.729493897768399e+18,-0.014300763607025146,-0.03978005051612854,-9.81541633605957
1.7294938977773993e+18,-0.04002564027905464,0.06711793690919876,-9.7738676071167
1.7294938977833994e+18,-0.0020782980136573315,0.014007490128278732,-9.822447776794434
1.7294938977923996e+18,0.015052691102027893,-0.028389764949679375,-9.79723072052002
1.7294938977983997e+18,0.04760432615876198,0.003774247132241726,-9.830082893371582
1.7294938978074e+18,0.10691552609205246,0.038717567920684814,-9.799796104431152
1.7294938978164001e+18,-0.042761579155921936,0.037463534623384476,-9.880958557128906
1.7294938978224003e+18,0.02429679036140442,-0.08808169513940811,-9.815912246704102
1.7294938978314004e+18,-0.028797127306461334,0.02787816897034645,-9.7926607131958
1.7294938978404006e+18,0.021539155393838882,-0.05884014442563057,-9.81373405456543
1.7294938978464008e+18,0.0232382919639349,-0.003197047859430313,-9.79527759552002
1.729493897855401e+18,-0.022745229303836823,-0.03143655136227608,-9.838827133178711
1.7294938978644012e+18,0.0027757324278354645,-0.010256010107696056,-9.820113182067871
1.7294938978734013e+18,-0.030347850173711777,-0.0032639920245856047,-9.809364318847656
1.7294938978794015e+18,-0.01560139935463667,0.028061946853995323,-9.864871978759766
1.7294938978884017e+18,-0.020025379955768585,-0.05535069853067398,-9.817819595336914
1.7294938978944018e+18,-0.03063027933239937,-0.04883018136024475,-9.767822265625
1.729493897903402e+18,0.03006037324666977,0.08541740477085114,-7.9240031242370605
1.7294938979124022e+18,0.006629174575209618,-0.05782563239336014,-7.546755313873291
1.7294938979214024e+18,0.07837975025177002,-0.05529468506574631,-7.406222820281982
1.7294938979274025e+18,0.068250373005867,-0.054999589920043945,-8.08874225616455
1.7294938979364027e+18,0.11700211465358734,-0.06283964216709137,-10.775177955627441
1.729493897945403e+18,0.0750202089548111,-0.06441166996955872,-11.797605514526367
1.729493897954403e+18,0.11260004341602325,-0.041371703147888184,-11.919046401977539
1.7294938979604032e+18,0.06862854957580566,-0.10008639097213745,-11.93932056427002
1.7294938979724035e+18,0.13987909257411957,-0.02791564166545868,-11.816606521606445
1.7294938979784036e+18,0.10489892959594727,-0.012384802103042603,-11.549200057983398
1.7294938979874038e+18,0.08691388368606567,-0.02874579094350338,-11.515203475952148
1.729493897996404e+18,0.1370636224746704,-0.14303907752037048,-11.365909576416016
1.7294938980054042e+18,0.09539801627397537,-0.06555180996656418,-11.221123695373535
1.7294938980144044e+18,0.1262425035238266,-0.058759745210409164,-11.094608306884766
1.7294938980234045e+18,0.08344367146492004,0.028232455253601074,-10.600129127502441
1.7294938980324047e+18,-0.008415192365646362,-0.05750449746847153,-10.279682159423828
1.729493898041405e+18,0.02880220115184784,-0.04781471565365791,-10.096185684204102
1.729493898050405e+18,0.0877232551574707,0.011259324848651886,-9.97557544708252
1.7294938980594053e+18,0.03371898829936981,0.03524076193571091,-9.938858985900879
1.7294938980684055e+18,0.06689810752868652,-0.005844075232744217,-9.832609176635742
1.7294938980804058e+18,0.028415031731128693,-0.040671732276678085,-9.559383392333984
1.729493898086406e+18,0.0025202222168445587,-0.00046990253031253815,-9.440109252929688
1.729493898095406e+18,0.05672692507505417,0.06289415061473846,-9.436542510986328
1.7294938981044063e+18,0.014565065503120422,-0.06603577733039856,-9.199845314025879
1.7294938981134065e+18,-0.033962078392505646,0.01791265234351158,-9.056916236877441
1.7294938981224067e+18,0.02069331519305706,-0.09901317954063416,-9.078507423400879
1.7294938981314068e+18,-0.0076645296066999435,0.04230629652738571,-9.121728897094727
1.729493898140407e+18,0.008563550189137459,-0.05403425917029381,-9.124367713928223
1.7294938981494072e+18,-0.026710737496614456,-0.007983194664120674,-8.956148147583008
1.7294938981584074e+18,-0.04300437495112419,-0.023898765444755554,-8.798652648925781
1.7294938981674076e+18,-0.07652919739484787,0.05399457365274429,-8.729446411132812
1.7294938981764078e+18,-0.02223827876150608,-0.0759357213973999,-8.663835525512695
1.729493898185408e+18,-0.03073889948427677,-0.04291373863816261,-8.667927742004395
1.7294938981944082e+18,0.06477838009595871,-0.0573197677731514,-8.805720329284668
1.7294938982034084e+18,-0.03962396830320358,-0.007381650619208813,-8.593683242797852
1.7294938982124086e+18,-0.052824750542640686,-0.00018092268146574497,-8.477330207824707
1.7294938982214088e+18,-0.023961862549185753,0.03327855467796326,-8.515046119689941
1.729493898227409e+18,-0.06566304713487625,-0.025311170145869255,-8.561031341552734
1.729493898236409e+18,-0.020153148099780083,0.028073668479919434,-8.720003128051758
1.7294938982454093e+18,-0.0287284217774868,-0.04650948569178581,-8.626031875610352
1.7294938982514094e+18,-0.02674577385187149,0.01904194802045822,-8.552467346191406
1.7294938982604096e+18,-0.0009462432935833931,-0.013526124879717827,-8.65662956237793
1.7294938982664097e+18,-0.0015841983258724213,-0.07382626831531525,-8.526369094848633
1.72949389827541e+18,-0.01926516555249691,-0.06946410238742828,-8.508082389831543
1.72949389828441e+18,-0.02488717809319496,0.009368355385959148,-8.441534042358398
1.7294938982904102e+18,-0.059713441878557205,-0.06958029419183731,-8.506056785583496
1.7294938982994104e+18,-0.06321510672569275,-0.03704250603914261,-8.57323169708252
1.7294938983084106e+18,-0.005704982206225395,-0.06523644924163818,-8.47622013092041
1.7294938983144108e+18,-0.021118031814694405,-0.02285105548799038,-8.552241325378418
1.729493898323411e+18,0.00054123904556036,-0.0006742407567799091,-8.476533889770508
1.7294938983324111e+18,-0.05159413069486618,0.08780713379383087,-8.445204734802246
1.7294938983414113e+18,0.001606222242116928,-0.07814811170101166,-8.417047500610352
1.7294938983474115e+18,0.08617540448904037,-0.076389841735363,-8.48106861114502
1.7294938983564116e+18,-0.0726509615778923,-0.0036352016031742096,-8.490470886230469
1.7294938983654118e+18,-0.04956739395856857,0.003632982261478901,-8.55600643157959
1.729493898374412e+18,-0.0570884607732296,0.05541343241930008,-8.551446914672852
1.7294938983804122e+18,0.047162704169750214,0.00903289020061493,-8.440179824829102
1.7294938983894124e+18,-0.016044285148382187,0.01075147744268179,-8.520596504211426
1.7294938983984125e+18,-0.012409721501171589,0.026406439021229744,-8.514730453491211
1.7294938984074127e+18,-0.02608892321586609,-0.017908647656440735,-8.582581520080566
1.7294938984134129e+18,-0.03047841787338257,-0.027027450501918793,-8.671438217163086
1.729493898422413e+18,-0.003984855022281408,0.04264410585165024,-8.510013580322266
1.7294938984284132e+18,0.01284913718700409,-0.04770107939839363,-8.570990562438965
1.7294938984374134e+18,0.023732975125312805,0.03456490486860275,-8.620737075805664
1.7294938984464136e+18,0.05660092830657959,0.008638212457299232,-8.530699729919434
1.7294938984524137e+18,0.005308360792696476,-0.031368501484394073,-8.614041328430176
1.729493898461414e+18,0.006259544752538204,0.04160652309656143,-8.616283416748047
1.729493898470414e+18,-0.04345939680933952,-0.0024501713924109936,-8.594379425048828
1.7294938984794143e+18,-0.018331378698349,-0.0015809587202966213,-8.722061157226562
1.7294938984854144e+18,-0.048838332295417786,-0.10424299538135529,-8.656975746154785
1.7294938984944146e+18,0.04800688475370407,0.018572136759757996,-8.70573902130127
1.7294938985034148e+18,-0.04974809288978577,0.06719096750020981,-8.72690200805664
1.729493898509415e+18,0.10176443308591843,0.0472118966281414,-8.63995361328125
1.729493898518415e+18,0.03906901553273201,-0.04414092376828194,-8.779770851135254
1.7294938985274153e+18,0.018384737893939018,0.022006703540682793,-8.842607498168945
1.7294938985364155e+18,-0.016018612310290337,-0.01164048071950674,-8.761943817138672
1.7294938985424156e+18,0.008672239258885384,-0.02719104290008545,-8.723627090454102
1.7294938985514158e+18,-0.015605965629220009,0.020544202998280525,-8.78784465789795
1.729493898560416e+18,0.0019030889961868525,-0.03226977959275246,-8.727470397949219
1.7294938985694162e+18,0.06454889476299286,0.0023960149846971035,-8.796570777893066
1.7294938985784164e+18,0.07720489054918289,-0.03728858381509781,-8.775372505187988
1.7294938985844165e+18,0.016482286155223846,-0.006334200501441956,-8.799388885498047
1.7294938985934167e+18,0.08260666579008102,-0.038899172097444534,-8.867464065551758
1.729493898602417e+18,0.03225415572524071,-0.026880715042352676,-8.873133659362793
1.729493898611417e+18,-0.04182492941617966,0.016490016132593155,-8.778117179870605
1.7294938986204173e+18,0.026131249964237213,-0.06607261300086975,-8.841171264648438
1.7294938986294175e+18,0.056517794728279114,-0.0067873261868953705,-8.838751792907715
1.7294938986384177e+18,-0.08208705484867096,-0.0014233400579541922,-8.87629508972168
1.7294938986474179e+18,0.02870965003967285,-0.03210805356502533,-8.920496940612793
1.729493898656418e+18,0.05261573567986488,0.014346227049827576,-9.000335693359375
1.7294938986624182e+18,0.028014495968818665,0.044691529124975204,-8.883659362792969
1.7294938986714184e+18,0.023417633026838303,0.006057109218090773,-8.890710830688477
1.7294938986804186e+18,0.03689592704176903,-0.03144002705812454,-8.944568634033203
1.7294938986894188e+18,0.07606673240661621,0.06937997788190842,-8.974682807922363
1.729493898698419e+18,0.012005558237433434,0.005313321948051453,-8.940011024475098
1.7294938987074191e+18,-0.00787811167538166,-0.04698629677295685,-9.004134178161621
1.7294938987164193e+18,-0.01797175407409668,0.03544057160615921,-9.018722534179688
1.7294938987224195e+18,0.11314084380865097,0.012918057851493359,-9.109086990356445
1.7294938987314196e+18,0.05903064087033272,-0.037657544016838074,-8.950701713562012
1.7294938987404198e+18,0.0018097534775733948,-0.019289983436465263,-9.079675674438477
1.72949389874942e+18,0.08329331129789352,0.004061596468091011,-9.104751586914062
1.7294938987584202e+18,-0.00819709524512291,0.0019343020394444466,-9.145499229431152
1.7294938987674204e+18,0.030160246416926384,0.029859546571969986,-9.086195945739746
1.7294938987764206e+18,0.06106865033507347,0.007083293050527573,-9.19472885131836
1.7294938987854208e+18,-0.02364952489733696,0.06005719304084778,-9.17540168762207
1.729493898791421e+18,-0.04688560217618942,0.01774665154516697,-9.20025634765625
1.7294938988094213e+18,0.12152175605297089,-0.07288508117198944,-9.209741592407227
1.7294938988154214e+18,0.024649210274219513,-0.029979383572936058,-9.28824520111084
1.7294938988244216e+18,0.056690413504838943,0.03050342947244644,-9.216259956359863
1.7294938988334218e+18,-0.024340108036994934,0.04070446640253067,-9.208565711975098
1.729493898842422e+18,0.08726119995117188,-0.026791462674736977,-9.2113676071167
1.7294938988514222e+18,0.024918077513575554,0.09025076031684875,-9.341848373413086
1.7294938988574223e+18,0.04115939885377884,-0.05920591577887535,-9.280557632446289
1.7294938988664225e+18,0.028926070779561996,-0.02834562584757805,-9.353874206542969
1.7294938988754227e+18,0.08748307079076767,0.009415690787136555,-9.319854736328125
1.729493898884423e+18,0.05881647765636444,-0.02780526876449585,-9.384025573730469
1.729493898893423e+18,0.013095661997795105,-0.09345312416553497,-9.416619300842285
1.7294938988994232e+18,0.04542716220021248,-0.0161485243588686,-9.347376823425293
1.7294938989084234e+18,0.05070849880576134,-0.09286672621965408,-9.44100570678711
1.7294938989144236e+18,0.07917565852403641,-0.008532464504241943,-9.419315338134766
1.7294938989234237e+18,0.04933399334549904,-0.0029538047965615988,-9.50126838684082
1.729493898932424e+18,0.06515767425298691,0.0175746139138937,-9.460862159729004
1.729493898941424e+18,0.06981964409351349,-0.006101443897932768,-9.490094184875488
1.7294938989504243e+18,0.05480023846030235,-0.05703172832727432,-9.434680938720703
1.7294938989564244e+18,0.028593070805072784,-0.027307773008942604,-9.524567604064941
1.7294938989654246e+18,-0.0060437023639678955,-0.08161362260580063,-9.492480278015137
1.7294938989744248e+18,0.0620974563062191,-0.02673855423927307,-9.55753231048584
1.729493898983425e+18,0.0973997637629509,-0.006714005954563618,-9.644415855407715
1.7294938989924252e+18,0.08618880063295364,-0.07761327922344208,-9.552641868591309
1.7294938990014254e+18,0.023474685847759247,0.05990131199359894,-9.584961891174316
1.7294938990104256e+18,0.03404171019792557,-0.032307982444763184,-9.574501991271973
1.7294938990164257e+18,0.08419638872146606,0.03564567118883133,-9.669844627380371
1.729493899025426e+18,0.16923707723617554,-0.045413728803396225,-9.667686462402344
1.729493899034426e+18,0.12705977261066437,-0.08301051706075668,-9.722723007202148
1.7294938990434263e+18,0.13435521721839905,0.012610947713255882,-9.756473541259766
1.7294938990494264e+18,0.09854511171579361,-0.0018086442723870277,-9.809666633605957
1.7294938990584266e+18,0.06488572806119919,0.07403649389743805,-9.736832618713379
1.7294938990674268e+18,0.047894760966300964,-0.05411456897854805,-9.72600269317627
1.729493899076427e+18,0.08223813027143478,0.03171461075544357,-9.813945770263672
1.7294938990824271e+18,0.09723373502492905,0.02968534454703331,-9.850032806396484
1.7294938990914273e+18,0.05859469622373581,-0.012061670422554016,-9.780134201049805
1.7294938991004275e+18,0.10696156322956085,-0.0643516480922699,-9.839864730834961
1.7294938991094277e+18,0.08742102980613708,-0.07219873368740082,-9.844436645507812
1.729493899118428e+18,0.052929773926734924,0.03134864941239357,-9.932525634765625
1.729493899124428e+18,0.09819906204938889,0.04367274045944214,-9.948543548583984
1.7294938991334282e+18,0.07287612557411194,-0.019573859870433807,-9.941303253173828
1.7294938991454285e+18,0.10101982951164246,-0.02187490090727806,-10.00732707977295
1.7294938991544287e+18,0.07187590003013611,-0.020303193479776382,-9.985730171203613
1.7294938991604288e+18,0.03868526220321655,-0.044625282287597656,-9.929866790771484
1.729493899169429e+18,0.11071047186851501,-0.06820026785135269,-9.954890251159668
1.7294938991784292e+18,0.09731918573379517,-0.052662692964076996,-10.042572021484375
1.7294938991844293e+18,0.0917273461818695,-0.02486664429306984,-10.042887687683105
1.7294938991934295e+18,0.027046985924243927,-0.02638952061533928,-10.045734405517578
1.7294938992024297e+18,0.05813898146152496,0.04119391366839409,-10.09485912322998
1.7294938992084298e+18,0.09547088295221329,-0.02259206771850586,-10.007299423217773
1.72949389921743e+18,0.04677669331431389,0.03254183009266853,-10.076698303222656
1.7294938992264302e+18,0.11979596316814423,-0.04291851818561554,-10.086942672729492
1.7294938992354304e+18,0.016253426671028137,-0.04505208879709244,-10.15139389038086
1.7294938992414305e+18,0.11073801666498184,-0.02350851148366928,-10.211370468139648
1.7294938992504307e+18,0.12486100196838379,-0.0695635974407196,-10.260343551635742
1.729493899259431e+18,0.18137437105178833,-0.03507081791758537,-10.098587036132812
1.729493899268431e+18,0.0852198600769043,-0.06686580926179886,-10.169788360595703
1.7294938992744312e+18,0.0698559507727623,0.028256632387638092,-10.179098129272461
1.7294938992834314e+18,0.15604369342327118,-0.010038510896265507,-10.210516929626465
1.7294938992924316e+18,0.0757983922958374,-0.05689585953950882,-10.220732688903809
1.7294938993014318e+18,0.09267546236515045,-0.06653046607971191,-10.301108360290527
1.729493899310432e+18,0.0712035670876503,-0.02108853869140148,-10.305944442749023
1.7294938993194322e+18,-0.055592745542526245,-0.01087867096066475,-10.288542747497559
1.7294938993284324e+18,0.169937863945961,-0.007594935595989227,-10.371929168701172
1.7294938993374326e+18,0.09756793826818466,-0.002505136653780937,-10.325589179992676
1.7294938993434327e+18,0.11319249123334885,-0.05651519447565079,-10.444853782653809
1.729493899352433e+18,0.05290840193629265,-0.07491722702980042,-10.3350191116333
1.729493899361433e+18,0.039554230868816376,-0.0748101994395256,-10.354358673095703
1.7294938993704333e+18,0.16088822484016418,-0.0021478142589330673,-10.54698371887207
1.7294938993794335e+18,0.09415267407894135,-0.06976485997438431,-10.380977630615234
1.7294938993884337e+18,0.05631427466869354,-0.023480741307139397,-10.450811386108398
1.7294938993974339e+18,0.12169811874628067,-0.054837919771671295,-10.38243579864502
