timestamp,accel_x,accel_y,accel_z
1.7275279875944712e+18,0.04388747736811638,-0.085225410759449,-9.82542610168457
1.7275279876034714e+18,-0.011017226614058018,0.0028480698820203543,-9.837132453918457
1.7275279876064714e+18,0.07716743648052216,0.016301605850458145,-9.788270950317383
1.7275279876124716e+18,-0.050037357956171036,-4.506870754994452e-05,-9.749273300170898
1.7275279876184717e+18,-0.00032394949812442064,-0.04180925711989403,-9.837038040161133
1.7275279876244718e+18,-0.01639520935714245,0.030351383611559868,-9.863433837890625
1.727527987630472e+18,-0.011828074231743813,0.046394605189561844,-9.691728591918945
1.727527987633472e+18,-0.0249404888600111,-0.021305717527866364,-9.830960273742676
1.727527987639472e+18,0.03449414670467377,-0.026289472356438637,-9.83886432647705
1.7275279876454723e+18,-0.06488785147666931,-0.005483468994498253,-9.861612319946289
1.7275279876514724e+18,-0.005807704292237759,0.008087093941867352,-9.852615356445312
1.7275279876574725e+18,0.007649955339729786,-0.0378156416118145,-9.825151443481445
1.7275279876634726e+18,-0.01566026359796524,0.06778889149427414,-9.799038887023926
1.7275279876664727e+18,-0.07102514058351517,0.014429965056478977,-9.757525444030762
1.7275279876724728e+18,0.0030671849381178617,-0.037388239055871964,-9.788286209106445
1.727527987678473e+18,-0.025288663804531097,-0.07399037480354309,-9.729061126708984
1.727527987684473e+18,0.03436560556292534,0.0344088040292263,-9.752437591552734
1.7275279876904732e+18,0.011556081473827362,0.019475271925330162,-9.77033805847168
1.7275279876964733e+18,0.07382098585367203,0.015132403001189232,-9.82353687286377
1.7275279877024735e+18,-0.08764581382274628,0.07244838774204254,-9.770214080810547
1.7275279877054735e+18,0.0679953470826149,0.028589729219675064,-9.828946113586426
1.7275279877114737e+18,0.024355996400117874,-0.0005143742891959846,-9.802342414855957
1.7275279877174738e+18,0.051740724593400955,0.010107453912496567,-9.755701065063477
1.727527987723474e+18,-0.004168546758592129,-0.053564030677080154,-9.830060005187988
1.727527987729474e+18,0.013524122536182404,-0.009581913240253925,-9.79443359375
1.727527987732474e+18,0.03789519518613815,0.035602863878011703,-9.828271865844727
1.7275279877414743e+18,-0.018909575417637825,0.06502600759267807,-9.780388832092285
1.7275279877474744e+18,-0.04294043406844139,0.027566635981202126,-9.818103790283203
1.7275279877504745e+18,0.08380283415317535,0.019920459017157555,-9.78614616394043
1.7275279877564746e+18,0.005967709701508284,-0.047654975205659866,-9.814319610595703
1.7275279877624748e+18,-0.05661580711603165,0.04196068271994591,-9.773263931274414
1.727527987768475e+18,0.0518752858042717,0.061878740787506104,-9.8510160446167
1.727527987774475e+18,-0.0037009778898209333,-0.043432801961898804,-9.897164344787598
1.7275279877804751e+18,-0.02350453846156597,-0.007988731376826763,-9.762402534484863
1.7275279877834752e+18,-0.04345500096678734,-0.0639919638633728,-9.825847625732422
1.7275279877894753e+18,0.04091333597898483,-0.018747925758361816,-9.8644380569458
1.7275279877954755e+18,0.010634920559823513,0.006617895793169737,-9.81352424621582
1.7275279878014756e+18,-0.008354541845619678,0.004918307065963745,-9.803955078125
1.7275279878074757e+18,0.022529153153300285,0.029976924881339073,-9.792156219482422
1.7275279878104758e+18,-0.006689047906547785,0.01294683013111353,-9.773618698120117
1.727527987816476e+18,0.12080930918455124,-0.06272564083337784,-9.821669578552246
1.727527987822476e+18,-0.05152229964733124,0.029321597889065742,-9.76391887664795
1.7275279878284762e+18,-0.05454033985733986,-0.015378897078335285,-9.795271873474121
1.7275279878344763e+18,0.042704738676548004,0.005279816687107086,-9.811261177062988
1.7275279878374764e+18,0.011718378402292728,-0.01992878131568432,-9.782607078552246
1.7275279878434765e+18,0.052033618092536926,-0.02735164761543274,-9.614860534667969
1.7275279878494766e+18,-0.005744903814047575,0.004637266043573618,-9.796924591064453
1.7275279878554767e+18,0.026277799159288406,0.002685920801013708,-9.828889846801758
1.7275279878584768e+18,0.018016504123806953,0.01423508208245039,-9.827099800109863
1.727527987864477e+18,0.01959904097020626,-0.0393742136657238,-9.774698257446289
1.727527987870477e+18,0.06826125085353851,-0.047189101576805115,-9.838523864746094
1.7275279878764772e+18,-0.07627513259649277,0.004241598304361105,-9.753924369812012
1.7275279878824773e+18,-0.03179166093468666,0.015904026105999947,-9.795002937316895
1.7275279878854774e+18,0.13634580373764038,-0.021199528127908707,-9.822654724121094
1.7275279878914775e+18,-0.005251619964838028,-0.03292060270905495,-9.701682090759277
1.7275279878974776e+18,0.02240046299993992,-0.06546943634748459,-9.776528358459473
1.7275279879004777e+18,-0.0028531618881970644,-0.05844563618302345,-9.864913940429688
1.7275279879064778e+18,-0.05702875927090645,0.03048012964427471,-9.845815658569336
1.727527987912478e+18,-0.009633135981857777,-0.031328700482845306,-9.771191596984863
1.727527987918478e+18,-0.052759185433387756,0.014989339746534824,-9.797805786132812
1.7275279879244782e+18,0.03392282873392105,-0.03866470605134964,-9.841816902160645
1.7275279879274783e+18,-0.052181895822286606,-0.019807344302535057,-9.773796081542969
1.7275279879334784e+18,0.05413054674863815,-0.031502366065979004,-9.726140022277832
1.7275279879394785e+18,0.05602246895432472,-0.04579797014594078,-9.784649848937988
1.7275279879454787e+18,-0.027580855414271355,0.027500033378601074,-9.855341911315918
1.7275279879484787e+18,0.007969513535499573,0.006306178867816925,-9.8221435546875
1.7275279879544788e+18,0.03248361498117447,-0.005156941246241331,-9.775260925292969
1.727527987960479e+18,-0.11640904098749161,0.016994988545775414,-9.81326675415039
1.727527987963479e+18,-0.03087906911969185,-0.04652145132422447,-9.769487380981445
1.7275279879694792e+18,-0.03830273076891899,0.08411940187215805,-9.837698936462402
1.7275279879754793e+18,-0.05136324465274811,-0.04317587614059448,-9.793831825256348
1.7275279879814794e+18,-0.017100216820836067,-0.016548966988921165,-9.784332275390625
1.7275279879874796e+18,0.09046782553195953,-0.022579306736588478,-9.830068588256836
1.7275279879904796e+18,0.04820665344595909,0.04327050596475601,-9.809625625610352
1.7275279879964797e+18,-0.06498856097459793,0.042764678597450256,-9.85844898223877
1.7275279880024799e+18,-0.003435503924265504,0.007677906658500433,-9.758879661560059
1.72752798800848e+18,-0.02835949696600437,0.09529011696577072,-9.819958686828613
1.7275279880144801e+18,0.03539694845676422,-0.036606404930353165,-9.821993827819824
1.7275279880174802e+18,-0.018070228397846222,0.013865073211491108,-9.78139591217041
1.7275279880234803e+18,-0.03805764764547348,0.06688826531171799,-9.789974212646484
1.7275279880294804e+18,0.07765643298625946,-0.02488737925887108,-9.823542594909668
1.7275279880354806e+18,0.00136079010553658,0.06047062575817108,-9.846116065979004
1.7275279880384806e+18,0.049894046038389206,0.05396680906414986,-9.877520561218262
1.7275279880444808e+18,0.0480852834880352,0.024504447355866432,-9.823708534240723
1.727527988050481e+18,-0.0026829917915165424,-0.02997794933617115,-9.844369888305664
1.727527988056481e+18,-0.05674434453248978,-0.07471843808889389,-9.816171646118164
1.727527988059481e+18,-0.006900157779455185,0.03759758546948433,-9.876983642578125
1.7275279880654812e+18,0.040462132543325424,-0.0009749903692863882,-9.792819023132324
1.7275279880714813e+18,0.019580312073230743,0.0571446418762207,-9.770354270935059
1.7275279880774815e+18,-0.028859157115221024,-0.03537631779909134,-9.746586799621582
1.7275279880804815e+18,0.07705114036798477,-0.02311580255627632,-9.794486045837402
1.7275279880864817e+18,-0.02243095263838768,0.05382202938199043,-9.84304141998291
1.7275279880924818e+18,-0.02842627465724945,0.03625358268618584,-9.833483695983887
1.7275279880954819e+18,0.029820051044225693,-0.03484613820910454,-9.829212188720703
1.727527988101482e+18,-0.034619659185409546,-0.07066772133111954,-9.86703872680664
1.727527988107482e+18,0.015871765092015266,-0.033923566341400146,-9.81863021850586
1.7275279881134822e+18,0.009860629215836525,0.015144456177949905,-9.828855514526367
1.7275279881164823e+18,0.14181005954742432,-0.022762740030884743,-9.868745803833008
1.7275279881224824e+18,0.010907801799476147,0.061430424451828,-9.813617706298828
1.7275279881284826e+18,-0.026913002133369446,-0.02636069804430008,-9.862703323364258
1.7275279881314826e+18,0.0436609610915184,0.007867940701544285,-9.81756591796875
1.7275279881374828e+18,0.041190121322870255,0.04864882305264473,-9.807426452636719
1.727527988143483e+18,-0.034962836652994156,-0.011465067975223064,-9.855753898620605
1.727527988149483e+18,-0.0838153138756752,0.05822945386171341,-9.859976768493652
1.7275279881554831e+18,-0.004339974373579025,0.014120083302259445,-9.756998062133789
1.7275279881614833e+18,0.02262476459145546,0.017089294269680977,-9.847825050354004
1.7275279881644833e+18,-0.010100197046995163,0.01772962510585785,-9.773224830627441
1.7275279881704835e+18,0.015870077535510063,0.039170075207948685,-9.830045700073242
1.7275279881764836e+18,0.09468129277229309,-0.03173306956887245,-9.86063003540039
1.7275279881794836e+18,-0.037310075014829636,-0.10858193784952164,-9.818724632263184
1.7275279881854838e+18,-0.046364255249500275,-0.013318218290805817,-9.794361114501953
1.727527988191484e+18,0.06411674618721008,0.04590064287185669,-9.830833435058594
1.727527988197484e+18,0.0008967240573838353,0.05882373824715614,-9.788846969604492
1.7275279882034842e+18,-0.002641941187903285,0.0024421806447207928,-9.850886344909668
1.7275279882094843e+18,0.06653254479169846,-0.10956307500600815,-9.78392219543457
1.7275279882124844e+18,0.008815372362732887,-0.06699366122484207,-9.743831634521484
1.7275279882184845e+18,-0.006447372026741505,-0.031497374176979065,-9.823966026306152
1.7275279882244846e+18,0.015294673852622509,-0.04046754166483879,-9.73904800415039
1.7275279882274847e+18,-0.007495081517845392,0.04482405632734299,-9.844096183776855
1.7275279882334848e+18,0.021410545334219933,0.025712981820106506,-9.905797958374023
1.727527988239485e+18,0.0439370833337307,0.046934280544519424,-9.774550437927246
1.727527988245485e+18,-0.010408352129161358,0.0734655112028122,-9.82558536529541
1.727527988248485e+18,-0.0828288272023201,-0.003566942410543561,-9.819633483886719
1.7275279882544852e+18,0.005358065478503704,-0.00936179980635643,-9.768134117126465
1.7275279882604854e+18,-0.025591131299734116,-0.03920310363173485,-9.893526077270508
1.7275279882664855e+18,-0.041277557611465454,0.012675627134740353,-9.802458763122559
1.7275279882724856e+18,0.060729898512363434,0.009332596324384212,-9.8942232131958
1.7275279882784858e+18,0.014296564273536205,-0.037074390798807144,-9.805388450622559
1.7275279882814858e+18,0.09230414777994156,-0.025085387751460075,-9.789773941040039
1.727527988287486e+18,-0.01367409061640501,0.02573912777006626,-9.912948608398438
1.727527988293486e+18,-0.07442256063222885,0.038892775774002075,-9.80527114868164
1.7275279882964861e+18,0.018584033474326134,-0.0385013222694397,-9.841521263122559
1.7275279883024863e+18,-0.08020045608282089,0.008869033306837082,-9.74036693572998
1.7275279883084864e+18,0.031808093190193176,-0.035605933517217636,-9.839789390563965
1.7275279883144865e+18,-0.03565885126590729,0.0029993236530572176,-9.836039543151855
1.7275279883204867e+18,-0.03988627716898918,-0.07305308431386948,-9.836630821228027
1.7275279883234867e+18,-0.02799862064421177,-0.01909615844488144,-9.730189323425293
1.7275279883294868e+18,-0.07037830352783203,-0.009983934462070465,-9.762542724609375
1.727527988335487e+18,-0.021095722913742065,-0.018936432898044586,-9.851819038391113
1.727527988341487e+18,-0.036061640828847885,-0.06799748539924622,-9.832857131958008
1.7275279883474872e+18,0.02669776789844036,0.0195237435400486,-9.79979133605957
1.7275279883534874e+18,0.04941374063491821,-0.041368741542100906,-9.786629676818848
1.7275279883594875e+18,0.07301360368728638,0.027814997360110283,-9.765213966369629
1.7275279883624876e+18,0.009929683059453964,-0.00384886865504086,-9.763932228088379
1.7275279883684877e+18,-0.03640953451395035,-0.0663270503282547,-9.815954208374023
1.7275279883744878e+18,0.06867247074842453,0.027161268517374992,-9.813360214233398
1.727527988377488e+18,-0.024620894342660904,-0.003400823101401329,-9.850509643554688
1.727527988383488e+18,-0.04949295520782471,0.014475122094154358,-9.796940803527832
1.727527988389488e+18,0.01544184796512127,0.014261029660701752,-9.794599533081055
1.7275279883954883e+18,-0.011521762236952782,-0.02831268310546875,-9.811835289001465
1.7275279884014884e+18,0.036680761724710464,0.019706346094608307,-9.783024787902832
1.7275279884044884e+18,0.028932293877005577,0.018018340691924095,-9.739541053771973
1.7275279884104886e+18,-0.012935467064380646,-0.007247508969157934,-9.766519546508789
1.7275279884164887e+18,-0.029170343652367592,-0.0026341285556554794,-9.813508987426758
1.7275279884194888e+18,-0.0030095523688942194,-0.030302271246910095,-9.838826179504395
1.727527988425489e+18,-0.005604632664471865,0.06753551214933395,-9.812162399291992
1.727527988431489e+18,0.04432053491473198,0.049375034868717194,-9.792466163635254
1.7275279884374892e+18,-0.0758000984787941,0.011017322540283203,-9.78902530670166
1.7275279884434893e+18,-0.05636177957057953,0.074545718729496,-9.741974830627441
1.7275279884494894e+18,0.01444708090275526,-0.00735608022660017,-9.740260124206543
1.7275279884524895e+18,-0.06333751976490021,0.007289594504982233,-9.848711967468262
1.7275279884584896e+18,-0.03738737106323242,0.002107631880789995,-9.76146411895752
1.7275279884644897e+18,-0.016333116218447685,-0.050649601966142654,-9.831829071044922
1.7275279884674898e+18,-0.05725132301449776,0.004133542999625206,-9.733198165893555
1.72752798847349e+18,0.03587907925248146,0.03853060305118561,-9.805669784545898
1.72752798847949e+18,-0.024043750017881393,0.04228127747774124,-9.786027908325195
1.7275279884854902e+18,0.04998921975493431,-0.016217635944485664,-9.826213836669922
1.7275279884914903e+18,-0.02310490421950817,-0.03658328205347061,-9.825477600097656
1.7275279884944904e+18,-0.03217899426817894,0.012799638323485851,-9.7253999710083
1.7275279885004905e+18,-0.008422327227890491,0.010283139534294605,-9.825689315795898
1.7275279885064906e+18,-0.01214971300214529,0.006851704325526953,-9.761634826660156
1.7275279885124908e+18,-0.022020086646080017,0.03088953159749508,-9.777587890625
1.7275279885154908e+18,-0.02785627171397209,0.06567095220088959,-9.841079711914062
1.727527988521491e+18,0.03645594045519829,-0.050808973610401154,-9.784798622131348
1.727527988527491e+18,-0.011999331414699554,-0.048654768615961075,-9.785713195800781
1.7275279885334912e+18,-0.03658367693424225,0.033680565655231476,-9.8314208984375
1.7275279885364913e+18,-0.005803736858069897,0.06269971281290054,-9.778371810913086
1.7275279885424914e+18,-0.030830420553684235,0.017372339963912964,-9.791431427001953
1.7275279885484915e+18,-0.012983343563973904,-0.03579587861895561,-9.8543062210083
1.7275279885544916e+18,0.05139777809381485,-0.021986570209264755,-9.818008422851562
1.7275279885574917e+18,0.0036787025164812803,-0.04562066122889519,-9.702744483947754
1.7275279885634918e+18,-0.07296311110258102,0.003965388983488083,-9.795698165893555
1.727527988569492e+18,0.033977407962083817,0.001167445327155292,-9.844411849975586
1.727527988575492e+18,0.005353292915970087,0.03406117483973503,-9.849390983581543
1.7275279885814922e+18,0.007860333658754826,0.001366462092846632,-9.805089950561523
1.7275279885874924e+18,-0.028268402442336082,-0.0431913286447525,-9.765178680419922
1.7275279885904924e+18,0.01647498458623886,0.05198635533452034,-9.813592910766602
1.7275279885964925e+18,-0.008357509039342403,0.07373205572366714,-9.825539588928223
1.7275279886024927e+18,-0.03774604946374893,0.039966218173503876,-9.847434043884277
1.7275279886054927e+18,-0.034235402941703796,0.01148090697824955,-9.752174377441406
1.7275279886114929e+18,-0.0029180909041315317,-0.06256531178951263,-9.73829174041748
1.727527988617493e+18,-0.01960534043610096,-0.07707435637712479,-9.843483924865723
1.727527988620493e+18,-0.02076205611228943,-0.015223035588860512,-9.801270484924316
1.7275279886264932e+18,-0.0346699133515358,-0.02358323149383068,-9.775117874145508
1.7275279886324933e+18,0.06045559421181679,0.0027910114731639624,-9.824124336242676
1.7275279886384934e+18,0.041306011378765106,0.004733444657176733,-9.786517143249512
1.7275279886444936e+18,0.02189262956380844,0.011651483364403248,-9.839252471923828
1.7275279886474936e+18,0.005936819594353437,0.022159522399306297,-9.791421890258789
1.7275279886534938e+18,-0.02696187049150467,-0.04068022593855858,-9.826606750488281
1.727527988659494e+18,-0.04966019466519356,-0.0528680719435215,-9.845446586608887
1.727527988665494e+18,-0.04261178895831108,0.01476240810006857,-9.799744606018066
1.727527988668494e+18,0.0333251878619194,0.005301282741129398,-9.742172241210938
1.7275279886744942e+18,-0.07581327855587006,0.015559625811874866,-9.82015609741211
1.7275279886804943e+18,-0.032552268356084824,0.03815404698252678,-9.79277515411377
1.7275279886864945e+18,-6.795489025535062e-05,-0.02151104249060154,-9.867393493652344
1.7275279886924946e+18,0.05139780044555664,-0.017571788281202316,-9.785659790039062
1.7275279886954947e+18,0.01951288990676403,-0.0274621844291687,-9.778605461120605
1.7275279887014948e+18,-0.01050344668328762,-0.05260086432099342,-9.802680969238281
1.727527988707495e+18,0.04318489134311676,0.031054258346557617,-9.733744621276855
1.727527988713495e+18,0.07439054548740387,-0.06556075066328049,-9.871393203735352
1.7275279887194952e+18,-0.0019206363940611482,0.04307197034358978,-9.753355026245117
1.7275279887224952e+18,0.006795844994485378,-0.03683624416589737,-9.89373779296875
1.7275279887284954e+18,-0.003077784553170204,0.03553023189306259,-9.826025009155273
1.7275279887344955e+18,-0.01778518036007881,0.0007727257325313985,-9.818888664245605
1.7275279887374956e+18,-0.025040609762072563,-0.0585327111184597,-9.795862197875977
1.7275279887434957e+18,-0.0004330294905230403,-0.055955495685338974,-9.785689353942871
1.7275279887494958e+18,-0.046722933650016785,-0.03656329959630966,-9.782416343688965
1.727527988755496e+18,0.038107551634311676,0.03217282518744469,-9.89638900756836
1.727527988758496e+18,-0.023560065776109695,0.003551790025085211,-9.836427688598633
1.7275279887644961e+18,0.035662416368722916,-0.09969750791788101,-9.76437759399414
1.7275279887704963e+18,-0.08990786224603653,0.050903692841529846,-9.839390754699707
1.7275279887734963e+18,-0.04354271665215492,-0.006315924692898989,-9.793697357177734
1.7275279887794964e+18,0.012070157565176487,-0.030309680849313736,-9.790361404418945
1.7275279887854966e+18,-0.0617162361741066,0.0646863505244255,-9.832649230957031
1.7275279887914967e+18,-0.0031233984045684338,-0.042697060853242874,-9.817217826843262
1.7275279887974968e+18,-0.017516804859042168,0.03120344504714012,-9.77808666229248
1.727527988800497e+18,-0.0005490116309374571,0.04728231206536293,-9.877073287963867
1.727527988806497e+18,-0.015242904424667358,0.03474432975053787,-9.733038902282715
1.7275279888124972e+18,0.024789324030280113,0.03161727264523506,-9.79887866973877
1.7275279888154972e+18,0.006468252744525671,-0.029048142954707146,-9.825260162353516
1.7275279888214973e+18,0.04326755180954933,0.023793375119566917,-9.832590103149414
1.7275279888274975e+18,0.09620829671621323,-0.03818413242697716,-9.792603492736816
1.7275279888334976e+18,-0.0419999323785305,0.04670898616313934,-9.837861061096191
1.7275279888364977e+18,0.006277963053435087,-0.039875809103250504,-9.785351753234863
1.7275279888424978e+18,-0.0460190586745739,-0.012326511554419994,-9.696256637573242
1.727527988848498e+18,0.06759487837553024,0.02170766144990921,-9.8101224899292
1.727527988854498e+18,0.039180900901556015,-0.030132466927170753,-9.811991691589355
1.727527988857498e+18,0.023389507085084915,0.016362329944968224,-9.82690715789795
1.7275279888634982e+18,-0.06962843984365463,0.008056196384131908,-9.737055778503418
1.7275279888694984e+18,0.05334262549877167,-0.021047143265604973,-9.816715240478516
1.7275279888754985e+18,-0.005255301017314196,0.009465532377362251,-9.816615104675293
1.7275279888814986e+18,-0.019142678007483482,-0.0010624104179441929,-9.83503246307373
1.7275279888844987e+18,-0.0477408841252327,0.032955508679151535,-9.792279243469238
1.7275279888904988e+18,0.02562074363231659,0.0643823891878128,-9.842815399169922
1.727527988896499e+18,-0.03249450773000717,0.01236877590417862,-9.77933406829834
1.727527988899499e+18,0.010454376228153706,0.013558552600443363,-9.777360916137695
1.7275279889054991e+18,-0.09707792103290558,-0.004605760797858238,-9.833130836486816
1.7275279889114993e+18,-0.06872468441724777,-0.07304065674543381,-9.772286415100098
1.7275279889174994e+18,0.04327908158302307,0.07367585599422455,-9.7710599899292
1.7275279889234995e+18,0.042561277747154236,-0.0075855553150177,-9.833696365356445
1.7275279889264996e+18,-0.12414111196994781,-0.0009100490715354681,-9.738901138305664
1.7275279889324997e+18,0.018109459429979324,-0.0163497906178236,-9.825369834899902
1.7275279889384998e+18,-0.04173342138528824,0.03798659145832062,-9.786970138549805
1.7275279889445e+18,0.03034920245409012,0.0037020305171608925,-9.765015602111816
1.7275279889505e+18,-0.025001991540193558,0.012713521718978882,-9.797656059265137
1.7275279889565002e+18,-0.017293084412813187,0.020237574353814125,-9.827960014343262
1.7275279889595003e+18,-0.0051614996045827866,0.0161257553845644,-9.910774230957031
1.7275279889655004e+18,0.012006520293653011,0.07587532699108124,-9.745861053466797
1.7275279889715005e+18,-0.03363998606801033,-0.031914032995700836,-9.822562217712402
1.7275279889745006e+18,0.04600077122449875,0.008945388719439507,-9.775368690490723
1.7275279889805007e+18,0.08257540315389633,-0.02197321690618992,-9.795729637145996
1.7275279889865009e+18,0.0294208824634552,-0.000985477352514863,-9.796815872192383
1.727527988992501e+18,0.055856477469205856,-0.04909272864460945,-9.860701560974121
1.727527988998501e+18,0.053676538169384,-0.00022863737831357867,-9.774436950683594
1.7275279890015012e+18,0.004214947111904621,0.05436002463102341,-9.796759605407715
1.7275279890075013e+18,0.0028374616522341967,-0.017900342121720314,-9.80164909362793
1.7275279890105014e+18,0.02954135835170746,0.001347208279184997,-9.765969276428223
1.7275279890165015e+18,0.013698628172278404,-0.009548467583954334,-9.731975555419922
1.7275279890225016e+18,0.016513265669345856,-0.0019132400630041957,-9.902790069580078
1.7275279890285018e+18,-0.004423889797180891,0.05552937462925911,-9.791156768798828
1.727527989034502e+18,0.019652554765343666,-0.03544533625245094,-9.818771362304688
1.727527989037502e+18,-0.015613285824656487,-0.02476964332163334,-9.819676399230957
1.727527989043502e+18,-0.014319481328129768,0.09701714664697647,-9.73115062713623
1.7275279890495022e+18,-0.046101201325654984,-0.019616225734353065,-9.821226119995117
1.7275279890555023e+18,0.016821090131998062,-0.021028827875852585,-9.820171356201172
1.7275279890585024e+18,0.020119570195674896,-0.016580985859036446,-9.739664077758789
1.7275279890645025e+18,-0.015328074805438519,0.012003481388092041,-9.739405632019043
1.7275279890705027e+18,0.00797691848129034,-0.07094990462064743,-9.80422592163086
1.7275279890765028e+18,0.044676605612039566,0.0029624556191265583,-9.79969596862793
1.727527989082503e+18,0.043142568320035934,-0.051002997905015945,-9.797005653381348
1.727527989085503e+18,-0.008962533436715603,0.04933447390794754,-9.822713851928711
1.727527989091503e+18,-0.0626051276922226,0.010147475637495518,-9.79368782043457
1.7275279890975032e+18,0.046108465641736984,0.007435645442456007,-9.82287883758545
1.7275279891035034e+18,0.02335680089890957,0.028181025758385658,-9.716846466064453
1.7275279891065034e+18,0.023733392357826233,0.010266512632369995,-9.851698875427246
1.7275279891125036e+18,-0.06492500752210617,-0.04962267354130745,-9.734359741210938
1.7275279891185037e+18,0.002410583896562457,0.017201196402311325,-9.772154808044434
1.7275279891245038e+18,0.013573412783443928,0.05680517479777336,-9.770500183105469
1.727527989127504e+18,-0.01820838637650013,0.027307771146297455,-9.771198272705078
1.727527989133504e+18,0.03825070708990097,0.009651961736381054,-9.857428550720215
1.727527989139504e+18,-0.024904068559408188,-0.026930613443255424,-9.743462562561035
1.7275279891455043e+18,0.02232734113931656,0.04934180527925491,-9.756303787231445
1.7275279891485043e+18,0.0006158723263069987,0.03730708733201027,-9.779550552368164
1.7275279891545044e+18,0.007484532427042723,0.09524119645357132,-9.81297492980957
1.7275279891605046e+18,-0.0009428523480892181,0.03079550340771675,-9.836187362670898
1.7275279891665047e+18,-0.003764677792787552,-0.008240104652941227,-9.781941413879395
1.7275279891725048e+18,-0.02942168153822422,0.014963040128350258,-9.834932327270508
1.727527989175505e+18,0.03666897863149643,-0.014376552775502205,-9.758360862731934
1.727527989181505e+18,-0.022406956180930138,-0.004945657681673765,-9.751642227172852
1.7275279891875052e+18,0.04238971695303917,0.045728523284196854,-9.850632667541504
1.7275279891935053e+18,-0.042564596980810165,0.050137121230363846,-9.847213745117188
1.7275279891965053e+18,-0.013458139263093472,-0.04588450863957405,-9.785560607910156
1.7275279892025055e+18,-0.008953632786870003,0.03907434642314911,-9.87421989440918
1.7275279892085056e+18,-0.04778106138110161,-0.015454468317329884,-9.824418067932129
1.7275279892145057e+18,0.020884355530142784,0.0363815575838089,-9.801040649414062
1.7275279892175058e+18,-0.010592933744192123,0.010963761247694492,-9.81997299194336
1.727527989223506e+18,0.08776705712080002,0.03325589373707771,-9.726713180541992
1.727527989229506e+18,0.006026383955031633,-0.023940136656165123,-9.880008697509766
1.7275279892355062e+18,-0.03271251916885376,-0.0254848413169384,-9.843497276306152
1.7275279892385062e+18,0.008207503706216812,0.02121805213391781,-9.699400901794434
1.7275279892445064e+18,-0.05940818041563034,-0.005521105602383614,-9.734642028808594
1.7275279892505065e+18,0.008890067227184772,0.012656300328671932,-9.886045455932617
1.7275279892565066e+18,-0.03317610174417496,0.00470808707177639,-9.855554580688477
1.7275279892595067e+18,0.038270220160484314,0.05404072627425194,-9.82600212097168
1.7275279892655068e+18,0.009262804873287678,0.04589347541332245,-9.79900074005127
1.727527989271507e+18,-0.04154188185930252,-0.0003782657440751791,-9.825727462768555
1.727527989274507e+18,0.0030391132459044456,0.0312984474003315,-9.855131149291992
1.7275279892805071e+18,0.039522066712379456,-0.035332243889570236,-9.82643985748291
1.7275279892865073e+18,0.0006162907229736447,0.02024342305958271,-9.820876121520996
1.7275279892925074e+18,0.0159089807420969,-0.0043084993958473206,-9.785017967224121
1.7275279892985075e+18,-0.03229229152202606,0.014213135465979576,-9.822930335998535
1.7275279893015076e+18,0.02393929846584797,-0.0459575392305851,-9.80731201171875
1.7275279893075077e+18,-0.002206214237958193,-0.014183870516717434,-9.766440391540527
1.7275279893135078e+18,0.027697550132870674,-0.03805702552199364,-9.746336936950684
1.727527989319508e+18,0.026875805109739304,0.03252801299095154,-9.792445182800293
1.727527989322508e+18,-0.04027939960360527,-0.01784754917025566,-9.82756233215332
1.7275279893285082e+18,-0.012372900731861591,0.002216402208432555,-9.85708236694336
1.7275279893345083e+18,0.0027442157734185457,0.13437367975711823,-9.736089706420898
1.7275279893375084e+18,0.023202408105134964,0.02599603682756424,-9.820450782775879
1.7275279893435085e+18,0.045970041304826736,-0.08141680061817169,-9.792556762695312
1.7275279893495086e+18,0.0012262678937986493,-0.009336418472230434,-9.817720413208008
1.7275279893525087e+18,-0.008206469006836414,0.011020566336810589,-9.77935791015625
1.7275279893585088e+18,0.04680188372731209,-0.058710213750600815,-9.670347213745117
1.727527989364509e+18,0.07522627711296082,0.10527514666318893,-9.830594062805176
1.727527989370509e+18,-0.010517544113099575,-0.07331744581460953,-9.805259704589844
1.727527989373509e+18,0.01751195825636387,-0.005284866318106651,-9.818380355834961
1.7275279893795092e+18,-0.009752663783729076,0.016123192384839058,-9.73670768737793
1.7275279893855094e+18,0.04677139222621918,-0.022410370409488678,-9.789189338684082
1.7275279893915095e+18,-0.02775486931204796,0.014963038265705109,-9.835693359375
1.7275279893945096e+18,0.035829607397317886,0.005701126530766487,-9.778067588806152
1.7275279894005097e+18,-0.02750520408153534,-0.028119128197431564,-9.721728324890137
1.7275279894065098e+18,0.028795331716537476,-0.024522798135876656,-9.850380897521973
1.72752798941251e+18,-0.025459609925746918,0.01840386912226677,-9.823994636535645
1.72752798941851e+18,-0.03952758014202118,0.08060109615325928,-9.786178588867188
1.7275279894245102e+18,0.09865590184926987,0.0050933039747178555,-9.869611740112305
1.7275279894275103e+18,-0.05727458372712135,-0.03861090913414955,-9.828499794006348
1.7275279894335104e+18,-0.016860157251358032,-0.0669812262058258,-9.783483505249023
1.7275279894395105e+18,0.03858755901455879,0.007322659716010094,-9.863140106201172
1.7275279894455107e+18,0.007453687954694033,-0.05289145186543465,-9.821925163269043
1.7275279894485107e+18,-0.015551891177892685,-0.020582187920808792,-9.748441696166992
1.7275279894545108e+18,0.06318190693855286,0.03337269276380539,-9.759988784790039
1.727527989457511e+18,-0.01754334755241871,-0.03986462950706482,-9.80661392211914
1.727527989463511e+18,-0.0004946165136061609,0.06379741430282593,-9.849852561950684
1.7275279894695112e+18,0.11334306746721268,0.014224983751773834,-9.813076972961426
1.7275279894755113e+18,0.025383958593010902,-0.01673027127981186,-9.806550025939941
1.7275279894815114e+18,-0.030757121741771698,-0.01878880150616169,-9.817278861999512
1.7275279894845115e+18,0.04672651365399361,0.051905885338783264,-9.730003356933594
1.7275279894905116e+18,-0.08438257873058319,-0.019431551918387413,-9.763117790222168
1.7275279894965117e+18,-0.0018067533383145928,0.011723114177584648,-9.819674491882324
1.7275279895025119e+18,0.010597010143101215,0.03669684752821922,-9.789921760559082
1.727527989505512e+18,0.04636037349700928,-0.0367412343621254,-9.838982582092285
1.727527989511512e+18,0.02828948013484478,-0.06131402775645256,-9.811942100524902
1.7275279895175122e+18,0.03991859406232834,0.015515031293034554,-9.842613220214844
1.7275279895205123e+18,-0.06308730691671371,0.005677876994013786,-9.78468132019043
1.7275279895265124e+18,0.055384568870067596,0.0161327812820673,-9.828798294067383
1.7275279895325125e+18,0.02517084963619709,0.08344293385744095,-9.858864784240723
1.7275279895355126e+18,0.018349478021264076,0.08155018091201782,-9.870264053344727
1.7275279895415127e+18,-0.05612080544233322,-0.05772692710161209,-9.851537704467773
1.7275279895475128e+18,-0.019087042659521103,0.04390891641378403,-9.888160705566406
1.727527989553513e+18,0.05188276991248131,-0.016284242272377014,-9.902570724487305
1.727527989556513e+18,0.01586158014833927,0.005542395636439323,-9.861915588378906
1.7275279895625132e+18,0.015519015491008759,0.0006063670152798295,-9.953886985778809
1.7275279895685133e+18,-0.0019631783943623304,-0.06673268973827362,-9.94408893585205
1.7275279895745134e+18,-0.052844174206256866,-0.0084715960547328,-10.000410079956055
1.7275279895775135e+18,0.04597585275769234,0.08853251487016678,-9.919842720031738
1.7275279895835136e+18,-0.015078619122505188,0.04341403394937515,-9.913467407226562
1.7275279895895137e+18,0.007965603843331337,0.07355529069900513,-9.921489715576172
1.7275279895955139e+18,0.027590695768594742,-0.04529571533203125,-10.02428913116455
1.727527989601514e+18,-0.04249829798936844,0.0344327837228775,-10.023740768432617
1.727527989607514e+18,0.019559767097234726,0.005099177826195955,-10.01445198059082
1.7275279896105142e+18,0.05451745539903641,-0.10595717281103134,-10.033926010131836
1.7275279896165143e+18,-0.03934534266591072,-0.019756611436605453,-10.055023193359375
1.7275279896225144e+18,0.019439246505498886,-0.049929991364479065,-10.116583824157715
1.7275279896285146e+18,0.01969357766211033,-0.014632996171712875,-10.067221641540527
1.7275279896315146e+18,-0.026895912364125252,-0.015001882798969746,-10.118145942687988
1.7275279896375148e+18,0.007496953010559082,0.03948013484477997,-10.008584022521973
1.727527989643515e+18,0.01190287247300148,-0.009705901145935059,-10.079645156860352
1.727527989649515e+18,0.016095807775855064,0.0037517871242016554,-10.106466293334961
1.7275279896555151e+18,0.038391150534152985,0.016489870846271515,-10.071030616760254
1.7275279896585152e+18,0.013047993183135986,0.019278455525636673,-10.07568359375
1.7275279896645153e+18,-0.09105347841978073,-0.06829489767551422,-10.140217781066895
1.7275279896705155e+18,0.053218770772218704,0.014271763153374195,-10.107773780822754
1.7275279896765156e+18,0.061856601387262344,0.07435182482004166,-10.13723087310791
1.7275279896795156e+18,-0.020832551643252373,-0.07750144600868225,-10.08858585357666
1.7275279896855158e+18,0.003221284132450819,0.07498609274625778,-10.200751304626465
1.727527989691516e+18,-0.002753080567345023,0.006306741386651993,-10.240407943725586
1.727527989697516e+18,0.007742586079984903,-0.05933143571019173,-10.110827445983887
1.7275279897035162e+18,-0.01752464659512043,-0.009532509371638298,-10.172808647155762
1.7275279897065162e+18,-0.038329679518938065,-0.015373129397630692,-10.220747947692871
1.7275279897125164e+18,0.07200681418180466,0.04280010238289833,-10.312797546386719
1.7275279897185165e+18,-0.06084712967276573,0.013025867752730846,-10.451468467712402
1.7275279897245166e+18,0.045451704412698746,0.06446924805641174,-10.542647361755371
1.7275279897305167e+18,0.029231002554297447,-0.021377580240368843,-10.55880069732666
1.7275279897365169e+18,-0.008858952671289444,0.03812465816736221,-10.490738868713379
1.727527989739517e+18,-0.06536129117012024,-0.0076081231236457825,-10.516420364379883
1.727527989745517e+18,0.08350348472595215,0.02768157608807087,-10.532649040222168
1.7275279897515172e+18,-0.02576986700296402,-0.043956123292446136,-10.563061714172363
1.7275279897575173e+18,-0.0053339749574661255,0.003261068370193243,-10.65132999420166
1.7275279897635174e+18,0.03178447112441063,0.04240597411990166,-10.563444137573242
1.7275279897665175e+18,0.050976965576410294,0.013141008093953133,-10.584624290466309
1.7275279897725176e+18,0.027048243209719658,0.02184404619038105,-10.570046424865723
1.7275279897785178e+18,0.043486714363098145,-0.0012761378893628716,-10.582451820373535
1.727527989784518e+18,0.05471956729888916,-0.010611639358103275,-10.651189804077148
1.727527989787518e+18,0.041059840470552444,0.011662894859910011,-10.476080894470215
1.727527989793518e+18,-0.04290589690208435,0.027837958186864853,-10.558794021606445
1.7275279897995182e+18,0.020923515781760216,-0.04698598384857178,-10.571730613708496
1.7275279898055183e+18,-0.0610935352742672,0.007870267145335674,-10.6621732711792
1.7275279898115185e+18,0.014764067716896534,0.03227560967206955,-10.562348365783691
1.7275279898145185e+18,0.049493201076984406,-0.06186839938163757,-10.5316801071167
1.7275279898205187e+18,0.04371465742588043,-0.01903936080634594,-10.518964767456055
1.7275279898265188e+18,-0.001975599443539977,-0.030392952263355255,-10.527384757995605
1.727527989832519e+18,0.021125320345163345,-0.018327297642827034,-10.608963966369629
1.727527989838519e+18,-0.07808487862348557,0.00769861089065671,-10.622225761413574
1.727527989841519e+18,-0.06939378380775452,0.0696077048778534,-10.483489990234375
1.7275279898475192e+18,0.06905025243759155,0.06985706835985184,-10.618053436279297
1.7275279898535194e+18,-0.04824189096689224,-0.06120796129107475,-10.624068260192871
1.7275279898595195e+18,0.06160196289420128,0.04912065714597702,-10.519245147705078
1.7275279898655196e+18,-0.007851052097976208,-0.05485551059246063,-10.631007194519043
1.7275279898715197e+18,-0.04008812457323074,-0.005536217242479324,-10.63277530670166
1.7275279898745198e+18,0.08216213434934616,-0.01009321678429842,-10.56636905670166
1.72752798988052e+18,0.04269254207611084,-0.0019711083732545376,-10.639137268066406
1.72752798988652e+18,-0.08396059274673462,0.02453397773206234,-10.63575553894043
1.7275279898925202e+18,0.016274288296699524,-0.03638351708650589,-10.66855239868164
1.7275279898955203e+18,0.06909138709306717,-0.051868047565221786,-10.589268684387207
1.7275279899015204e+18,-0.01705000549554825,-0.004129532724618912,-10.604018211364746
1.7275279899075205e+18,-0.08531668782234192,0.050786323845386505,-10.586736679077148
1.7275279899135206e+18,0.05831931158900261,0.012283405289053917,-10.585275650024414
1.7275279899195208e+18,0.057776857167482376,-0.01840933971107006,-10.643383979797363
1.7275279899225208e+18,-0.04508937895298004,0.016616109758615494,-10.632055282592773
1.727527989928521e+18,0.09342683851718903,0.03400306776165962,-10.63290023803711
1.727527989934521e+18,-0.007488808128982782,-0.0076401615515351295,-10.539839744567871
1.7275279899405212e+18,-0.049925707280635834,-0.0024002199061214924,-10.596232414245605
1.7275279899435213e+18,-0.0878809317946434,0.016783755272626877,-10.560995101928711
1.7275279899495214e+18,-0.027974409982562065,-0.027697520330548286,-10.638758659362793
1.7275279899555215e+18,-0.0024728658609092236,0.03997590392827988,-10.591803550720215
1.7275279899615217e+18,0.010081912390887737,-0.04553593322634697,-10.585798263549805
1.7275279899645217e+18,-0.03881421312689781,-0.046208545565605164,-10.578364372253418
1.7275279899705219e+18,0.05895004794001579,-0.047579262405633926,-10.57049560546875
1.727527989976522e+18,-0.012888029217720032,0.017417922616004944,-10.591996192932129
1.727527989982522e+18,-0.08806770294904709,0.01654106378555298,-10.565950393676758
1.7275279899885222e+18,0.011175238527357578,-0.04384583607316017,-10.570995330810547
1.7275279899945224e+18,0.033462900668382645,0.013938802294433117,-10.466364860534668
1.7275279899975224e+18,-0.07040758430957794,0.009643481113016605,-10.538660049438477
1.7275279900035226e+18,0.0047612376511096954,0.008203855715692043,-10.621776580810547
1.7275279900095227e+18,0.04622549191117287,0.024380503222346306,-10.526166915893555
1.7275279900155228e+18,0.08876240253448486,-0.020924724638462067,-10.65481185913086
1.727527990018523e+18,-0.0625685378909111,0.0114976204931736,-10.577280044555664
1.727527990024523e+18,-0.012641793116927147,0.045936450362205505,-10.492382049560547
1.7275279900305231e+18,0.07305993139743805,0.002497548470273614,-10.592901229858398
1.7275279900365233e+18,0.08564897626638412,-0.11013146489858627,-10.662492752075195
1.7275279900425234e+18,0.018332362174987793,-0.021902138367295265,-10.582619667053223
1.7275279900455235e+18,0.09350690990686417,0.025787465274333954,-10.660130500793457
1.7275279900515236e+18,-0.010912911035120487,0.009488672018051147,-10.624603271484375
1.7275279900575237e+18,0.03199661895632744,0.05833428353071213,-10.597098350524902
1.7275279900635238e+18,-0.009728563018143177,0.035096220672130585,-10.680012702941895
1.727527990069524e+18,-0.10457859188318253,-0.02718411386013031,-10.557904243469238
1.727527990075524e+18,0.013961507938802242,-0.045971401035785675,-10.644463539123535
1.7275279900785242e+18,-0.011723480187356472,-0.007496973499655724,-10.643065452575684
1.7275279900845243e+18,-0.05753163620829582,-0.05169723555445671,-10.6343994140625
1.7275279900905244e+18,0.008167197927832603,-0.03468955308198929,-10.703957557678223
1.7275279900965245e+18,-0.04762422665953636,-0.04619135335087776,-10.57022476196289
1.7275279901025247e+18,-0.0014224660117179155,-0.03475575894117355,-10.606313705444336
1.7275279901085248e+18,0.03076869808137417,-0.08289895951747894,-10.58146858215332
1.727527990114525e+18,-0.04429792985320091,0.002267254516482353,-10.624631881713867
1.727527990120525e+18,0.000969001033809036,-0.029981600120663643,-10.672593116760254
1.7275279901265252e+18,0.04720210283994675,0.06449718028306961,-10.697590827941895
1.7275279901325253e+18,-0.000611618219409138,0.017756298184394836,-10.62594223022461
1.7275279901385254e+18,0.01213481742888689,0.04262183979153633,-10.647073745727539
1.7275279901445256e+18,0.0197974294424057,-0.015195466578006744,-10.544815063476562
1.7275279901505257e+18,0.014983932487666607,0.023681651800870895,-10.559205055236816
1.7275279901565258e+18,0.117970310151577,0.024580644443631172,-10.717789649963379
1.727527990162526e+18,0.07736522704362869,0.005441443528980017,-10.661187171936035
1.727527990168526e+18,0.039451442658901215,-0.04577907547354698,-10.52550983428955
1.7275279901745262e+18,0.10491212457418442,0.011618657037615776,-10.608602523803711
1.7275279901835264e+18,-0.025525502860546112,0.018034396693110466,-10.581788063049316
1.7275279901895265e+18,0.05565957725048065,-0.039738141000270844,-10.618897438049316
1.7275279901955267e+18,0.025827044621109962,-0.02367025800049305,-10.630373001098633
1.7275279902015268e+18,0.030683552846312523,-0.027222951874136925,-10.592451095581055
1.727527990207527e+18,0.0049438150599598885,-0.003462186548858881,-10.635557174682617
1.727527990213527e+18,-0.0819425955414772,0.01436044555157423,-10.641993522644043
1.7275279902195272e+18,-0.008936592377722263,0.07515724003314972,-10.612897872924805
1.7275279902255273e+18,0.06694032996892929,0.02535223960876465,-10.540665626525879
1.7275279902315274e+18,0.01361889485269785,-0.04957561939954758,-10.578428268432617
1.7275279902375276e+18,-0.03518879413604736,-0.08522538840770721,-10.552343368530273
1.7275279902435277e+18,0.015131358057260513,0.05472465977072716,-10.593595504760742
1.7275279902465277e+18,-0.0020515236537903547,0.01160088274627924,-10.606339454650879
1.727527990255528e+18,0.009399602189660072,-0.0022367252968251705,-10.653557777404785
1.727527990258528e+18,0.006022410932928324,0.028173519298434258,-10.57649040222168
1.7275279902645281e+18,-0.03165793418884277,-0.03931468725204468,-10.624216079711914
1.7275279902705283e+18,-0.01250513643026352,0.06674294173717499,-10.618852615356445
1.7275279902765284e+18,0.0033242960926145315,-0.007834886200726032,-10.530881881713867
1.7275279902825285e+18,0.06141325458884239,0.08138390630483627,-10.676640510559082
1.7275279902885286e+18,-0.004181405529379845,0.034172359853982925,-10.592048645019531
1.7275279902915287e+18,0.022171825170516968,-0.07866179943084717,-10.714125633239746
1.7275279902975288e+18,-0.024105217307806015,0.064414381980896,-10.474814414978027
1.727527990303529e+18,0.08461001515388489,0.015094791539013386,-10.649977684020996
1.727527990309529e+18,0.006107589229941368,-0.0028648467268794775,-10.565892219543457
1.7275279903155292e+18,-0.0386936254799366,0.012897619977593422,-10.609155654907227
1.7275279903215293e+18,-0.011056418530642986,0.0450211800634861,-10.57865047454834
1.7275279903245294e+18,0.016321036964654922,-0.03165638819336891,-10.515507698059082
1.7275279903305295e+18,-0.049725331366062164,-0.013871238566935062,-10.595168113708496
1.7275279903365297e+18,-0.014375845901668072,-0.040277961641550064,-10.560462951660156
1.7275279903395297e+18,-0.028476223349571228,0.04699457064270973,-10.678719520568848
1.7275279903455299e+18,-0.038163747638463974,-0.06549929827451706,-10.613175392150879
1.72752799035153e+18,-0.06652098894119263,0.05204363912343979,-10.586575508117676
1.72752799035753e+18,0.05021629482507706,0.022479087114334106,-10.638293266296387
1.7275279903605302e+18,0.001772585092112422,-0.01628745347261429,-10.543888092041016
1.7275279903665303e+18,0.056253138929605484,-0.05775560066103935,-10.637697219848633
1.7275279903725304e+18,0.010709473863244057,-0.04253062978386879,-10.664670944213867
1.7275279903785306e+18,-0.002258484484627843,-0.09172031283378601,-10.645943641662598
1.7275279903845307e+18,0.013424843549728394,0.06378543376922607,-10.590648651123047
1.7275279903905308e+18,0.03575979173183441,-0.10654663294553757,-10.518350601196289
1.727527990396531e+18,-0.0001697987609077245,0.026413699612021446,-10.631842613220215
1.727527990402531e+18,-0.052504390478134155,0.013581573963165283,-10.720556259155273
1.7275279904055311e+18,-0.007015557959675789,-0.02382398210465908,-10.542388916015625
1.7275279904115313e+18,-0.061117254197597504,-0.04041029512882233,-10.587979316711426
1.7275279904175314e+18,0.014695366844534874,0.029757652431726456,-10.631275177001953
1.7275279904235315e+18,-0.010821335017681122,-0.06281541287899017,-10.638859748840332
1.7275279904295316e+18,0.01665431633591652,-0.018027430400252342,-10.690882682800293
1.7275279904325317e+18,-0.003606820944696665,-0.03916996344923973,-10.609352111816406
1.7275279904385318e+18,-0.04645683616399765,0.05335421487689018,-10.58526611328125
1.727527990444532e+18,-0.02925233170390129,-0.016935031861066818,-10.497817993164062
1.727527990450532e+18,0.029909610748291016,0.05091707408428192,-10.563279151916504
1.7275279904535322e+18,-0.012771306559443474,0.018523989245295525,-10.609807968139648
1.7275279904595323e+18,-0.05214187502861023,0.01607404462993145,-10.59870719909668
1.7275279904655324e+18,0.00027745772968046367,0.009657534770667553,-10.627765655517578
1.7275279904685325e+18,-0.034741077572107315,-0.029989810660481453,-10.632278442382812
1.7275279904745326e+18,0.016027020290493965,-0.038101211190223694,-10.660229682922363
1.7275279904805327e+18,0.004611600190401077,0.048396848142147064,-10.611845970153809
1.7275279904865329e+18,0.02016735076904297,-0.08032699674367905,-10.5952730178833
1.727527990492533e+18,0.011334464885294437,0.021247152239084244,-10.61003303527832
1.727527990495533e+18,0.01761922985315323,-0.015482300892472267,-10.596338272094727
1.7275279905015332e+18,-0.010616563260555267,0.009013424627482891,-10.589509963989258
1.7275279905075333e+18,-0.05587242916226387,0.004218469839543104,-10.546426773071289
1.7275279905135334e+18,-0.007876181043684483,0.009514447301626205,-10.580803871154785
1.7275279905165335e+18,-0.021036898717284203,-0.05408824235200882,-10.558816909790039
1.7275279905225336e+18,-0.021640345454216003,-0.0704139918088913,-10.520919799804688
1.7275279905285338e+18,0.06201610341668129,-0.06087254732847214,-10.621419906616211
1.727527990534534e+18,-0.06120136380195618,0.03593534231185913,-10.619953155517578
1.727527990540534e+18,-0.029547549784183502,-0.007047794759273529,-10.56244945526123
1.727527990543534e+18,0.06484481692314148,-0.001176883582957089,-10.585740089416504
1.7275279905495342e+18,0.02512185275554657,-0.015648294240236282,-10.576786994934082
1.7275279905555343e+18,0.02915574237704277,-0.01969841495156288,-10.601822853088379
1.7275279905615345e+18,0.0486595518887043,-0.03202396258711815,-10.555742263793945
1.7275279905645345e+18,0.0403563529253006,-0.01699691079556942,-10.501084327697754
1.7275279905705347e+18,0.021647971123456955,-0.021248282864689827,-10.576078414916992
1.7275279905765348e+18,-0.03304218128323555,-0.0024511837400496006,-10.579305648803711
1.727527990582535e+18,0.08934520930051804,-0.0525704063475132,-10.584715843200684
1.727527990585535e+18,-0.014127423986792564,-0.01965148374438286,-10.639071464538574
1.727527990591535e+18,0.03650566190481186,0.008204909972846508,-10.645426750183105
1.7275279905975352e+18,0.02018650807440281,-0.026379834860563278,-10.584759712219238
1.7275279906035354e+18,0.0767388790845871,-0.026919599622488022,-10.643682479858398
1.7275279906065354e+18,0.03045562654733658,0.07533092796802521,-10.523205757141113
1.7275279906125356e+18,0.014047796837985516,-0.012331328354775906,-10.544443130493164
1.7275279906185357e+18,0.02766132354736328,-0.00329025462269783,-10.609953880310059
1.7275279906245358e+18,0.009925112128257751,-0.04193270951509476,-10.545656204223633
1.727527990630536e+18,-0.06339407712221146,0.0474926121532917,-10.552680969238281
1.727527990633536e+18,0.06042002886533737,0.020946726202964783,-10.57162094116211
1.727527990639536e+18,0.14454258978366852,-0.02846614457666874,-10.647333145141602
1.7275279906455363e+18,0.05204210802912712,-0.030989613384008408,-10.49435806274414
1.7275279906515364e+18,-0.03527555987238884,0.0010257121175527573,-10.481144905090332
1.7275279906545364e+18,0.02706792764365673,0.06923583149909973,-10.675358772277832
1.7275279906605366e+18,-0.0863032117486,-0.03812498226761818,-10.594581604003906
1.7275279906665367e+18,-0.010320674628019333,0.006191019434481859,-10.54417896270752
1.7275279906725368e+18,0.027813803404569626,0.05310842767357826,-10.586555480957031
1.727527990675537e+18,0.033504556864500046,0.054785627871751785,-10.515905380249023
1.727527990681537e+18,-0.017735585570335388,-0.025385571643710136,-10.556639671325684
1.7275279906875372e+18,-0.011283555999398232,-0.055812057107686996,-10.518202781677246
1.7275279906935373e+18,-0.003908960614353418,0.01880308799445629,-10.581195831298828
1.7275279906965373e+18,-0.0027286792173981667,-0.02594957873225212,-10.520858764648438
1.7275279907025375e+18,0.00987444631755352,-0.041460566222667694,-10.555089950561523
1.7275279907085376e+18,0.07572493702173233,-0.05395369604229927,-10.60681438446045
1.7275279907145377e+18,0.0012499723816290498,-0.02342677116394043,-10.570612907409668
1.7275279907205379e+18,0.026603583246469498,0.006062889005988836,-10.495428085327148
1.727527990723538e+18,0.002607975620776415,-0.0031529671978205442,-10.60090446472168
1.727527990729538e+18,0.0075362492352724075,0.0641670972108841,-10.590445518493652
1.7275279907355382e+18,0.06211710348725319,-0.02314773201942444,-10.634251594543457
1.7275279907415383e+18,-0.07773065567016602,0.01690547727048397,-10.486859321594238
1.7275279907445384e+18,-0.0755416676402092,-0.012734686955809593,-10.612207412719727
1.7275279907505385e+18,0.006575627718120813,0.030494848266243935,-10.555872917175293
1.7275279907565386e+18,-0.03003545291721821,0.04312976077198982,-10.501681327819824
1.7275279907625388e+18,0.10741763561964035,-0.04505749046802521,-10.518033981323242
1.7275279907655388e+18,-0.0893227607011795,-0.08024754375219345,-10.513715744018555
1.727527990771539e+18,0.037080056965351105,-0.03805559501051903,-10.563739776611328
1.727527990777539e+18,-0.018093034625053406,-0.01788010075688362,-10.564861297607422
1.7275279907805391e+18,0.03522071614861488,0.03045758791267872,-10.5587739944458
1.7275279907865393e+18,-0.04980280622839928,0.002554709790274501,-10.515660285949707
1.7275279907925394e+18,-0.0387975312769413,0.05925796180963516,-10.587004661560059
1.7275279907985395e+18,-0.08619430661201477,-0.014820660464465618,-10.562949180603027
1.7275279908045396e+18,0.05828659608960152,-0.054071880877017975,-10.479185104370117
1.7275279908105398e+18,-0.04027456417679787,0.03445018082857132,-10.443113327026367
1.72752799081654e+18,0.04710434749722481,-0.02082882449030876,-10.531723022460938
1.72752799081954e+18,-0.061828531324863434,0.016921473667025566,-10.486045837402344
1.72752799082554e+18,0.045142997056245804,0.0013185888528823853,-10.51412582397461
1.7275279908315402e+18,0.030059196054935455,-0.0683395266532898,-10.618378639221191
1.7275279908375404e+18,-0.02601347118616104,-0.0016514683375135064,-10.498600006103516
1.7275279908435405e+18,0.021259557455778122,0.09238207340240479,-10.561263084411621
1.7275279908465405e+18,-0.057872749865055084,-0.02442563883960247,-10.67557430267334
1.7275279908525407e+18,0.023457571864128113,0.030510755255818367,-10.574726104736328
1.7275279908585408e+18,-0.04980982095003128,-0.05683974176645279,-10.567032814025879
1.727527990864541e+18,-0.03338802233338356,0.0006919762818142772,-10.461003303527832
1.727527990867541e+18,0.02328021079301834,-0.037717077881097794,-10.513819694519043
1.727527990873541e+18,0.020017044618725777,-0.010611554607748985,-10.509615898132324
1.7275279908795412e+18,0.0026909334119409323,-0.031175853684544563,-10.587454795837402
1.7275279908855414e+18,0.045012958347797394,-0.02199850231409073,-10.516230583190918
1.7275279908885414e+18,-0.04657084867358208,0.04192278906702995,-10.564188003540039
1.7275279908945416e+18,0.01642093062400818,-0.015154490247368813,-10.61194896697998
1.7275279909005417e+18,0.008711430244147778,-0.014504162594676018,-10.513345718383789
1.7275279909065418e+18,-0.008732994087040424,-0.013860713690519333,-10.536832809448242
1.727527990912542e+18,-0.027084780856966972,0.04572198539972305,-10.509202003479004
1.727527990915542e+18,-0.06597808003425598,0.07148963212966919,-10.551301956176758
1.7275279909215421e+18,0.003942010924220085,-0.007120461668819189,-10.533108711242676
1.7275279909275423e+18,-0.059969764202833176,-0.004333069548010826,-10.435860633850098
1.7275279909335424e+18,-0.0419304333627224,-0.027459781616926193,-10.535608291625977
1.7275279909365425e+18,-0.023615669459104538,-0.05803658440709114,-10.441515922546387
1.7275279909425426e+18,-0.020564645528793335,-0.05478024110198021,-10.551721572875977
1.7275279909485427e+18,-0.07068406790494919,-0.020116640254855156,-10.556985855102539
1.7275279909545428e+18,-0.03477605804800987,-0.0036643105559051037,-10.59373664855957
1.727527990960543e+18,-0.025343583896756172,-0.04496970400214195,-10.577359199523926
1.727527990966543e+18,0.0191410593688488,-0.01106733176857233,-10.548161506652832
1.7275279909695432e+18,0.0405956506729126,0.009622561745345592,-10.512181282043457
1.7275279909755433e+18,0.024354303255677223,-0.07992223650217056,-10.469271659851074
1.7275279909815434e+18,-0.112614206969738,-0.046594295650720596,-10.547014236450195
1.7275279909845435e+18,-0.020992334932088852,-0.010794076137244701,-10.496962547302246
1.7275279909905436e+18,0.02322574518620968,-0.10780984908342361,-10.516975402832031
1.7275279909965437e+18,-0.026921706274151802,-0.0064477138221263885,-10.538969993591309
1.7275279910025439e+18,-0.08946852385997772,0.04309822991490364,-10.522148132324219
1.727527991005544e+18,-0.056107886135578156,-0.006149893626570702,-10.552207946777344
1.727527991011544e+18,0.020258506760001183,-0.01972826011478901,-10.570053100585938
1.7275279910175442e+18,-0.006340429186820984,-0.008587652817368507,-10.447354316711426
1.7275279910235443e+18,0.014419789426028728,-0.0528537854552269,-10.493342399597168
1.7275279910265444e+18,-0.019816715270280838,0.053071800619363785,-10.494297981262207
1.7275279910325445e+18,-0.02969285473227501,-0.023690853267908096,-10.497634887695312
1.7275279910385446e+18,-0.054077815264463425,0.03743768110871315,-10.439327239990234
1.7275279910445448e+18,0.022223176434636116,-0.008401351980865002,-10.330241203308105
1.7275279910475448e+18,0.007934237830340862,-0.008162163197994232,-10.34515380859375
1.727527991053545e+18,0.028607530519366264,-0.02062053792178631,-10.414552688598633
1.727527991059545e+18,-0.06774360686540604,-0.02996375411748886,-10.3416109085083
1.7275279910655452e+18,0.017159176990389824,0.02022828347980976,-10.359439849853516
1.7275279910685453e+18,0.028698377311229706,0.025823457166552544,-10.302350044250488
1.7275279910745454e+18,-0.003153588157147169,-0.02326992154121399,-10.355279922485352
1.7275279910805455e+18,-0.006974442396312952,-0.03581738471984863,-10.352348327636719
1.7275279910865457e+18,0.05829381197690964,-0.027473196387290955,-10.276741027832031
1.7275279910925458e+18,0.015688540413975716,-0.021840738132596016,-10.30954360961914
1.727527991098546e+18,0.04749811068177223,0.004092719871550798,-10.202888488769531
1.727527991101546e+18,0.004481984302401543,-0.029134076088666916,-10.200292587280273
1.727527991107546e+18,0.027033070102334023,0.03723055496811867,-10.250349998474121
1.7275279911135462e+18,-0.0366210900247097,0.027013087645173073,-10.254868507385254
1.7275279911195464e+18,-0.030658898875117302,0.0004895718302577734,-10.087115287780762
1.7275279911225464e+18,0.02731444500386715,0.09258458018302917,-10.130727767944336
1.7275279911285466e+18,0.039467569440603256,-0.02686288207769394,-10.123635292053223
1.7275279911345467e+18,0.020366214215755463,0.01781662553548813,-10.198430061340332
1.7275279911375468e+18,0.02382904849946499,0.04632893204689026,-10.157437324523926
1.727527991143547e+18,-0.07125752419233322,0.02677730657160282,-10.112369537353516
1.727527991149547e+18,-0.043868716806173325,-0.05855372175574303,-10.055925369262695
1.7275279911555471e+18,-0.026314398273825645,-0.05490267649292946,-10.066709518432617
1.7275279911615473e+18,0.04458783194422722,0.01117929257452488,-10.02015209197998
1.7275279911645473e+18,-0.020252099260687828,0.025102706626057625,-10.008402824401855
1.7275279911705475e+18,0.03604034334421158,0.0013058932963758707,-9.990678787231445
1.7275279911765476e+18,-0.10518019646406174,0.04975927621126175,-10.054668426513672
1.7275279911825477e+18,-0.032183051109313965,-0.02451275661587715,-9.922418594360352
1.7275279911885478e+18,-0.01611596904695034,-0.10466013103723526,-9.978007316589355
1.727527991194548e+18,0.05814201757311821,-0.040065668523311615,-9.851400375366211
1.727527991197548e+18,0.0023245937190949917,0.06331925839185715,-9.862489700317383
1.7275279912035482e+18,-0.09856044501066208,-0.030670788139104843,-9.822589874267578
1.7275279912095483e+18,-0.014274321496486664,-0.03207795321941376,-9.888855934143066
1.7275279912155484e+18,-0.007411144208163023,-0.05779309198260307,-9.803983688354492
1.7275279912185485e+18,-0.01469644159078598,-0.019660405814647675,-9.773266792297363
1.7275279912245486e+18,-0.035437218844890594,-0.027759509161114693,-9.808411598205566
1.7275279912305487e+18,-0.0019514678278937936,-0.07929428666830063,-9.816764831542969
1.7275279912365489e+18,-0.023501383140683174,0.09001424908638,-9.718526840209961
1.727527991239549e+18,0.10110002011060715,-0.030110729858279228,-9.71563720703125
1.727527991245549e+18,-0.007549094967544079,0.007612656801939011,-9.81612491607666
1.7275279912515492e+18,-0.010420487262308598,0.021068083122372627,-9.719086647033691
1.7275279912575493e+18,0.01419901940971613,-0.05057849362492561,-9.801730155944824
1.7275279912605494e+18,0.08568145334720612,-0.007913702167570591,-9.73460578918457
1.7275279912665495e+18,-0.0038631984498351812,-0.022729642689228058,-9.59990406036377
1.7275279912725496e+18,-0.021290680393576622,-0.016392463818192482,-9.673023223876953
1.7275279912785498e+18,-0.04837767407298088,-0.03927825763821602,-9.723169326782227
1.7275279912815498e+18,0.034086599946022034,0.007369407918304205,-9.670845031738281
1.72752799128755e+18,-0.025574540719389915,-0.06521262973546982,-9.633085250854492
1.72752799129355e+18,0.05065898969769478,-0.0516432486474514,-9.719757080078125
1.7275279912995502e+18,0.02793937362730503,-0.023028355091810226,-9.652864456176758
1.7275279913025503e+18,-0.019825685769319534,-0.02326101064682007,-9.695846557617188
1.7275279913085504e+18,-0.005910954903811216,-0.0519028939306736,-9.69940185546875
1.7275279913145505e+18,-0.06887874007225037,0.024127621203660965,-9.586143493652344
1.7275279913205507e+18,0.012402301654219627,-0.037997059524059296,-9.728200912475586
1.7275279913235507e+18,0.011672530323266983,-0.002331026829779148,-9.669479370117188
1.7275279913295508e+18,0.011872679926455021,0.08098667860031128,-9.651299476623535
1.727527991335551e+18,-0.045020826160907745,-0.013325739651918411,-9.698195457458496
1.727527991338551e+18,0.07530857622623444,-0.020557081326842308,-9.641100883483887
1.7275279913445512e+18,0.046118296682834625,-0.06352885067462921,-9.648882865905762
1.7275279913505513e+18,-0.013873976655304432,-0.03794170543551445,-9.620614051818848
1.7275279913565514e+18,-0.010715405456721783,0.027206525206565857,-9.624124526977539
1.7275279913625516e+18,-0.0035421326756477356,0.023995282128453255,-9.667645454406738
1.7275279913655516e+18,-5.337750189937651e-05,0.005196643993258476,-9.633910179138184
1.7275279913715517e+18,0.04798514023423195,0.0170721597969532,-9.607033729553223
1.727527991377552e+18,0.06275319308042526,-0.02791460230946541,-9.64508056640625
1.727527991383552e+18,-0.01585872285068035,-0.0698273703455925,-9.577020645141602
1.727527991386552e+18,-0.03315899893641472,-0.03139181435108185,-9.752339363098145
1.7275279913925522e+18,0.03276748210191727,0.015980497002601624,-9.682537078857422
1.7275279913985523e+18,-0.035876065492630005,0.06909136474132538,-9.601957321166992
1.7275279914015524e+18,-0.023505397140979767,-0.08204101771116257,-9.613887786865234
1.7275279914075525e+18,0.021725792437791824,0.05898367986083031,-9.563701629638672
1.7275279914135526e+18,0.019752899184823036,0.059559088200330734,-9.612857818603516
1.7275279914195528e+18,-0.06417124718427658,-0.011923421174287796,-9.699319839477539
1.727527991425553e+18,0.03635723516345024,-0.007395326625555754,-9.631989479064941
1.727527991428553e+18,0.02219606377184391,-0.053098950535058975,-9.66160774230957
1.727527991434553e+18,-0.009017132222652435,0.04058362916111946,-9.738025665283203
1.7275279914405532e+18,0.021364452317357063,-0.054011717438697815,-9.637624740600586
1.7275279914465533e+18,0.07078396528959274,0.035009294748306274,-9.626642227172852
1.7275279914525535e+18,-0.001970716053619981,-0.08056707680225372,-9.61997127532959
1.7275279914555535e+18,-0.0015426338650286198,-0.010029533877968788,-9.671621322631836
1.7275279914615537e+18,-0.026486799120903015,0.024448709562420845,-9.61470890045166
1.7275279914675538e+18,0.016244567930698395,0.0059170229360461235,-9.623320579528809
1.727527991473554e+18,0.022120218724012375,0.015513896942138672,-9.631814956665039
1.727527991479554e+18,0.012109935283660889,0.09685220569372177,-9.675200462341309
1.727527991482554e+18,-0.03291086107492447,0.024883441627025604,-9.591155052185059
1.7275279914885542e+18,-0.0001548190921312198,-0.012193817645311356,-9.693588256835938
1.7275279914945544e+18,-0.0008151284419000149,-0.054738789796829224,-9.742856979370117
1.7275279915005545e+18,0.028020290657877922,0.02060217782855034,-9.713194847106934
1.7275279915035546e+18,0.03751426562666893,-0.030470723286271095,-9.683672904968262
1.7275279915095547e+18,-0.02335427887737751,0.019799018278717995,-9.63459587097168
1.7275279915155548e+18,0.037370096892118454,0.042086295783519745,-9.618301391601562
1.727527991521555e+18,-0.036051828414201736,-0.1082758903503418,-9.568283081054688
1.727527991527555e+18,-0.01962686888873577,-0.06996382027864456,-9.639784812927246
1.7275279915305551e+18,0.004999200813472271,-0.05895872041583061,-9.660149574279785
1.7275279915365553e+18,-0.029447752982378006,0.005146043375134468,-9.666542053222656
1.7275279915425554e+18,0.027556242421269417,0.007217428646981716,-9.619327545166016
1.7275279915485555e+18,-0.05815741792321205,-0.028075534850358963,-9.626986503601074
1.7275279915545556e+18,0.019247163087129593,-0.010305516421794891,-9.586809158325195
1.7275279915605558e+18,-0.03642464056611061,-0.05719698593020439,-9.708039283752441
1.7275279915635558e+18,0.02733818255364895,-0.07304804027080536,-9.68281364440918
1.727527991569556e+18,-0.017308713868260384,0.05750690773129463,-9.658835411071777
1.727527991575556e+18,-0.12300729006528854,-0.060785043984651566,-9.62509822845459
1.7275279915815562e+18,-0.05237000435590744,0.054875362664461136,-9.605993270874023
1.7275279915875564e+18,-0.02141437493264675,-0.03805629536509514,-9.711442947387695
1.7275279915905564e+18,0.021799063310027122,-0.05184200406074524,-9.592999458312988
1.7275279915965565e+18,-0.010540565475821495,0.0907563641667366,-9.60794448852539
1.7275279916025567e+18,-0.041653260588645935,0.11320480704307556,-9.590889930725098
1.7275279916085568e+18,-0.033740490674972534,0.041415803134441376,-9.600184440612793
1.7275279916115569e+18,-0.033713217824697495,-0.0020046697463840246,-9.611153602600098
1.727527991617557e+18,0.027899131178855896,-0.0016339379362761974,-9.655599594116211
1.727527991623557e+18,-0.015255119651556015,-0.025852009654045105,-9.592616081237793
1.7275279916295572e+18,-0.043054696172475815,0.04748988151550293,-9.512493133544922
1.7275279916325573e+18,-0.004708393011242151,-0.025448022410273552,-9.606110572814941
1.7275279916385574e+18,0.01601414754986763,-0.04587903246283531,-9.561441421508789
1.7275279916445576e+18,0.008639729581773281,0.022337716072797775,-9.625170707702637
1.7275279916505577e+18,-0.04641574248671532,0.06535184383392334,-9.649242401123047
1.7275279916565578e+18,-0.07668400555849075,0.051239170134067535,-9.668042182922363
1.727527991659558e+18,0.08454158157110214,0.02065773867070675,-9.615909576416016
1.727527991665558e+18,-0.025014398619532585,0.04039930924773216,-9.583361625671387
1.7275279916715581e+18,-0.004851557780057192,-0.014457635581493378,-9.667277336120605
1.7275279916775583e+18,-0.03998204693198204,0.017358463257551193,-9.631829261779785
1.7275279916835584e+18,-0.06523692607879639,0.04334456846117973,-9.662337303161621
1.7275279916865585e+18,-0.012696419842541218,-0.021037273108959198,-9.607162475585938
1.7275279916925586e+18,-0.03769746795296669,0.020933063700795174,-9.644548416137695
1.7275279916985587e+18,0.009048647247254848,-0.02122199907898903,-9.544379234313965
1.7275279917045588e+18,-0.004593237768858671,0.07592291384935379,-9.589364051818848
1.727527991710559e+18,-0.013055801391601562,-0.04831889271736145,-9.582440376281738
1.727527991713559e+18,-0.05588472634553909,-0.05712328478693962,-9.6919584274292
1.7275279917195592e+18,0.004081802908331156,-0.010212751105427742,-9.555262565612793
1.7275279917255593e+18,0.017545489594340324,-0.025897540152072906,-9.626981735229492
1.7275279917315594e+18,0.02145737037062645,0.061900995671749115,-9.66643238067627
1.7275279917375596e+18,-0.0163184255361557,-0.02410588599741459,-9.68155574798584
1.7275279917435597e+18,0.005358121357858181,-0.03981654345989227,-9.587461471557617
1.7275279917495598e+18,0.06001347303390503,0.089238740503788,-9.624639511108398
1.72752799175556e+18,0.005209841765463352,0.06058249995112419,-9.550349235534668
1.72752799175856e+18,0.002864798065274954,-0.022101402282714844,-9.544584274291992
1.7275279917645601e+18,-0.007059065625071526,0.030455082654953003,-9.557600021362305
1.7275279917705603e+18,-0.004487181082367897,0.011156965047121048,-9.554235458374023
1.7275279917765604e+18,0.0025095571763813496,0.024994617328047752,-9.568415641784668
1.7275279917795604e+18,0.014527776278555393,-0.006829740945249796,-9.612473487854004
1.7275279917855606e+18,-0.03897324204444885,-0.0400276780128479,-9.596226692199707
1.7275279917915607e+18,-0.03880123049020767,-0.08075355738401413,-9.633180618286133
1.7275279917975608e+18,0.022627130150794983,0.02090723253786564,-9.59743881225586
1.727527991803561e+18,-0.06335928291082382,-0.04814494401216507,-9.64384651184082
1.727527991806561e+18,-0.047213319689035416,0.002110676374286413,-9.58958911895752
1.7275279918125612e+18,-0.017482198774814606,0.12721684575080872,-9.589973449707031
1.7275279918185613e+18,-0.010282010771334171,-0.004496586509048939,-9.560054779052734
1.7275279918245614e+18,0.044359661638736725,0.0025881039910018444,-9.564521789550781
1.7275279918305615e+18,0.06262841820716858,-0.09449233114719391,-9.560007095336914
1.7275279918335616e+18,0.006199478637427092,-0.06030244380235672,-9.589877128601074
1.7275279918395617e+18,0.0006701750098727643,-0.06667403876781464,-9.645906448364258
1.7275279918455619e+18,0.017053771764039993,-0.03921286016702652,-9.565696716308594
1.727527991851562e+18,-0.028969617560505867,0.04318374767899513,-9.512680053710938
1.727527991854562e+18,-0.020831864327192307,-0.009253354743123055,-9.510459899902344
1.7275279918635622e+18,0.06701768934726715,-0.08695527911186218,-9.635174751281738
1.7275279918665623e+18,0.07417888194322586,-0.05547464266419411,-9.569761276245117
1.7275279918725624e+18,0.02922256849706173,0.04248814284801483,-9.563465118408203
1.7275279918785626e+18,-0.05074814334511757,0.054430246353149414,-9.520772933959961
1.7275279918815626e+18,-0.022616656497120857,0.0063292053528130054,-9.517041206359863
1.7275279918875628e+18,-0.006474803201854229,0.05281810089945793,-9.542327880859375
1.727527991893563e+18,-0.07349646836519241,0.05000753700733185,-9.527281761169434
1.727527991899563e+18,0.025923777371644974,0.013855346478521824,-9.505422592163086
1.7275279919055631e+18,-0.08980637788772583,0.043140262365341187,-9.530336380004883
1.7275279919085632e+18,-0.027024758979678154,0.0008487954619340599,-9.563726425170898
1.7275279919145633e+18,-0.05829113721847534,-0.014718890190124512,-9.545495986938477
1.7275279919205635e+18,0.05997132509946823,-0.03757262974977493,-9.530787467956543
1.7275279919265636e+18,-0.024348482489585876,0.015059118159115314,-9.546769142150879
1.7275279919325637e+18,0.044453538954257965,0.04879140108823776,-9.446981430053711
1.7275279919355638e+18,0.06519445776939392,-0.014822463504970074,-9.55981159210205
1.727527991941564e+18,0.016814855858683586,-0.048392318189144135,-9.572751998901367
1.727527991947564e+18,0.04304398223757744,-0.03425934538245201,-9.471078872680664
1.7275279919535642e+18,0.00035097566433250904,-0.021415112540125847,-9.527019500732422
1.7275279919565642e+18,-0.016461104154586792,0.0008160317083820701,-9.551725387573242
1.7275279919625644e+18,-0.022686684504151344,0.09493609517812729,-9.484142303466797
1.7275279919685645e+18,-0.0685746967792511,-0.03081509657204151,-9.565300941467285
1.7275279919745646e+18,-0.10905072838068008,-0.06441027671098709,-9.548891067504883
1.7275279919775647e+18,-0.005800855811685324,0.023848408833146095,-9.464034080505371
1.7275279919835648e+18,0.009240806102752686,-0.05390545353293419,-9.490103721618652
1.727527991989565e+18,-0.0025573833845555782,0.002700139069929719,-9.442278861999512
1.727527991995565e+18,0.004958257079124451,0.025613456964492798,-9.47619342803955
1.727527991998565e+18,0.047528646886348724,0.0778627097606659,-9.47724723815918
1.7275279920045652e+18,-0.04331929236650467,-0.02030945010483265,-9.519783973693848
1.7275279920105654e+18,0.05096777155995369,-0.033259328454732895,-9.579689979553223
1.7275279920165655e+18,0.020971285179257393,0.03550227731466293,-9.45877742767334
1.7275279920195656e+18,0.13928796350955963,-0.0406145341694355,-9.484478950500488
1.7275279920255657e+18,-0.06277693808078766,0.07383442670106888,-9.529784202575684
1.7275279920315658e+18,0.03458524867892265,0.0320499911904335,-9.516678810119629
1.727527992037566e+18,-0.10417433083057404,0.014372346922755241,-9.575126647949219
1.727527992043566e+18,-0.026608558371663094,0.00566574651747942,-9.549577713012695
1.7275279920465661e+18,0.0020936711225658655,0.018771016970276833,-9.59068489074707
1.7275279920525663e+18,-0.019619479775428772,0.036799099296331406,-9.45265007019043
1.7275279920585664e+18,-0.02613702602684498,0.04377997666597366,-9.481589317321777
1.7275279920645665e+18,-0.036966703832149506,0.008554975502192974,-9.572918891906738
1.7275279920675666e+18,0.05676257237792015,0.015074524097144604,-9.452635765075684
1.7275279920735667e+18,-0.023313337936997414,0.023139657452702522,-9.46667766571045
1.7275279920795668e+18,-0.05192171037197113,0.019549624994397163,-9.462137222290039
1.727527992085567e+18,0.0127178356051445,0.033827684819698334,-9.54511833190918
1.727527992091567e+18,-0.01713952235877514,0.103470079600811,-9.582571029663086
1.7275279920975672e+18,0.024968165904283524,-0.01328874472528696,-9.498515129089355
1.7275279921035674e+18,-0.06207311153411865,-0.04441853612661362,-9.497632026672363
1.7275279921065674e+18,-0.0032933156471699476,-0.0010874341242015362,-9.540560722351074
1.7275279921125676e+18,-0.031658805906772614,-0.0001270187203772366,-9.550817489624023
1.7275279921185677e+18,0.05070710554718971,0.11072658002376556,-9.474661827087402
1.7275279921215677e+18,0.013430498540401459,-0.019596129655838013,-9.469651222229004
1.727527992127568e+18,-0.003743300447240472,0.02461741678416729,-9.446855545043945
1.727527992133568e+18,-0.023214474320411682,0.0016089716227725148,-9.513690948486328
1.727527992139568e+18,-0.04116164520382881,0.017499776557087898,-9.521946907043457
1.7275279921455683e+18,-0.0005069288890808821,0.01885785534977913,-9.472954750061035
1.7275279921485683e+18,0.04837547242641449,-0.0969245582818985,-9.457365989685059
1.7275279921545684e+18,0.06387738138437271,-0.02016735076904297,-9.504149436950684
1.7275279921605686e+18,-0.03376634418964386,-0.02059876173734665,-9.538896560668945
1.7275279921665687e+18,0.05173376202583313,-0.08416082710027695,-9.543850898742676
1.7275279921725688e+18,0.0396999716758728,-0.023018792271614075,-9.472606658935547
1.727527992175569e+18,-0.04619312286376953,0.07549964636564255,-9.537120819091797
1.727527992181569e+18,0.0561549998819828,0.027748554944992065,-9.450222969055176
1.7275279921875692e+18,-0.01430781465023756,0.022666344419121742,-9.486037254333496
1.7275279921935693e+18,-0.0027611074037849903,-0.09352793544530869,-9.465476036071777
1.7275279921995694e+18,-0.08114859461784363,0.0109286243095994,-9.474976539611816
1.7275279922055695e+18,0.033844105899333954,0.03961777314543724,-9.435477256774902
1.7275279922115697e+18,-0.07588879764080048,-0.04754629731178284,-9.485260963439941
1.7275279922145697e+18,0.00399796525016427,-0.051450710743665695,-9.462888717651367
1.7275279922205699e+18,-0.08055479824542999,0.015902766957879066,-9.514934539794922
1.72752799222657e+18,-0.0199907086789608,0.013542314991354942,-9.365169525146484
1.72752799223257e+18,0.03796533867716789,0.009020238183438778,-9.3550386428833
1.7275279922385702e+18,0.045894090086221695,0.0775977149605751,-9.390076637268066
1.7275279922415703e+18,-0.021691158413887024,0.049836840480566025,-9.480536460876465
1.7275279922475704e+18,0.017987236380577087,0.03252848610281944,-9.459684371948242
1.7275279922535706e+18,-0.027722658589482307,-0.045176610350608826,-9.431513786315918
1.7275279922595707e+18,-0.04015742614865303,-0.01886654831469059,-9.426201820373535
1.7275279922625708e+18,-0.06411466002464294,-0.03241662308573723,-9.397071838378906
1.727527992268571e+18,-0.05585290864109993,-0.053339067846536636,-9.384482383728027
1.727527992274571e+18,-0.007287591230124235,-0.0284089557826519,-9.47128963470459
1.7275279922805711e+18,0.026601020246744156,0.0047129979357123375,-9.506131172180176
1.7275279922835712e+18,-0.0705718919634819,-0.03724448382854462,-9.454339981079102
1.7275279922895713e+18,0.034217655658721924,-0.05491035431623459,-9.49202823638916
1.7275279922955715e+18,0.008249068632721901,0.02956174500286579,-9.502349853515625
1.7275279923015716e+18,-0.015356621704995632,-0.043635133653879166,-9.456498146057129
1.7275279923075717e+18,-0.031015541404485703,0.12585042417049408,-9.415940284729004
1.7275279923135718e+18,0.038110218942165375,0.06924262642860413,-9.45788860321045
1.727527992316572e+18,0.029838263988494873,0.02589518018066883,-9.438613891601562
1.727527992322572e+18,0.011202173307538033,0.004538108129054308,-9.537729263305664
1.7275279923285722e+18,0.04642409458756447,0.032676879316568375,-9.447766304016113
1.7275279923345723e+18,-0.03592187538743019,-0.03182406350970268,-9.386855125427246
1.7275279923405724e+18,0.07948058843612671,-0.0695030689239502,-9.491375923156738
1.7275279923435725e+18,-0.0085129514336586,0.014078190550208092,-9.506702423095703
1.7275279923495726e+18,0.010221265256404877,0.0641094520688057,-9.514900207519531
1.7275279923555727e+18,0.053047798573970795,-0.02471759542822838,-9.483278274536133
1.7275279923615729e+18,0.010421622544527054,-0.021904010325670242,-9.40099811553955
1.727527992367573e+18,-0.057029981166124344,-0.10052376985549927,-9.502716064453125
1.727527992373573e+18,-0.11212100833654404,0.014473001472651958,-9.462297439575195
1.7275279923765732e+18,0.06238071620464325,-0.0486440472304821,-9.316612243652344
1.7275279923825733e+18,0.16946250200271606,0.008036727085709572,-9.404706001281738
1.7275279923885734e+18,0.09072943776845932,0.023955104872584343,-9.46290111541748
1.7275279923945736e+18,0.0033455337397754192,-0.02720528095960617,-9.49006175994873
1.7275279924005737e+18,0.07146749645471573,-0.07097537815570831,-9.523787498474121
1.7275279924065738e+18,0.011796594597399235,0.05716121941804886,-9.516444206237793
1.727527992409574e+18,-0.0743032768368721,-0.02626737579703331,-9.395164489746094
1.727527992415574e+18,-0.002950747264549136,-0.03377489000558853,-9.403090476989746
1.7275279924215741e+18,0.06951435655355453,-0.015224999748170376,-9.427624702453613
1.7275279924275743e+18,0.049924030900001526,-0.033921677619218826,-9.442113876342773
1.7275279924335744e+18,0.02639184333384037,-0.004654751159250736,-9.356670379638672
1.7275279924395745e+18,0.04002511873841286,0.07278610020875931,-9.52357292175293
1.7275279924425746e+18,0.01794017106294632,-0.02001718059182167,-9.487229347229004
1.7275279924485747e+18,-0.028945978730916977,0.0010146420681849122,-9.393925666809082
1.7275279924545748e+18,0.03224638104438782,0.03399970754981041,-9.433096885681152
1.727527992460575e+18,-0.03972282260656357,-0.023860441520810127,-9.462738037109375
1.727527992466575e+18,0.021312875673174858,-0.016799945384263992,-9.477120399475098
1.7275279924725752e+18,0.07678920030593872,-0.06982606649398804,-9.442132949829102
1.7275279924785754e+18,-0.0033798927906900644,-0.0019313920056447387,-9.402602195739746
1.7275279924845755e+18,-0.04393058642745018,-0.03217574954032898,-9.441299438476562
1.7275279924875756e+18,-0.006939247250556946,-0.06429389864206314,-9.417173385620117
1.7275279924935757e+18,-0.011217503808438778,0.020381225273013115,-9.441474914550781
1.7275279924995758e+18,0.039960503578186035,-0.07137399166822433,-9.402848243713379
1.727527992505576e+18,0.023770006373524666,-0.018758777529001236,-9.435879707336426
1.727527992508576e+18,-0.004067474976181984,-0.05601548030972481,-9.470273971557617
1.7275279925145761e+18,-0.008837282657623291,0.01757916994392872,-9.444168090820312
1.7275279925205763e+18,-0.01774643547832966,-0.03167613968253136,-9.506364822387695
1.7275279925265764e+18,0.09537853300571442,-0.05263010784983635,-9.509049415588379
1.7275279925325765e+18,-0.05429750308394432,0.05309131741523743,-9.465563774108887
1.7275279925355766e+18,0.09628652781248093,-0.05501166358590126,-9.425338745117188
1.7275279925415767e+18,0.005920601077377796,-0.07311496138572693,-9.48607063293457
1.7275279925475768e+18,-0.025154713541269302,-0.11052124202251434,-9.491812705993652
1.727527992553577e+18,0.006244405638426542,0.041811488568782806,-9.447493553161621
1.727527992559577e+18,0.0012400628766044974,-0.046781353652477264,-9.357868194580078
1.7275279925625772e+18,-0.04490390792489052,0.03333716094493866,-9.360194206237793
1.7275279925685773e+18,-0.0447978712618351,0.004350903443992138,-9.43814468383789
1.7275279925745774e+18,0.006246647331863642,0.0414872020483017,-9.403454780578613
1.7275279925805775e+18,-0.020722627639770508,-0.08785073459148407,-9.38332748413086
1.7275279925835776e+18,0.012203071266412735,0.010357009246945381,-9.421966552734375
1.7275279925895777e+18,0.013758291490375996,0.04852185770869255,-9.357978820800781
1.7275279925955779e+18,-0.02136486954987049,-0.03977815806865692,-9.441826820373535
1.727527992601578e+18,0.07284924387931824,-0.012507651001214981,-9.324793815612793
1.727527992607578e+18,0.062251195311546326,0.015678321942687035,-9.348079681396484
1.7275279926135782e+18,-0.008133187890052795,-0.012750803492963314,-9.343122482299805
1.7275279926165783e+18,-0.01893368363380432,0.024109480902552605,-9.436012268066406
1.7275279926225784e+18,0.019331280142068863,0.06001729890704155,-9.410576820373535
1.7275279926285786e+18,-0.007914120331406593,-0.009529594331979752,-9.415544509887695
1.7275279926345787e+18,0.032387565821409225,-0.017007557675242424,-9.529120445251465
1.7275279926405788e+18,0.05956194922327995,0.0010231251362711191,-9.39406681060791
1.727527992646579e+18,0.035731565207242966,-0.006928045768290758,-9.442612648010254
1.727527992649579e+18,0.019506385549902916,-0.10167378932237625,-9.438714027404785
1.7275279926555791e+18,0.022373048588633537,0.04723725840449333,-9.453534126281738
1.7275279926615793e+18,-0.006459204014390707,0.0018159666797146201,-9.495840072631836
1.7275279926675794e+18,-0.005316353868693113,0.054096825420856476,-9.406598091125488
1.7275279926735795e+18,0.02136678621172905,0.0556117445230484,-9.342056274414062
1.7275279926765796e+18,0.01362332422286272,-0.02553071826696396,-9.405238151550293
1.7275279926825797e+18,-0.01841059885919094,0.045986831188201904,-9.438863754272461
1.7275279926885798e+18,0.016263384371995926,0.035279661417007446,-9.429767608642578
1.72752799269458e+18,0.018879037350416183,0.059090450406074524,-9.2803373336792
1.72752799269758e+18,-0.07188750058412552,0.028096642345190048,-9.30250072479248
1.7275279927035802e+18,-0.006639274302870035,0.12769271433353424,-9.244267463684082
1.7275279927095803e+18,0.06798495352268219,-0.05716836825013161,-9.224535942077637
1.7275279927155804e+18,0.0344613678753376,0.04382524639368057,-9.209590911865234
1.7275279927215805e+18,0.05677441135048866,0.005514002405107021,-9.22756290435791
1.7275279927275807e+18,-0.013769010081887245,-0.026966029778122902,-9.193235397338867
1.7275279927305807e+18,0.034071169793605804,-0.050472456961870193,-9.24347972869873
1.7275279927365809e+18,-0.05814440920948982,-0.049774497747421265,-9.142356872558594
1.727527992742581e+18,0.014419171959161758,0.022938132286071777,-9.202485084533691
1.727527992748581e+18,-0.0032227342016994953,0.009019901975989342,-9.10161304473877
1.7275279927515812e+18,-0.08383355289697647,-0.021075833588838577,-9.216371536254883
1.7275279927575813e+18,0.04293781518936157,0.01672602817416191,-9.15799331665039
1.7275279927635814e+18,-0.004212023690342903,0.025794100016355515,-9.120538711547852
1.7275279927695816e+18,-0.008650116622447968,-0.07375630736351013,-9.060914039611816
1.7275279927725816e+18,0.06544002890586853,0.031177731230854988,-9.051692962646484
1.7275279927785818e+18,0.03974743187427521,-0.00894505251199007,-9.015416145324707
1.727527992784582e+18,0.015275731682777405,-0.01880749501287937,-9.030845642089844
1.727527992790582e+18,0.061918869614601135,-0.01205867063254118,-9.115785598754883
1.7275279927965821e+18,0.004034181125462055,0.061516210436820984,-9.06151294708252
1.7275279927995822e+18,-0.04581429809331894,-0.002791249193251133,-9.021851539611816
1.7275279928055823e+18,0.007014165632426739,-0.056622616946697235,-9.047374725341797
1.7275279928115825e+18,0.043032385408878326,-0.004290870390832424,-8.933764457702637
1.7275279928175826e+18,0.037639010697603226,-0.04133376106619835,-8.978302955627441
1.7275279928205827e+18,-0.04619034379720688,-0.009773320518434048,-8.85241985321045
1.7275279928265828e+18,0.015179023146629333,0.02821403369307518,-8.890386581420898
1.727527992832583e+18,0.03155312314629555,0.04893209785223007,-8.778539657592773
1.727527992835583e+18,0.020326195284724236,0.0249849334359169,-8.814626693725586
1.727527992841583e+18,-0.04180941730737686,-0.04229474812746048,-8.837508201599121
1.7275279928475832e+18,-0.011401037685573101,0.0036208033561706543,-8.838336944580078
1.7275279928535834e+18,0.016946842893958092,0.020428432151675224,-8.866128921508789
1.7275279928595835e+18,0.04528119042515755,-0.008693801239132881,-8.81871223449707
1.7275279928655836e+18,-0.09359868615865707,-0.05205646902322769,-8.775962829589844
1.7275279928685837e+18,0.007561188656836748,0.019734583795070648,-8.665867805480957
1.7275279928745838e+18,-0.00756599847227335,-0.004373817704617977,-8.747540473937988
1.727527992880584e+18,0.06708832830190659,0.011965985409915447,-8.671489715576172
1.727527992883584e+18,-0.008179273456335068,-0.05027712136507034,-8.571523666381836
1.727527992889584e+18,0.004869266413152218,-0.06770038604736328,-8.590044975280762
1.7275279928955843e+18,0.011955676600337029,-0.016073832288384438,-8.59701919555664
1.7275279929015844e+18,0.06178991124033928,-0.011914849281311035,-8.722640991210938
1.7275279929045844e+18,0.008105672895908356,-0.03449809551239014,-8.649080276489258
1.7275279929105846e+18,-0.024963995441794395,0.0876622125506401,-8.662023544311523
1.7275279929165847e+18,-0.07253396511077881,-0.02780321054160595,-8.57827377319336
1.7275279929225848e+18,0.04092829301953316,0.04554041102528572,-8.683492660522461
1.727527992928585e+18,0.0787469819188118,-0.006535718683153391,-8.618042945861816
1.727527992931585e+18,-0.034299373626708984,0.020355047658085823,-8.576349258422852
1.7275279929375852e+18,0.0038066075649112463,-0.06767545640468597,-8.547052383422852
1.7275279929435853e+18,0.01712748035788536,0.017498686909675598,-8.595015525817871
1.7275279929495854e+18,-0.01901191473007202,-0.04309653863310814,-8.710685729980469
1.7275279929555855e+18,0.015963492915034294,0.0022776955738663673,-8.697660446166992
1.7275279929585856e+18,0.02862776815891266,0.0015558875165879726,-8.556641578674316
1.7275279929645857e+18,0.06619852781295776,0.06521609425544739,-8.6258544921875
1.7275279929705859e+18,-0.03544332832098007,0.02268536202609539,-8.591548919677734
1.727527992973586e+18,0.1024501845240593,0.028200626373291016,-8.710004806518555
1.727527992979586e+18,-0.03602338209748268,0.032502349466085434,-8.716124534606934
1.7275279929855862e+18,-0.05325406417250633,-0.017154287546873093,-8.752565383911133
1.7275279929915863e+18,-0.07945699244737625,0.0317179299890995,-8.736699104309082
1.7275279929945864e+18,-0.003817350370809436,0.08167778700590134,-8.751822471618652
1.7275279930005865e+18,-0.058307766914367676,0.012212059460580349,-8.668935775756836
1.7275279930065866e+18,0.03114292398095131,-0.03464338183403015,-8.766292572021484
1.7275279930125868e+18,-0.05543230473995209,-0.010136310942471027,-8.755786895751953
1.727527993018587e+18,-0.0030123437754809856,-0.06201119348406792,-8.697773933410645
1.727527993024587e+18,0.02731487527489662,0.0826319009065628,-8.740342140197754
1.727527993027587e+18,0.03481051325798035,0.015268492512404919,-8.797220230102539
1.7275279930335872e+18,-0.0054722498171031475,0.06324457377195358,-8.734432220458984
1.7275279930395873e+18,0.05605258420109749,-0.003321835771203041,-12.089686393737793
1.7275279930455875e+18,0.013003719039261341,-0.05473034083843231,-14.951765060424805
1.7275279930485875e+18,0.0466136671602726,-0.0310360137373209,-15.435169219970703
1.7275279930545876e+18,0.0078025986440479755,-0.03652283176779747,-15.900589942932129
1.7275279930605878e+18,0.016423430293798447,-0.052388034760951996,-16.228696823120117
1.727527993066588e+18,-0.03344716876745224,-0.06335167586803436,-16.207063674926758
1.727527993072588e+18,0.01052070315927267,0.033751051872968674,-16.192293167114258
1.727527993075588e+18,-0.06996320188045502,0.11757111549377441,-16.18643569946289
1.7275279930815882e+18,-0.0042043402791023254,-0.012690599076449871,-16.184186935424805
1.7275279930875884e+18,0.004355397541075945,0.04588225483894348,-16.203441619873047
1.7275279930935885e+18,-0.04149094596505165,-0.018461799249053,-16.106916427612305
1.7275279930995886e+18,0.017685668542981148,0.06285916268825531,-15.944376945495605
1.7275279931055887e+18,0.05771692097187042,-0.11543010920286179,-15.808527946472168
1.7275279931115889e+18,0.07939240336418152,-0.0006166173261590302,-15.757858276367188
1.727527993117589e+18,0.013179801404476166,-0.00039498359546996653,-15.706799507141113
1.727527993120589e+18,0.02960498444736004,-0.028673065826296806,-15.648609161376953
1.7275279931265892e+18,0.030880188569426537,0.04307902976870537,-15.600275993347168
1.7275279931325893e+18,-0.05059675872325897,0.006949395872652531,-15.302674293518066
1.7275279931385894e+18,-0.008652201853692532,-3.0541224987246096e-05,-15.38107681274414
1.7275279931445896e+18,0.08209826052188873,-0.010995345190167427,-15.328116416931152
1.7275279931505897e+18,0.08557642251253128,0.07534144818782806,-15.144594192504883
1.7275279931535898e+18,-0.010729450732469559,-0.03008068911731243,-15.19948959350586
1.72752799315959e+18,-0.024723529815673828,0.013890688307583332,-15.05663776397705
1.72752799316559e+18,-0.01096635963767767,0.04280771687626839,-14.90936279296875
1.72752799316859e+18,0.009637441486120224,0.015516065061092377,-14.936380386352539
1.7275279931745902e+18,-0.00787673331797123,-0.014459407888352871,-14.85212516784668
1.7275279931805903e+18,0.012868113815784454,0.03185473755002022,-14.84914779663086
1.7275279931865905e+18,0.003657350316643715,-0.0033733081072568893,-14.716766357421875
1.7275279931925906e+18,0.06510070711374283,0.038379885256290436,-14.640856742858887
1.7275279931955907e+18,-0.11129547655582428,-0.018824202939867973,-14.597871780395508
1.7275279932015908e+18,-0.035842087119817734,0.04476644843816757,-14.466983795166016
1.727527993207591e+18,0.0015513288090005517,-0.0018817444797605276,-14.450865745544434
1.727527993213591e+18,0.03264894708991051,-0.0174110010266304,-14.373689651489258
1.727527993216591e+18,0.10088427364826202,-0.028025606647133827,-14.295876502990723
1.7275279932225912e+18,-0.03226233646273613,0.022023651748895645,-14.193143844604492
1.7275279932285914e+18,-0.09944511204957962,-0.070219986140728,-14.072847366333008
1.7275279932345915e+18,0.09799438714981079,-0.060865480452775955,-14.039286613464355
1.7275279932405916e+18,-0.03335936367511749,-0.029755819588899612,-14.006425857543945
1.7275279932465917e+18,0.004208321217447519,-0.01859310083091259,-13.925650596618652
1.7275279932525919e+18,-0.045511554926633835,0.007077193818986416,-13.838929176330566
1.727527993255592e+18,-0.020416969433426857,-0.02190622314810753,-13.839897155761719
1.7275279932645921e+18,0.0013700590934604406,0.007699787151068449,-13.76485538482666
1.7275279932675922e+18,0.026125919073820114,-0.06383275240659714,-13.7398681640625
1.7275279932735923e+18,-0.025816483423113823,0.11093328893184662,-13.605019569396973
1.7275279932795924e+18,-0.004243465140461922,-0.07214649021625519,-13.632551193237305
1.7275279932825925e+18,0.012841708026826382,0.05363961681723595,-13.597332000732422
1.7275279932885926e+18,0.04804948344826698,0.013123101554811,-13.535557746887207
1.7275279932945928e+18,-0.004606859292834997,0.02731768786907196,-13.44517993927002
1.7275279932975928e+18,-0.01917564682662487,-0.03969518095254898,-13.452169418334961
1.727527993303593e+18,0.025752002373337746,0.014772538095712662,-13.329537391662598
1.727527993309593e+18,-0.03268378600478172,0.0318942628800869,-13.282244682312012
1.7275279933155932e+18,-0.04629857838153839,0.09380453079938889,-13.261222839355469
1.7275279933185933e+18,0.03147272765636444,0.01185720507055521,-13.270352363586426
1.7275279933245934e+18,-0.07131596654653549,-0.03857646510004997,-13.102749824523926
1.7275279933305935e+18,-0.012517024762928486,0.008197342045605183,-13.169011116027832
1.7275279933365937e+18,-0.03925163298845291,0.013124632649123669,-13.156686782836914
1.7275279933395937e+18,-0.00260631600394845,-0.045940838754177094,-13.035264015197754
1.7275279933455939e+18,-0.031904011964797974,0.009005427360534668,-12.975159645080566
1.727527993351594e+18,-0.06335129588842392,0.051427941769361496,-12.930154800415039
1.727527993357594e+18,-0.028720084577798843,-0.014959615655243397,-12.974169731140137
1.7275279933605942e+18,-0.026836376637220383,0.04393349215388298,-12.898101806640625
1.7275279933665943e+18,-0.03602360934019089,0.0012588056270033121,-12.784996032714844
1.7275279933725944e+18,-0.05974629521369934,-0.02297605387866497,-12.722582817077637
1.7275279933785946e+18,-0.014033114537596703,0.019014816731214523,-12.723691940307617
1.7275279933815946e+18,-0.005911113694310188,-0.0576138012111187,-12.717144012451172
1.7275279933875948e+18,-0.028337344527244568,0.029129372909665108,-12.640524864196777
1.727527993393595e+18,-0.07757306098937988,-0.06112319976091385,-12.61768627166748
1.727527993396595e+18,-0.03414297476410866,0.08355425298213959,-12.614659309387207
1.727527993402595e+18,-0.007784925401210785,0.05045844614505768,-12.558768272399902
1.7275279934085952e+18,0.043640073388814926,0.05730822682380676,-12.467878341674805
1.7275279934145953e+18,0.04150746017694473,-0.033196162432432175,-12.458727836608887
1.7275279934175954e+18,0.017825407907366753,-0.013291837647557259,-12.445039749145508
1.7275279934235955e+18,-0.02132366970181465,0.02025439776480198,-12.461382865905762
1.7275279934295956e+18,0.003644166048616171,-0.004388072993606329,-12.42029857635498
1.7275279934355958e+18,0.05089295282959938,0.02528366819024086,-12.344736099243164
1.727527993441596e+18,0.11500241607427597,0.026234472170472145,-12.269196510314941
1.727527993447596e+18,0.02554849162697792,0.05997327342629433,-12.30539321899414
1.727527993450596e+18,0.027699153870344162,-0.015547089278697968,-12.237991333007812
1.7275279934565962e+18,-0.012250608764588833,0.03095889464020729,-12.218603134155273
1.7275279934625964e+18,-0.0362204946577549,-0.014738970436155796,-12.098599433898926
1.7275279934685965e+18,-0.11322133988142014,0.01623113825917244,-12.13070011138916
1.7275279934715965e+18,0.04956476017832756,-0.02204519882798195,-12.163844108581543
1.7275279934775967e+18,-0.031135842204093933,0.007124092895537615,-12.187495231628418
1.7275279934835968e+18,-0.00037358474219217896,-0.08676665276288986,-12.111842155456543
1.727527993489597e+18,0.07400525361299515,-0.020318077877163887,-12.017451286315918
1.727527993495597e+18,0.023568017408251762,0.008296264335513115,-11.935966491699219
1.727527993498597e+18,0.009345918893814087,0.07413527369499207,-11.969958305358887
1.7275279935045972e+18,0.00043553387513384223,-0.036672644317150116,-11.957587242126465
1.7275279935105974e+18,-0.002540611894801259,-0.011898227035999298,-11.900307655334473
1.7275279935165975e+18,-0.038569871336221695,0.05689827725291252,-11.972084999084473
1.7275279935195976e+18,0.01454726979136467,0.029883770272135735,-11.85146713256836
1.7275279935255977e+18,0.02676878124475479,0.06292147934436798,-11.876240730285645
1.7275279935315978e+18,-0.05386257916688919,0.015103078447282314,-11.824566841125488
1.727527993537598e+18,-0.03984450176358223,0.05315006524324417,-11.815813064575195
1.727527993543598e+18,-0.014217481017112732,0.04225170239806175,-11.71030044555664
1.7275279935465981e+18,0.06719642877578735,0.06516570597887039,-11.758157730102539
1.7275279935525983e+18,0.033050600439310074,0.06991400569677353,-11.630212783813477
1.7275279935585984e+18,-0.056574150919914246,0.04467134550213814,-11.64726448059082
1.7275279935645985e+18,0.042297907173633575,-0.017978854477405548,-11.682632446289062
1.7275279935705987e+18,0.07951787114143372,-0.07212112843990326,-11.707538604736328
1.7275279935735987e+18,0.032549988478422165,0.02327142283320427,-11.613517761230469
1.7275279935795988e+18,-0.012654393911361694,-0.03461088240146637,-11.573296546936035
1.727527993585599e+18,-0.03184359893202782,-0.011856560595333576,-11.527897834777832
1.727527993591599e+18,-0.04346492886543274,0.023753784596920013,-11.546296119689941
1.7275279935975992e+18,0.0007060394855216146,-0.04320266470313072,-11.499917030334473
1.7275279936005993e+18,0.0013450821861624718,0.00800468772649765,-11.49111557006836
1.7275279936065994e+18,-0.01776108145713806,0.03398682549595833,-11.433770179748535
1.7275279936125996e+18,0.03148895874619484,-0.055422041565179825,-11.500112533569336
1.7275279936185997e+18,0.01973002217710018,0.022858446463942528,-11.464042663574219
1.7275279936245998e+18,0.035516589879989624,0.031021907925605774,-11.362935066223145
1.7275279936276e+18,-0.04628479480743408,-0.006637171376496553,-11.418736457824707
1.7275279936336e+18,0.03436118736863136,0.044479068368673325,-11.421537399291992
1.7275279936396e+18,-0.028233176097273827,-0.057532284408807755,-11.33087158203125
1.7275279936486003e+18,0.048490580171346664,0.019033493474125862,-11.265715599060059
1.7275279936576005e+18,-0.011854362674057484,0.049276165664196014,-11.308605194091797
1.7275279936666007e+18,-0.0014122247230261564,0.018956270068883896,-11.226082801818848
1.7275279936726008e+18,-0.07459985464811325,0.03214123472571373,-11.190683364868164
1.727527993681601e+18,0.018613852560520172,-0.06614121794700623,-11.265829086303711
1.7275279936906012e+18,0.006837538443505764,-0.04773548245429993,-11.270562171936035
1.7275279936966013e+18,-0.021270185708999634,-0.010140853933990002,-11.15404224395752
1.7275279937056015e+18,-0.016757631674408913,0.07540253549814224,-11.028538703918457
1.7275279937176018e+18,-0.04542133957147598,-0.0016924027586355805,-11.107292175292969
1.727527993726602e+18,-0.0036560052540153265,0.10810968279838562,-10.992853164672852
1.7275279937356022e+18,-0.008137622848153114,-0.035178665071725845,-11.061375617980957
1.7275279937446024e+18,-0.01555402297526598,-0.01998131535947323,-11.002204895019531
1.7275279937536026e+18,0.023912180215120316,0.0023855711333453655,-10.972635269165039
1.7275279937626028e+18,-0.014288852922618389,0.022620467469096184,-10.921907424926758
1.727527993771603e+18,-0.018324334174394608,-0.019221093505620956,-10.942338943481445
1.7275279937806031e+18,-0.007315448485314846,-0.09674935042858124,-10.930935859680176
1.7275279937896033e+18,-0.004888083320111036,0.006791745312511921,-10.836956024169922
1.7275279937986035e+18,-0.059648241847753525,-0.0915868878364563,-10.853371620178223
1.7275279938076037e+18,0.012987164780497551,0.06065553426742554,-10.766420364379883
1.727527993816604e+18,0.003930644132196903,0.015088994987308979,-10.817462921142578
1.727527993825604e+18,0.005421388894319534,0.03373195230960846,-10.806488037109375
1.7275279938346043e+18,-0.04303724318742752,-0.003661138704046607,-10.830812454223633
1.7275279938436045e+18,-0.026132280007004738,0.03233901783823967,-10.784111976623535
1.7275279938526047e+18,0.02370242401957512,0.04099879786372185,-10.762252807617188
1.7275279938616049e+18,-0.0067974659614264965,0.11221101880073547,-10.681729316711426
1.727527993870605e+18,0.04918086528778076,-0.04639481380581856,-10.655862808227539
1.7275279938796052e+18,0.041710108518600464,-0.013598756864666939,-10.631518363952637
1.7275279938886054e+18,0.02951500564813614,0.023434016853570938,-10.661171913146973
1.7275279938976056e+18,0.06462054699659348,-0.009723035618662834,-10.514694213867188
1.7275279939066058e+18,0.010774189606308937,0.027342308312654495,-10.557469367980957
1.727527993915606e+18,-0.0130944037809968,0.014988125301897526,-10.495545387268066
1.7275279939246062e+18,-0.03796883672475815,-0.017928067594766617,-10.535835266113281
1.7275279939366065e+18,-0.04899447783827782,-0.0349898599088192,-10.468836784362793
1.7275279939456067e+18,-0.03616933524608612,-0.05247732996940613,-10.566322326660156
1.7275279939546068e+18,0.0716870129108429,-0.08245192468166351,-10.558956146240234
1.727527993963607e+18,-0.07398620247840881,-0.016398364678025246,-10.50424861907959
1.7275279939726072e+18,0.06593970209360123,-0.0474705696105957,-10.440241813659668
1.7275279939816074e+18,-0.004272086545825005,0.027779847383499146,-10.479777336120605
1.7275279939906076e+18,-0.029993683099746704,-0.02949996292591095,-10.428531646728516
1.7275279939996078e+18,-0.02169257402420044,0.002287739422172308,-10.397211074829102
1.727527994008608e+18,-0.04465789347887039,-0.015034666284918785,-10.423493385314941
1.7275279940176082e+18,-0.0423356294631958,0.024445105344057083,-10.444673538208008
1.7275279940266084e+18,-0.0638389140367508,0.05178878456354141,-10.400935173034668
1.7275279940356086e+18,0.07816381752490997,0.009173491969704628,-10.463988304138184
1.7275279940446088e+18,0.07864940911531448,-0.06991855055093765,-10.46341323852539
1.727527994053609e+18,0.05790705978870392,-0.03636248782277107,-10.408008575439453
1.7275279940626092e+18,0.07094930857419968,-0.02894933894276619,-10.374725341796875
1.7275279940716093e+18,-0.03803110122680664,0.03455311805009842,-10.339608192443848
1.7275279940806095e+18,-0.009193986654281616,0.012338472530245781,-10.31336784362793
1.7275279940896097e+18,0.018720852211117744,-0.030223259702324867,-10.263514518737793
1.72752799409861e+18,0.0399513840675354,-0.003058064728975296,-10.312445640563965
1.72752799410761e+18,-0.011576522141695023,0.02689688466489315,-10.26722526550293
1.7275279941166103e+18,-0.04493741691112518,0.033634305000305176,-10.24779987335205
1.7275279941256105e+18,-0.017243575304746628,-0.03720572963356972,-10.290600776672363
1.7275279941346107e+18,-0.00457810191437602,-0.017827477306127548,-10.26599407196045
1.727527994143611e+18,0.004368920344859362,-0.0675920844078064,-10.231327056884766
1.727527994152611e+18,-0.003648224053904414,-0.07496466487646103,-10.273265838623047
1.7275279941586112e+18,0.02379344031214714,-0.021254941821098328,-10.192892074584961
1.7275279941676114e+18,-0.06966447830200195,0.0005785600515082479,-10.224319458007812
1.7275279941766116e+18,-0.03783082216978073,-0.015689127147197723,-10.125775337219238
1.7275279941856118e+18,-0.00452223839238286,0.06099286675453186,-10.168863296508789
1.727527994194612e+18,-0.015243847854435444,-0.04859862104058266,-10.165173530578613
1.7275279942036122e+18,-0.00996348075568676,0.014960283413529396,-10.182644844055176
1.7275279942126124e+18,0.02176002785563469,-0.01373472809791565,-10.1143798828125
1.7275279942216125e+18,0.02772027812898159,-0.02532893791794777,-10.168553352355957
1.7275279942306127e+18,-0.042563993483781815,-0.0385071337223053,-10.11736011505127
1.727527994239613e+18,0.025001343339681625,-0.03373517096042633,-10.077642440795898
1.727527994248613e+18,0.09167755395174026,0.03891146928071976,-10.087560653686523
1.7275279942546132e+18,0.030532997101545334,-0.012908355332911015,-10.055097579956055
1.7275279942606134e+18,0.08042806386947632,0.012499436736106873,-10.038620948791504
1.7275279942666135e+18,-0.0008660100284032524,0.010784858837723732,-10.0431547164917
1.7275279942756137e+18,-0.008663902059197426,-0.0013754485407844186,-10.027222633361816
1.7275279942816138e+18,-0.02933000773191452,0.01096153724938631,-10.097554206848145
1.727527994290614e+18,0.007493434939533472,-0.05430744215846062,-10.055673599243164
1.7275279942996142e+18,-0.08846642076969147,0.02854137308895588,-10.018271446228027
1.7275279943086144e+18,-0.008114609867334366,0.003890635911375284,-9.958050727844238
1.7275279943176146e+18,0.0008841986418701708,0.03684195876121521,-10.049359321594238
1.7275279943236147e+18,-0.01872652769088745,0.021268317475914955,-10.068700790405273
1.727527994332615e+18,0.014030147343873978,-0.030246911570429802,-10.023811340332031
1.727527994341615e+18,0.017587479203939438,0.06330150365829468,-10.04139518737793
1.7275279943506153e+18,0.007156253792345524,0.024550272151827812,-10.08310317993164
1.7275279943596155e+18,0.024841632694005966,0.02371322549879551,-10.001418113708496
1.7275279943656156e+18,-0.04802282154560089,-0.02633596770465374,-9.990557670593262
1.7275279943746158e+18,0.0029179234988987446,0.01247398927807808,-9.9307222366333
1.727527994383616e+18,0.022563371807336807,0.052785489708185196,-10.047121047973633
1.7275279943926162e+18,0.01111981924623251,-0.054381631314754486,-10.014150619506836
1.7275279944016164e+18,-0.03183392062783241,0.06412983685731888,-9.961177825927734
1.7275279944106166e+18,-0.019327599555253983,0.0464119128882885,-9.945850372314453
1.7275279944196168e+18,-0.0426965169608593,0.019091051071882248,-9.972679138183594
1.727527994428617e+18,-0.07370589673519135,-0.04056062921881676,-9.996540069580078
1.7275279944376172e+18,-0.047874439507722855,0.002775972941890359,-9.932560920715332
1.7275279944466173e+18,-0.012755273841321468,0.04767138510942459,-9.947967529296875
1.7275279944526175e+18,-0.06175316870212555,-0.018133852630853653,-9.914795875549316
1.7275279944616177e+18,0.019401684403419495,-0.03229725360870361,-9.962681770324707
1.7275279944706179e+18,0.020123260095715523,-0.04354783892631531,-9.920207023620605
1.727527994479618e+18,0.023639202117919922,-0.040467388927936554,-9.994538307189941
1.7275279944886182e+18,-0.05331600084900856,-0.020687546581029892,-9.934785842895508
1.7275279944976184e+18,-0.024073857814073563,-0.007422993890941143,-9.894763946533203
1.7275279945066186e+18,-0.0016707273898646235,-0.04911427199840546,-9.927581787109375
1.7275279945156188e+18,-0.022714264690876007,0.01717408560216427,-10.02601146697998
1.727527994524619e+18,-0.04975942149758339,-0.03478939086198807,-9.897513389587402
1.7275279945366193e+18,-0.007629547268152237,0.021238746121525764,-9.867591857910156
1.7275279945456195e+18,-0.020673604682087898,-0.001747090951539576,-9.909773826599121
1.7275279945546196e+18,-0.023129483684897423,-0.041103020310401917,-9.766493797302246
1.7275279945636198e+18,0.01544696930795908,0.013059609569609165,-9.943778038024902
1.72752799457262e+18,0.0788242369890213,0.03953064978122711,-9.903592109680176
1.7275279945816202e+18,-0.008714191615581512,0.015504217706620693,-9.92029857635498
1.7275279945906204e+18,-0.0287903044372797,-0.07495449483394623,-9.840437889099121
1.7275279945996206e+18,0.01575441285967827,0.02370963618159294,-9.885662078857422
1.7275279946086208e+18,-0.0332796536386013,-0.014690738171339035,-9.890517234802246
1.727527994617621e+18,-0.029287755489349365,-0.03083522617816925,-9.876596450805664
1.7275279946266212e+18,0.02766231819987297,0.014774223789572716,-9.859752655029297
1.7275279946356214e+18,0.015249696560204029,-0.07619521021842957,-9.848174095153809
1.7275279946446216e+18,0.033415645360946655,-0.009324269369244576,-9.821967124938965
1.7275279946536218e+18,0.10196206718683243,-0.0004549770674202591,-9.899670600891113
1.727527994662622e+18,-0.010012179613113403,0.029737668111920357,-9.844474792480469
1.7275279946716221e+18,0.07266347855329514,0.045144397765398026,-9.83238697052002
1.7275279946806223e+18,0.003292517503723502,-0.031593747437000275,-9.74743366241455
1.7275279946896225e+18,-0.0069595868699252605,0.035984065383672714,-9.78083610534668
1.7275279946956227e+18,0.030141102150082588,0.004029192961752415,-9.737510681152344
1.7275279947016228e+18,-0.012824314646422863,-0.005052607040852308,-9.84584903717041
1.727527994710623e+18,0.0395016223192215,0.02208413928747177,-9.7811918258667
1.7275279947196232e+18,-0.10311227291822433,0.04585251212120056,-9.786993980407715
1.7275279947256233e+18,0.05573323369026184,0.042909715324640274,-9.830354690551758
1.7275279947346235e+18,-0.03295576572418213,0.010721005499362946,-9.795607566833496
1.7275279947406236e+18,-0.03022192418575287,-0.01125029195100069,-9.71845531463623
1.7275279947466237e+18,-0.0019119606586173177,-0.0023975251242518425,-9.818458557128906
1.727527994755624e+18,-0.06561809778213501,-0.018522802740335464,-9.709722518920898
1.727527994761624e+18,0.040644146502017975,0.03410147875547409,-9.826805114746094
1.7275279947706243e+18,0.01934223622083664,0.04377065226435661,-9.870526313781738
1.7275279947796244e+18,0.056399766355752945,0.07246539741754532,-9.778541564941406
1.7275279947856246e+18,-0.039568740874528885,0.047766897827386856,-9.773849487304688
1.7275279947946248e+18,-0.04985584318637848,0.08227748423814774,-9.689319610595703
1.727527994803625e+18,0.06849820166826248,-0.011158025823533535,-9.78077507019043
1.7275279948126252e+18,-0.0007166485884226859,0.031018782407045364,-9.755189895629883
1.7275279948216253e+18,0.04267650842666626,0.006454940419644117,-9.76859188079834
1.7275279948306255e+18,-0.0032481146045029163,0.006899849511682987,-9.814815521240234
1.7275279948396257e+18,0.06782054156064987,-0.05717770382761955,-9.799225807189941
1.727527994848626e+18,0.004537444561719894,0.05119838938117027,-9.741035461425781
1.727527994857626e+18,-0.06117651239037514,0.03025049716234207,-9.832080841064453
1.7275279948666263e+18,0.03209090232849121,-0.01608474738895893,-9.779343605041504
1.7275279948756265e+18,-0.0348949171602726,-0.0037075637374073267,-9.781488418579102
1.7275279948876268e+18,-0.027243584394454956,-0.018380124121904373,-9.637188911437988
1.727527994896627e+18,0.045244600623846054,-0.029942207038402557,-9.781938552856445
1.7275279949056271e+18,0.06761839240789413,0.037565674632787704,-9.824259757995605
1.7275279949146273e+18,0.05602575093507767,0.04468868672847748,-9.814661026000977
1.7275279949236275e+18,0.0744498074054718,0.023704763501882553,-9.732755661010742
1.7275279949326277e+18,0.0014996618265286088,-0.06716105341911316,-9.700494766235352
1.727527994941628e+18,-0.11479140818119049,0.014703943394124508,-9.71074390411377
1.727527994950628e+18,0.0003350491460878402,-0.04800613224506378,-9.785870552062988
1.7275279949596283e+18,-0.0297026839107275,0.005743980407714844,-9.760414123535156
1.7275279949686285e+18,0.007303759455680847,0.006412859074771404,-9.73027229309082
1.7275279949806287e+18,0.012412025593221188,-0.031068552285432816,-9.687806129455566
1.727527994989629e+18,0.07179670035839081,0.00807608850300312,-9.717497825622559
1.727527994998629e+18,-0.010906857438385487,-0.004444872494786978,-9.760090827941895
1.7275279950076293e+18,0.008793909102678299,0.009996130131185055,-9.683134078979492
1.7275279950196296e+18,-0.03990843892097473,0.022536838427186012,-9.770188331604004
1.7275279950286298e+18,0.01511920802295208,-0.005243844352662563,-9.703625679016113
1.72752799503763e+18,-0.06518350541591644,-0.019490091130137444,-9.745683670043945
1.7275279950466301e+18,-0.0047701019793748856,0.056156694889068604,-9.750984191894531
1.7275279950556303e+18,-0.0028546079993247986,-0.0350385420024395,-9.750235557556152
1.7275279950616305e+18,0.02113354206085205,-0.06102728843688965,-9.712687492370605
1.7275279950736307e+18,0.030781712383031845,-0.05700419098138809,-9.6658935546875
1.727527995082631e+18,0.13338100910186768,0.021202871575951576,-9.738631248474121
1.727527995091631e+18,0.011639263480901718,0.008529090322554111,-9.836163520812988
1.7275279951006313e+18,-0.01012977585196495,0.0025224618148058653,-9.822394371032715
1.7275279951096315e+18,0.10366147756576538,0.06003172695636749,-9.82588005065918
1.7275279951186317e+18,-0.06885185837745667,-0.0179143026471138,-9.88182544708252
1.727527995127632e+18,0.01569288782775402,0.017473522573709488,-9.896647453308105
1.727527995136632e+18,-0.038953930139541626,0.07694197446107864,-9.866207122802734
1.7275279951456323e+18,-0.007041220087558031,-0.039860136806964874,-9.879191398620605
1.7275279951546324e+18,0.06679248064756393,-0.003090386278927326,-9.805501937866211
1.7275279951666327e+18,0.016169117763638496,0.003536144969984889,-9.934494972229004
1.727527995175633e+18,0.00528322858735919,-0.0035247092600911856,-9.794529914855957
1.727527995184633e+18,0.05282064154744148,-0.04302605614066124,-9.871297836303711
1.7275279951936333e+18,-0.01493198424577713,0.04452456161379814,-9.845014572143555
1.7275279952056335e+18,-0.007889390923082829,0.06603426486253738,-9.886491775512695
1.7275279952146337e+18,0.06834599375724792,0.0008445440325886011,-9.801778793334961
1.727527995223634e+18,-0.014735602773725986,0.004325277637690306,-9.830873489379883
1.727527995232634e+18,-0.043359752744436264,0.022876977920532227,-9.728667259216309
1.7275279952416343e+18,0.02350088208913803,0.022780047729611397,-9.77380657196045
1.7275279952506345e+18,-0.0711834654211998,-0.01633392833173275,-9.764355659484863
1.7275279952596347e+18,0.04180122911930084,0.01766124553978443,-9.711873054504395
1.727527995268635e+18,-0.029796024784445763,-0.058377839624881744,-9.878686904907227
1.727527995277635e+18,-0.024041036143898964,-0.01948591135442257,-9.751752853393555
1.7275279952866353e+18,-0.13034839928150177,-0.05943718180060387,-9.746552467346191
1.7275279952956355e+18,-0.039009902626276016,0.03811844438314438,-9.819308280944824
1.7275279953046356e+18,0.09077052026987076,0.02890063263475895,-9.820298194885254
1.7275279953106358e+18,0.0113637400791049,-0.01990748941898346,-9.780840873718262
1.727527995319636e+18,0.01903507672250271,-0.03812770918011665,-9.769014358520508
1.727527995325636e+18,0.05381759628653526,-0.09743427485227585,-9.760628700256348
1.7275279953346363e+18,0.02763253264129162,0.04563052952289581,-9.784839630126953
1.7275279953406364e+18,0.01781230792403221,-0.03356258198618889,-9.74368667602539
1.7275279953496366e+18,-0.020060814917087555,-0.04279521480202675,-9.777385711669922
1.7275279953586368e+18,0.06126575544476509,-0.06843654066324234,-9.702856063842773
1.727527995364637e+18,0.007952016778290272,0.038016412407159805,-9.803526878356934
1.727527995373637e+18,0.02639097161591053,0.017120270058512688,-9.750468254089355
1.7275279953826373e+18,-0.006404513493180275,0.04896840825676918,-9.841753005981445
1.7275279953916375e+18,-0.09652754664421082,-0.03406713157892227,-9.805179595947266
1.7275279953976376e+18,-0.00687715457752347,-0.0112374946475029,-9.687138557434082
1.7275279954066378e+18,-0.029091529548168182,-0.01586083695292473,-9.734180450439453
1.727527995415638e+18,-0.0009334082715213299,-0.01441898848861456,-9.70494270324707
1.7275279954246382e+18,-0.028652265667915344,0.016030259430408478,-9.674347877502441
1.7275279954336384e+18,0.03733877092599869,0.0499512180685997,-9.81490421295166
1.7275279954396385e+18,-0.02641203999519348,-0.027162496000528336,-9.78948974609375
1.7275279954486387e+18,0.02329033799469471,-0.023799652233719826,-9.70175838470459
1.7275279954546388e+18,0.06088222190737724,0.011675638146698475,-9.777116775512695
1.727527995463639e+18,0.0206015445291996,-0.004500997718423605,-9.70085620880127
1.7275279954726392e+18,0.007138142362236977,0.0017282358603551984,-9.717277526855469
1.7275279954786394e+18,-0.016936304047703743,-0.030057886615395546,-9.846349716186523
1.7275279954876396e+18,0.028655970469117165,0.011526763439178467,-9.756442070007324
1.7275279954966397e+18,-0.007323307916522026,0.05454707145690918,-9.80124568939209
1.7275279955026399e+18,0.026758549734950066,-0.06512696295976639,-9.73649787902832
1.72752799551164e+18,-0.038549695163965225,-0.07199175655841827,-9.694762229919434
1.7275279955206403e+18,0.033866122364997864,-0.008628119714558125,-9.696818351745605
1.7275279955266404e+18,0.009839330799877644,0.07548534125089645,-9.690183639526367
1.7275279955356406e+18,-0.012504519894719124,3.8336755096679553e-05,-9.78134536743164
1.7275279955446408e+18,0.03576641157269478,0.0745653510093689,-9.779149055480957
1.727527995550641e+18,0.01778716780245304,-0.05509009584784508,-9.771953582763672
1.727527995559641e+18,-0.06730597466230392,-0.023840002715587616,-9.70076847076416
1.7275279955686413e+18,-0.0268465094268322,0.024850334972143173,-9.70063304901123
1.7275279955746414e+18,0.027009131386876106,-0.030085096135735512,-9.792862892150879
1.7275279955836416e+18,-0.0890725702047348,0.06422266364097595,-9.748950004577637
1.7275279955926418e+18,0.008202975615859032,0.0456361398100853,-9.67536735534668
1.727527995598642e+18,0.017365748062729836,0.02220071479678154,-9.775029182434082
1.727527995607642e+18,-0.05480099841952324,-0.06639697402715683,-9.753493309020996
1.7275279956166423e+18,0.0022262888960540295,0.018040280789136887,-9.755656242370605
1.7275279956256425e+18,0.017722388729453087,-0.021818701177835464,-9.755685806274414
1.7275279956316426e+18,0.007554643787443638,0.03852316364645958,-9.699010848999023
1.7275279956406428e+18,-0.046253614127635956,0.012468098662793636,-9.687678337097168
1.727527995649643e+18,0.001530890935100615,-0.001789967529475689,-9.723949432373047
1.7275279956556431e+18,-0.0021917237900197506,-0.05044086277484894,-9.788525581359863
1.7275279956646433e+18,-0.02072605863213539,0.037565067410469055,-9.859825134277344
1.7275279956736435e+18,-0.04442298412322998,0.04157880321145058,-9.739455223083496
1.7275279956826437e+18,0.1168365329504013,0.06569953262805939,-9.725083351135254
1.727527995691644e+18,-0.0006063184700906277,-0.0024568545632064342,-9.758620262145996
1.7275279957036442e+18,0.0319313146173954,-0.010733135044574738,-9.739936828613281
1.7275279957126444e+18,-0.0037114780861884356,0.004152435343712568,-9.765052795410156
1.7275279957246446e+18,-0.01935347355902195,-0.045879386365413666,-9.843799591064453
1.7275279957336448e+18,-0.009975943714380264,-0.014794636517763138,-9.753368377685547
1.727527995742645e+18,-0.02526392787694931,-0.04474091902375221,-9.75837516784668
1.7275279957516452e+18,0.07215804606676102,0.0788160115480423,-9.683432579040527
1.7275279957606454e+18,0.013804946094751358,0.02498168870806694,-9.752178192138672
1.7275279957696456e+18,-0.015678204596042633,0.037673499435186386,-9.805113792419434
1.7275279957786458e+18,0.056173328310251236,-0.013651545159518719,-9.730945587158203
1.727527995787646e+18,0.0031159608624875546,-0.07518158853054047,-9.69520092010498
1.7275279957966461e+18,-0.014758994802832603,-0.0301457978785038,-9.702064514160156
1.7275279958086464e+18,-0.009339559823274612,-0.02832886576652527,-9.785449028015137
1.7275279958176466e+18,-0.00550796976312995,0.014922727830708027,-9.828680992126465
1.7275279958296468e+18,-0.0067616356536746025,0.004783731419593096,-9.914399147033691
1.727527995838647e+18,0.00802336074411869,-0.03941184654831886,-9.767539978027344
1.7275279958476472e+18,-0.0406232587993145,-0.00838159117847681,-9.764699935913086
1.7275279958566474e+18,-0.044318683445453644,-0.10231830924749374,-9.756357192993164
1.7275279958656476e+18,0.0747314840555191,-0.05725070834159851,-9.811248779296875
1.727527995877648e+18,-0.007556125055998564,-0.049877580255270004,-9.734130859375
1.727527995886648e+18,-0.006022039335221052,-0.012585459277033806,-9.751886367797852
1.7275279958956483e+18,0.014483151026070118,0.05506644397974014,-9.71400260925293
1.7275279959046484e+18,0.011546658352017403,-0.015573554672300816,-9.756753921508789
1.7275279959106486e+18,-0.01177539024502039,-0.018581440672278404,-9.769621849060059
1.7275279959226488e+18,0.0420687310397625,-0.046646133065223694,-9.73465633392334
1.727527995931649e+18,0.07642429322004318,-0.025428054854273796,-9.768497467041016
1.7275279959406492e+18,0.012961933389306068,-0.015214716084301472,-9.654953002929688
1.7275279959496494e+18,-2.0604704332072288e-05,-0.07614192366600037,-9.749687194824219
1.7275279959556495e+18,0.030460912734270096,0.07738776504993439,-9.730602264404297
1.7275279959646497e+18,-0.09448239207267761,0.08936221152544022,-9.849082946777344
1.72752799597365e+18,0.02115613780915737,0.040709178894758224,-9.778563499450684
1.72752799598265e+18,-0.014753946103155613,0.021555664017796516,-9.797805786132812
1.7275279959916503e+18,-0.04453565552830696,-0.06687922775745392,-9.73129940032959
1.7275279960006505e+18,-0.023318640887737274,0.05596625804901123,-9.862107276916504
1.7275279960096507e+18,-0.03944651782512665,0.06595423072576523,-9.853113174438477
1.727527996018651e+18,0.07516545057296753,-0.055934153497219086,-9.739160537719727
1.727527996027651e+18,0.017973698675632477,-0.05912090465426445,-9.788610458374023
1.7275279960366513e+18,-0.03487173467874527,-0.017444917932152748,-9.752702713012695
1.7275279960456515e+18,-0.022781817242503166,0.06412593275308609,-9.757110595703125
1.7275279960546516e+18,0.033975545316934586,0.04218672215938568,-9.736903190612793
1.7275279960636518e+18,0.057107992470264435,-0.061266619712114334,-9.722949981689453
1.727527996075652e+18,0.037382449954748154,-0.0017080617835745215,-9.834303855895996
1.7275279960846523e+18,0.05138666555285454,-0.026197241619229317,-9.733494758605957
1.7275279960936525e+18,-0.010192678309977055,0.03714954853057861,-9.745878219604492
1.7275279961026527e+18,0.006204897537827492,-0.012900394387543201,-9.849603652954102
1.7275279961116529e+18,-0.020711099728941917,-0.023748330771923065,-9.770668029785156
1.727527996120653e+18,-0.0084568802267313,-0.030095119029283524,-9.789621353149414
1.7275279961296532e+18,-0.08622562885284424,-0.000198955531232059,-9.739434242248535
1.7275279961416535e+18,0.02772054821252823,0.10454104095697403,-9.737278938293457
1.7275279961506537e+18,-0.01188414916396141,0.017226846888661385,-9.763010025024414
1.7275279961566538e+18,0.06087829917669296,0.012198316864669323,-9.795613288879395
1.727527996165654e+18,0.011540936306118965,-0.005230707582086325,-9.789981842041016
1.7275279961746542e+18,-0.0038309027440845966,-0.05940131098031998,-9.766911506652832
1.7275279961836544e+18,-0.030993420630693436,0.021029934287071228,-9.779739379882812
1.7275279961956547e+18,-0.05225522071123123,0.021400408819317818,-9.684966087341309
1.7275279962046548e+18,-0.018619902431964874,-0.00015267681737896055,-9.885736465454102
1.727527996213655e+18,0.024880584329366684,-0.0016961931250989437,-9.760591506958008
1.7275279962226552e+18,-0.008880446664988995,0.021838489919900894,-9.772100448608398
1.7275279962316554e+18,0.0698607861995697,-0.017709102481603622,-9.700582504272461
1.7275279962406556e+18,0.029541298747062683,0.07598640769720078,-9.740059852600098
1.7275279962496558e+18,0.024911610409617424,-0.004392558243125677,-9.807082176208496
1.727527996261656e+18,0.027888286858797073,-0.07350610941648483,-9.7344388961792
1.7275279962706563e+18,-0.015257133170962334,-0.018751176074147224,-9.764338493347168
1.7275279962766564e+18,-0.04447852820158005,-0.008223028853535652,-9.75971508026123
1.7275279962886566e+18,0.10686350613832474,-0.03233969956636429,-9.818853378295898
