timestamp,gyro_x,gyro_y,gyro_z
1.7275279875944712e+18,-0.002182861790060997,0.0033862695563584566,-0.0018880099523812532
1.7275279876034714e+18,-0.0002437710645608604,0.001716224243864417,0.0006072124815545976
1.7275279876064714e+18,-0.00022526172688230872,-0.0024896697141230106,-0.0030037807300686836
1.7275279876124716e+18,0.0005609386716969311,-0.0009367335005663335,0.0006277074571698904
1.7275279876184717e+18,0.0020150076597929,-0.002128179185092449,-0.0002584084577392787
1.7275279876244718e+18,-0.0015894718235358596,0.000931756803765893,0.0009245986584573984
1.727527987630472e+18,0.0007206926820799708,-0.0026800879277288914,7.68498721299693e-05
1.727527987633472e+18,0.0018465863540768623,-0.0007183575071394444,-0.002021146472543478
1.727527987639472e+18,0.0003880743752233684,-0.0013192954938858747,0.00041284802136942744
1.7275279876454723e+18,-0.0018937811255455017,-0.003223029663786292,4.9153619329445064e-05
1.7275279876514724e+18,-0.0024103319738060236,-0.0017291214317083359,0.0005588752101175487
1.7275279876574725e+18,-0.0021311950404196978,-0.0022865531500428915,-0.001943529350683093
1.7275279876634726e+18,0.0016224540304392576,0.0015961799072101712,-0.0011106011224910617
1.7275279876664727e+18,-0.0005997410044074059,-0.001249890890903771,-0.0016143626999109983
1.7275279876724728e+18,-0.0009290124289691448,0.0010184007696807384,-0.002712660003453493
1.727527987678473e+18,0.00048222418990917504,-0.0001694772217888385,-0.0008707086089998484
1.727527987684473e+18,-0.0010948864510282874,-3.19344580930192e-05,0.0012065902119502425
1.7275279876904732e+18,-0.0015231224242597818,-0.0009134295396506786,0.0002648309455253184
1.7275279876964733e+18,0.0012256266782060266,-0.0014198852004483342,0.00016383321781177074
1.7275279877024735e+18,-0.0020118907559663057,0.000880376435816288,-0.0006333772907964885
1.7275279877054735e+18,0.0007379246526397765,0.0019392744870856404,-0.0023007290437817574
1.7275279877114737e+18,-0.002312904456630349,0.0018693484598770738,0.0005203261971473694
1.7275279877174738e+18,-0.0030061607249081135,-0.0013678916729986668,0.000936540134716779
1.727527987723474e+18,-0.0010105452965945005,-0.0010944880777969956,0.0004827137745451182
1.727527987729474e+18,-0.0015420184936374426,0.004545122850686312,0.00028459393070079386
1.727527987732474e+18,0.001955699874088168,-0.0019918247126042843,-0.0007557476637884974
1.7275279877414743e+18,0.001933352556079626,0.002574347658082843,-9.923597826855257e-05
1.7275279877474744e+18,0.0021568741649389267,0.0017552940407767892,-0.0014788992702960968
1.7275279877504745e+18,0.0012573918793350458,0.0005943330470472574,0.0020848135463893414
1.7275279877564746e+18,-0.0009003159939311445,0.00025635689962655306,0.003124052193015814
1.7275279877624748e+18,-2.325995228602551e-05,-0.0036723921075463295,0.0004897433100268245
1.727527987768475e+18,0.001950311940163374,-0.002615914912894368,0.0011371468426659703
1.727527987774475e+18,-0.0008316920138895512,-0.0003377356624696404,-0.00012284750118851662
1.7275279877804751e+18,-0.0008239210583269596,-0.00026336609153077006,0.0014187011402100325
1.7275279877834752e+18,0.0005423019756563008,-0.000985580962151289,0.002704379614442587
1.7275279877894753e+18,-0.0047201854176819324,0.0012166480300948024,9.619128104532138e-05
1.7275279877954755e+18,0.0020467806607484818,-0.00037390762008726597,0.00011585814354475588
1.7275279878014756e+18,-0.0024820310063660145,-0.0025704093277454376,0.0014709848910570145
1.7275279878074757e+18,0.0015848800539970398,-0.0015404701698571444,0.0008038121741265059
1.7275279878104758e+18,-0.0008645177003927529,0.0022283352445811033,-0.00017503168783150613
1.727527987816476e+18,0.0007145794807001948,-0.0014813776360824704,-0.0018944940529763699
1.727527987822476e+18,-0.0032373180147260427,-0.0005553681403398514,-0.001373620587401092
1.7275279878284762e+18,-0.0012458172859624028,0.0009424549643881619,-0.0013398240553215146
1.7275279878344763e+18,-0.0034842444583773613,-0.003907741513103247,0.0010639324318617582
1.7275279878374764e+18,-0.003686947049573064,-0.0005497199599631131,-0.003452755743637681
1.7275279878434765e+18,-0.0016475763404741883,-0.0005622918833978474,0.0014204896287992597
1.7275279878494766e+18,-0.000907712965272367,0.0003323493292555213,0.0010539987124502659
1.7275279878554767e+18,-0.0014629237120971084,-0.0005645168712362647,-0.0015732022002339363
1.7275279878584768e+18,0.0005223555490374565,-0.0001698826818028465,0.00011016257485607639
1.727527987864477e+18,-0.003086020238697529,0.001396801439113915,0.0015005252789705992
1.727527987870477e+18,0.0006195901078172028,0.00036937950062565506,-0.000602053536567837
1.7275279878764772e+18,-0.003163703717291355,-0.00038020554347895086,0.0018735217163339257
1.7275279878824773e+18,-0.00017626512271817774,-0.0028902357444167137,0.0011283564381301403
1.7275279878854774e+18,-0.001239506877027452,0.0008076009689830244,-5.8177243772661313e-05
1.7275279878914775e+18,-0.0037595739122480154,0.00017684880003798753,0.0002967561304103583
1.7275279878974776e+18,0.0026581112761050463,0.000446248275693506,0.0009054495603777468
1.7275279879004777e+18,0.0017909443704411387,-0.0016318837879225612,-0.0020054802298545837
1.7275279879064778e+18,-3.1446965294890106e-05,0.0011965278536081314,-0.0013205752475187182
1.727527987912478e+18,0.000911651412025094,0.00026535463985055685,0.001460017403587699
1.727527987918478e+18,0.000702584395185113,-0.0021665741223841906,0.0027533890679478645
1.7275279879244782e+18,0.0005505893495865166,0.0014655019622296095,0.0006608358817175031
1.7275279879274783e+18,0.00042320130160078406,0.0012834930093958974,0.000427606632001698
1.7275279879334784e+18,0.002759292023256421,-0.0006673769094049931,0.00024555306299589574
1.7275279879394785e+18,0.0012802737765014172,-0.00034811627119779587,0.0017053622286766768
1.7275279879454787e+18,0.001043112832121551,0.00044160959077998996,-0.0011766907991841435
1.7275279879484787e+18,-0.0012543045450001955,-0.002801513532176614,0.00041550479363650084
1.7275279879544788e+18,-0.0015963531332090497,-3.494834527373314e-05,0.0023472660686820745
1.727527987960479e+18,-0.0014396519400179386,-0.0007428888347931206,0.00299895484931767
1.727527987963479e+18,-0.0006568579119630158,-0.0004609507159329951,-0.0007340905722230673
1.7275279879694792e+18,0.00030722341034561396,-0.0005993447848595679,-0.0004514465981628746
1.7275279879754793e+18,0.0012595601147040725,-0.0006653544842265546,0.0026392515283077955
1.7275279879814794e+18,-4.843781789531931e-05,0.00018664445087779313,0.0008051950135268271
1.7275279879874796e+18,-0.0004806880606338382,-0.00018073568935506046,-0.000946200336329639
1.7275279879904796e+18,-0.001626378856599331,0.0003995729493908584,0.0022768895141780376
1.7275279879964797e+18,-0.0007077049231156707,-0.0011648975778371096,0.0018779922975227237
1.7275279880024799e+18,0.0017434797482565045,0.0007916424656286836,-0.000598507933318615
1.72752798800848e+18,0.0020594182424247265,0.0014446343993768096,0.001422374858520925
1.7275279880144801e+18,0.0024254044983536005,-0.00021875585662201047,0.0009238938218913972
1.7275279880174802e+18,0.0010697408579289913,0.0007969748694449663,5.384218820836395e-05
1.7275279880234803e+18,6.13091469858773e-05,-0.0016460715560242534,-0.002651651157066226
1.7275279880294804e+18,0.0021361710969358683,0.00020723075431305915,0.0008959424449130893
1.7275279880354806e+18,-0.00023100113321561366,0.0017747627571225166,-0.00046698650112375617
1.7275279880384806e+18,0.0019338871352374554,0.0005198057624511421,-0.002692749025300145
1.7275279880444808e+18,0.0022557908669114113,-0.0027496095281094313,0.0008487140294164419
1.727527988050481e+18,0.0009179387707263231,0.0004053603915963322,0.0004740438889712095
1.727527988056481e+18,0.0005032567423768342,0.0008914102800190449,0.0008327287505380809
1.727527988059481e+18,0.0015166279627010226,0.0009744633571244776,-0.00016561226220801473
1.7275279880654812e+18,-0.0008030435419641435,0.002217130735516548,0.0018229923443868756
1.7275279880714813e+18,-0.00016188822337426245,-0.003412165679037571,0.0034072366543114185
1.7275279880774815e+18,-0.0008598209242336452,-0.0007467987015843391,0.001242013880982995
1.7275279880804815e+18,-0.003026385325938463,0.001548228319734335,-0.0004504445823840797
1.7275279880864817e+18,0.0015038629062473774,-0.0019818043801933527,0.0010152877075597644
1.7275279880924818e+18,-0.0009599528857506812,-0.001122387358918786,0.0006501933094114065
1.7275279880954819e+18,0.0013021540362387896,0.0002264611393911764,0.0016658363165333867
1.727527988101482e+18,-0.0016032267594709992,0.0022493472788482904,-0.0019361150916665792
1.727527988107482e+18,0.0009947539074346423,0.0005573781090788543,0.0034592209849506617
1.7275279881134822e+18,0.0005829884903505445,0.0012675437610596418,-0.0001230755151482299
1.7275279881164823e+18,-0.0003343788266647607,-0.0005583659512922168,-0.00044903773232363164
1.7275279881224824e+18,-0.001443027169443667,-0.0012142079649493098,-0.0012632105499505997
1.7275279881284826e+18,-0.0012964081251993775,-0.001421137247234583,-0.002787359757348895
1.7275279881314826e+18,0.0011943704448640347,0.0006013175006955862,-0.0005699442117474973
1.7275279881374828e+18,-0.0007116632768884301,0.00045633368426933885,0.0005132450605742633
1.727527988143483e+18,0.0028231870383024216,0.00012547042570076883,-0.0003910329833161086
1.727527988149483e+18,-0.00020863644022028893,0.0037105237133800983,0.00027512075030244887
1.7275279881554831e+18,0.0017570630880072713,-0.001396283390931785,-0.0005972009967081249
1.7275279881614833e+18,-0.000821505906060338,0.00043877019197680056,0.0009969795355573297
1.7275279881644833e+18,0.00011359977361280471,-0.001045835204422474,-0.0029557819943875074
1.7275279881704835e+18,0.0015843792352825403,0.00038608111208304763,-0.0014144403394311666
1.7275279881764836e+18,-0.0005373216117732227,-0.003592402208596468,-0.0014770160196349025
1.7275279881794836e+18,-0.0028589018620550632,0.002737932140007615,0.0017196255503222346
1.7275279881854838e+18,0.0012591544073075056,-0.0018673682352527976,0.002101003425195813
1.727527988191484e+18,-0.0038387945387512445,-0.0018117596628144383,-0.003183435183018446
1.727527988197484e+18,4.3032996472902596e-05,-0.000621426326688379,-0.003336378838866949
1.7275279882034842e+18,0.00017278216546401381,-0.0010581421665847301,0.0016477290773764253
1.7275279882094843e+18,-0.001535228919237852,0.0009722099639475346,-1.1144928066642024e-05
1.7275279882124844e+18,0.0011939032701775432,0.0008950284100137651,-8.546382014174014e-05
1.7275279882184845e+18,-0.0021608155220746994,-0.001298180897720158,0.0008530406630598009
1.7275279882244846e+18,0.0013843103079125285,-0.0005921194097027183,0.0010189032182097435
1.7275279882274847e+18,0.0007027307292446494,0.00019192157196812332,0.0010391512187197804
1.7275279882334848e+18,-0.0004562441899906844,-9.28730150917545e-05,-0.0006551287951879203
1.727527988239485e+18,0.0008258576272055507,0.0009870203211903572,0.0010958787752315402
1.727527988245485e+18,4.0669707232154906e-05,0.0015589612303301692,0.0001984112459467724
1.727527988248485e+18,0.0015022718580439687,-9.120589675148949e-05,-0.0007070167339406908
1.7275279882544852e+18,0.0027851113118231297,0.00035490241134539247,0.00011449072189861909
1.7275279882604854e+18,-0.00027010514168068767,-0.002210616134107113,0.0002720844931900501
1.7275279882664855e+18,-0.001223985105752945,-0.00252684042789042,0.0022999083157628775
1.7275279882724856e+18,0.0023649251088500023,-0.0017382169608026743,-3.855718023260124e-05
1.7275279882784858e+18,0.00015113240806385875,-0.0002836368221323937,0.0012144214706495404
1.7275279882814858e+18,0.0016358522698283195,0.0012295327614992857,-0.0009862376609817147
1.727527988287486e+18,0.002596046542748809,-0.0010087377158924937,0.0016490650596097112
1.727527988293486e+18,0.003268846310675144,0.0015439556445926428,-0.0022679849062114954
1.7275279882964861e+18,-0.0013699656119570136,-0.0018800756661221385,-0.0038491718005388975
1.7275279883024863e+18,-0.0007400330505333841,0.00032993362401612103,-0.0009695439366623759
1.7275279883084864e+18,0.0007297118427231908,0.002065214328467846,-0.0015221589710563421
1.7275279883144865e+18,0.00045370656880550086,-0.003494991920888424,0.0013261253479868174
1.7275279883204867e+18,0.0012454941170290112,-0.002047248650342226,-0.001374377985484898
1.7275279883234867e+18,0.00022798622376285493,-5.684160714736208e-05,0.00019620264356490225
1.7275279883294868e+18,-0.0008212437969632447,0.0017838873900473118,-0.0011225072667002678
1.727527988335487e+18,-0.0023445570841431618,-0.0010518848430365324,-0.0006815590895712376
1.727527988341487e+18,-0.0008384707616642118,0.0017952595371752977,0.00037632137537002563
1.7275279883474872e+18,6.495320121757686e-05,0.0005044667632319033,0.002097927965223789
1.7275279883534874e+18,3.5452274460112676e-05,-0.0017620882717892528,0.00044516532216221094
1.7275279883594875e+18,-0.0003873701498378068,6.226608093129471e-05,-0.0021236988250166178
1.7275279883624876e+18,0.0007410792750306427,-0.0014344578376039863,-0.0007923869416117668
1.7275279883684877e+18,-0.0002923193387687206,0.0013907749671489,0.0008797416812740266
1.7275279883744878e+18,-0.001279501710087061,0.001246379571966827,-0.0011707635130733252
1.727527988377488e+18,0.00017937753000296652,-0.00012143569620093331,0.0012882193550467491
1.727527988383488e+18,-0.0014953413046896458,-0.000443527678726241,0.0014507181476801634
1.727527988389488e+18,0.0005930148181505501,0.0032811465207487345,-0.002610263181850314
1.7275279883954883e+18,-0.0001640544505789876,-0.001670432509854436,-0.0007524768589064479
1.7275279884014884e+18,-0.0006448247004300356,0.0004305684706196189,0.0006220948416739702
1.7275279884044884e+18,-0.0002940611739177257,0.00043317885138094425,-0.0017426530830562115
1.7275279884104886e+18,0.0009433823870494962,-0.0014807810075581074,0.00014671550889033824
1.7275279884164887e+18,-0.004831953439861536,-0.0009797165403142571,0.0013313002418726683
1.7275279884194888e+18,1.724855974316597e-05,0.0023493238259106874,0.0020993149373680353
1.727527988425489e+18,-0.0030001418199390173,-0.0020496544893831015,-0.0009346873848699033
1.727527988431489e+18,-0.0005491290939971805,-0.0004258526605553925,0.0019399105804041028
1.7275279884374892e+18,0.00010360879969084635,0.0015424687881022692,0.0015398759860545397
1.7275279884434893e+18,0.0013794517144560814,-0.001612291089259088,-0.0015293851029127836
1.7275279884494894e+18,0.0018727162387222052,-0.0003724404377862811,-0.0019506750395521522
1.7275279884524895e+18,0.0027769196312874556,-0.00022841818281449378,-0.000574423698708415
1.7275279884584896e+18,0.0018478501588106155,0.0007448089891113341,-0.0006961299804970622
1.7275279884644897e+18,0.0005990657373331487,-0.0013673179782927036,-0.00026177181280218065
1.7275279884674898e+18,-0.0005756450700573623,-0.00040337699465453625,-0.0013597755460068583
1.72752798847349e+18,-0.0031025661155581474,0.003383896080777049,0.003022934077307582
1.72752798847949e+18,-0.0007331520318984985,-0.0007322266465052962,0.0011010909220203757
1.7275279884854902e+18,-0.00013095665781293064,9.370254701934755e-05,0.0006612623110413551
1.7275279884914903e+18,-0.0010889327386394143,0.0025153395254164934,0.0010276363464072347
1.7275279884944904e+18,0.002456806832924485,0.00039309958810918033,-0.00012027648335788399
1.7275279885004905e+18,-0.00138977007009089,9.383717406308278e-05,0.0008273326675407588
1.7275279885064906e+18,0.001524559105746448,0.00013309302448760718,0.0015838269609957933
1.7275279885124908e+18,-0.0014814726309850812,0.0007678340771235526,0.00016323001182172447
1.7275279885154908e+18,0.0012162313796579838,-0.0032982612028717995,0.002351901261135936
1.727527988521491e+18,-6.0727303207386285e-05,1.017673912429018e-05,-0.0010103120002895594
1.727527988527491e+18,0.0022172494791448116,-0.00161844864487648,-0.0009029500070028007
1.7275279885334912e+18,-0.0009611021378077567,8.813720342004672e-06,-0.001477793208323419
1.7275279885364913e+18,-0.00015853549120947719,-0.0008503035642206669,0.00047059383359737694
1.7275279885424914e+18,-0.00272601586766541,0.0010052474681288004,0.0015638598706573248
1.7275279885484915e+18,-0.0010534877656027675,-0.0005215747514739633,1.0066776667372324e-05
1.7275279885544916e+18,0.002210962353274226,0.0008955324301496148,0.0006632995209656656
1.7275279885574917e+18,0.00020115291408728808,0.0010364896152168512,0.0009626271785236895
1.7275279885634918e+18,-0.0008931725169532001,-5.3317966376198456e-05,0.001541605801321566
1.727527988569492e+18,0.0005947065656073391,0.0007529965951107442,0.0006892654928378761
1.727527988575492e+18,0.001787924556992948,-0.0008478356176055968,0.001365977106615901
1.7275279885814922e+18,-0.0005879418458789587,0.00029405899113044143,0.0005207740468904376
1.7275279885874924e+18,0.0016041180351749063,-0.0032812324352562428,0.0007603300036862493
1.7275279885904924e+18,-0.0025450231041759253,-0.0011871536262333393,0.0003435407124925405
1.7275279885964925e+18,-0.0009300819947384298,0.0015318822115659714,-0.00031103339279070497
1.7275279886024927e+18,0.00038996245712041855,0.0006031164084561169,0.001914971973747015
1.7275279886054927e+18,-1.5513607650063932e-05,0.0006572466809302568,-0.002476791385561228
1.7275279886114929e+18,0.0001064569951267913,-0.0023453058674931526,-0.0019838048610836267
1.727527988617493e+18,-0.0021630157716572285,-0.0012787122977897525,1.7267921066377312e-05
1.727527988620493e+18,-0.0036278809420764446,0.00042444709106348455,0.0013701881980523467
1.7275279886264932e+18,0.0011800529900938272,0.0004826157237403095,0.004532527644187212
1.7275279886324933e+18,-0.0009644139208830893,-0.0005938327522017062,0.0013652242487296462
1.7275279886384934e+18,0.002533003920689225,0.0016010862309485674,0.0007272260845638812
1.7275279886444936e+18,0.0016011798288673162,0.0006280197994783521,-0.0016482238424941897
1.7275279886474936e+18,0.001593218999914825,0.000980754615738988,0.0017441523959860206
1.7275279886534938e+18,-0.0003048739454243332,0.0006931955576874316,0.0011698968010023236
1.727527988659494e+18,0.0016215626383200288,0.002959893085062504,0.0016787586500868201
1.727527988665494e+18,0.0018947640201076865,-0.0033975099213421345,-0.000509707722812891
1.727527988668494e+18,0.0005917991511523724,-0.0014926893636584282,-0.00018966526840813458
1.7275279886744942e+18,0.0004835418367292732,0.00026686719502322376,0.001515052281320095
1.7275279886804943e+18,-0.004304195288568735,-0.00465868366882205,-0.00026591389905661345
1.7275279886864945e+18,-0.002249761251732707,-0.000963211408816278,0.0020267656072974205
1.7275279886924946e+18,0.002203595358878374,-0.0015331048052757978,0.0009850077331066132
1.7275279886954947e+18,5.556617179536261e-05,-0.0005300167249515653,-0.0002260251494590193
1.7275279887014948e+18,0.0012793459463864565,-0.0007705636671744287,-0.0032397268805652857
1.727527988707495e+18,-0.0003060289891436696,0.000767976394854486,0.0017715657595545053
1.727527988713495e+18,-0.0005000599194318056,0.0005849919398315251,-0.001069001154974103
1.7275279887194952e+18,-0.0018927296623587608,-0.0005171155789867043,0.0018458206905052066
1.7275279887224952e+18,-0.00032296698191203177,0.00043656094931066036,-0.0011764257214963436
1.7275279887284954e+18,0.00020784864318557084,0.0019255424849689007,1.2571657862281427e-05
1.7275279887344955e+18,-0.000901685853023082,0.00124443881213665,-0.0012445448664948344
1.7275279887374956e+18,0.0017153200460597873,-0.0021040025167167187,-0.0013476593885570765
1.7275279887434957e+18,0.0009283952531404793,0.0013692979700863361,0.002659714315086603
1.7275279887494958e+18,0.001448815455660224,2.6604888262227178e-05,-0.0006039289874024689
1.727527988755496e+18,-0.0016502572689205408,0.0005477574886754155,-0.0010006196098402143
1.727527988758496e+18,-0.0036617256700992584,-0.0001928813144331798,-0.0011513562640175223
1.7275279887644961e+18,-0.0003263363614678383,-0.0011768689146265388,-0.0024395447690039873
1.7275279887704963e+18,7.851969712646678e-05,-0.0005462912376970053,0.0015446535544469953
1.7275279887734963e+18,0.0022581054363399744,-0.0023812793660908937,-0.0006835672538727522
1.7275279887794964e+18,0.002305414993315935,-0.0014358602929860353,-0.0031800661236047745
1.7275279887854966e+18,-0.001052378909662366,-0.0006853858358226717,0.0020064967684447765
1.7275279887914967e+18,0.0018632612191140652,0.000150979365571402,0.0006838125409558415
1.7275279887974968e+18,0.00020440247317310423,-0.001528343535028398,0.0016098867636173964
1.727527988800497e+18,0.0018311773892492056,0.00139578094240278,0.0004896067548543215
1.727527988806497e+18,-0.00018778230878524482,-0.0008647292852401733,-0.00010931754513876513
1.7275279888124972e+18,-0.0006093166302889585,0.0015960880555212498,0.0003753806231543422
1.7275279888154972e+18,0.002018854022026062,-0.0006599909975193441,0.0009419304551556706
1.7275279888214973e+18,-0.001136074890382588,-0.0029028034768998623,0.001064165378920734
1.7275279888274975e+18,0.0007227037567645311,0.0008856127969920635,0.0022022954653948545
1.7275279888334976e+18,0.000441038137068972,-0.0014215088449418545,-0.0017400113865733147
1.7275279888364977e+18,0.0017644858453422785,-0.001546164508908987,-0.00017912925977725536
1.7275279888424978e+18,-0.0002626529021654278,-6.51258415018674e-06,-0.0014789755223318934
1.727527988848498e+18,-0.000695162161719054,-0.0002548095362726599,-0.002790688304230571
1.727527988854498e+18,-0.004094398580491543,-0.0012825331650674343,-0.0009700709488242865
1.727527988857498e+18,0.001561388955451548,-0.0005301987985149026,-5.985963434795849e-05
1.7275279888634982e+18,-0.0008545427699573338,0.0021615445148199797,-0.0002753526787273586
1.7275279888694984e+18,-0.0019409499363973737,0.0025507393293082714,-0.00041631024214439094
1.7275279888754985e+18,-0.0005210539093241096,-0.0006035652477294207,0.00013176756328903139
1.7275279888814986e+18,-0.0015311128227040172,0.00027382950065657496,0.0023834409657865763
1.7275279888844987e+18,-0.0004056593170389533,0.000738049391657114,-0.000667498679831624
1.7275279888904988e+18,0.00031221105018630624,-0.0013462547212839127,0.0006779853720217943
1.727527988896499e+18,0.0023880626540631056,-0.0012322840048000216,-0.0008266508812084794
1.727527988899499e+18,-0.000968740729149431,0.00022541471116710454,0.0018806674052029848
1.7275279889054991e+18,0.0007886125822551548,0.0013262024149298668,0.0001196230950881727
1.7275279889114993e+18,0.0019469289109110832,0.0004964778781868517,0.002965895924717188
1.7275279889174994e+18,0.0013625308638438582,-0.0005012007313780487,-0.0012567712692543864
1.7275279889234995e+18,0.0019488605903461576,0.001131259836256504,3.56110067514237e-05
1.7275279889264996e+18,3.382995055289939e-05,-0.002464683959260583,0.0028003035113215446
1.7275279889324997e+18,0.0011307608801871538,-0.0008446731953881681,-0.002757070818915963
1.7275279889384998e+18,-0.0006302098045125604,0.003251982619985938,0.0007114416803233325
1.7275279889445e+18,-0.00030371747561730444,0.0005461603286676109,0.001457173959352076
1.7275279889505e+18,0.001946290722116828,-0.0010516330366954207,-0.0020469415467232466
1.7275279889565002e+18,-0.0007728390046395361,0.002849372336640954,-0.002702009864151478
1.7275279889595003e+18,0.002061402192339301,-0.001206340384669602,-0.001805030507966876
1.7275279889655004e+18,-0.0003542498161550611,0.0009032551315613091,0.00044993613846600056
1.7275279889715005e+18,0.0007599706877954304,-0.0019488617544993758,-0.000295613135676831
1.7275279889745006e+18,0.0005410653539001942,-0.0015002760337665677,0.001987734343856573
1.7275279889805007e+18,0.0001719016145216301,-0.00030972115928307176,0.0029650733340531588
1.7275279889865009e+18,0.0007383654592558742,0.00011795926548074931,0.0011770634446293116
1.727527988992501e+18,0.00227324478328228,0.0021688509732484818,0.0016996461199596524
1.727527988998501e+18,0.0024029642809182405,-0.002892503049224615,0.001805763808079064
1.7275279890015012e+18,-0.00035573021159507334,0.000234073813771829,0.004034452140331268
1.7275279890075013e+18,0.0016767559573054314,0.0011148980120196939,-0.002723820274695754
1.7275279890105014e+18,-0.0007645684527233243,0.0028000380843877792,0.0007993984036147594
1.7275279890165015e+18,0.0027207224629819393,5.120284185977653e-05,0.00013525801477953792
1.7275279890225016e+18,-0.002703822450712323,0.001247821724973619,-0.00022282445570454001
1.7275279890285018e+18,-0.0006872945814393461,0.002316029043868184,-0.0008063489804044366
1.727527989034502e+18,-0.00036337075289338827,0.001120959292165935,0.0012588645331561565
1.727527989037502e+18,-0.0016110341530293226,-0.0011818502098321915,-0.002305013593286276
1.727527989043502e+18,-0.0025188561994582415,-0.003357910318300128,0.0021902623120695353
1.7275279890495022e+18,0.002165958983823657,-0.00017290150572080165,0.0016057367902249098
1.7275279890555023e+18,0.0009950515814125538,0.0016603745752945542,-0.0009333612397313118
1.7275279890585024e+18,0.0024441054556518793,0.0012656135950237513,-0.0016863225027918816
1.7275279890645025e+18,0.0017717044102028012,0.001065152115188539,0.0013022234197705984
1.7275279890705027e+18,0.0015274368925020099,-0.001088969991542399,0.0005412310129031539
1.7275279890765028e+18,-3.2842406653799117e-05,0.0021581468172371387,0.00015356726362369955
1.727527989082503e+18,0.0010137486970052123,-0.001331599080003798,-0.0010091571602970362
1.727527989085503e+18,0.00023938514641486108,0.00014825774997007102,-0.0002938145771622658
1.727527989091503e+18,-0.002390239853411913,-0.0013210709439590573,-0.0027361754328012466
1.7275279890975032e+18,0.0028800582513213158,-0.0011949280742555857,0.004001249559223652
1.7275279891035034e+18,0.0022968300618231297,-0.000664799299556762,-0.002021956257522106
1.7275279891065034e+18,-0.0013435628497973084,0.0013671221677213907,-0.00020880007650703192
1.7275279891125036e+18,-0.0008097422542050481,0.0024861714337021112,0.0006586539675481617
1.7275279891185037e+18,-9.802242857404053e-05,0.0021883088629692793,0.002044578781351447
1.7275279891245038e+18,0.0017522881971672177,-0.0017272293334826827,-4.2802443203981966e-05
1.727527989127504e+18,0.003484030719846487,0.0022289997432380915,-0.0004934436874464154
1.727527989133504e+18,-0.0024586364161223173,-0.00021115610434208065,0.0012337422231212258
1.727527989139504e+18,0.0005784463719464839,-0.0022382745519280434,0.0023267290089279413
1.7275279891455043e+18,0.00016436925216112286,0.001059907372109592,-0.003302206750959158
1.7275279891485043e+18,-0.002043435350060463,0.004273939877748489,0.0007821540930308402
1.7275279891545044e+18,-0.0007094067987054586,-0.0015884514432400465,0.0014365745009854436
1.7275279891605046e+18,0.002267410047352314,-0.00024659314658492804,-0.0011244019260630012
1.7275279891665047e+18,0.0010615542996674776,-0.001604500226676464,0.00044380835606716573
1.7275279891725048e+18,-0.00029590653139166534,7.907456165412441e-05,-0.0005796016776002944
1.727527989175505e+18,0.001084644696675241,0.0008491648477502167,0.001719389809295535
1.727527989181505e+18,-0.00036174943670630455,0.0017909994348883629,0.00028196023777127266
1.7275279891875052e+18,-0.0016637025400996208,-2.057930214505177e-05,-0.003638491267338395
1.7275279891935053e+18,-0.0018400198314338923,-0.0021761225070804358,-0.0006184193189255893
1.7275279891965053e+18,0.0019427044317126274,0.000656117859762162,-0.00013478366599883884
1.7275279892025055e+18,0.0021768847946077585,0.0022592477034777403,-0.000596911646425724
1.7275279892085056e+18,0.0012033944949507713,-0.0007976249326020479,0.0017831707373261452
1.7275279892145057e+18,0.0008173988899216056,-0.0006003316375426948,0.0027768623549491167
1.7275279892175058e+18,-0.0010975109180435538,0.0003712732286658138,-0.0008994592935778201
1.727527989223506e+18,0.0023680797312408686,-0.0011883247643709183,-0.0019896095618605614
1.727527989229506e+18,0.0023975532967597246,0.0008377337362617254,-0.0025932718999683857
1.7275279892355062e+18,-0.0002545840688981116,0.003781705629080534,0.002261393005028367
1.7275279892385062e+18,0.0006960973259992898,0.0027269939891994,0.0026999185793101788
1.7275279892445064e+18,0.002387281972914934,0.000755977991502732,0.0014426792040467262
1.7275279892505065e+18,-0.0009803748689591885,-0.0004278868727851659,0.0028869679663330317
1.7275279892565066e+18,0.0010576369240880013,-0.0011078499956056476,0.002664563013240695
1.7275279892595067e+18,0.002800524700433016,0.0022284137085080147,0.001178754260763526
1.7275279892655068e+18,-0.0005830389563925564,0.0036361580714583397,-0.0031195986084640026
1.727527989271507e+18,0.0030642428901046515,-0.000188097168575041,0.0026052589528262615
1.727527989274507e+18,0.0008348005940206349,0.001523503684438765,-0.0011770090786740184
1.7275279892805071e+18,0.00022635998902842402,0.0005875118658877909,-0.005485821980983019
1.7275279892865073e+18,0.0011486632283776999,0.001277822651900351,0.0015677331248298287
1.7275279892925074e+18,0.0005560512654483318,0.0014061854453757405,0.0027149806264787912
1.7275279892985075e+18,-0.0009692560997791588,0.0028642218094319105,-9.19262456591241e-05
1.7275279893015076e+18,-0.0004559032095130533,-0.000861559237819165,0.002590426243841648
1.7275279893075077e+18,-0.0015060171717777848,0.00044508400605991483,-0.0020593232475221157
1.7275279893135078e+18,0.0011213499819859862,0.0014897790970280766,-0.0008474709466099739
1.727527989319508e+18,5.2806484745815396e-05,0.0013783207396045327,1.0115036275237799e-06
1.727527989322508e+18,0.0008272865088656545,-0.0036812755279242992,0.0023136907257139683
1.7275279893285082e+18,0.0001847669918788597,-0.0011382123921066523,0.001806651009246707
1.7275279893345083e+18,-0.0018874063389375806,0.0003886817139573395,-0.0003190255956724286
1.7275279893375084e+18,-0.00027917971601709723,0.00041475999751128256,0.0009358437964692712
1.7275279893435085e+18,9.92520508589223e-05,0.0018319973023608327,0.0015886268811300397
1.7275279893495086e+18,-0.001741895917803049,-0.0012067833449691534,-0.0018379411194473505
1.7275279893525087e+18,0.0010356277925893664,0.0009592531714588404,0.00045964057790115476
1.7275279893585088e+18,-0.00214006332680583,-0.0002488894679117948,0.0015935322735458612
1.727527989364509e+18,0.0008373560849577188,0.0010541330557316542,-0.00022007622465025634
1.727527989370509e+18,0.0013404074124991894,0.0020283013582229614,0.00021558425214607269
1.727527989373509e+18,-0.0015935746487230062,-0.0008869962184689939,-0.0016751853981986642
1.7275279893795092e+18,0.000621367187704891,-0.0008868023869581521,1.6992462406051345e-05
1.7275279893855094e+18,0.0013014093274250627,-0.003254089504480362,0.0024596494622528553
1.7275279893915095e+18,0.001468910020776093,-5.460987813421525e-05,0.0029866057448089123
1.7275279893945096e+18,-0.0012836129171773791,0.00016014503489714116,0.002060295082628727
1.7275279894005097e+18,0.0015190219273790717,0.00032030686270445585,0.0017186126206070185
1.7275279894065098e+18,-0.00032922462560236454,0.002386366482824087,-0.0014393512392416596
1.72752798941251e+18,-0.0006288585136644542,-0.0036257468163967133,0.0022862034384161234
1.72752798941851e+18,-0.0002470000181347132,0.001073354622349143,-0.0018837249372154474
1.7275279894245102e+18,-0.00012514166883192956,0.0007144250557757914,0.0013699891278520226
1.7275279894275103e+18,0.0008699443424120545,-0.0008530621998943388,0.00018204969819635153
1.7275279894335104e+18,-0.0006411471986211836,0.002495022490620613,0.0010525259422138333
1.7275279894395105e+18,-0.0007454333826899529,-0.002044982509687543,0.0021229744888842106
1.7275279894455107e+18,0.0007152970065362751,-0.0011710813269019127,-0.00010928385745501146
1.7275279894485107e+18,-0.0011797748738899827,0.0005036881193518639,0.0008849439327605069
1.7275279894545108e+18,0.0004233294166624546,-0.0034891311079263687,0.0005481238476932049
1.727527989457511e+18,0.0002737136383075267,-0.0010354560799896717,0.0012299113441258669
1.727527989463511e+18,-0.0012950176605954766,-0.00032156312954612076,0.0011576397810131311
1.7275279894695112e+18,0.0009983384516090155,-6.913120159879327e-05,-0.0014261387987062335
1.7275279894755113e+18,-0.00010669623588910326,0.0024332094471901655,0.0012895113322883844
1.7275279894815114e+18,-0.001666670199483633,-0.0020398395135998726,-0.0010020348709076643
1.7275279894845115e+18,-0.0018890026258304715,-0.0005310683627612889,0.0012088982621207833
1.7275279894905116e+18,0.0009576066513545811,0.0024154807906597853,0.0004582765104714781
1.7275279894965117e+18,-0.0026987879537045956,0.00012167647946625948,0.00048178646829910576
1.7275279895025119e+18,-0.001286899670958519,0.0038850586861371994,-0.0007765106274746358
1.727527989505512e+18,0.00148435914888978,-0.001962140202522278,-0.0007795857964083552
1.727527989511512e+18,-0.0012424413580447435,-0.002541925758123398,0.000554121914319694
1.7275279895175122e+18,0.0014579335693269968,-0.010708097368478775,0.0005468284361995757
1.7275279895205123e+18,0.00379885989241302,-0.011207827366888523,-0.0011287773959338665
1.7275279895265124e+18,0.011333241127431393,-0.02092777006328106,-0.0007757815765216947
1.7275279895325125e+18,0.00835406593978405,-0.029224086552858353,0.0026135093066841364
1.7275279895355126e+18,0.01092078723013401,-0.030633103102445602,0.0029301661998033524
1.7275279895415127e+18,0.011101016774773598,-0.032797347754240036,0.0021249339915812016
1.7275279895475128e+18,0.011614693328738213,-0.03334900364279747,0.002975892275571823
1.727527989553513e+18,0.008135465905070305,-0.031734369695186615,0.004367980640381575
1.727527989556513e+18,0.0105326222255826,-0.034514736384153366,0.0010685856686905026
1.7275279895625132e+18,0.012403281405568123,-0.03307401388883591,0.00034758239053189754
1.7275279895685133e+18,0.008405395783483982,-0.030985454097390175,0.0017431725282222033
1.7275279895745134e+18,0.006047793198376894,-0.02873433567583561,0.0031644701957702637
1.7275279895775135e+18,0.006411936599761248,-0.03063422627747059,0.005138752982020378
1.7275279895835136e+18,0.006890237797051668,-0.029585598036646843,0.004046561662107706
1.7275279895895137e+18,0.0045361705124378204,-0.03216552734375,0.006258876994252205
1.7275279895955139e+18,0.003211032133549452,-0.03262322396039963,0.003531890921294689
1.727527989601514e+18,0.007037435658276081,-0.03325113281607628,0.005957226734608412
1.727527989607514e+18,0.00557910418137908,-0.03471096232533455,0.007623015902936459
1.7275279896105142e+18,0.004861157853156328,-0.033684249967336655,0.006464259698987007
1.7275279896165143e+18,0.004963744897395372,-0.03188034147024155,0.006380392238497734
1.7275279896225144e+18,0.007610817439854145,-0.03063877671957016,0.006699363235384226
1.7275279896285146e+18,0.00709312129765749,-0.029364120215177536,0.007566444575786591
1.7275279896315146e+18,0.008036733604967594,-0.028462141752243042,0.0060475654900074005
1.7275279896375148e+18,0.0068063135258853436,-0.022791055962443352,0.007365327328443527
1.727527989643515e+18,0.0030411630868911743,-0.024703213945031166,0.005751381628215313
1.727527989649515e+18,0.0038699053693562746,-0.02185949869453907,0.005063737742602825
1.7275279896555151e+18,0.0009829036425799131,-0.019317418336868286,0.007585705257952213
1.7275279896585152e+18,0.001564390491694212,-0.019129328429698944,0.007301404606550932
1.7275279896645153e+18,0.002232181839644909,-0.016616005450487137,0.008552870713174343
1.7275279896705155e+18,0.002316475845873356,-0.01562431175261736,0.009309541434049606
1.7275279896765156e+18,0.0044069960713386536,-0.014069372788071632,0.009222494438290596
1.7275279896795156e+18,0.0031987400725483894,-0.015375969000160694,0.00871262513101101
1.7275279896855158e+18,0.006921999156475067,-0.010659001767635345,0.009190062060952187
1.727527989691516e+18,0.005637874361127615,-0.01276572048664093,0.00917693693190813
1.727527989697516e+18,0.0050429352559149265,-0.007573741488158703,0.011962391436100006
1.7275279897035162e+18,0.0018642379436641932,-0.008517013862729073,0.008691894821822643
1.7275279897065162e+18,0.003046284429728985,-0.006718735210597515,0.011965874582529068
1.7275279897125164e+18,-0.0008456241339445114,-0.005923431366682053,0.010112809017300606
1.7275279897185165e+18,-0.005286441650241613,-0.003234358737245202,0.011829488910734653
1.7275279897245166e+18,-0.0023252263199537992,-2.9434566386044025e-05,0.011807555332779884
1.7275279897305167e+18,-0.0014837549533694983,-0.0008699970203451812,0.009916023351252079
1.7275279897365169e+18,0.0008730863919481635,-0.0015715045155957341,0.011083502322435379
1.727527989739517e+18,0.0012958637671545148,0.001402009278535843,0.012951696291565895
1.727527989745517e+18,0.0021880255080759525,0.0028546503745019436,0.012713146395981312
1.7275279897515172e+18,0.0004977273056283593,0.0011217331048101187,0.010275007225573063
1.7275279897575173e+18,-0.00012054637772962451,0.0069115967489778996,0.010096601210534573
1.7275279897635174e+18,-0.0015249487478286028,0.005759378895163536,0.01243493054062128
1.7275279897665175e+18,-0.0001043141819536686,0.006722782738506794,0.009706763550639153
1.7275279897725176e+18,-0.006724929437041283,0.008711958304047585,0.01118231751024723
1.7275279897785178e+18,-0.004466105252504349,0.008286836557090282,0.013318311423063278
1.727527989784518e+18,-0.007568533066660166,0.008871801197528839,0.01004564668983221
1.727527989787518e+18,-0.007717628963291645,0.012195277959108353,0.011143781244754791
1.727527989793518e+18,-0.006868321448564529,0.010684240609407425,0.011417808011174202
1.7275279897995182e+18,-0.008134052157402039,0.01105081383138895,0.009645143523812294
1.7275279898055183e+18,-0.005999171175062656,0.013308415189385414,0.010988505557179451
1.7275279898115185e+18,-0.005497725680470467,0.0129764499142766,0.01353823859244585
1.7275279898145185e+18,-0.005794199649244547,0.015591495670378208,0.01055922731757164
1.7275279898205187e+18,-0.007763794623315334,0.014955638907849789,0.013424515724182129
1.7275279898265188e+18,-0.006777181290090084,0.01596478931605816,0.013474470935761929
1.727527989832519e+18,-0.004549491219222546,0.015047380700707436,0.010359744541347027
1.727527989838519e+18,-0.00492263725027442,0.015171399340033531,0.00968857016414404
1.727527989841519e+18,-0.005415725987404585,0.020014937967061996,0.009390374645590782
1.7275279898475192e+18,-0.004077887162566185,0.020152216777205467,0.01342757884413004
1.7275279898535194e+18,-0.0043839626014232635,0.016140569001436234,0.012788143940269947
1.7275279898595195e+18,-0.004993037320673466,0.015236768871545792,0.016424674540758133
1.7275279898655196e+18,-0.006766920909285545,0.01667998544871807,0.01315982360392809
1.7275279898715197e+18,-0.001150793395936489,0.012044766917824745,0.011712096631526947
1.7275279898745198e+18,-0.006342034786939621,0.01362087856978178,0.011539854109287262
1.72752798988052e+18,-0.003939798101782799,0.014379775151610374,0.012255535461008549
1.72752798988652e+18,-0.00410680053755641,0.018464982509613037,0.015129072591662407
1.7275279898925202e+18,-0.004132367204874754,0.017507968470454216,0.012622904032468796
1.7275279898955203e+18,-0.003723785048350692,0.014369838871061802,0.014431831426918507
1.7275279899015204e+18,-0.0041463905945420265,0.017673153430223465,0.014486432075500488
1.7275279899075205e+18,-0.00341123528778553,0.014779848977923393,0.012506931088864803
1.7275279899135206e+18,-0.005476847290992737,0.016731111332774162,0.010593878105282784
1.7275279899195208e+18,-0.00453721359372139,0.014095623977482319,0.01291411742568016
1.7275279899225208e+18,-0.004846184514462948,0.013419992290437222,0.01724974252283573
1.727527989928521e+18,-0.005235861986875534,0.01319097075611353,0.012862483970820904
1.727527989934521e+18,-0.0009712034370750189,0.014050615020096302,0.015289380215108395
1.7275279899405212e+18,-0.0017968507017940283,0.013429742306470871,0.014458741992712021
1.7275279899435213e+18,-0.0056905485689640045,0.017327504232525826,0.013909591361880302
1.7275279899495214e+18,-0.0010481046047061682,0.013392314314842224,0.011617721058428288
1.7275279899555215e+18,-0.00047157215885818005,0.009575525298714638,0.013291675597429276
1.7275279899615217e+18,-0.002524367766454816,0.016102414578199387,0.013521336019039154
1.7275279899645217e+18,-0.0034251536708325148,0.013913072645664215,0.013784666545689106
1.7275279899705219e+18,-0.0005884510464966297,0.012777494266629219,0.01394651085138321
1.727527989976522e+18,-0.0031485664658248425,0.011559927836060524,0.011958424001932144
1.727527989982522e+18,-0.0029526969883590937,0.010242749005556107,0.01300252415239811
1.7275279899885222e+18,-0.002464473247528076,0.008562890812754631,0.015353953465819359
1.7275279899945224e+18,-0.002498204354196787,0.012171384878456593,0.011938938871026039
1.7275279899975224e+18,-0.0049775210209190845,0.013273781165480614,0.01387861743569374
1.7275279900035226e+18,-0.002649114467203617,0.0077908942475914955,0.0142588559538126
1.7275279900095227e+18,-0.0016506621614098549,0.008837949484586716,0.01198639813810587
1.7275279900155228e+18,0.0048238374292850494,0.007950963452458382,0.011904005892574787
1.727527990018523e+18,0.0007137911743484437,0.009657468646764755,0.012107202783226967
1.727527990024523e+18,0.005405914969742298,0.01010895986109972,0.01299256831407547
1.7275279900305231e+18,0.0037542679347097874,0.008149264380335808,0.014238930307328701
1.7275279900365233e+18,-0.000290032709017396,0.010800190269947052,0.016154900193214417
1.7275279900425234e+18,-0.000295677047688514,0.008764234371483326,0.011971219442784786
1.7275279900455235e+18,-0.0009492473909631371,0.00875071994960308,0.017838729545474052
1.7275279900515236e+18,-0.000539454398676753,0.008123207837343216,0.015342574566602707
1.7275279900575237e+18,-0.000691825698595494,0.007522749248892069,0.014175569638609886
1.7275279900635238e+18,-0.00014519799151457846,0.00880853645503521,0.014671837911009789
1.727527990069524e+18,0.0010126268025487661,0.008180703036487103,0.010832315310835838
1.727527990075524e+18,0.003282514400780201,0.007477095350623131,0.009585685096681118
1.7275279900785242e+18,-0.0008972634095698595,0.0057417466305196285,0.014619092456996441
1.7275279900845243e+18,0.006267499178647995,0.0052955057471990585,0.01256534643471241
1.7275279900905244e+18,0.0018502145539969206,0.009108654223382473,0.01284251268953085
1.7275279900965245e+18,0.004055579658597708,0.006230189464986324,0.010528097860515118
1.7275279901025247e+18,0.002022974658757448,0.011541711166501045,0.01325719803571701
1.7275279901085248e+18,0.0019455451983958483,0.008626148104667664,0.01157910656183958
1.727527990114525e+18,-0.0023207589983940125,0.008720189332962036,0.015828555449843407
1.727527990120525e+18,-0.001190215814858675,0.005742021836340427,0.013143116608262062
1.7275279901265252e+18,-0.00011366361286491156,0.006660833023488522,0.012038672342896461
1.7275279901325253e+18,-0.002441994845867157,0.00901450403034687,0.01248516421765089
1.7275279901385254e+18,0.0015216842293739319,0.004842822905629873,0.012122167274355888
1.7275279901445256e+18,0.0035837285686284304,0.00038091489113867283,0.013402169570326805
1.7275279901505257e+18,0.00384323438629508,0.00026405160315334797,0.01243289653211832
1.7275279901565258e+18,0.0051846690475940704,0.003940613009035587,0.012697369791567326
1.727527990162526e+18,0.003410804783925414,0.004217732697725296,0.013602408580482006
1.727527990168526e+18,0.004321700427681208,0.001897160429507494,0.009747643023729324
1.7275279901745262e+18,-0.00020876340568065643,0.004122306127101183,0.009709615260362625
1.7275279901835264e+18,0.00039879203541204333,0.0036294132005423307,0.014605843462049961
1.7275279901895265e+18,-0.0031053817365318537,0.0024069547653198242,0.011228119023144245
1.7275279901955267e+18,-0.0005191330565139651,0.004432144109159708,0.01150980032980442
1.7275279902015268e+18,0.0001819315366446972,0.0066273631528019905,0.008274405263364315
1.727527990207527e+18,-0.003342913929373026,0.002696702955290675,0.011229492723941803
1.727527990213527e+18,0.00034426781348884106,0.001226410735398531,0.010872173123061657
1.7275279902195272e+18,0.0019348931964486837,0.0031338375993072987,0.007704037707298994
1.7275279902255273e+18,-0.0007585599087178707,0.004655008669942617,0.010814642533659935
1.7275279902315274e+18,0.0017512085614725947,0.0027932203374803066,0.00806033331900835
1.7275279902375276e+18,-0.0005379495560191572,0.006081081926822662,0.008897232823073864
1.7275279902435277e+18,-0.0017903298139572144,0.005834181327372789,0.009404533542692661
1.7275279902465277e+18,0.0007837401935830712,0.0028311987407505512,0.011604206636548042
1.727527990255528e+18,-0.004770975559949875,0.005637285299599171,0.0065390365198254585
1.727527990258528e+18,-0.002276964485645294,0.007310321554541588,0.010969270952045918
1.7275279902645281e+18,-0.005292566958814859,0.0040836334228515625,0.009666046127676964
1.7275279902705283e+18,-0.003940842114388943,0.004805200733244419,0.012507401406764984
1.7275279902765284e+18,-0.0036441886331886053,0.002006672089919448,0.012213388457894325
1.7275279902825285e+18,-0.0014215323608368635,0.002807736862450838,0.01151898130774498
1.7275279902885286e+18,-0.0017865689005702734,0.0023672855459153652,0.012192821130156517
1.7275279902915287e+18,-0.0003310947213321924,0.0028276913799345493,0.009387237019836903
1.7275279902975288e+18,-0.0011269899550825357,0.004529228899627924,0.008351968601346016
1.727527990303529e+18,-0.001232729759067297,0.00612220261245966,0.01285599172115326
1.727527990309529e+18,-0.0004893907462246716,0.004257265944033861,0.007091492880135775
1.7275279903155292e+18,0.0004774440312758088,0.00982474721968174,0.0064284345135092735
1.7275279903215293e+18,-0.003754301927983761,0.0053519755601882935,0.00839358288794756
1.7275279903245294e+18,-0.0016140805091708899,0.004719275515526533,0.00764111615717411
1.7275279903305295e+18,-0.0038603213615715504,0.0030568381771445274,0.00763851311057806
1.7275279903365297e+18,-0.0010904313530772924,0.001679249806329608,0.009196539409458637
1.7275279903395297e+18,-0.002237623557448387,0.004979471676051617,0.010382683016359806
1.7275279903455299e+18,-0.002297536004334688,0.004777930676937103,0.008689526468515396
1.72752799035153e+18,-0.004274591337889433,0.003827740903943777,0.007577499374747276
1.72752799035753e+18,-0.002124443184584379,0.007580102421343327,0.007109748665243387
1.7275279903605302e+18,-0.0008624022011645138,0.0028814878314733505,0.010454956442117691
1.7275279903665303e+18,-0.0010444800136610866,0.0040997909381985664,0.006564012728631496
1.7275279903725304e+18,-0.000594448996707797,0.0056690345518291,0.009473240002989769
1.7275279903785306e+18,-0.0018232462462037802,0.005597088020294905,0.006864781491458416
1.7275279903845307e+18,-0.0018732113530859351,0.005848519038408995,0.006190096028149128
1.7275279903905308e+18,-0.0074747540056705475,0.004184905905276537,0.006555974017828703
1.727527990396531e+18,-0.0027547902427613735,0.006927041802555323,0.006432021968066692
1.727527990402531e+18,-0.0060999211855232716,0.002823261544108391,0.008264060132205486
1.7275279904055311e+18,-0.002619426231831312,0.00245428248308599,0.0074895229190588
1.7275279904115313e+18,-0.002403555205091834,0.0018755912315100431,0.006744870916008949
1.7275279904175314e+18,-0.0014197209384292364,-0.00012561248149722815,0.009320810437202454
1.7275279904235315e+18,0.001285748672671616,0.00033797614742070436,0.004683847539126873
1.7275279904295316e+18,0.0031681314576417208,0.00046529440442100167,0.0059410263784229755
1.7275279904325317e+18,0.00154014490544796,0.0001579982927069068,0.006685510277748108
1.7275279904385318e+18,0.004167043138295412,0.002159113995730877,0.007245520129799843
1.727527990444532e+18,0.0040868129581213,-0.001919010654091835,0.0024902052246034145
1.727527990450532e+18,0.0011471190955489874,0.005334142595529556,0.0048070671036839485
1.7275279904535322e+18,0.0013062205398455262,0.0022755120880901814,0.004092605784535408
1.7275279904595323e+18,0.0006316658109426498,0.0028168554417788982,0.006590336561203003
1.7275279904655324e+18,-0.0015920447185635567,0.0016773887909948826,0.003534735878929496
1.7275279904685325e+18,-0.0004248013428878039,0.004614009987562895,0.005543310660868883
1.7275279904745326e+18,-0.00048505430459044874,0.0015203653601929545,0.003878472838550806
1.7275279904805327e+18,0.002541770227253437,-0.001184480031952262,0.00729542737826705
1.7275279904865329e+18,0.0032189893536269665,0.001799842924810946,0.005038035102188587
1.727527990492533e+18,-0.0003960144240409136,0.0009602982318028808,0.005588053725659847
1.727527990495533e+18,0.0016382706817239523,0.00046295541687868536,0.002371066017076373
1.7275279905015332e+18,0.003727511502802372,-0.001702087465673685,0.005401603877544403
1.7275279905075333e+18,0.004391552414745092,0.0010703916195780039,0.001708785304799676
1.7275279905135334e+18,0.0016037883469834924,2.097059041261673e-05,0.004841210786253214
1.7275279905165335e+18,0.00027838259120471776,0.0030166381038725376,0.002829497680068016
1.7275279905225336e+18,0.0006352696218527853,0.0021218699403107166,0.005213439464569092
1.7275279905285338e+18,-0.0012159415055066347,-0.0006970162503421307,0.0032039941288530827
1.727527990534534e+18,-0.0009928899817168713,-0.00032401271164417267,0.0017565113957971334
1.727527990540534e+18,0.0009474330581724644,0.0005435312632471323,0.005993457976728678
1.727527990543534e+18,-0.000541149522177875,-0.0005135378451086581,0.0019006002694368362
1.7275279905495342e+18,-0.0004364729393273592,0.0020612224470824003,0.0037178746424615383
1.7275279905555343e+18,0.002500513568520546,0.004117624368518591,0.0025442831683903933
1.7275279905615345e+18,0.001826298190280795,-0.0010409108363091946,0.00620686262845993
1.7275279905645345e+18,0.0030155889689922333,-0.0029769407119601965,0.0050326986238360405
1.7275279905705347e+18,0.003138864180073142,0.0005498125683516264,0.004747011698782444
1.7275279905765348e+18,0.00285630882717669,0.0006418731645680964,0.0021266231779009104
1.727527990582535e+18,0.00231728982180357,0.0023184677120298147,0.0006787767633795738
1.727527990585535e+18,0.002262935508042574,0.0002506922755856067,0.00331142358481884
1.727527990591535e+18,0.0005958210676908493,-0.0016032533021643758,0.002853043843060732
1.7275279905975352e+18,0.0014558372786268592,0.0004203859716653824,-0.0007909480482339859
1.7275279906035354e+18,-0.0017076351214200258,0.0016970938304439187,0.0032305577769875526
1.7275279906065354e+18,0.0013630316825583577,0.0012167898239567876,0.00033163640182465315
1.7275279906125356e+18,-0.0014843690441921353,-0.00023500807583332062,0.0025804571341723204
1.7275279906185357e+18,0.0006673462339676917,0.0017608471680432558,0.0006242069648578763
1.7275279906245358e+18,-0.0002567416522651911,0.0018724683905020356,0.0022259592078626156
1.727527990630536e+18,0.0030955886468291283,0.0009505420457571745,0.0034603900276124477
1.727527990633536e+18,0.0016077242325991392,0.0020760977640748024,-0.00040085415821522474
1.727527990639536e+18,0.00379136111587286,0.0025488827377557755,-0.00043898122385144234
1.7275279906455363e+18,-0.0005937754176557064,0.002058107638731599,0.00039911409839987755
1.7275279906515364e+18,0.004238294903188944,0.0023652876261621714,-0.0016018974129110575
1.7275279906545364e+18,-5.4622418247163296e-05,0.0024024825543165207,0.00011874060146510601
1.7275279906605366e+18,-0.001090397359803319,0.0008441951358690858,0.000852027500513941
1.7275279906665367e+18,0.0002635828568600118,0.0023976212833076715,-0.001676016952842474
1.7275279906725368e+18,-0.0016772639937698841,0.0026664400938898325,0.0017678994918242097
1.727527990675537e+18,-0.0024349663872271776,0.002635209821164608,-0.00034414412220939994
1.727527990681537e+18,0.0017903244588524103,0.0004695223178714514,-0.0002958740515168756
1.7275279906875372e+18,-0.001226168591529131,0.0033324752002954483,0.0002999646239914
1.7275279906935373e+18,0.0019867420196533203,0.00341367837972939,0.001824977109208703
1.7275279906965373e+18,0.002363543724641204,0.0016600994858890772,0.0005674292333424091
1.7275279907025375e+18,0.0036823321133852005,0.004489690996706486,0.0038929679431021214
1.7275279907085376e+18,0.002068242058157921,0.0032032516319304705,0.004472930915653706
1.7275279907145377e+18,-7.596946670673788e-05,0.0007952891755849123,0.0063253361731767654
1.7275279907205379e+18,-0.0012852889485657215,0.0032978160306811333,0.003186589339748025
1.727527990723538e+18,-0.00015974947018548846,0.000858668121509254,0.0025616055354475975
1.727527990729538e+18,-0.0004224166041240096,0.0014289859682321548,0.0065446943044662476
1.7275279907355382e+18,-0.001155571429990232,0.0009914542315527797,0.0036979694850742817
1.7275279907415383e+18,-0.00020893244072794914,-0.0027274948079138994,0.006265583913773298
1.7275279907445384e+18,-0.0013857849407941103,-0.0011861822567880154,0.005737139377743006
1.7275279907505385e+18,-0.002182090189307928,-0.0031931165140122175,0.005035056732594967
1.7275279907565386e+18,0.001658379565924406,0.0032248343341052532,0.003012007102370262
1.7275279907625388e+18,0.000638327153865248,0.0012525755446404219,0.0032895966432988644
1.7275279907655388e+18,-3.6144163459539413e-05,0.000808859767857939,0.006435013376176357
1.727527990771539e+18,0.0007196677033789456,0.004007118754088879,0.0056121498346328735
1.727527990777539e+18,-7.161044050008059e-05,0.0015935119008645415,0.008940650150179863
1.7275279907805391e+18,0.0007116727065294981,0.002263561822474003,0.0034714872017502785
1.7275279907865393e+18,-0.0029191970825195312,0.000563122914172709,0.0023809215053915977
1.7275279907925394e+18,-0.0021374982316046953,-1.9873055862262845e-05,0.005165815819054842
1.7275279907985395e+18,-0.0004988207947462797,-0.00016406987560912967,0.002607108326628804
1.7275279908045396e+18,-0.0033875361550599337,0.001309130573645234,0.004655725322663784
1.7275279908105398e+18,-0.004408734850585461,0.0002888539747800678,0.006244356278330088
1.72752799081654e+18,-0.002703846665099263,0.0007846136577427387,0.0045488146133720875
1.72752799081954e+18,-0.0025210033636540174,5.445239366963506e-05,0.004901573061943054
1.72752799082554e+18,-0.00019190245075151324,0.0008529713377356529,0.003118608146905899
1.7275279908315402e+18,0.0010266314493492246,-0.00011987795005552471,0.004674811381846666
1.7275279908375404e+18,0.004025226458907127,-9.462321759201586e-05,0.004694134462624788
1.7275279908435405e+18,0.0034052773844450712,-0.0019892659038305283,0.004919813480228186
1.7275279908465405e+18,0.0031695221550762653,-0.0012683792738243937,0.003899887204170227
1.7275279908525407e+18,0.0027628918178379536,4.995381459593773e-05,0.0057263560593128204
1.7275279908585408e+18,0.0028623586986213923,-0.0018259219359606504,0.003717577550560236
1.727527990864541e+18,-0.0008387424750253558,-0.0007413816056214273,0.004122062586247921
1.727527990867541e+18,0.0003388086333870888,-0.0008023616392165422,0.005649684462696314
1.727527990873541e+18,-9.045051410794258e-05,-0.00023839285131543875,0.006641012616455555
1.7275279908795412e+18,-0.0057887667790055275,0.0005293629365041852,0.0034108860418200493
1.7275279908855414e+18,-0.004883292596787214,0.0042031146585941315,0.0033324668183922768
1.7275279908885414e+18,-0.0019461592892184854,0.003971660044044256,0.0037307310849428177
1.7275279908945416e+18,-0.0001460706116631627,0.004304705653339624,0.0043789418414235115
1.7275279909005417e+18,0.0022385099437087774,0.002049630042165518,0.007576175965368748
1.7275279909065418e+18,0.002222666749730706,0.002519996138289571,0.004260663408786058
1.727527990912542e+18,0.004269798286259174,0.0018579100724309683,0.002844852628186345
1.727527990915542e+18,0.004505997523665428,0.0013301908038556576,0.0010663517750799656
1.7275279909215421e+18,0.003886634483933449,-0.0013058515032753348,0.005134969018399715
1.7275279909275423e+18,0.003917543683201075,-0.0016532009467482567,0.004577559418976307
1.7275279909335424e+18,0.004368973430246115,-0.004739403259009123,0.0019713593646883965
1.7275279909365425e+18,0.0010754592949524522,-0.0037190979346632957,0.001174159231595695
1.7275279909425426e+18,0.0007207270245999098,-0.002739532385021448,0.0035175883676856756
1.7275279909485427e+18,-0.0003069451777264476,-0.0008140795398503542,0.004388743080198765
1.7275279909545428e+18,-0.0028346229810267687,0.0019169356673955917,0.005723947659134865
1.727527990960543e+18,-0.0007730171200819314,0.0003139678156003356,0.0019908046815544367
1.727527990966543e+18,-0.0002601083251647651,0.0036850955802947283,0.00402225973084569
1.7275279909695432e+18,-0.0008237381698563695,0.0012883489252999425,0.0025350856594741344
1.7275279909755433e+18,-0.0014040380483493209,0.0025129010900855064,0.0006571623962372541
1.7275279909815434e+18,0.0021564725320786238,-0.0012828256003558636,0.00048294977750629187
1.7275279909845435e+18,0.004446288570761681,-0.0005496281082741916,0.0006199977360665798
1.7275279909905436e+18,0.00042772782035171986,-0.002227755030617118,-0.0005719313630834222
1.7275279909965437e+18,0.0011372382286936045,-0.0025170822627842426,0.0017166859470307827
1.7275279910025439e+18,0.003415006911382079,-0.0005503066349774599,0.002539620501920581
1.727527991005544e+18,0.000837472325656563,-0.003623704658821225,0.003951416816562414
1.727527991011544e+18,0.0005542394355870783,-0.003013602225109935,0.0007840637699700892
1.7275279910175442e+18,0.0029165023006498814,-0.0029139011166989803,0.000564130546990782
1.7275279910235443e+18,-0.0007120262598618865,-0.0020856887567788363,0.00027497473638504744
1.7275279910265444e+18,-8.767168037593365e-05,-0.004459015093743801,-0.0004291684599593282
1.7275279910325445e+18,-0.0003210832364857197,-0.001200755126774311,0.0025870364625006914
1.7275279910385446e+18,0.0014912752667441964,-0.0024596715811640024,-0.0035912117455154657
1.7275279910445448e+18,0.001253654481843114,-7.06678256392479e-05,0.0012667090632021427
1.7275279910475448e+18,0.00487395329400897,-0.004168317187577486,-0.0005414193728938699
1.727527991053545e+18,0.004750309512019157,-0.003094003302976489,0.0005598837742581964
1.727527991059545e+18,0.004381283652037382,-0.0026621411088854074,-0.0012790096225216985
1.7275279910655452e+18,0.008794520981609821,-0.005390579346567392,-0.0007912906003184617
1.7275279910685453e+18,0.003569018794223666,-0.0016588650178164244,0.0013093894813209772
1.7275279910745454e+18,0.004215466324239969,-0.006814703345298767,0.0002471376210451126
1.7275279910805455e+18,0.001757182413712144,0.0005098576657474041,0.0009606649400666356
1.7275279910865457e+18,0.002986839972436428,-0.002802531933411956,0.0019339518621563911
1.7275279910925458e+18,0.00026167428586632013,-0.0014589769998565316,-0.0012288433499634266
1.727527991098546e+18,-0.0002333215670660138,-0.0023080960381776094,-0.0007428915123455226
1.727527991101546e+18,0.004504058975726366,-0.0007396336877718568,-0.0002325347886653617
1.727527991107546e+18,0.0007684489246457815,0.002898779232054949,-0.0012438066769391298
1.7275279911135462e+18,0.0015510946977883577,-0.0023407679982483387,0.0011568153277039528
1.7275279911195464e+18,0.001302019809372723,-0.0028552329167723656,0.00025512700085528195
1.7275279911225464e+18,0.0030748918652534485,-0.0031666553113609552,0.0020675468258559704
1.7275279911285466e+18,-0.0018298737704753876,-0.0010032029822468758,-0.0005985641619190574
1.7275279911345467e+18,-0.0013092150911688805,-0.002901103813201189,-0.001024244586005807
1.7275279911375468e+18,0.0018641466740518808,-0.0004693067166954279,0.00170308502856642
1.727527991143547e+18,0.0015556234866380692,0.0005289609543979168,-0.0005330077838152647
1.727527991149547e+18,-0.0005439775995910168,-0.0006492711836472154,0.00188373401761055
1.7275279911555471e+18,-0.0031218500807881355,0.00024908152408897877,-0.0017641503363847733
1.7275279911615473e+18,0.0015265466645359993,-0.0018844001460820436,0.002493558218702674
1.7275279911645473e+18,0.0008264882490038872,-0.0015603455249220133,0.0007817065343260765
1.7275279911705475e+18,0.0006036590202711523,-0.0005797699559479952,-0.00312888715416193
1.7275279911765476e+18,-0.0027274773456156254,0.0033387530129402876,-0.0032749739475548267
1.7275279911825477e+18,0.0007993767503648996,0.0028370835352689028,-0.001439039595425129
1.7275279911885478e+18,-0.00299253617413342,0.0008144095772877336,-0.003220121841877699
1.727527991194548e+18,-0.0057809920981526375,0.0014852493768557906,5.356594920158386e-05
1.727527991197548e+18,-0.0025761346332728863,0.0007993394392542541,-0.0012178526958450675
1.7275279912035482e+18,-0.004657914862036705,-3.6694182199425995e-05,-0.004680315963923931
1.7275279912095483e+18,-0.004532718099653721,0.0006830033380538225,-0.0009585699299350381
1.7275279912155484e+18,-0.0023451228626072407,0.0005456830258481205,-0.0005871901521459222
1.7275279912185485e+18,-0.003747723065316677,-0.0028382628224790096,-0.0004665241576731205
1.7275279912245486e+18,-0.0008919044630602002,-0.002679348923265934,-0.003437148407101631
1.7275279912305487e+18,-0.0032759762834757566,0.00019256409723311663,-0.005359755363315344
1.7275279912365489e+18,-0.0017057263758033514,-0.0017442872049286962,-0.002387185348197818
1.727527991239549e+18,0.0010653535136952996,0.0012578642927110195,-0.00042102241422981024
1.727527991245549e+18,6.170987035147846e-05,0.0006237640627659857,9.29820816963911e-05
1.7275279912515492e+18,0.002030756091699004,-0.0009626626269891858,-0.00422893650829792
1.7275279912575493e+18,-0.0018070160876959562,0.0018616416491568089,-0.0019220905378460884
1.7275279912605494e+18,-0.004367799498140812,-0.00285136210732162,0.0006406516768038273
1.7275279912665495e+18,-0.000655799638479948,-0.0031637256033718586,-0.0029326705262064934
1.7275279912725496e+18,-0.004727029241621494,-0.001310227788053453,-0.004880927503108978
1.7275279912785498e+18,-0.0029772550333291292,-0.0011820046929642558,0.0008436283096671104
1.7275279912815498e+18,-0.003294261870905757,-0.0009230434661731124,-0.001086787786334753
1.72752799128755e+18,-0.0027108988724648952,-0.00525912269949913,-0.0018215354066342115
1.72752799129355e+18,-0.0013245973968878388,-0.0015731783350929618,-0.004066337365657091
1.7275279912995502e+18,0.0014508782187476754,0.0026009478606283665,-0.0029079027008265257
1.7275279913025503e+18,0.0025554976891726255,0.0002244138449896127,-0.002013490302488208
1.7275279913085504e+18,0.0015929434448480606,0.002279961481690407,-0.0026479572989046574
1.7275279913145505e+18,0.0007389892125502229,0.0010826213983818889,-0.0002771520521491766
1.7275279913205507e+18,-0.0005616910057142377,0.0014887443976476789,-0.0024673612788319588
1.7275279913235507e+18,0.0048304833471775055,0.002397790551185608,-0.0047890618443489075
1.7275279913295508e+18,-0.0014955418882891536,0.00399965513497591,-0.0001038508489727974
1.727527991335551e+18,-0.003669325727969408,0.001218553981743753,-0.003675365587696433
1.727527991338551e+18,-0.004742667078971863,0.0025369557552039623,-0.0020764984656125307
1.7275279913445512e+18,-0.0019112661248072982,0.0006646787514910102,-0.00010312628000974655
1.7275279913505513e+18,-0.002189897233620286,0.004421742632985115,-0.0044363196939229965
1.7275279913565514e+18,0.001559894299134612,0.0026269706431776285,-0.0052409423515200615
1.7275279913625516e+18,0.0009548937669023871,-0.00017582636792212725,-0.0031791713554412127
1.7275279913655516e+18,0.001081581343896687,0.002336570993065834,-0.003713462734594941
1.7275279913715517e+18,0.003531709546223283,0.003917996771633625,-0.0019120810320600867
1.727527991377552e+18,0.002958188531920314,-0.001713764388114214,-0.003522822167724371
1.727527991383552e+18,0.003078336361795664,-0.0014633918181061745,-0.004852477461099625
1.727527991386552e+18,0.003281106473878026,0.001870871288701892,-0.006624212488532066
1.7275279913925522e+18,0.003418002976104617,0.001202128129079938,-0.0036537903361022472
1.7275279913985523e+18,0.001888018217869103,0.0001799256424419582,-0.005865846760571003
1.7275279914015524e+18,0.002765034791082144,-0.002912227064371109,-0.0028522603679448366
1.7275279914075525e+18,0.0019170439336448908,-0.001496438984759152,-0.002139594405889511
1.7275279914135526e+18,0.0030243005603551865,-0.0019076303578913212,-0.006923968903720379
1.7275279914195528e+18,0.0004478389164432883,-0.001523741171695292,-0.002583078108727932
1.727527991425553e+18,0.0073260171338915825,-1.5836296370252967e-05,-0.0029071627650409937
1.727527991428553e+18,0.005540410988032818,0.0018631929997354746,-0.003324750578030944
1.727527991434553e+18,0.002755790250375867,0.001013456261716783,-0.0024445834569633007
1.7275279914405532e+18,0.0023157354444265366,0.0008643720648251474,-0.0028128894045948982
1.7275279914465533e+18,0.0028021426405757666,-0.0016032333951443434,-0.002568136900663376
1.7275279914525535e+18,0.002042654901742935,-0.002048242138698697,-0.001821378362365067
1.7275279914555535e+18,0.0010972399031743407,-0.0005794782191514969,-0.005894303321838379
1.7275279914615537e+18,-0.0009360359399579465,-0.0006196851609274745,-0.005127456039190292
1.7275279914675538e+18,0.0018777076620608568,-0.0017685724887996912,-0.0037857783026993275
1.727527991473554e+18,-0.0034647746942937374,-0.002172240521758795,-0.004439590498805046
1.727527991479554e+18,0.0022446680814027786,-0.0011746421223506331,-0.0038249879144132137
1.727527991482554e+18,-0.00075212970841676,0.0001628762693144381,-0.004741500597447157
1.7275279914885542e+18,-0.0016265209997072816,0.002206556499004364,-0.002887028967961669
1.7275279914945544e+18,-0.0002385824336670339,-0.0006585472729057074,-0.0038899395149201155
1.7275279915005545e+18,0.00035016349283978343,-0.0018608423415571451,-0.006716942880302668
1.7275279915035546e+18,9.750503522809595e-05,0.0030571017414331436,-0.004365820903331041
1.7275279915095547e+18,0.0012581602204591036,0.0005186985363252461,-0.0031881858594715595
1.7275279915155548e+18,-0.00023173860972747207,-0.0009774293284863234,-0.0023463431280106306
1.727527991521555e+18,-0.0012585888616740704,0.002799390582367778,-0.0024328776635229588
1.727527991527555e+18,-0.0029302386101335287,0.0002627208596095443,-0.006428111810237169
1.7275279915305551e+18,-0.006560274865478277,0.0024598827585577965,-0.001040088478475809
1.7275279915365553e+18,-0.004208079539239407,-0.0003664987161755562,-0.004283645190298557
1.7275279915425554e+18,-0.0025965613313019276,-0.0007277603726834059,-0.0030305893160402775
1.7275279915485555e+18,-0.005194362252950668,0.001806301879696548,-0.003544346895068884
1.7275279915545556e+18,-0.00029253214597702026,0.0018518827855587006,-0.004715978167951107
1.7275279915605558e+18,-0.00121036556083709,0.003481664229184389,-0.002134523820132017
1.7275279915635558e+18,-0.001342025469057262,0.004564991220831871,-0.0052832309156656265
1.727527991569556e+18,-0.0033950069919228554,0.0023448909632861614,-0.004074342083185911
1.727527991575556e+18,0.0008659485029056668,0.0030808181036263704,-0.006042744964361191
1.7275279915815562e+18,-0.002973188180476427,0.006196260452270508,-0.0037282216362655163
1.7275279915875564e+18,-0.00254705804400146,0.0035094423219561577,-0.0030986755155026913
1.7275279915905564e+18,-0.0012467531487345695,0.0010203140554949641,-0.0017766801174730062
1.7275279915965565e+18,-0.0030577927827835083,0.0038523864932358265,-0.00525669427588582
1.7275279916025567e+18,-0.002242947230115533,0.0017647388158366084,-0.004376375116407871
1.7275279916085568e+18,-0.0003858505515381694,-0.0008854753104969859,-0.005098373629152775
1.7275279916115569e+18,-0.001056065782904625,0.0019468707032501698,-0.004742153454571962
1.727527991617557e+18,0.002222257200628519,0.0013962070224806666,-0.0036829093005508184
1.727527991623557e+18,0.0006996268639340997,-0.0010045545641332865,-0.003519528778269887
1.7275279916295572e+18,0.0004400490433908999,0.0012619816698133945,-0.004479570779949427
1.7275279916325573e+18,0.0019712084904313087,-0.0011164372554048896,-0.004914585500955582
1.7275279916385574e+18,0.0022660973481833935,-0.0011206758208572865,-0.0031673137564212084
1.7275279916445576e+18,-0.00234030419960618,-0.0012041789013892412,-0.0027152562979608774
1.7275279916505577e+18,0.00010278064291924238,-0.004486285150051117,-0.0058102598413825035
1.7275279916565578e+18,-0.005001666955649853,0.0007133269682526588,-0.004832581151276827
1.727527991659558e+18,-0.0015535651473328471,-0.004238308873027563,-0.005186666268855333
1.727527991665558e+18,-0.005623945035040379,-0.0018047817284241319,0.00017784186638891697
1.7275279916715581e+18,-0.004454340785741806,-0.0011063609272241592,-0.0057002524845302105
1.7275279916775583e+18,-0.006232901476323605,-0.0023322058841586113,-0.0024181893095374107
1.7275279916835584e+18,-0.003070427803322673,-0.0008397558704018593,-0.0030125747434794903
1.7275279916865585e+18,-0.0033469474874436855,-0.0020411028526723385,-0.003568887710571289
1.7275279916925586e+18,-0.0020648115314543247,-0.0009482911555096507,-0.003084371332079172
1.7275279916985587e+18,-0.0009194768499583006,-0.0020525113213807344,-0.003689517267048359
1.7275279917045588e+18,-0.0002270747791044414,-0.0025125357788056135,-0.003923421259969473
1.727527991710559e+18,0.0011005664709955454,-0.005781509913504124,-0.006065315566956997
1.727527991713559e+18,-0.0015337009681388736,-0.002093417104333639,-0.005024290177971125
1.7275279917195592e+18,-0.0023833673913031816,-0.0033026000019162893,-0.004957391880452633
1.7275279917255593e+18,-0.0022663443814963102,-0.0025444990023970604,-0.002936811186373234
1.7275279917315594e+18,-0.0039817411452531815,-0.003542947815731168,-0.005283614154905081
1.7275279917375596e+18,-0.005460892338305712,-0.004162646364420652,-0.003617176553234458
1.7275279917435597e+18,-0.009828014299273491,-0.0017924766289070249,-0.0025588897988200188
1.7275279917495598e+18,-0.00689080310985446,-0.005053764209151268,-0.004235625267028809
1.72752799175556e+18,-0.004768487997353077,-0.005741854198276997,-0.00679082190617919
1.72752799175856e+18,-0.006801586598157883,-0.0074012670665979385,-0.0027861762791872025
1.7275279917645601e+18,-0.001567761180922389,-0.0038074273616075516,-0.0011477111838757992
1.7275279917705603e+18,-0.0018433415098115802,-0.006017593666911125,-0.0038224898744374514
1.7275279917765604e+18,-0.001853602472692728,-0.0043572899885475636,-0.005584333091974258
1.7275279917795604e+18,-0.002097404096275568,-0.0041861278004944324,-0.0030959045980125666
1.7275279917855606e+18,-0.0023262021131813526,-0.0016186349093914032,-0.004410586319863796
1.7275279917915607e+18,-0.0026383704971522093,-0.0008101932471618056,-0.0043874019756913185
1.7275279917975608e+18,-0.0037965865340083838,0.0004365763161331415,-0.004954512696713209
1.727527991803561e+18,-0.005891731940209866,-0.001641562907025218,-0.0034591946750879288
1.727527991806561e+18,-0.004662833176553249,-0.00014926603762432933,-0.0029818161856383085
1.7275279918125612e+18,-0.005651742685586214,-0.0010869592661038041,-0.004340433981269598
1.7275279918185613e+18,-0.006738694384694099,-0.0013342187739908695,-0.0034499168395996094
1.7275279918245614e+18,-0.005226959474384785,0.0006429594941437244,-0.0012444250751286745
1.7275279918305615e+18,-0.004727479536086321,-0.002038966864347458,-0.004064090549945831
1.7275279918335616e+18,-0.00742265023291111,-0.0019046873785555363,-0.003910878207534552
1.7275279918395617e+18,0.000370753463357687,-0.002937659388408065,-0.0028720537666231394
1.7275279918455619e+18,-0.0025634411722421646,-0.0020368234254419804,-0.002740394789725542
1.727527991851562e+18,0.0012436364777386189,-0.000997695722617209,-0.010405468754470348
1.727527991854562e+18,0.004390976391732693,-0.0018132012337446213,-0.0090260598808527
1.7275279918635622e+18,0.004046214744448662,-0.001961620058864355,-0.027375683188438416
1.7275279918665623e+18,-0.0003598947077989578,0.0003621823852881789,-0.033704351633787155
1.7275279918725624e+18,0.002687329426407814,-0.0028765774331986904,-0.04534320905804634
1.7275279918785626e+18,-0.0014370488934218884,-0.002017990918830037,-0.04726289212703705
1.7275279918815626e+18,-0.0018014847300946712,-0.00020329163817223161,-0.04970365762710571
1.7275279918875628e+18,-0.0036515339743345976,0.00224733492359519,-0.05037418007850647
1.727527991893563e+18,-0.0026563694700598717,0.002191288862377405,-0.05175608769059181
1.727527991899563e+18,-0.0006088928785175085,-0.0036985003389418125,-0.051125697791576385
1.7275279919055631e+18,0.003267925698310137,0.0027539883740246296,-0.05110688507556915
1.7275279919085632e+18,0.003561699762940407,0.0018231570720672607,-0.05233355239033699
1.7275279919145633e+18,0.0053052231669425964,0.0027320939116179943,-0.050534699112176895
1.7275279919205635e+18,0.006132322829216719,-0.0010102668311446905,-0.0504889152944088
1.7275279919265636e+18,0.003065533237531781,0.003962100949138403,-0.05028528347611427
1.7275279919325637e+18,0.0035778083838522434,0.003325261641293764,-0.0516398623585701
1.7275279919355638e+18,0.004950697533786297,-0.0008288371609523892,-0.04845790937542915
1.727527991941564e+18,0.003600269090384245,0.0008418739307671785,-0.050216712057590485
1.727527991947564e+18,0.0021309866569936275,0.0013868360547348857,-0.04722125083208084
1.7275279919535642e+18,1.332222018390894e-05,-0.0002713933354243636,-0.05126560851931572
1.7275279919565642e+18,-0.001051422324962914,-0.00037859356962144375,-0.048353586345911026
1.7275279919625644e+18,0.0003152867720928043,-0.0005479558603838086,-0.047334618866443634
1.7275279919685645e+18,-0.001424434594810009,-0.0011237123981118202,-0.048654284328222275
1.7275279919745646e+18,0.0014517217641696334,0.0005044025601819158,-0.04805577173829079
1.7275279919775647e+18,-0.002492138184607029,0.0029357103630900383,-0.050885092467069626
1.7275279919835648e+18,-0.00017893180483952165,0.000607331923674792,-0.0501251295208931
1.727527991989565e+18,0.0025066060479730368,0.002885655499994755,-0.04654308408498764
1.727527991995565e+18,0.00038302759639918804,-0.0008741250494495034,-0.048983797430992126
1.727527991998565e+18,0.0008340675849467516,0.0016247367020696402,-0.04730154573917389
1.7275279920045652e+18,0.0013831628020852804,0.0011137909023091197,-0.046853601932525635
1.7275279920105654e+18,0.0008119369740597904,0.0005340780480764806,-0.047331128269433975
1.7275279920165655e+18,0.0010629409225657582,0.002238404005765915,-0.04466358572244644
1.7275279920195656e+18,-0.0007623620331287384,-0.0006227756384760141,-0.043972667306661606
1.7275279920255657e+18,-0.0014240479795262218,0.002150664571672678,-0.043829113245010376
1.7275279920315658e+18,-0.00038567068986594677,-0.0002904599532485008,-0.0422128401696682
1.727527992037566e+18,-0.004848165437579155,0.0005275210132822394,-0.03857535123825073
1.727527992043566e+18,-0.0026698801666498184,0.0003706461866386235,-0.036680933088064194
1.7275279920465661e+18,-0.0032324157655239105,0.0005721042398363352,-0.03721117600798607
1.7275279920525663e+18,0.0021214676089584827,0.0006354499491862953,-0.036476485431194305
1.7275279920585664e+18,-0.0032506063580513,-0.0032576227094978094,-0.03453995659947395
1.7275279920645665e+18,-0.0011904982384294271,0.0010527792619541287,-0.03539374843239784
1.7275279920675666e+18,-0.0011616882402449846,-1.7775280866771936e-05,-0.0321853868663311
1.7275279920735667e+18,0.0028201774694025517,-0.0009083098848350346,-0.03174097463488579
1.7275279920795668e+18,-0.0006419231649488211,0.001163606415502727,-0.030006272718310356
1.727527992085567e+18,-0.0009006666950881481,0.0013248247560113668,-0.027133727446198463
1.727527992091567e+18,-0.00496282521635294,0.0021253637969493866,-0.028269924223423004
1.7275279920975672e+18,-0.004068623296916485,0.0030047083273530006,-0.026852181181311607
1.7275279921035674e+18,-0.003780574072152376,0.00021786917932331562,-0.020469965413212776
1.7275279921065674e+18,-0.003997723571956158,0.0013945485698059201,-0.021905511617660522
1.7275279921125676e+18,-0.005487832706421614,0.0025287456810474396,-0.019399533048272133
1.7275279921185677e+18,-0.004083720967173576,-1.9678351236507297e-05,-0.02107776142656803
1.7275279921215677e+18,-0.004611698444932699,0.003713943064212799,-0.020470673218369484
1.727527992127568e+18,-0.005478026811033487,0.00040369597263634205,-0.016350368037819862
1.727527992133568e+18,-0.005412915255874395,-0.006695536896586418,-0.01287810504436493
1.727527992139568e+18,-0.00022652558982372284,-0.0031487341038882732,-0.012925987131893635
1.7275279921455683e+18,-0.0060057383961975574,-0.00440730806440115,-0.0119624650105834
1.7275279921485683e+18,-0.007460184395313263,-0.004265744239091873,-0.011419598944485188
1.7275279921545684e+18,-0.00466127460822463,-0.003834313713014126,-0.010204920545220375
1.7275279921605686e+18,-0.004020910244435072,-0.0016357676358893514,-0.009019605815410614
1.7275279921665687e+18,-0.0064604757353663445,-0.0005736134480684996,-0.007824213244020939
1.7275279921725688e+18,-0.006258072331547737,0.0004937196499668062,-0.006390913389623165
1.727527992175569e+18,-0.007831891998648643,-0.0010393880074843764,-0.005562279839068651
1.727527992181569e+18,-0.0018324616830796003,0.0015922288876026869,-0.0018051154911518097
1.7275279921875692e+18,-0.0025294581428170204,-0.00022878497838974,0.0007532298332080245
1.7275279921935693e+18,-0.0009813262149691582,0.00173239316791296,0.0025853035040199757
1.7275279921995694e+18,0.001315312460064888,-0.0011791003635153174,0.0013893728610128164
1.7275279922055695e+18,-0.0013160009402781725,-0.002353025833144784,0.006125310435891151
1.7275279922115697e+18,0.0009155003353953362,0.0017097078962251544,0.0053703258745372295
1.7275279922145697e+18,0.0012376484228298068,-0.0006367044406943023,0.004442761652171612
1.7275279922205699e+18,-0.001730622141622007,0.002764106495305896,0.007074304856359959
1.72752799222657e+18,0.0021347131114453077,0.0024921828880906105,0.005412277765572071
1.72752799223257e+18,-0.0024304536636918783,0.0010775488335639238,0.007427246775478125
1.7275279922385702e+18,-0.0009249669383279979,0.002207539277151227,0.01179438829421997
1.7275279922415703e+18,-0.00035141478292644024,0.002566767390817404,0.008477763272821903
1.7275279922475704e+18,0.0008711466798558831,0.002155137248337269,0.014905004762113094
1.7275279922535706e+18,0.0016971684526652098,0.003621686715632677,0.011286982335150242
1.7275279922595707e+18,0.003204093314707279,0.0007452323916368186,0.015021591447293758
1.7275279922625708e+18,0.005894424859434366,-0.0006940428866073489,0.017235256731510162
1.727527992268571e+18,0.004745944868773222,-0.0015993010019883513,0.017078865319490433
1.727527992274571e+18,0.0022151023149490356,0.0023579508997499943,0.020233681425452232
1.7275279922805711e+18,0.00245240842923522,2.245896030217409e-05,0.0198364220559597
1.7275279922835712e+18,0.0026164832524955273,-0.0008044957648962736,0.01758597418665886
1.7275279922895713e+18,-0.0007201941916719079,0.0009115141583606601,0.019840717315673828
1.7275279922955715e+18,-0.0006942336913198233,-0.0011265421053394675,0.016711048781871796
1.7275279923015716e+18,-0.002062643878161907,0.0020023812539875507,0.01814240589737892
1.7275279923075717e+18,-0.0032778882887214422,0.0014302671188488603,0.022126883268356323
1.7275279923135718e+18,-0.0036545405164361,-0.0030878072138875723,0.02048186957836151
1.727527992316572e+18,-0.0011650914093479514,-0.0020155124366283417,0.022754425182938576
1.727527992322572e+18,-0.0018851207569241524,0.0027101514860987663,0.02300247922539711
1.7275279923285722e+18,0.002179154194891453,0.001463326276279986,0.025530410930514336
1.7275279923345723e+18,0.00842913519591093,-0.001028627622872591,0.02598794549703598
1.7275279923405724e+18,0.004073163960129023,-0.001624744152650237,0.028001464903354645
1.7275279923435725e+18,0.00649712048470974,-0.003028258215636015,0.026740126311779022
1.7275279923495726e+18,0.007917477749288082,-0.004485617391765118,0.028254320845007896
1.7275279923555727e+18,0.003652101382613182,-0.001951443962752819,0.03102542646229267
1.7275279923615729e+18,0.001917335670441389,-0.0028211676981300116,0.030994482338428497
1.727527992367573e+18,0.0006217568879947066,-0.002760173985734582,0.02993663214147091
1.727527992373573e+18,-0.001942258095368743,-0.0001895441673696041,0.03338770568370819
1.7275279923765732e+18,-0.003539682598784566,-0.0003092193801421672,0.03244403749704361
1.7275279923825733e+18,-0.003272106871008873,0.0012478085700422525,0.03234199807047844
1.7275279923885734e+18,-0.0033873687498271465,0.00022669206373393536,0.034927740693092346
1.7275279923945736e+18,-0.002159012481570244,5.216570571064949e-05,0.03353690356016159
1.7275279924005737e+18,0.00015389604959636927,0.0029445355758070946,0.03457503020763397
1.7275279924065738e+18,0.0028250832110643387,-0.0006040247390046716,0.03403262048959732
1.727527992409574e+18,0.002438806463032961,0.001320076291449368,0.03360897675156593
1.727527992415574e+18,0.007987267337739468,-0.00204695132561028,0.03314201161265373
1.7275279924215741e+18,0.0070737977512180805,0.0028768698684871197,0.03646878898143768
1.7275279924275743e+18,0.0062847440131008625,0.0013715502573177218,0.038080520927906036
1.7275279924335744e+18,0.0041481563821434975,0.006789361126720905,0.03719809651374817
1.7275279924395745e+18,0.0001284035388380289,0.003918253816664219,0.04117405042052269
1.7275279924425746e+18,-0.002106502652168274,0.006631837226450443,0.037755001336336136
1.7275279924485747e+18,-0.004717011004686356,0.0031493641436100006,0.03807584568858147
1.7275279924545748e+18,-0.0056662606075406075,0.007503897417336702,0.03984718769788742
1.727527992460575e+18,-0.004560466390103102,0.003294112626463175,0.040244802832603455
1.727527992466575e+18,0.0015037417178973556,0.0010288376361131668,0.04103323817253113
1.7275279924725752e+18,0.0007261562859639525,0.0030717828776687384,0.04319041594862938
1.7275279924785754e+18,0.0022248581517487764,0.006269658450037241,0.04359910637140274
1.7275279924845755e+18,0.0036491951905190945,0.0018137522274628282,0.04331110045313835
1.7275279924875756e+18,0.0049589769914746284,0.005876136943697929,0.04508688300848007
1.7275279924935757e+18,0.0017885647248476744,0.0034822002053260803,0.04344954714179039
1.7275279924995758e+18,0.0019062795909121633,0.006687958259135485,0.04426439851522446
1.727527992505576e+18,-0.001130340970121324,0.004743865691125393,0.04237084090709686
1.727527992508576e+18,-0.00013137777568772435,0.0072860135696828365,0.046528410166502
1.7275279925145761e+18,-0.0011850885348394513,0.002102749887853861,0.0516795851290226
1.7275279925205763e+18,-0.0030364252161234617,0.005900808610022068,0.05156372860074043
1.7275279925265764e+18,-0.0016084725502878428,0.004022229462862015,0.04864988476037979
1.7275279925325765e+18,-0.002054942771792412,0.004701219964772463,0.05184251442551613
1.7275279925355766e+18,0.0006914240075275302,0.003503540763631463,0.05177772790193558
1.7275279925415767e+18,0.0011659602168947458,-0.0004605535650625825,0.05209803208708763
1.7275279925475768e+18,0.0052988058887422085,-0.0007671788334846497,0.05210582911968231
1.727527992553577e+18,0.0022071446292102337,0.0015351424226537347,0.05250992998480797
1.727527992559577e+18,0.003536366857588291,-0.0006749300519004464,0.053422268480062485
1.7275279925625772e+18,0.0011443225666880608,-0.003204409033060074,0.05360384285449982
1.7275279925685773e+18,-0.0010625931899994612,0.00232437951490283,0.05152491480112076
1.7275279925745774e+18,-0.0009138722671195865,0.0023838782217353582,0.055489033460617065
1.7275279925805775e+18,-0.001072252867743373,0.0017618749989196658,0.05304144322872162
1.7275279925835776e+18,-0.003511833492666483,0.0022578442003577948,0.05847581848502159
1.7275279925895777e+18,-0.0022327653132379055,0.00013440498150885105,0.05728134140372276
1.7275279925955779e+18,-0.0007853223942220211,0.0015550140524283051,0.05854414030909538
1.727527992601578e+18,0.0016542895464226604,-0.0005523284198716283,0.05944027751684189
1.727527992607578e+18,0.0040258681401610374,-0.0004546396667137742,0.058811210095882416
1.7275279926135782e+18,0.001525798812508583,6.296939682215452e-05,0.06259559839963913
1.7275279926165783e+18,0.002050850074738264,0.0006939539453014731,0.06122814491391182
1.7275279926225784e+18,-0.0017169794300571084,-0.0008294919389300048,0.06009316071867943
1.7275279926285786e+18,0.002360439859330654,-0.002086860127747059,0.06013005971908569
1.7275279926345787e+18,-0.0005008921143598855,-0.00022943541989661753,0.06382884085178375
1.7275279926405788e+18,-0.00027440814301371574,0.001918808207847178,0.06434549391269684
1.727527992646579e+18,-0.0021677175536751747,-0.0016694215591996908,0.06305599957704544
1.727527992649579e+18,-0.0031527632381767035,-0.002785447286441922,0.06434965133666992
1.7275279926555791e+18,-0.0056156981736421585,-0.0009954140987247229,0.0657527819275856
1.7275279926615793e+18,-0.002798668574541807,-0.00017334833682980388,0.06719977408647537
1.7275279926675794e+18,-0.003436143510043621,-0.0021686507388949394,0.06798011064529419
1.7275279926735795e+18,-0.00037564439116977155,-0.0007447166135534644,0.06643418222665787
1.7275279926765796e+18,-0.0006332829943858087,0.0017638111021369696,0.06783472746610641
1.7275279926825797e+18,-0.0015513673424720764,0.0005259381723590195,0.06768336147069931
1.7275279926885798e+18,-0.00023239461006596684,0.0015614887233823538,0.07059501856565475
1.72752799269458e+18,-0.0027962385211139917,0.0017548459582030773,0.07030503451824188
1.72752799269758e+18,0.0007700066780671477,-0.0007462621433660388,0.07026881724596024
1.7275279927035802e+18,-0.0010041329078376293,0.002519122790545225,0.07061383128166199
1.7275279927095803e+18,0.00047320773592218757,0.0013866238296031952,0.07082653045654297
1.7275279927155804e+18,-0.002359868725761771,0.0019239906687289476,0.06862132251262665
1.7275279927215805e+18,-0.0005376199842430651,0.0003487637732177973,0.07257720828056335
1.7275279927275807e+18,0.00016263907309621572,0.00017770519480109215,0.07324771583080292
1.7275279927305807e+18,-0.00026227207854390144,1.1730706319212914e-05,0.07179178297519684
1.7275279927365809e+18,-0.00389112695120275,0.0006113349227234721,0.07424498349428177
1.727527992742581e+18,-0.0032965366262942553,0.003840560792014003,0.07306697964668274
1.727527992748581e+18,-0.005668042693287134,6.266834679991007e-05,0.07056151330471039
1.7275279927515812e+18,-0.0038685810286551714,0.0022314044181257486,0.07474523037672043
1.7275279927575813e+18,-0.0038920114748179913,0.0025143208913505077,0.07508613169193268
1.7275279927635814e+18,-0.002962091937661171,0.0016087276162579656,0.07350543141365051
1.7275279927695816e+18,0.001150099211372435,-4.502048250287771e-05,0.0780448392033577
1.7275279927725816e+18,-0.0039498163387179375,0.0004320086445659399,0.07729488611221313
1.7275279927785818e+18,0.0002519459230825305,-0.0005096769309602678,0.07683761417865753
1.727527992784582e+18,-0.00017690527602098882,-7.295137038454413e-05,0.07738566398620605
1.727527992790582e+18,0.000500593101605773,0.00021794080385006964,0.07668833434581757
1.7275279927965821e+18,-0.0008769077248871326,-0.0019079623743891716,0.07675953209400177
1.7275279927995822e+18,0.0014398552011698484,-0.00017770123668015003,0.0767509713768959
1.7275279928055823e+18,-0.002785430522635579,0.0021961182355880737,0.07854975759983063
1.7275279928115825e+18,-0.005252959206700325,0.0008423915132880211,0.07990002632141113
1.7275279928175826e+18,-0.006468268111348152,-0.00016260618576779962,0.07779112458229065
1.7275279928205827e+18,-9.259884245693684e-05,0.0004208470927551389,0.07773527503013611
1.7275279928265828e+18,-0.006338102743029594,0.00029219832504168153,0.07952643930912018
1.727527992832583e+18,-0.001472647418268025,0.004923687316477299,0.07718370109796524
1.727527992835583e+18,0.001330409781076014,-0.0016337473643943667,0.08104495704174042
1.727527992841583e+18,0.0006805409793742001,0.00244968687184155,0.07764515280723572
1.7275279928475832e+18,0.00481476541608572,-0.0007502221269533038,0.07815178483724594
1.7275279928535834e+18,0.004260524641722441,0.0009789473842829466,0.07918427139520645
1.7275279928595835e+18,0.004558282904326916,-0.00020643341122195125,0.07729985564947128
1.7275279928655836e+18,0.0036593989934772253,-9.419764683116227e-05,0.08090447634458542
1.7275279928685837e+18,0.002159722847864032,0.0003840162535198033,0.08010048419237137
1.7275279928745838e+18,0.0005873683840036392,-0.0004044403613079339,0.07912831753492355
1.727527992880584e+18,0.003969186916947365,0.0029851600993424654,0.07605058699846268
1.727527992883584e+18,-0.0032285870984196663,0.002281780354678631,0.07664521038532257
1.727527992889584e+18,-0.0013199294917285442,0.0006373214418999851,0.0795055478811264
1.7275279928955843e+18,-0.001844711834564805,0.0007692325161769986,0.07669178396463394
1.7275279929015844e+18,0.0002496131928637624,9.123064228333533e-05,0.07643511891365051
1.7275279929045844e+18,-0.0038807885721325874,0.0004616742953658104,0.07878721505403519
1.7275279929105846e+18,-0.00035161449341103435,-0.0014759693294763565,0.07567242532968521
1.7275279929165847e+18,0.00313957454636693,-0.0025176657363772392,0.07470229268074036
1.7275279929225848e+18,0.0004824986681342125,2.9168208129704e-05,0.07344446331262589
1.727527992928585e+18,0.0016905863303691149,-0.0007452326826751232,0.0762195959687233
1.727527992931585e+18,0.0018254593014717102,-0.0009863268351182342,0.07260527461767197
1.7275279929375852e+18,0.0020558589603751898,-0.001537633826956153,0.07314353436231613
1.7275279929435853e+18,0.0026363995857536793,0.0021028879564255476,0.07009446620941162
1.7275279929495854e+18,0.004195242654532194,0.000852314056828618,0.07261127233505249
1.7275279929555855e+18,0.003531296271830797,0.0014053547056391835,0.06759712845087051
1.7275279929585856e+18,0.0016952033620327711,0.0019877059385180473,0.07036516070365906
1.7275279929645857e+18,0.004187317099422216,0.0006661192746832967,0.07077173888683319
1.7275279929705859e+18,-0.0021614599972963333,0.0009004095336422324,0.06827393174171448
1.727527992973586e+18,-0.0010171565227210522,0.003419883083552122,0.0676632672548294
1.727527992979586e+18,-0.002024316694587469,0.0007017936441116035,0.06622891128063202
1.7275279929855862e+18,-0.004586515016853809,0.0009590007248334587,0.06810424476861954
1.7275279929915863e+18,-0.0030516115948557854,0.0005332021974027157,0.06416145712137222
1.7275279929945864e+18,-0.0020480663515627384,0.001123578054830432,0.06571993231773376
1.7275279930005865e+18,-0.00026509177405387163,0.0016580111114308238,0.06309177726507187
1.7275279930065866e+18,-0.003132021287456155,0.005112321116030216,0.060192856937646866
1.7275279930125868e+18,0.003175212536007166,0.003193120239302516,0.060652632266283035
1.727527993018587e+18,-0.00010219309478998184,0.002489119302481413,0.059809837490320206
1.727527993024587e+18,0.00018709860160015523,0.003915918059647083,0.05701112374663353
1.727527993027587e+18,0.00011967294267378747,0.0032296120189130306,0.0568108931183815
1.7275279930335872e+18,0.0007989723235368729,0.002408066065981984,0.057458117604255676
1.7275279930395873e+18,-0.002515384927392006,0.001373772043734789,0.054001715034246445
1.7275279930455875e+18,-0.0050149657763540745,0.0003654648317024112,0.05298001691699028
1.7275279930485875e+18,-0.004878650419414043,-0.0036848350428044796,0.05369296669960022
1.7275279930545876e+18,-0.0043880520388484,-0.006973875220865011,0.053890008479356766
1.7275279930605878e+18,-0.00514292623847723,-0.007254261057823896,0.05237375944852829
1.727527993066588e+18,0.0003367237513884902,-0.010919216088950634,0.05364757776260376
1.727527993072588e+18,0.003606196492910385,-0.009729277342557907,0.04953878000378609
1.727527993075588e+18,0.0015420455019921064,-0.01144343614578247,0.05486798286437988
1.7275279930815882e+18,0.0070002153515815735,-0.013872032053768635,0.04919079691171646
1.7275279930875884e+18,0.010856815613806248,-0.014406513422727585,0.04763279855251312
1.7275279930935885e+18,0.008333270438015461,-0.015523637644946575,0.04756079986691475
1.7275279930995886e+18,0.008028894662857056,-0.014720294624567032,0.050776414573192596
1.7275279931055887e+18,0.007093548309057951,-0.016098447144031525,0.0480562224984169
1.7275279931115889e+18,0.004484605975449085,-0.014905508607625961,0.047695886343717575
1.727527993117589e+18,0.0003381825517863035,-0.01599014550447464,0.046111006289720535
1.727527993120589e+18,0.002194472122937441,-0.019829101860523224,0.04514875262975693
1.7275279931265892e+18,0.003030567429959774,-0.01868678629398346,0.04620258882641792
1.7275279931325893e+18,0.0038309332448989153,-0.016743266955018044,0.046176642179489136
1.7275279931385894e+18,0.007871735841035843,-0.017057178542017937,0.043822795152664185
1.7275279931445896e+18,0.008176716044545174,-0.02029412053525448,0.04538853093981743
1.7275279931505897e+18,0.009437344036996365,-0.023429857566952705,0.043371234089136124
1.7275279931535898e+18,0.00745499599725008,-0.01825467310845852,0.04242836683988571
1.72752799315959e+18,0.007924373261630535,-0.018966250121593475,0.04209993779659271
1.72752799316559e+18,0.0076356022618710995,-0.019869955256581306,0.04306028410792351
1.72752799316859e+18,0.008155524730682373,-0.016761230304837227,0.042273566126823425
1.7275279931745902e+18,0.005721217021346092,-0.01597057469189167,0.03792214393615723
1.7275279931805903e+18,0.004312383010983467,-0.020326174795627594,0.0445682629942894
1.7275279931865905e+18,0.001417516265064478,-0.01507157739251852,0.04122897610068321
1.7275279931925906e+18,0.0038816160522401333,-0.01626051776111126,0.038726117461919785
1.7275279931955907e+18,0.002811127807945013,-0.012762355618178844,0.039447031915187836
1.7275279932015908e+18,0.004481437616050243,-0.015978652983903885,0.03915286064147949
1.727527993207591e+18,0.003606483107432723,-0.010990878567099571,0.03670642897486687
1.727527993213591e+18,0.004502273630350828,-0.01169924158602953,0.03784924000501633
1.727527993216591e+18,0.005458499770611525,-0.012595167383551598,0.03701651841402054
1.7275279932225912e+18,0.006881330162286758,-0.00964867789298296,0.03734094649553299
1.7275279932285914e+18,0.0045441496185958385,-0.011113588698208332,0.03756440058350563
1.7275279932345915e+18,0.0029158107936382294,-0.009240700863301754,0.03497284650802612
1.7275279932405916e+18,0.002746567130088806,-0.008467277511954308,0.03322438895702362
1.7275279932465917e+18,0.003936914261430502,-0.010059458203613758,0.03335374966263771
1.7275279932525919e+18,0.002863198285922408,-0.008687354624271393,0.031284064054489136
1.727527993255592e+18,0.002520014066249132,-0.009848344139754772,0.030779283493757248
1.7275279932645921e+18,-0.0010950244031846523,-0.007340957876294851,0.033158112317323685
1.7275279932675922e+18,9.567376400809735e-05,-0.01165882870554924,0.03319855406880379
1.7275279932735923e+18,-0.0007829493843019009,-0.007366933859884739,0.03230850026011467
1.7275279932795924e+18,-0.0030073553789407015,-0.005426277872174978,0.0333842895925045
1.7275279932825925e+18,-0.0003055474953725934,-0.004135882947593927,0.028868770226836205
1.7275279932885926e+18,-0.0009948424994945526,-0.00011310214176774025,0.032049935311079025
1.7275279932945928e+18,-0.0024942485615611076,-0.0025728694163262844,0.031642165035009384
1.7275279932975928e+18,-0.0013362537138164043,-0.004196841269731522,0.027269259095191956
1.727527993303593e+18,0.0001104550901800394,0.0028656269423663616,0.02987566776573658
1.727527993309593e+18,-0.0011287885718047619,-0.0011615866096690297,0.02964308112859726
1.7275279933155932e+18,0.00161189294885844,-0.004614026285707951,0.030644791200757027
1.7275279933185933e+18,0.00023641029838472605,0.0024724439717829227,0.027482403442263603
1.7275279933245934e+18,-8.836248889565468e-05,-0.0031203001271933317,0.029453298076987267
1.7275279933305935e+18,-0.005065353121608496,-0.0011504683643579483,0.02770807594060898
1.7275279933365937e+18,-0.0033593042753636837,-0.001077870954759419,0.02848312072455883
1.7275279933395937e+18,-0.0035464162938296795,-0.0002840650558937341,0.02674543857574463
1.7275279933455939e+18,-0.006302164867520332,0.0016095004975795746,0.025515742599964142
1.727527993351594e+18,-0.003244285471737385,0.005781031679362059,0.028398729860782623
1.727527993357594e+18,-0.0011408061254769564,0.0016442133346572518,0.02697339467704296
1.7275279933605942e+18,-0.0047991652972996235,0.0027254349552094936,0.02399754896759987
1.7275279933665943e+18,-0.0015037120319902897,0.0020974273793399334,0.02717195264995098
1.7275279933725944e+18,-0.0033387625589966774,0.0010979531798511744,0.023580092936754227
1.7275279933785946e+18,-0.0003234932664781809,-0.0005696510197594762,0.024477386847138405
1.7275279933815946e+18,-0.001110499375499785,-0.0012613005237653852,0.024301238358020782
1.7275279933875948e+18,-0.0001592901535332203,0.000812915270216763,0.02474501170217991
1.727527993393595e+18,-0.00013408507220447063,0.0005230784299783409,0.02271207794547081
1.727527993396595e+18,-0.0022423819173127413,0.0011409437283873558,0.020746901631355286
1.727527993402595e+18,-0.0029982749838382006,0.004363266285508871,0.02422693371772766
1.7275279934085952e+18,-0.0026344959624111652,0.0021235691383481026,0.02387368679046631
1.7275279934145953e+18,-0.007567329332232475,0.0026708326768130064,0.02486146055161953
1.7275279934175954e+18,-0.007045219652354717,0.002834809711202979,0.02103489823639393
1.7275279934235955e+18,-0.00473713269457221,0.0017603486776351929,0.024241432547569275
1.7275279934295956e+18,-0.003334543202072382,0.002570321084931493,0.024382231757044792
1.7275279934355958e+18,-0.00518517242744565,0.0028069308027625084,0.021219376474618912
1.727527993441596e+18,-0.004940374754369259,-0.0012391996569931507,0.023294346407055855
1.727527993447596e+18,-0.0022855857387185097,0.00041890022112056613,0.021440615877509117
1.727527993450596e+18,-0.0016616579378023744,0.00028016354190185666,0.022540567442774773
1.7275279934565962e+18,-0.00398999685421586,-0.00011123245349153876,0.020745841786265373
1.7275279934625964e+18,-0.005735832266509533,0.0006584505317732692,0.01849939487874508
1.7275279934685965e+18,-0.004356888122856617,0.0026406212709844112,0.020812276750802994
1.7275279934715965e+18,-0.002272280864417553,0.004305630922317505,0.018717428669333458
1.7275279934775967e+18,-0.0034875432029366493,0.00287063280120492,0.019308598712086678
1.7275279934835968e+18,-0.00431479187682271,0.005606243386864662,0.01998937875032425
1.727527993489597e+18,-0.004091754090040922,0.0036414931528270245,0.02032230794429779
1.727527993495597e+18,-0.004574785940349102,0.00311513664200902,0.019897693768143654
1.727527993498597e+18,-0.005533245392143726,0.006203203462064266,0.01985374093055725
1.7275279935045972e+18,-0.0005172542296350002,0.00566472765058279,0.016125358641147614
1.7275279935105974e+18,-0.0046697924844920635,0.0033540320582687855,0.018618488684296608
1.7275279935165975e+18,-0.0022923878859728575,0.004720473196357489,0.01667165197432041
1.7275279935195976e+18,-0.002253700280562043,0.006662073545157909,0.017035381868481636
1.7275279935255977e+18,-0.0037361825816333294,0.002892984077334404,0.017746835947036743
1.7275279935315978e+18,-0.0028371871449053288,0.0011364349629729986,0.01645740121603012
1.727527993537598e+18,-0.00382243562489748,0.004401600454002619,0.01748022250831127
1.727527993543598e+18,-0.002456457819789648,0.005888603627681732,0.018828267231583595
1.7275279935465981e+18,9.151408448815346e-06,0.0025834988337010145,0.016043778508901596
1.7275279935525983e+18,0.0014032172039151192,0.00525562884286046,0.015584374777972698
1.7275279935585984e+18,0.0010076983598992229,0.0073696402832865715,0.01622921973466873
1.7275279935645985e+18,-0.003267311956733465,0.007619955111294985,0.017950663343071938
1.7275279935705987e+18,0.0010713906958699226,0.007469555828720331,0.014443938620388508
1.7275279935735987e+18,-0.003874218324199319,0.007686365861445665,0.01804504543542862
1.7275279935795988e+18,-0.004457380622625351,0.0050900774076581,0.016358302906155586
1.727527993585599e+18,-0.004563639406114817,0.007321157958358526,0.01609719917178154
1.727527993591599e+18,-0.008219077251851559,0.005474318750202656,0.012151232920587063
1.7275279935975992e+18,-0.002112343907356262,0.006002545822411776,0.014876868575811386
1.7275279936005993e+18,-0.0031486786901950836,0.0067511554807424545,0.014911826699972153
1.7275279936065994e+18,-0.001607922138646245,0.006562595255672932,0.014589241705834866
1.7275279936125996e+18,-0.0017114442307502031,0.0044837105087935925,0.01518396008759737
1.7275279936185997e+18,-0.0020722707267850637,0.0028964178636670113,0.013038487173616886
1.7275279936245998e+18,-0.001406132592819631,0.005943419877439737,0.015455703251063824
1.7275279936276e+18,-0.0012178074102848768,0.0058989026583731174,0.01594339869916439
1.7275279936336e+18,-0.0038792635314166546,0.004196952097117901,0.011421659961342812
1.7275279936396e+18,-0.0034593772143125534,0.001964116469025612,0.012341530062258244
1.7275279936486003e+18,-0.0029333061538636684,0.0029326602816581726,0.011388652957975864
1.7275279936576005e+18,-0.0029028314165771008,0.0031646660063415766,0.013441878370940685
1.7275279936666007e+18,-0.0022927371319383383,0.004413899499922991,0.012918747961521149
1.7275279936726008e+18,-0.0013270507333800197,0.003441386390477419,0.01257103681564331
1.727527993681601e+18,-0.004951649345457554,0.003316182643175125,0.011568170040845871
1.7275279936906012e+18,-9.822228457778692e-05,0.003647752106189728,0.013548485934734344
1.7275279936966013e+18,-0.0020784661173820496,0.0050436221063137054,0.009918032214045525
1.7275279937056015e+18,-0.0020939731039106846,0.004559798166155815,0.009604374878108501
1.7275279937176018e+18,-0.0015278556384146214,0.003286507911980152,0.009660815820097923
1.727527993726602e+18,-0.0012215332826599479,0.004363618325442076,0.011529986746609211
1.7275279937356022e+18,0.0010656396625563502,-0.0025064079090952873,0.009402129799127579
1.7275279937446024e+18,-0.0006505041965283453,0.0020189678762108088,0.008363915607333183
1.7275279937536026e+18,-0.002649676986038685,-0.0007545119733549654,0.011272316798567772
1.7275279937626028e+18,0.0022566181141883135,0.0017730856779962778,0.008491359651088715
1.727527993771603e+18,-0.000958633900154382,0.005447435192763805,0.008875619620084763
1.7275279937806031e+18,-0.0030356410425156355,0.002399819903075695,0.010234443470835686
1.7275279937896033e+18,0.001702010165899992,-0.00042049086187034845,0.009012270718812943
1.7275279937986035e+18,-0.0015960922464728355,-0.0013111319858580828,0.007627135142683983
1.7275279938076037e+18,-0.00013867788948118687,-0.0007528870482929051,0.007331738714128733
1.727527993816604e+18,-0.0020535674411803484,-0.00428050896152854,0.007169553078711033
1.727527993825604e+18,-0.002024417743086815,-0.0038802451454102993,0.006705859210342169
1.7275279938346043e+18,-0.0003996468149125576,-0.0009254980832338333,0.00870535522699356
1.7275279938436045e+18,-0.006402593106031418,0.003445973386988044,0.007201272062957287
1.7275279938526047e+18,-0.001691860961727798,0.0029472499154508114,0.005524618551135063
1.7275279938616049e+18,-0.0008917174418456852,0.002962966915220022,0.010563747957348824
1.727527993870605e+18,-0.0012892268132418394,-0.0018153069540858269,0.006634799763560295
1.7275279938796052e+18,-0.00011779012857005,-0.0013237802777439356,0.007612304762005806
1.7275279938886054e+18,-5.019386298954487e-05,-0.0002107496839016676,0.006908433977514505
1.7275279938976056e+18,-0.003992320038378239,-0.0036706067621707916,0.006660097278654575
1.7275279939066058e+18,-0.0024766712449491024,-0.0011646307539194822,0.008356180042028427
1.727527993915606e+18,-0.0026936435606330633,-0.001309961429797113,0.005922505632042885
1.7275279939246062e+18,-0.0026734818238765,-0.0004905127570964396,0.004757408984005451
1.7275279939366065e+18,-0.0014191658701747656,-0.0015309605514630675,0.0016904566437005997
1.7275279939456067e+18,0.0005782476509921253,-0.0011482576373964548,0.004391905851662159
1.7275279939546068e+18,-0.0028832131065428257,0.0003051476669497788,0.005979451816529036
1.727527993963607e+18,-0.0013940080534666777,0.0008065673755481839,0.004425444640219212
1.7275279939726072e+18,-0.00172617647331208,-3.4897049772553146e-05,0.007187245413661003
1.7275279939816074e+18,-0.0023936941288411617,0.0016362174646928906,0.005836347118020058
1.7275279939906076e+18,-0.005073476582765579,-0.0030870535410940647,0.0062781027518212795
1.7275279939996078e+18,0.0009566901135258377,-0.0004039366904180497,0.006744149141013622
1.727527994008608e+18,0.0010393959237262607,-0.0009189947741106153,0.0037208895664662123
1.7275279940176082e+18,0.0019787647761404514,0.0027388890739530325,0.004992337431758642
1.7275279940266084e+18,0.0016073830192908645,-0.00028337101684883237,0.004665745422244072
1.7275279940356086e+18,-0.000797318120021373,0.000701110577210784,0.004998941905796528
1.7275279940446088e+18,-0.0021310022566467524,0.0007525220862589777,0.004547457210719585
1.727527994053609e+18,-0.0005233252886682749,-0.003056708723306656,0.0006584762595593929
1.7275279940626092e+18,-0.0005111629143357277,-4.287995398044586e-05,0.005694341380149126
1.7275279940716093e+18,0.00014733914576936513,-0.0008815676555968821,0.003055809298530221
1.7275279940806095e+18,0.0008963040309026837,0.0007347207865677774,0.0010338982101529837
1.7275279940896097e+18,0.0016162374522536993,0.003512904979288578,0.006031157448887825
1.72752799409861e+18,0.0018960984889417887,0.002851748839020729,0.001052909530699253
1.72752799410761e+18,-0.0003169875708408654,0.002275896957144141,0.001779448240995407
1.7275279941166103e+18,-0.0010623923735693097,0.0024278322234749794,0.0006644264794886112
1.7275279941256105e+18,-0.001356034423224628,0.0006323704728856683,0.0011285498039796948
1.7275279941346107e+18,-0.0006832943763583899,0.004451335873454809,0.0018540623132139444
1.727527994143611e+18,-0.0009695899207144976,0.004653270356357098,0.004459320101886988
1.727527994152611e+18,-0.000671957153826952,0.003122907830402255,-0.00032461644150316715
1.7275279941586112e+18,-0.00303157651796937,0.00048348389100283384,0.0035049961879849434
1.7275279941676114e+18,-0.004481488838791847,-0.0007570645539090037,-0.00015898048877716064
1.7275279941766116e+18,-0.0015849913470447063,-0.0019864344503730536,-3.1250063329935074e-05
1.7275279941856118e+18,-0.0030102217569947243,0.0007721093716099858,-0.0007693713996559381
1.727527994194612e+18,0.0006690261652693152,-0.0005014173220843077,0.0020893854089081287
1.7275279942036122e+18,0.0007560617523267865,0.0011211954988539219,0.004809587262570858
1.7275279942126124e+18,0.000636309094261378,0.0010404549539089203,0.0016657526139169931
1.7275279942216125e+18,-0.003162145847454667,0.00037478184094652534,0.0032860334031283855
1.7275279942306127e+18,-0.0013844217173755169,-0.0002086247259285301,0.002534594153985381
1.727527994239613e+18,-0.0019073508447036147,-0.0027333793696016073,0.002585618756711483
1.727527994248613e+18,-0.0004958207719027996,0.0024323018733412027,0.0014962258283048868
1.7275279942546132e+18,0.0028827893547713757,0.0003510026726871729,0.0005411901511251926
1.7275279942606134e+18,0.0020122299902141094,6.995198782533407e-05,0.00011257664300501347
1.7275279942666135e+18,0.002242678077891469,0.0025230697356164455,0.0004379602614790201
1.7275279942756137e+18,0.0025554730091243982,0.0007372932741418481,0.0023510155733674765
1.7275279942816138e+18,0.0007383481133729219,0.002384925028309226,0.0005797785706818104
1.727527994290614e+18,0.0006454234244301915,0.0018519677687436342,0.0019360637525096536
1.7275279942996142e+18,-0.0008950663614086807,0.0034069744870066643,0.0001998312072828412
1.7275279943086144e+18,0.0002730935229919851,0.0020280841272324324,0.0009921945165842772
1.7275279943176146e+18,-0.002342408988624811,0.0015982603654265404,0.001239186618477106
1.7275279943236147e+18,-0.0013945164391770959,0.0016983149107545614,0.0034652764443308115
1.727527994332615e+18,-0.004442339297384024,-0.0030245096422731876,0.0037805575411766768
1.727527994341615e+18,-0.0006009509088471532,0.0006902176537550986,0.0004873843863606453
1.7275279943506153e+18,0.002239465480670333,0.003090193262323737,-0.0010581865208223462
1.7275279943596155e+18,-0.0015225863317027688,0.001835599890910089,0.0003565486695151776
1.7275279943656156e+18,-0.0005823669489473104,-0.0006031792145222425,-0.0005894190981052816
1.7275279943746158e+18,0.0029809437692165375,0.0024097224231809378,0.0005219844751991332
1.727527994383616e+18,-0.0028398255817592144,0.0034041195176541805,-0.0011415635235607624
1.7275279943926162e+18,-0.0032763080671429634,-0.0024112705141305923,-0.00014098096289671957
1.7275279944016164e+18,-0.0040207779966294765,0.0006858620326966047,0.0029356670565903187
1.7275279944106166e+18,-0.0016694950172677636,-0.000688245752826333,-0.0009689604630693793
1.7275279944196168e+18,-0.0004074973985552788,-6.55128387734294e-05,-0.002910459181293845
1.727527994428617e+18,-0.004522217903286219,0.00346794119104743,0.00037092447746545076
1.7275279944376172e+18,-0.0012198317563161254,0.00048652340774424374,0.00017219886649399996
1.7275279944466173e+18,-0.0031508158426731825,-0.0002236836007796228,0.000836437800899148
1.7275279944526175e+18,-0.0011475763749331236,0.0015460638096556067,-0.0001771512906998396
1.7275279944616177e+18,-0.004913201089948416,-0.0011239268351346254,0.0054575130343437195
1.7275279944706179e+18,-0.004720973316580057,-0.0004665448796004057,0.0026346524246037006
1.727527994479618e+18,-0.004346920643001795,-0.003762196283787489,-0.0038306729402393103
1.7275279944886182e+18,-0.0007648608880117536,-0.0049121021293103695,-0.0013930851127952337
1.7275279944976184e+18,-0.001512468559667468,-0.004042301792651415,-0.00356818875297904
1.7275279945066186e+18,0.0013572825118899345,-0.0006396801909431815,0.0017690013628453016
1.7275279945156188e+18,-0.00220176437869668,-0.0018270194996148348,-0.0010270311031490564
1.727527994524619e+18,-0.002545512281358242,-0.0010863466886803508,-0.00031159058562479913
1.7275279945366193e+18,-0.0057064928114414215,-0.002407967345789075,-0.0019518545595929027
1.7275279945456195e+18,0.0038422553334385157,-0.004281093832105398,0.0012720772065222263
1.7275279945546196e+18,0.00307485181838274,-0.004157750401645899,0.0016919414047151804
1.7275279945636198e+18,0.00432139728218317,-0.0018706127302721143,-0.002700651064515114
1.72752799457262e+18,0.00719717750325799,-0.0033121316228061914,-0.0017107140738517046
1.7275279945816202e+18,0.0033651315607130527,-0.0021590362302958965,-0.0014993611257523298
1.7275279945906204e+18,-0.00085967849008739,0.0007667912868782878,-0.0004135026829317212
1.7275279945996206e+18,0.001052536885254085,-0.002132405061274767,-0.0013920621713623405
1.7275279946086208e+18,-0.00059515330940485,-9.646988473832607e-05,-3.894447581842542e-05
1.727527994617621e+18,-0.002745899837464094,-0.00580642931163311,-0.003515259362757206
1.7275279946266212e+18,0.003914940170943737,-0.0026876116171479225,-0.0008190900553017855
1.7275279946356214e+18,-4.814635030925274e-05,0.0010978896170854568,-0.0021657482720911503
1.7275279946446216e+18,0.004291745834052563,0.0020024580880999565,0.001051481580361724
1.7275279946536218e+18,0.004235120490193367,0.001463193679228425,-0.001046924153342843
1.727527994662622e+18,0.00313116074539721,0.00254364637658,-0.0024761573877185583
1.7275279946716221e+18,0.0032760961912572384,-0.00033415519283153117,-0.002575941849499941
1.7275279946806223e+18,-0.0008210586966015399,0.0007436278974637389,-0.003825788851827383
1.7275279946896225e+18,-0.001350139151327312,-0.002887975424528122,-0.002609637100249529
1.7275279946956227e+18,0.00037055209395475686,-0.00040609785355627537,-0.002338469959795475
1.7275279947016228e+18,0.0012373403878882527,-0.00017616176046431065,-0.0017573118675500154
1.727527994710623e+18,0.004879840649664402,0.002626915695145726,-0.002139513846486807
1.7275279947196232e+18,0.00692638847976923,0.0017345651285722852,0.0010655017103999853
1.7275279947256233e+18,0.0024674285668879747,0.001155638718046248,-0.0017154571833088994
1.7275279947346235e+18,0.0007336946437135339,-7.004011422395706e-06,-0.000568946183193475
1.7275279947406236e+18,0.0015764478594064713,0.0010450307745486498,-0.0005535724922083318
1.7275279947466237e+18,-0.0036742850206792355,0.0009539503953419626,-0.0037564460653811693
1.727527994755624e+18,-0.0033929708879441023,0.0023289949167519808,-0.0023216588888317347
1.727527994761624e+18,-0.004713980481028557,0.005327913910150528,-0.0015425833407789469
1.7275279947706243e+18,-0.002564056543633342,0.0035332869738340378,-0.004053354728966951
1.7275279947796244e+18,-0.0005744988447986543,0.0007316897390410304,-0.0013844576897099614
1.7275279947856246e+18,0.0009371889173053205,0.0007593844784423709,-0.0006312536424957216
1.7275279947946248e+18,-0.0023903106339275837,-0.0016974906902760267,-0.0012253003660589457
1.727527994803625e+18,0.0017880036029964685,-0.0009340306278318167,-0.0019376113777980208
1.7275279948126252e+18,0.0016141287051141262,-0.0013973535969853401,-0.003838487435132265
1.7275279948216253e+18,-0.0009958513546735048,0.0011068967869505286,-0.0012509929947555065
1.7275279948306255e+18,-0.0012703221291303635,0.0016379626467823982,-0.002112796762958169
1.7275279948396257e+18,-0.002965044230222702,0.0043958378955721855,0.0006554184947162867
1.727527994848626e+18,-0.005659895017743111,0.0030663590878248215,-0.0020351470448076725
1.727527994857626e+18,-0.0031291875056922436,0.0043723806738853455,-0.0037837009876966476
1.7275279948666263e+18,-0.007475022692233324,-0.0010795301059260964,-0.0004361601313576102
1.7275279948756265e+18,-0.007158517837524414,0.002185392426326871,-0.001900393981486559
1.7275279948876268e+18,-0.005021765828132629,-0.001224589184857905,-0.0015359368408098817
1.727527994896627e+18,-0.0032312776893377304,0.0009710219455882907,-0.0021201204508543015
1.7275279949056271e+18,0.0005421843379735947,0.004441038239747286,-0.0023132457863539457
1.7275279949146273e+18,-0.002320348983630538,0.0016891160048544407,-0.003252577967941761
1.7275279949236275e+18,-0.0010272989748045802,0.0015483658062294126,0.0002701351186260581
1.7275279949326277e+18,-0.0024915426038205624,0.0010015686275437474,-0.0028680069372057915
1.727527994941628e+18,-0.0015007623005658388,0.001526776235550642,0.0008971069473773241
1.727527994950628e+18,-0.0033385083079338074,0.0013079434866085649,0.000582729117013514
1.7275279949596283e+18,-0.0041476525366306305,0.001419886713847518,0.00027464842423796654
1.7275279949686285e+18,0.0010344779584556818,0.0050334446132183075,-0.0025662765838205814
1.7275279949806287e+18,0.003015117021277547,0.0021757197100669146,-0.0017776654567569494
1.727527994989629e+18,0.00438588485121727,0.005235578864812851,-0.002651565009728074
1.727527994998629e+18,0.0025192012544721365,0.0027739291545003653,-0.0027247550897300243
1.7275279950076293e+18,0.0027887248434126377,0.004900122992694378,-0.0024357284419238567
1.7275279950196296e+18,0.0007046442478895187,-0.00034830940421670675,-0.0017869350267574191
1.7275279950286298e+18,-0.0005175543483346701,-0.0014894211199134588,0.0007740025175735354
1.72752799503763e+18,0.0015274473698809743,0.00246239616535604,0.0011211378732696176
1.7275279950466301e+18,0.0034214970655739307,0.0007473414298146963,-0.001414462341926992
1.7275279950556303e+18,0.00078805279918015,0.004994870163500309,-0.0006806505261920393
1.7275279950616305e+18,0.0011749262921512127,0.00453954329714179,-0.0019415084971114993
1.7275279950736307e+18,0.0028752489015460014,0.0030499352142214775,-3.058393485844135e-05
1.727527995082631e+18,0.0025435329880565405,0.00033137266291305423,0.00038667803164571524
1.727527995091631e+18,0.0003683768445625901,0.0008832420571707189,-0.001988921780139208
1.7275279951006313e+18,0.00019786326447501779,0.0037489128299057484,-0.0017532187048345804
1.7275279951096315e+18,-0.0018409823533147573,0.002044480061158538,-0.002255046274513006
1.7275279951186317e+18,0.0012155206641182303,0.0014311615377664566,-0.0016968675190582871
1.727527995127632e+18,0.006453418172895908,0.0036752410233020782,-0.0015659327618777752
1.727527995136632e+18,0.006765746511518955,0.00374956289306283,-0.0002379660727456212
1.7275279951456323e+18,0.006898453924804926,0.005149387754499912,-0.003528812900185585
1.7275279951546324e+18,0.0035147666931152344,0.006046224385499954,-0.0007902482175268233
1.7275279951666327e+18,-0.001523344311863184,0.003145346650853753,-0.0004363630432635546
1.727527995175633e+18,-0.0027037442196160555,0.004503779113292694,-0.002695542061701417
1.727527995184633e+18,-0.0029353511054068804,0.0015100801829248667,0.00029476056806743145
1.7275279951936333e+18,0.0010873954743146896,2.5535060558468103e-05,-0.0015666056424379349
1.7275279952056335e+18,0.0037341045681387186,-0.00014318246394395828,-0.002572324126958847
1.7275279952146337e+18,0.0034298887476325035,0.004576894920319319,-0.000727773061953485
1.727527995223634e+18,0.0009189487900584936,0.0027591208927333355,-0.001361274509690702
1.727527995232634e+18,-0.0005624635377898812,0.0019398435251787305,-0.004890318028628826
1.7275279952416343e+18,-3.673601895570755e-05,-0.0005513543728739023,-0.0005928569007664919
1.7275279952506345e+18,-0.0016894699074327946,0.0007266417378559709,0.00048562907613813877
1.7275279952596347e+18,0.0037238835357129574,-0.0004887212999165058,0.000766196520999074
1.727527995268635e+18,0.001852814806625247,-0.0056094019673764706,-0.0007817852310836315
1.727527995277635e+18,0.005066518671810627,0.002666264772415161,-0.00023343716748058796
1.7275279952866353e+18,0.0019373652758076787,0.0009820156265050173,-0.0023916170466691256
1.7275279952956355e+18,-0.004890212789177895,-0.00017781584756448865,-0.0011692935368046165
1.7275279953046356e+18,-0.0028446982614696026,-0.0003569982363842428,-0.0030711707659065723
1.7275279953106358e+18,-0.0006692241877317429,-0.0004079972277395427,-0.0018213622970506549
1.727527995319636e+18,0.002072357339784503,-0.00025847333017736673,-0.004413657821714878
1.727527995325636e+18,0.0005388895515352488,-0.004144194070249796,-0.0012202104553580284
1.7275279953346363e+18,0.0058356644585728645,-0.00376378046348691,-0.0005319316405802965
1.7275279953406364e+18,0.004422017373144627,-0.0015001188730821013,-0.0007931918371468782
1.7275279953496366e+18,0.002625672146677971,-0.0014133549993857741,-0.0034521024208515882
1.7275279953586368e+18,0.003438255749642849,-0.0016537467017769814,0.00027696031611412764
1.727527995364637e+18,0.0019486494129523635,-4.39351424574852e-07,-0.003140940796583891
1.727527995373637e+18,0.0008829607395455241,0.0015418913681060076,-0.0030855287332087755
1.7275279953826373e+18,0.004529473837465048,0.001520838006399572,-0.0010696956887841225
1.7275279953916375e+18,0.003989812918007374,-0.0014394531026482582,3.865675535053015e-05
1.7275279953976376e+18,0.005896441638469696,-0.0009138896712101996,0.001202640007250011
1.7275279954066378e+18,0.00998344924300909,-0.0010205834405496716,-0.002245267853140831
1.727527995415638e+18,0.004858970642089844,-0.0024315929040312767,-0.0029705390334129333
1.7275279954246382e+18,0.005993678234517574,0.0023585818707942963,-0.001908151782117784
1.7275279954336384e+18,0.0028356704860925674,0.00204870174638927,-0.0025580995716154575
1.7275279954396385e+18,0.0027940201107412577,0.0025559370405972004,-0.0016267250757664442
1.7275279954486387e+18,0.0036701043136417866,0.00302333477884531,-0.0025754289235919714
1.7275279954546388e+18,0.0018983783666044474,0.0012489079963415861,-0.002999178133904934
1.727527995463639e+18,0.006943398620933294,9.65323306445498e-06,-0.001954170409590006
1.7275279954726392e+18,0.005379064008593559,-0.0017376593314111233,-0.0016671756748110056
1.7275279954786394e+18,0.003221040591597557,-0.00048281357157975435,-0.0010748626664280891
1.7275279954876396e+18,0.004961715079843998,-0.0005159745924174786,-0.0012723978143185377
1.7275279954966397e+18,0.004256109707057476,0.00023136741947382689,-0.003988173324614763
1.7275279955026399e+18,0.0028114961460232735,0.000592555501498282,-0.0023841755464673042
1.72752799551164e+18,-0.00038796113221906126,0.0011950890766456723,-0.0018214185256510973
1.7275279955206403e+18,-0.00266832928173244,0.0007577640935778618,-0.0011675735004246235
1.7275279955266404e+18,0.001072293147444725,-0.0006872579688206315,1.5199417248368263e-05
1.7275279955356406e+18,-0.0011105965822935104,-0.0034921118058264256,-0.003903281409293413
1.7275279955446408e+18,0.0007214759243652225,-0.002652608323842287,-0.0030746152624487877
1.727527995550641e+18,0.0013021471677348018,-0.004804281052201986,-0.0031435806304216385
1.727527995559641e+18,0.00022597529459744692,-0.006684906780719757,-0.002107136882841587
1.7275279955686413e+18,0.001176790101453662,-0.0031632445752620697,-0.003482198342680931
1.7275279955746414e+18,0.0014258121373131871,0.00023839098867028952,-0.0023811287246644497
1.7275279955836416e+18,-0.0036257607862353325,-0.001540499390102923,-0.00038210954517126083
1.7275279955926418e+18,-0.00046817268594168127,-0.0023570298217236996,-0.005562864243984222
