timestamp,accel_x,accel_y,accel_z
1.7294237642178081e+18,-0.016068849712610245,-0.05632356181740761,-9.791573524475098
1.7294237642238083e+18,0.02967037819325924,-0.01688035950064659,-9.789647102355957
1.7294237642298084e+18,0.04220559075474739,-0.03159911930561066,-9.807087898254395
1.7294237642328084e+18,-0.07255620509386063,0.00936276838183403,-9.90304946899414
1.7294237642388086e+18,-0.09729601442813873,-0.06276170164346695,-9.933331489562988
1.7294237642448087e+18,-0.007335740607231855,0.00829800684005022,-9.764135360717773
1.7294237642478088e+18,0.029922476038336754,0.025536060333251953,-9.843098640441895
1.729423764253809e+18,-0.05535110831260681,0.03256940841674805,-9.778172492980957
1.729423764259809e+18,0.0179185401648283,-0.0737633928656578,-9.794734954833984
1.7294237642658092e+18,0.09956043213605881,0.011828459799289703,-9.79417610168457
1.7294237642688092e+18,-0.024388914927840233,0.04420216754078865,-9.814050674438477
1.7294237642748093e+18,0.02558945305645466,-0.03459952771663666,-9.884941101074219
1.7294237642808095e+18,-0.0026679253205657005,-0.030362330377101898,-9.743249893188477
1.7294237642838095e+18,0.06608814001083374,-0.014609131962060928,-9.780569076538086
1.7294237642898097e+18,-0.010747302323579788,-0.03388262167572975,-9.803482055664062
1.7294237642958098e+18,-0.043904151767492294,0.011004717089235783,-9.770429611206055
1.72942376430181e+18,0.022740310057997704,-0.008714010007679462,-9.753226280212402
1.72942376430781e+18,-0.023265613242983818,0.048098478466272354,-9.779621124267578
1.7294237643138102e+18,0.005655752494931221,-0.01677943393588066,-9.790656089782715
1.7294237643168102e+18,0.038865529000759125,-0.06559870392084122,-9.806879997253418
1.7294237643228104e+18,0.03062450885772705,-0.022268589586019516,-9.769388198852539
1.7294237643288105e+18,0.03898527845740318,-0.01858866773545742,-9.83310317993164
1.7294237643348106e+18,-0.02406853251159191,-0.01996975764632225,-9.771538734436035
1.7294237643378107e+18,0.08732856065034866,-0.019563846290111542,-9.83369255065918
1.7294237643438108e+18,0.016480710357427597,0.08080994337797165,-9.847807884216309
1.729423764349811e+18,0.05206025764346123,0.0439835824072361,-9.862780570983887
1.729423764355811e+18,0.02517622709274292,0.05893651768565178,-9.778825759887695
1.7294237643618112e+18,0.022572949528694153,-0.059768714010715485,-9.834742546081543
1.7294237643678113e+18,-0.014854621142148972,-0.0724904015660286,-9.8622407913208
1.7294237643738115e+18,0.02092653512954712,-0.002250906080007553,-9.79239559173584
1.7294237643768115e+18,0.00832040049135685,0.039899133145809174,-9.832959175109863
1.7294237643858117e+18,-0.002060840604826808,-0.06874408572912216,-9.834875106811523
1.7294237643888118e+18,-0.027187377214431763,-0.02486259490251541,-9.889330863952637
1.729423764394812e+18,0.03653775155544281,-0.04659115523099899,-9.793511390686035
1.729423764400812e+18,0.11233741044998169,0.07243833690881729,-9.76636791229248
1.7294237644068122e+18,-0.013078092597424984,-0.050813451409339905,-9.794843673706055
1.7294237644128123e+18,-0.01642385497689247,-0.072200246155262,-9.739965438842773
1.7294237644158124e+18,-0.021258262917399406,-0.1158280223608017,-9.728455543518066
1.7294237644218125e+18,0.05000467598438263,0.008963426575064659,-9.760330200195312
1.7294237644278126e+18,-0.06260941922664642,0.025522513315081596,-9.889908790588379
1.7294237644338127e+18,-0.028023090213537216,0.03525680676102638,-9.792304992675781
1.7294237644398129e+18,-0.02274766005575657,-0.0013103352393954992,-9.85689926147461
1.729423764442813e+18,0.0555654801428318,-0.0703604593873024,-9.80720043182373
1.729423764448813e+18,0.04588235542178154,-0.023948775604367256,-9.788512229919434
1.7294237644578132e+18,-0.04782014340162277,0.03199618309736252,-9.844843864440918
1.7294237644608133e+18,0.011149229481816292,-0.06092791631817818,-9.846803665161133
1.7294237644668134e+18,0.00454925000667572,-0.030326994135975838,-9.849934577941895
1.7294237644728136e+18,0.0008296493906527758,0.0704192966222763,-9.869183540344238
1.7294237644788137e+18,0.028424423187971115,0.014112538658082485,-9.795680046081543
1.7294237644848138e+18,0.031084001064300537,-0.05291704460978508,-9.847162246704102
1.729423764487814e+18,0.09245558828115463,-0.030676506459712982,-9.734272956848145
1.729423764493814e+18,-0.05743947997689247,-0.03706784173846245,-9.808553695678711
1.7294237644998141e+18,-0.014596675522625446,0.08135572075843811,-9.867799758911133
1.7294237645058143e+18,0.06094793602824211,0.09419023990631104,-9.788067817687988
1.7294237645088143e+18,-0.028426140546798706,-0.008353779092431068,-9.80445671081543
1.7294237645148145e+18,0.04411754757165909,0.03605544567108154,-9.902338027954102
1.7294237645208146e+18,-0.03917541727423668,-0.0057253167033195496,-9.814844131469727
1.7294237645268147e+18,0.031320907175540924,-0.03599746525287628,-9.802593231201172
1.7294237645328148e+18,-0.09561344981193542,0.0366758294403553,-9.826750755310059
1.729423764535815e+18,0.07676934450864792,0.022537076845765114,-9.798624038696289
1.729423764541815e+18,-0.12341698259115219,0.029172338545322418,-9.825813293457031
1.7294237645478152e+18,0.006108544766902924,0.0251065194606781,-9.840888977050781
1.7294237645538153e+18,0.025418533012270927,0.007475980557501316,-9.780536651611328
1.7294237645598154e+18,-0.0776287317276001,-0.05907346308231354,-9.75063419342041
1.7294237645628155e+18,0.04852515086531639,0.029624687507748604,-9.816324234008789
1.7294237645688156e+18,0.008917718194425106,-0.055216286331415176,-9.846569061279297
1.7294237645748157e+18,-0.018975693732500076,-0.038666386157274246,-9.726428031921387
1.729423764580816e+18,-0.04331202432513237,0.028636861592531204,-9.84350299835205
1.729423764583816e+18,0.02652394212782383,0.07867946475744247,-9.866443634033203
1.729423764589816e+18,0.003943422809243202,0.011677302420139313,-9.746874809265137
1.7294237645958162e+18,-0.07291153818368912,0.041454918682575226,-9.829036712646484
1.7294237645988163e+18,-0.006844755262136459,-0.07077279686927795,-9.853647232055664
1.7294237646048164e+18,-0.03636784479022026,0.06874693930149078,-9.845526695251465
1.7294237646108165e+18,-0.0015147425001487136,0.024746712297201157,-9.746637344360352
1.7294237646138166e+18,-0.03848729282617569,-0.02693682163953781,-9.770466804504395
1.7294237646198167e+18,-0.07271892577409744,-0.053646959364414215,-9.820194244384766
1.7294237646258168e+18,0.009752594865858555,0.03506992384791374,-9.875706672668457
1.729423764628817e+18,-0.03764262795448303,-0.03560858219861984,-9.840958595275879
1.729423764634817e+18,-0.03258737921714783,-0.01352433580905199,-9.811909675598145
1.7294237646408172e+18,0.0052297296933829784,-0.02563999593257904,-9.844023704528809
1.7294237646468173e+18,0.005377685651183128,-0.019080622121691704,-9.803319931030273
1.7294237646498173e+18,-0.011431809514760971,-0.06691238284111023,-9.765861511230469
1.7294237646558175e+18,0.0007202589185908437,0.012485605664551258,-9.813065528869629
1.7294237646618176e+18,-0.05237484723329544,0.008308994583785534,-9.797660827636719
1.7294237646648177e+18,-0.08586698770523071,0.07000196725130081,-9.736759185791016
1.7294237646708178e+18,0.07940326631069183,0.019975174218416214,-9.868291854858398
1.729423764676818e+18,-0.005972638260573149,0.036230869591236115,-9.834451675415039
1.729423764679818e+18,-0.051269516348838806,-0.04605874419212341,-9.801596641540527
1.729423764685818e+18,-0.06057228520512581,0.06455199420452118,-9.819079399108887
1.7294237646918182e+18,-0.05822218209505081,0.031850576400756836,-9.807239532470703
1.7294237646948183e+18,0.01488824188709259,-0.008252368308603764,-9.858770370483398
1.7294237647008184e+18,0.023463953286409378,-0.0058767059817910194,-9.851279258728027
1.7294237647068186e+18,0.08191163837909698,-0.02646271139383316,-9.789661407470703
1.7294237647098186e+18,-0.047303587198257446,-0.03614889830350876,-9.761333465576172
1.7294237647158188e+18,0.025853758677840233,0.019355643540620804,-9.837505340576172
1.729423764721819e+18,-0.0420827753841877,0.010123398154973984,-9.790871620178223
1.729423764727819e+18,-0.061033714562654495,0.061269741505384445,-9.806498527526855
1.729423764730819e+18,0.04979722574353218,0.08060234785079956,-9.809085845947266
1.7294237647368192e+18,-0.02522018738090992,-0.04185758903622627,-9.768804550170898
1.7294237647428193e+18,-0.030939005315303802,-0.05699215456843376,-9.76280689239502
1.7294237647458194e+18,0.012946929782629013,-0.005018817726522684,-9.771960258483887
1.7294237647518195e+18,-0.04793896526098251,-0.06066242232918739,-9.907227516174316
1.7294237647578196e+18,-0.0016593924956396222,0.07188034057617188,-9.825003623962402
1.7294237647608197e+18,-0.055286843329668045,-0.028430765494704247,-9.778998374938965
1.7294237647668198e+18,-0.0004973027971573174,0.052562594413757324,-9.835836410522461
1.72942376477282e+18,0.03595379367470741,-0.026797940954566002,-9.788206100463867
1.72942376477582e+18,0.00361639610491693,0.03509708493947983,-9.799107551574707
1.7294237647818202e+18,-0.01122969575226307,-0.01385499071329832,-9.78369140625
1.7294237647878203e+18,-0.048265449702739716,0.0601642020046711,-9.774195671081543
1.7294237647938204e+18,0.04375437647104263,0.010475200600922108,-9.804347038269043
1.7294237647968205e+18,0.03235359862446785,0.08070376515388489,-9.801265716552734
1.7294237648028206e+18,-0.07179240882396698,-0.028308836743235588,-9.80584716796875
1.7294237648088207e+18,0.010433820076286793,-0.0076652225106954575,-9.754971504211426
1.7294237648148209e+18,0.01159923616796732,-0.06726011633872986,-9.759589195251465
1.729423764817821e+18,0.11033143103122711,0.03588855266571045,-9.776612281799316
1.729423764823821e+18,-0.052309103310108185,-0.031320683658123016,-9.83684253692627
1.7294237648298212e+18,-0.009780963882803917,0.07401443272829056,-9.776078224182129
1.7294237648328212e+18,-0.021463535726070404,-0.036145638674497604,-9.77325439453125
1.7294237648388214e+18,-0.011568804271519184,0.016612432897090912,-9.86625862121582
1.7294237648448215e+18,-0.036791373044252396,0.07583112269639969,-9.762499809265137
1.7294237648478216e+18,-0.05748933181166649,-0.00547178415581584,-9.747748374938965
1.7294237648538217e+18,-0.06969699263572693,-0.020820848643779755,-9.678176879882812
1.7294237648598218e+18,-0.07974322140216827,-0.047775037586688995,-9.86829948425293
1.729423764862822e+18,0.014878015965223312,-0.03924637660384178,-9.737160682678223
1.729423764868822e+18,0.005281249992549419,-0.0992032140493393,-9.813962936401367
1.7294237648748221e+18,0.02833498641848564,-0.03939615190029144,-9.766700744628906
1.7294237648778222e+18,-0.0671912282705307,-0.030596571043133736,-9.793780326843262
1.7294237648838223e+18,-0.02652619406580925,0.0778711661696434,-9.82191276550293
1.7294237648898225e+18,0.062469545751810074,-0.03660460188984871,-9.78718376159668
1.7294237648958226e+18,-0.004338692873716354,0.062488339841365814,-9.75390911102295
1.7294237648988227e+18,-0.08819425851106644,-0.0326407328248024,-9.732752799987793
1.7294237649048228e+18,0.05883337929844856,-0.020616162568330765,-9.819713592529297
1.729423764910823e+18,-0.07594169676303864,0.062123216688632965,-9.850384712219238
1.729423764913823e+18,0.049782950431108475,-0.0023517401423305273,-9.809431076049805
1.729423764919823e+18,0.03703474998474121,0.029397036880254745,-9.788591384887695
1.7294237649258232e+18,-0.017075246199965477,0.04816459119319916,-9.875181198120117
1.7294237649318234e+18,-0.00045793334720656276,0.01254743617027998,-9.734103202819824
1.7294237649348234e+18,-0.02453061379492283,0.01097908429801464,-9.721884727478027
1.7294237649408236e+18,-0.007833574898540974,-0.02669866383075714,-9.777483940124512
1.7294237649468237e+18,0.06097380071878433,0.021061385050415993,-9.851192474365234
1.7294237649498237e+18,0.0161421038210392,0.02593887783586979,-9.816258430480957
1.7294237649558239e+18,-0.07616148889064789,0.025282012298703194,-9.806181907653809
1.729423764961824e+18,-0.07428305596113205,-0.02212519943714142,-9.830660820007324
1.729423764964824e+18,-0.06505326181650162,0.028722083196043968,-9.830657958984375
1.7294237649708242e+18,-0.010810872539877892,0.02531769499182701,-9.811301231384277
1.7294237649768243e+18,0.029050396755337715,0.018904436379671097,-9.717240333557129
1.7294237649828244e+18,0.05482795834541321,-0.020820749923586845,-9.764564514160156
1.7294237649858245e+18,-0.0016128703719004989,-0.06350415199995041,-9.818741798400879
1.7294237649918246e+18,-0.08281829208135605,-0.07460334897041321,-9.818185806274414
1.7294237649978248e+18,0.03060530498623848,-0.02173708938062191,-9.740700721740723
1.7294237650008248e+18,0.010519029572606087,0.005187575239688158,-9.817131042480469
1.729423765006825e+18,0.00013305629545357078,-1.9058985571973608e-06,-9.79762077331543
1.729423765012825e+18,0.024058541283011436,0.0014441815437749028,-9.784307479858398
1.7294237650158252e+18,-0.05051403492689133,0.033131904900074005,-9.870268821716309
1.7294237650218253e+18,0.02682718262076378,-0.00011174875544384122,-9.836061477661133
1.7294237650278254e+18,0.006946288514882326,-0.11644967645406723,-9.837621688842773
1.7294237650338255e+18,0.04254337400197983,-0.0501088872551918,-9.857039451599121
1.7294237650398257e+18,-0.0037396675907075405,0.03472960740327835,-9.871745109558105
1.7294237650428257e+18,0.013704861514270306,-0.011723360978066921,-9.803995132446289
1.7294237650488259e+18,0.005330168176442385,-0.03285406529903412,-9.794177055358887
1.729423765054826e+18,-0.002718845149502158,0.037006914615631104,-9.750061988830566
1.729423765060826e+18,-0.013385612517595291,-0.030275683850049973,-9.840582847595215
1.7294237650638262e+18,-0.0053274487145245075,0.02406254969537258,-9.812860488891602
1.7294237650698263e+18,-0.028428157791495323,-0.07655903697013855,-9.773242950439453
1.7294237650758264e+18,0.029343383386731148,0.03044036403298378,-9.774781227111816
1.7294237650788265e+18,0.0222199484705925,0.030822742730379105,-9.778375625610352
1.7294237650848266e+18,0.022154822945594788,-0.057137876749038696,-9.864409446716309
1.7294237650908268e+18,0.025400174781680107,-0.0041428059339523315,-9.793479919433594
1.729423765096827e+18,0.037451379001140594,-0.00152337655890733,-9.78357982635498
1.729423765102827e+18,0.035661354660987854,-0.04439777135848999,-9.841920852661133
1.729423765105827e+18,0.015860432758927345,0.0027429619804024696,-9.789941787719727
1.7294237651118272e+18,0.020123394206166267,-0.009663728065788746,-9.731264114379883
1.7294237651178273e+18,0.002343052299693227,0.07341016083955765,-9.786417961120605
1.7294237651208274e+18,0.029489217326045036,0.03943321481347084,-9.82484245300293
1.7294237651268275e+18,-0.010164126753807068,-0.05761514976620674,-9.803032875061035
1.7294237651328276e+18,0.019275709986686707,0.004055313766002655,-9.784662246704102
1.7294237651358277e+18,-0.02645118348300457,-0.0031668811570852995,-9.818085670471191
1.7294237651418278e+18,-0.06835027784109116,0.00877691712230444,-9.76811408996582
1.729423765147828e+18,0.004937723278999329,-0.05688922107219696,-9.79391098022461
1.729423765153828e+18,-0.054275210946798325,0.037780486047267914,-9.796857833862305
1.7294237651568282e+18,0.007168239913880825,0.06137517839670181,-9.798223495483398
1.7294237651628283e+18,0.052652232348918915,0.033711981028318405,-9.779974937438965
1.7294237651688284e+18,0.042174819856882095,0.0025871586985886097,-9.789461135864258
1.7294237651748285e+18,0.00889609381556511,0.0820780023932457,-9.858856201171875
1.7294237651778286e+18,0.0007024177466519177,0.0030263462103903294,-9.801088333129883
1.7294237651838287e+18,-0.1056448221206665,0.012579080648720264,-9.840423583984375
1.7294237651898289e+18,0.02283298410475254,-0.056013114750385284,-9.849176406860352
1.729423765192829e+18,0.039318379014730453,-0.0963573083281517,-9.822239875793457
1.729423765198829e+18,-0.010228919796645641,0.0970076322555542,-9.831079483032227
1.7294237652048292e+18,0.03453879430890083,0.016885075718164444,-9.816282272338867
1.7294237652108293e+18,-0.02171897515654564,-0.05271916836500168,-9.819231033325195
1.7294237652138294e+18,-0.02338411845266819,-0.001073315623216331,-9.838720321655273
1.7294237652198295e+18,-0.0013957106275483966,0.023879121989011765,-9.8515625
1.7294237652258296e+18,0.01493131648749113,-0.11331894248723984,-9.834671974182129
1.7294237652318298e+18,0.006713962648063898,0.01062503457069397,-9.790539741516113
1.7294237652348298e+18,0.09572015702724457,0.01731720194220543,-9.734167098999023
1.72942376524083e+18,0.050920404493808746,-0.027123870328068733,-9.778106689453125
1.72942376524683e+18,0.052474167197942734,-0.014378292486071587,-9.849172592163086
1.7294237652498301e+18,0.015104754827916622,-0.05051892250776291,-9.770679473876953
1.7294237652558303e+18,0.00672250846400857,0.07437006384134293,-9.823904991149902
1.7294237652618304e+18,-0.03351534157991409,0.033090390264987946,-9.828910827636719
1.7294237652678305e+18,0.01057695597410202,-0.043239839375019073,-9.716497421264648
1.7294237652708306e+18,0.04814176261425018,0.010789832100272179,-9.764952659606934
1.7294237652768307e+18,-0.020947763696312904,-0.017765212804079056,-9.820539474487305
1.7294237652828308e+18,0.026586154475808144,0.04770158603787422,-9.808441162109375
1.729423765288831e+18,-0.012510917149484158,0.027356106787919998,-9.777739524841309
1.729423765291831e+18,0.03457161411643028,0.018830949440598488,-9.841471672058105
1.7294237652978312e+18,-0.013150214217603207,0.051755502820014954,-9.846717834472656
1.7294237653038313e+18,-0.031193628907203674,0.055509936064481735,-9.775006294250488
1.7294237653068314e+18,-0.006785192992538214,-0.010615394450724125,-9.735052108764648
1.7294237653128315e+18,0.05694210156798363,0.047005947679281235,-9.786480903625488
1.7294237653188316e+18,-0.04706764966249466,-0.03876124322414398,-9.77487850189209
1.7294237653248317e+18,-0.004660315811634064,0.06283055245876312,-9.912999153137207
1.7294237653278318e+18,0.039825212210416794,0.07229048758745193,-9.804113388061523
1.729423765333832e+18,-0.009524037130177021,0.03304605931043625,-9.839289665222168
1.729423765339832e+18,-0.014319872483611107,-0.011594834737479687,-9.855167388916016
1.7294237653458322e+18,-0.06589210033416748,0.021564606577157974,-9.770172119140625
1.7294237653488323e+18,-0.013031459413468838,0.06702870875597,-9.779585838317871
1.7294237653548324e+18,0.0024505071341991425,-0.031898755580186844,-9.855107307434082
1.7294237653608325e+18,0.05351611226797104,0.026051299646496773,-9.767407417297363
1.7294237653668326e+18,-0.02440749667584896,0.020708616822957993,-9.720709800720215
1.7294237653698327e+18,0.0049865529872477055,0.0008305819937959313,-9.788423538208008
1.7294237653758328e+18,-0.02138301357626915,0.015010828152298927,-9.73843002319336
1.729423765381833e+18,0.006524774245917797,-0.013482431881129742,-9.744099617004395
1.729423765387833e+18,-0.06902414560317993,-0.05194081366062164,-9.816692352294922
1.7294237653938332e+18,0.073194220662117,0.012690024450421333,-9.761302947998047
1.7294237653968333e+18,-0.020307909697294235,0.07781758159399033,-9.790019035339355
1.7294237654028334e+18,0.03504287824034691,-0.019890660420060158,-9.808247566223145
1.7294237654088335e+18,0.007158370688557625,0.01775636151432991,-9.81596565246582
1.7294237654148337e+18,-0.01954576000571251,-0.051648326218128204,-9.849560737609863
1.7294237654208338e+18,0.0043660919182002544,0.02014104835689068,-9.759385108947754
1.7294237654238339e+18,0.015209430828690529,0.030568113550543785,-9.872747421264648
1.729423765429834e+18,0.017430977895855904,0.007662487216293812,-9.82337760925293
1.729423765435834e+18,-0.013126378878951073,-0.0016756291734054685,-9.76497745513916
1.7294237654388342e+18,0.0385526567697525,-0.13584353029727936,-9.778218269348145
1.7294237654448343e+18,-0.09249058365821838,-0.030449023470282555,-9.830812454223633
1.7294237654508344e+18,-0.014579931274056435,0.02609393186867237,-9.869135856628418
1.7294237654568346e+18,0.07131274044513702,0.03489953279495239,-9.722453117370605
1.7294237654598346e+18,0.01536650862544775,-0.03239331394433975,-9.808979988098145
1.7294237654658348e+18,-0.026800381019711494,0.0322103276848793,-9.78523063659668
1.729423765471835e+18,0.01501435786485672,0.009835092350840569,-9.80920696258545
1.729423765477835e+18,0.009204101748764515,-0.022127939388155937,-9.803718566894531
1.729423765480835e+18,-0.06803453713655472,0.016050755977630615,-9.793779373168945
1.7294237654868352e+18,0.018872076645493507,0.012845277786254883,-9.825399398803711
1.7294237654928353e+18,-0.04286812245845795,-0.05303594470024109,-9.770088195800781
1.7294237654988355e+18,-0.025689786300063133,0.04699236899614334,-9.849233627319336
1.7294237655018355e+18,0.05811646208167076,-0.041456062346696854,-9.828868865966797
1.7294237655078356e+18,0.049944955855607986,-0.007660298142582178,-9.748547554016113
1.7294237655138358e+18,-0.013237533159554005,-0.039527587592601776,-9.829127311706543
1.729423765519836e+18,-0.08209694921970367,-0.018446030095219612,-9.812359809875488
1.729423765522836e+18,-0.028914928436279297,0.02620881237089634,-9.801572799682617
1.729423765528836e+18,0.048080235719680786,-0.0014846458798274398,-9.768081665039062
1.7294237655348362e+18,0.01550910621881485,0.08340011537075043,-9.783098220825195
1.7294237655408364e+18,0.0661957859992981,0.0026872148737311363,-9.802816390991211
1.7294237655438364e+18,-0.014205309562385082,-0.004470023792237043,-9.76773452758789
1.7294237655498365e+18,0.039728082716464996,0.005922945681959391,-9.866654396057129
1.7294237655558367e+18,-0.01778426580131054,0.08647585660219193,-9.856256484985352
1.7294237655588367e+18,0.03649711236357689,0.05326644331216812,-9.815913200378418
1.7294237655648369e+18,0.029727503657341003,0.03591659292578697,-9.730917930603027
1.729423765570837e+18,-0.01757485792040825,0.08010094612836838,-9.795985221862793
1.729423765576837e+18,-0.059335049241781235,-0.0645647943019867,-9.867950439453125
1.7294237655798372e+18,-0.03695811331272125,-0.012274658307433128,-9.778936386108398
1.7294237655858373e+18,0.02134891226887703,-0.0577058382332325,-9.761575698852539
1.7294237655918374e+18,0.013038218021392822,-0.12511660158634186,-9.767576217651367
1.7294237655978376e+18,0.005741460248827934,0.04654557257890701,-9.775176048278809
1.7294237656008376e+18,-0.003947083838284016,-0.07739952206611633,-9.84815502166748
1.7294237656068378e+18,0.08144734054803848,0.004418239463120699,-9.788381576538086
1.729423765612838e+18,0.0028802447486668825,0.05405842512845993,-9.775484085083008
1.729423765615838e+18,-0.028600310906767845,-0.05141180008649826,-9.788498878479004
1.729423765621838e+18,0.049583498388528824,0.05069207027554512,-9.805571556091309
1.7294237656278382e+18,-0.009955722838640213,-0.0848020613193512,-9.868425369262695
1.7294237656338383e+18,-0.12664589285850525,-0.018271062523126602,-9.80312728881836
1.7294237656398385e+18,-0.01007310301065445,-0.026340853422880173,-9.786614418029785
1.7294237656428385e+18,-0.06547075510025024,0.06242843344807625,-9.788214683532715
1.7294237656488387e+18,-0.038266222923994064,-0.022669799625873566,-9.898211479187012
1.7294237656548388e+18,0.01708878017961979,0.003003010293468833,-9.885368347167969
1.7294237656578388e+18,0.04693394526839256,-0.008571196347475052,-9.74135971069336
1.729423765663839e+18,0.022002480924129486,0.06258781999349594,-9.816142082214355
1.729423765669839e+18,0.02411813847720623,0.020932888612151146,-9.82597541809082
1.7294237656758392e+18,-0.05042063072323799,-0.02344234474003315,-9.827690124511719
1.7294237656788393e+18,-0.0024938613642007113,0.00010324223694624379,-9.808350563049316
1.7294237656848394e+18,-0.03347431495785713,0.007271754555404186,-9.814573287963867
1.7294237656908396e+18,-0.00627111503854394,-0.017073549330234528,-9.808497428894043
1.7294237656938396e+18,-0.047424498945474625,-0.033531516790390015,-9.791781425476074
1.7294237656998397e+18,0.08771096169948578,-0.030384013429284096,-9.792668342590332
1.7294237657058399e+18,-0.007040871772915125,-0.016341323032975197,-9.780517578125
1.72942376571184e+18,-0.029253680258989334,0.012672515586018562,-9.813794136047363
1.72942376571484e+18,-0.048238836228847504,-0.01658621057868004,-9.764058113098145
1.7294237657208402e+18,-0.021320488303899765,0.0709783211350441,-9.771306991577148
1.7294237657268403e+18,0.027167584747076035,0.012377575971186161,-9.831951141357422
1.7294237657328404e+18,0.02663152664899826,-0.012106606736779213,-9.758821487426758
1.7294237657358405e+18,-0.006107086315751076,-0.034660033881664276,-9.821616172790527
1.7294237657418406e+18,0.0459626130759716,-0.017204659059643745,-9.801213264465332
1.7294237657478408e+18,0.0021956770215183496,0.03023899346590042,-9.760027885437012
1.7294237657508408e+18,0.06538865715265274,-0.003175267018377781,-9.770886421203613
1.729423765756841e+18,0.01313718967139721,-0.01907247118651867,-9.862236976623535
1.729423765762841e+18,-0.11320618540048599,0.014951548539102077,-9.77520751953125
1.7294237657688412e+18,0.04573698714375496,-0.00850337278097868,-9.842111587524414
1.7294237657718413e+18,-0.043204810470342636,-0.012680799700319767,-9.749992370605469
1.7294237657778414e+18,0.0035947223659604788,0.014028309844434261,-9.787713050842285
1.7294237657838415e+18,0.03127068281173706,0.014641948975622654,-9.720053672790527
1.7294237657868416e+18,0.010641252622008324,0.004122805316001177,-9.7822904586792
1.7294237657928417e+18,0.0059524038806557655,-0.06826949119567871,-9.80517292022705
1.7294237657988419e+18,-0.11772046238183975,0.006804546806961298,-9.8128023147583
1.729423765804842e+18,-0.028066953644156456,0.009435998275876045,-9.80536937713623
1.729423765807842e+18,-0.03944219648838043,-0.034636158496141434,-9.734207153320312
1.7294237658138422e+18,-0.04096367955207825,-0.039505042135715485,-9.78840446472168
1.7294237658198423e+18,0.01947082206606865,-0.00817048829048872,-9.768324851989746
1.7294237658228424e+18,0.00408862205222249,0.003987160045653582,-9.828352928161621
1.7294237658288425e+18,-0.0032426398247480392,0.037701405584812164,-9.810494422912598
1.7294237658348426e+18,-0.01521295215934515,0.028168192133307457,-9.824748992919922
1.7294237658378427e+18,-0.03284025564789772,0.051091160625219345,-9.723776817321777
1.7294237658438428e+18,0.03319511562585831,-0.05258336290717125,-9.831520080566406
1.729423765849843e+18,0.01287061907351017,0.012304949574172497,-9.810559272766113
1.729423765852843e+18,-0.004922074265778065,-0.0015625432133674622,-9.787625312805176
1.7294237658588431e+18,0.011620279401540756,-0.011434124782681465,-9.830620765686035
1.7294237658648433e+18,0.035852834582328796,-0.03641580417752266,-9.747467994689941
1.7294237658708434e+18,0.04006822407245636,-0.06527891010046005,-9.799428939819336
1.7294237658738435e+18,0.05386072024703026,-0.0034392999950796366,-9.84715747833252
1.7294237658798436e+18,0.01221479382365942,-0.11282951384782791,-9.738330841064453
1.7294237658858437e+18,0.06844004988670349,-0.025642232969403267,-9.785277366638184
1.7294237658918438e+18,0.013091911561787128,0.03526218608021736,-9.813014030456543
1.729423765894844e+18,0.08414801955223083,0.011954663321375847,-9.825642585754395
1.729423765900844e+18,0.02452527917921543,-0.02369776740670204,-9.862051963806152
1.7294237659068442e+18,0.00010652704077074304,-0.020769666880369186,-9.8351469039917
1.7294237659098442e+18,-0.009147483855485916,0.0018957228166982532,-9.863140106201172
1.7294237659158444e+18,-0.03179892897605896,-0.028494134545326233,-9.863463401794434
1.7294237659218445e+18,-0.050582341849803925,-0.02074761502444744,-9.89592170715332
1.7294237659248445e+18,0.023596031591296196,0.024942338466644287,-9.906371116638184
1.7294237659308447e+18,0.07738426327705383,-0.02440856210887432,-9.73465633392334
1.7294237659368448e+18,0.024001579731702805,-0.004583221394568682,-9.816658020019531
1.7294237659398449e+18,-0.01478689443320036,0.029556598514318466,-9.810368537902832
1.729423765945845e+18,0.054558876901865005,-0.0027605462819337845,-9.753277778625488
1.729423765951845e+18,-0.018580865114927292,-0.060532476752996445,-9.718579292297363
1.7294237659548452e+18,-0.04972221702337265,-0.01728571020066738,-9.763269424438477
1.7294237659608453e+18,-0.01719876192510128,-0.00862172618508339,-9.861967086791992
1.7294237659668454e+18,-0.07706007361412048,0.026828929781913757,-9.832467079162598
1.7294237659728456e+18,-0.0505538173019886,-0.0033543738536536694,-9.859891891479492
1.7294237659758456e+18,-0.008531246334314346,0.01654728502035141,-9.797487258911133
1.7294237659818458e+18,-0.008828694000840187,-0.009637856855988503,-9.839590072631836
1.729423765987846e+18,-0.049960725009441376,0.006505998782813549,-9.766149520874023
1.729423765993846e+18,-0.0054403031244874,0.0287555493414402,-9.779858589172363
1.729423765996846e+18,-0.027702992781996727,-0.013710967265069485,-9.772041320800781
1.7294237660028462e+18,0.03284703195095062,0.0501372329890728,-9.726780891418457
1.7294237660088463e+18,-0.08575142174959183,-0.05332028493285179,-9.70523452758789
1.7294237660118464e+18,0.008895989507436752,0.032658129930496216,-9.835860252380371
1.7294237660178465e+18,0.047435782849788666,-0.008760244585573673,-9.76652717590332
1.7294237660238467e+18,0.09997455030679703,-0.014036508277058601,-9.82888126373291
1.7294237660298468e+18,-0.05099555850028992,-0.04008804261684418,-9.82911205291748
1.7294237660328468e+18,-0.014463894069194794,0.01242124941200018,-9.888198852539062
1.729423766038847e+18,0.07027240842580795,0.009956265799701214,-9.824136734008789
1.729423766044847e+18,-0.09073684364557266,-0.08340806514024734,-9.829737663269043
1.7294237660508472e+18,-0.0971103385090828,0.032586924731731415,-9.852500915527344
1.7294237660538473e+18,-0.01389371044933796,0.000677914940752089,-9.76003360748291
1.7294237660598474e+18,-0.02998325414955616,0.007293211296200752,-9.825180053710938
1.7294237660658476e+18,0.05328161269426346,-0.07995165139436722,-9.84533405303955
1.7294237660718477e+18,-0.029036324471235275,-0.03654704615473747,-9.767476081848145
1.7294237660748477e+18,0.05888793617486954,0.04873448982834816,-9.804797172546387
1.729423766080848e+18,0.07514121383428574,0.02191336825489998,-9.828570365905762
1.729423766086848e+18,0.00850170198827982,0.05215463414788246,-9.838056564331055
1.729423766089848e+18,0.01820237748324871,0.0386933833360672,-9.845136642456055
1.7294237660958482e+18,-0.05288641154766083,0.001993986079469323,-9.785836219787598
1.7294237661018483e+18,0.023140819743275642,-0.021535882726311684,-9.839815139770508
1.7294237661048484e+18,-0.050573527812957764,-0.031502995640039444,-9.811559677124023
1.7294237661108485e+18,-0.010554783046245575,-0.011820306070148945,-9.74341106414795
1.7294237661168486e+18,0.04611482471227646,-0.03658187761902809,-9.765342712402344
1.7294237661228488e+18,-0.01948234811425209,-0.0037546257954090834,-9.694229125976562
1.729423766128849e+18,-0.025923846289515495,0.06639274209737778,-9.762393951416016
1.729423766131849e+18,-0.05707240477204323,-0.08392351865768433,-9.818033218383789
1.729423766137849e+18,0.0913325771689415,0.04620450735092163,-9.831351280212402
1.7294237661438492e+18,-0.062106769531965256,0.01639988273382187,-9.852313041687012
1.7294237661498493e+18,0.008909868076443672,-0.0026105756405740976,-9.781493186950684
1.7294237661528494e+18,0.05613408982753754,0.04110895097255707,-9.873299598693848
1.7294237661588495e+18,0.025101561099290848,0.004037002567201853,-9.81733512878418
1.7294237661648497e+18,0.010751300491392612,-0.01035269070416689,-9.905411720275879
1.7294237661708498e+18,-0.031096426770091057,0.020150471478700638,-9.781078338623047
1.7294237661738499e+18,0.016230229288339615,0.0024739536456763744,-9.813165664672852
1.72942376617985e+18,-0.03651968017220497,0.031137585639953613,-9.811979293823242
1.72942376618585e+18,-0.01204956416040659,0.1115952655673027,-9.821072578430176
1.7294237661918502e+18,0.02012137696146965,0.0015650585992261767,-9.824432373046875
1.7294237661948503e+18,-0.007802249398082495,0.023573126643896103,-9.818865776062012
1.7294237662008504e+18,-0.04606175422668457,0.13776026666164398,-9.780349731445312
1.7294237662068506e+18,0.03139588609337807,0.06093304976820946,-9.842338562011719
1.7294237662098506e+18,0.06454789638519287,0.03263241797685623,-9.811958312988281
1.7294237662158508e+18,0.0751139372587204,0.03486790880560875,-9.821370124816895
1.729423766221851e+18,0.0034195962361991405,-0.06697183102369308,-9.83392333984375
1.729423766224851e+18,0.013528425246477127,0.02538820542395115,-9.73689079284668
1.729423766230851e+18,0.031395941972732544,0.016473088413476944,-9.76982593536377
1.7294237662368512e+18,0.02381456457078457,-0.031608592718839645,-9.812350273132324
1.7294237662398513e+18,0.048402734100818634,0.03293103724718094,-9.867161750793457
1.7294237662458514e+18,-0.06286735832691193,-0.005898565053939819,-9.787557601928711
1.7294237662518515e+18,-0.02512035332620144,0.009429983794689178,-9.805304527282715
1.7294237662578516e+18,-0.0524272546172142,0.024738481268286705,-9.756011009216309
1.7294237662608517e+18,-0.030608944594860077,0.0173792727291584,-9.829137802124023
1.7294237662668518e+18,-0.07333248108625412,-0.02730121836066246,-9.828980445861816
1.729423766272852e+18,-0.06548290699720383,-0.026645593345165253,-9.86021900177002
1.729423766278852e+18,-0.024172082543373108,-0.020408332347869873,-9.832162857055664
1.7294237662818522e+18,-0.0063825794495642185,0.03541029989719391,-9.789820671081543
1.7294237662878523e+18,-0.03045831434428692,-0.030672430992126465,-9.824180603027344
1.7294237662938524e+18,0.06916496157646179,0.02255525067448616,-9.84034252166748
1.7294237662968525e+18,0.017861075699329376,-0.025090590119361877,-9.842395782470703
1.7294237663028526e+18,-0.031475767493247986,0.06389425694942474,-9.847467422485352
1.7294237663088527e+18,0.018244843930006027,-0.010588187724351883,-9.777519226074219
1.7294237663118528e+18,-0.03787803649902344,0.014892341569066048,-9.80647087097168
1.729423766317853e+18,-0.02879064530134201,-0.007677871268242598,-9.819162368774414
1.729423766323853e+18,-0.01373034156858921,-0.046537674963474274,-9.79924201965332
1.7294237663298532e+18,0.07929058372974396,0.022008094936609268,-9.897795677185059
1.7294237663328532e+18,0.04419780150055885,-0.04666160047054291,-9.761581420898438
1.7294237663388534e+18,-0.024361789226531982,-0.020270587876439095,-9.826547622680664
1.7294237663448535e+18,0.0805930346250534,0.05386281758546829,-9.850661277770996
1.7294237663508536e+18,-0.01983489654958248,0.025825507938861847,-9.762158393859863
1.7294237663538537e+18,0.00025395574630238116,-0.07083626836538315,-9.76290512084961
1.7294237663598538e+18,-0.010970820672810078,-0.011893846094608307,-9.804245948791504
1.729423766365854e+18,-0.028347626328468323,-0.04168866202235222,-9.788288116455078
1.729423766371854e+18,0.07259471714496613,0.005112877115607262,-9.751873970031738
1.7294237663748541e+18,-0.007941796444356441,0.06524904072284698,-9.840633392333984
1.7294237663808543e+18,-0.010511520318686962,-0.0028018683660775423,-9.875858306884766
1.7294237663868544e+18,0.056614089757204056,-0.03497890755534172,-9.796460151672363
1.7294237663928545e+18,-0.01696876809000969,-0.057687509804964066,-9.83947467803955
1.7294237663988547e+18,0.01387060433626175,0.016314292326569557,-9.824379920959473
1.7294237664018547e+18,-0.03788607195019722,0.0071818213909864426,-9.921398162841797
1.7294237664078548e+18,0.07110634446144104,-0.0013987282291054726,-9.812253952026367
1.729423766413855e+18,-0.042425740510225296,0.016986465081572533,-9.781242370605469
1.729423766419855e+18,0.025516601279377937,0.018108485266566277,-9.815187454223633
1.7294237664228552e+18,-0.04321020469069481,-0.04539044201374054,-9.770025253295898
1.7294237664288553e+18,-0.023321310058236122,-0.008399883285164833,-9.808541297912598
1.7294237664348554e+18,-0.052657078951597214,0.03918808326125145,-9.833970069885254
1.7294237664408556e+18,-0.03057895042002201,-0.0285468902438879,-9.747014999389648
1.7294237664438556e+18,-0.009530941024422646,0.030343636870384216,-9.822957992553711
1.7294237664498557e+18,-0.08664705604314804,0.08251126855611801,-9.804128646850586
1.7294237664558559e+18,-0.04008682817220688,0.002557107014581561,-9.741748809814453
1.729423766461856e+18,-0.03374679014086723,-0.003906180150806904,-9.791412353515625
1.729423766464856e+18,-0.03934786841273308,-0.037504203617572784,-9.786604881286621
1.7294237664708562e+18,-0.0051218001171946526,0.06818364560604095,-9.713757514953613
1.7294237664768563e+18,0.03511675447225571,0.03494035080075264,-9.804359436035156
1.7294237664798564e+18,-0.02091212570667267,-0.0067552002146840096,-9.761197090148926
1.7294237664858565e+18,-0.07825329154729843,0.06431698054075241,-9.763216018676758
1.7294237664918566e+18,0.08968058973550797,0.0883580669760704,-9.784485816955566
1.7294237664978568e+18,-0.013601552695035934,-0.024720748886466026,-9.713179588317871
1.7294237665008568e+18,0.05882706865668297,-0.003819855861365795,-9.853124618530273
1.729423766506857e+18,-0.00906944926828146,0.04678122699260712,-9.82986068725586
1.729423766512857e+18,-0.006299123167991638,0.014133810065686703,-9.775607109069824
1.7294237665158572e+18,-0.027990929782390594,0.02123330906033516,-9.836565017700195
1.7294237665218573e+18,-0.0249482411891222,0.047944825142621994,-9.810193061828613
1.7294237665278574e+18,0.02079775743186474,0.028967125341296196,-9.787148475646973
1.7294237665308575e+18,-0.03489580377936363,0.03690625727176666,-9.799568176269531
1.7294237665368576e+18,0.0057176249101758,-0.024139495566487312,-9.749045372009277
1.7294237665428577e+18,-0.06371238082647324,-0.02549757994711399,-9.845410346984863
1.7294237665488579e+18,-0.01848197542130947,-0.03966034576296806,-9.804143905639648
1.729423766551858e+18,-0.08034715801477432,-0.08994212746620178,-9.824641227722168
1.729423766557858e+18,0.022747835144400597,-0.02685011737048626,-9.825484275817871
1.7294237665638582e+18,0.05263206735253334,-0.07546366751194,-9.820770263671875
1.7294237665698583e+18,0.014056931249797344,-0.020753541961312294,-9.807716369628906
1.7294237665728584e+18,-0.016543200239539146,-0.04140692949295044,-9.824190139770508
1.7294237665788585e+18,0.07908274978399277,-0.02330850251019001,-9.752850532531738
1.7294237665848586e+18,-0.04139237105846405,0.021407881751656532,-9.833959579467773
1.7294237665908588e+18,0.005627458915114403,0.05902988463640213,-9.837885856628418
1.7294237665938588e+18,0.010759739205241203,0.01091180369257927,-9.878830909729004
1.729423766599859e+18,-0.00650258082896471,-0.051796067506074905,-9.815942764282227
1.729423766605859e+18,-0.008724737912416458,0.04149003326892853,-9.793834686279297
1.7294237666088591e+18,-0.04884173348546028,0.0022862248588353395,-9.855567932128906
1.7294237666148593e+18,0.030066529288887978,-0.012628155760467052,-9.829867362976074
1.7294237666208594e+18,0.03456231206655502,0.0890543982386589,-9.912673950195312
1.7294237666238595e+18,0.008795146830379963,-0.040340010076761246,-9.931546211242676
1.7294237666298596e+18,0.021425791084766388,0.020834941416978836,-9.859198570251465
1.7294237666358597e+18,-0.09347608685493469,0.00873630866408348,-9.85035228729248
1.7294237666418598e+18,0.00010582420509308577,-0.012519641779363155,-9.826338768005371
1.72942376664486e+18,-0.021226637065410614,0.03164990246295929,-9.92919635772705
1.72942376665086e+18,0.00026908447034657,0.01442539133131504,-9.961384773254395
1.7294237666568602e+18,-0.0009542341576889157,0.017840830609202385,-9.843823432922363
1.7294237666628603e+18,-0.03475649654865265,0.06527191400527954,-9.915055274963379
1.7294237666658604e+18,0.007373285945504904,-0.020503390580415726,-9.848012924194336
1.7294237666718605e+18,-0.05994143709540367,0.01952105388045311,-9.900390625
1.7294237666778606e+18,-0.007951196283102036,-0.08760295808315277,-10.04181957244873
1.7294237666838607e+18,-0.01069817878305912,-0.020692899823188782,-9.982501029968262
1.7294237666898609e+18,0.04739892855286598,0.019667860120534897,-9.933882713317871
1.729423766692861e+18,0.07037054747343063,0.010162588208913803,-9.95654582977295
1.729423766698861e+18,-0.058700770139694214,0.0030667060054838657,-10.03009033203125
1.7294237667048612e+18,0.004043746739625931,0.013573968783020973,-10.02221393585205
1.7294237667078612e+18,0.02072613500058651,-0.03986429050564766,-10.024861335754395
1.7294237667138614e+18,-0.04148660972714424,-0.061106663197278976,-10.03813648223877
1.7294237667198615e+18,-0.06086308881640434,0.025060221552848816,-10.085868835449219
1.7294237667258616e+18,0.012654467485845089,-0.0034199929796159267,-10.059958457946777
1.7294237667288617e+18,0.0331277996301651,0.013549059629440308,-10.077521324157715
1.7294237667348618e+18,-0.03875371068716049,0.02294960618019104,-10.098054885864258
1.729423766740862e+18,0.03617750108242035,0.0054914020001888275,-10.068475723266602
1.729423766746862e+18,0.0020886221900582314,0.044915009289979935,-10.07700252532959
1.7294237667498621e+18,0.03298535197973251,-0.01224618498235941,-10.114468574523926
1.7294237667558623e+18,0.036856863647699356,-0.057952359318733215,-10.04677677154541
1.7294237667618624e+18,0.009693152271211147,-0.07048775255680084,-10.058911323547363
1.7294237667678625e+18,-0.048651233315467834,-0.06381312757730484,-10.34289836883545
1.7294237667708626e+18,-0.03464602306485176,-0.012759044766426086,-10.498010635375977
1.7294237667768627e+18,0.02330094203352928,0.07221391052007675,-10.426461219787598
1.7294237667828628e+18,-0.021354682743549347,-0.02199743129312992,-10.465031623840332
1.729423766788863e+18,-0.033500537276268005,-0.025377068668603897,-10.448124885559082
1.729423766791863e+18,-0.0013659319374710321,0.00558336079120636,-10.486795425415039
1.7294237667978632e+18,-0.059493232518434525,-0.011200446635484695,-10.485776901245117
1.7294237668038633e+18,0.027599772438406944,-0.07695388793945312,-10.506558418273926
1.7294237668098634e+18,-0.0228167325258255,0.003535911673679948,-10.42148208618164
1.7294237668128635e+18,-0.017450563609600067,-0.013340775854885578,-10.528029441833496
1.7294237668188636e+18,-0.08086039125919342,0.007206132635474205,-10.50407600402832
1.7294237668248637e+18,-0.019973186776041985,0.00571092963218689,-10.508333206176758
1.729423766830864e+18,0.036799002438783646,-0.01244095154106617,-10.574800491333008
1.729423766833864e+18,-0.0066354055888950825,0.052560120820999146,-10.543734550476074
1.729423766839864e+18,-0.04614344239234924,0.01927023194730282,-10.447954177856445
1.7294237668458642e+18,-0.03379780054092407,0.012011686339974403,-10.507451057434082
1.7294237668488643e+18,0.034961849451065063,0.03969043493270874,-10.576277732849121
1.7294237668548644e+18,-0.00537911057472229,-0.0085841603577137,-10.549845695495605
1.7294237668608645e+18,0.028587453067302704,0.0006999648176133633,-10.560462951660156
1.7294237668668646e+18,-0.003068722551688552,0.019948339089751244,-10.519736289978027
1.7294237668698647e+18,-0.030687812715768814,-0.02646408975124359,-10.609750747680664
1.7294237668758648e+18,-0.0189407579600811,-0.03735193610191345,-10.595841407775879
1.729423766881865e+18,0.05548067390918732,0.03727089613676071,-10.534497261047363
1.729423766887865e+18,0.0558195486664772,-0.0032802154310047626,-10.5572509765625
1.7294237668908652e+18,-0.037007350474596024,-0.020031575113534927,-10.530999183654785
1.7294237668968653e+18,-0.06668433547019958,0.0016426548827439547,-10.534168243408203
1.7294237669028654e+18,0.03702126070857048,-0.07145711779594421,-10.48847770690918
1.7294237669088655e+18,0.003445639740675688,-0.015317731536924839,-10.487412452697754
1.7294237669118656e+18,0.006315034814178944,-0.06249896436929703,-10.580612182617188
1.7294237669178657e+18,-0.011501303873956203,0.08701478689908981,-10.639747619628906
1.7294237669238659e+18,-0.011587779968976974,-0.08362926542758942,-10.592508316040039
1.729423766929866e+18,-0.020083945244550705,0.014042172580957413,-10.597467422485352
1.729423766932866e+18,-0.05739525333046913,-0.0802338570356369,-10.532391548156738
1.7294237669388662e+18,0.06625422835350037,-0.007676773704588413,-10.492323875427246
1.7294237669448663e+18,-0.008138938806951046,0.04156191647052765,-10.503143310546875
1.7294237669508664e+18,0.026044975966215134,0.00999488215893507,-10.531941413879395
1.7294237669568666e+18,0.035086020827293396,-0.034482259303331375,-10.570491790771484
1.7294237669598666e+18,0.010963058099150658,0.03760629892349243,-10.572858810424805
1.7294237669658668e+18,-0.024912312626838684,0.0020570552442222834,-10.581192970275879
1.729423766971867e+18,0.03317584842443466,-0.023842446506023407,-10.536442756652832
1.729423766977867e+18,0.0789981484413147,-0.05753320828080177,-10.525863647460938
1.729423766980867e+18,-0.04421960562467575,0.014286414720118046,-10.512785911560059
1.7294237669868672e+18,0.028648801147937775,0.022207943722605705,-10.558453559875488
1.7294237669928673e+18,-0.09875401854515076,0.12943975627422333,-10.615840911865234
1.7294237669988675e+18,-0.017700543627142906,-0.02871638350188732,-10.57314395904541
1.7294237670018675e+18,-0.04883144795894623,-0.033493634313344955,-10.589216232299805
1.7294237670078676e+18,0.07121386379003525,-0.0002696008887141943,-10.58792495727539
1.7294237670138678e+18,-0.04458080232143402,-0.03015218861401081,-10.575748443603516
1.729423767019868e+18,-0.05711971968412399,-0.044126931577920914,-10.601750373840332
1.729423767022868e+18,-0.029496945440769196,0.0020249257795512676,-10.604930877685547
1.729423767028868e+18,0.03743310272693634,-0.024704132229089737,-10.63413143157959
1.7294237670348682e+18,0.07393288612365723,-0.017816152423620224,-10.603747367858887
1.7294237670378683e+18,0.13959848880767822,-0.019698461517691612,-10.610270500183105
1.7294237670438684e+18,-0.07910358160734177,-0.02061883918941021,-10.613356590270996
1.7294237670498685e+18,-0.06913695484399796,-0.03168522194027901,-10.661345481872559
1.7294237670558687e+18,0.008626104332506657,0.01745787262916565,-10.579920768737793
1.7294237670618688e+18,-0.0005719156470149755,0.023414921015501022,-10.564927101135254
1.7294237670648689e+18,-0.061632804572582245,-0.08766333013772964,-10.58052921295166
1.729423767070869e+18,-0.09862766414880753,-0.06494615972042084,-10.684675216674805
1.729423767076869e+18,0.03614579886198044,-0.13033351302146912,-10.603584289550781
1.7294237670828692e+18,-0.019500914961099625,-0.03724289312958717,-10.565669059753418
1.7294237670858693e+18,-0.05680161714553833,0.016064830124378204,-10.532660484313965
1.7294237670918694e+18,-0.010428759269416332,0.026515062898397446,-10.604308128356934
1.7294237670978696e+18,-0.002822569105774164,0.03155418485403061,-10.60117244720459
1.7294237671038697e+18,0.058891307562589645,-0.005000770092010498,-10.533716201782227
1.7294237671068698e+18,-0.0020960173569619656,0.0532238632440567,-10.546353340148926
1.72942376711287e+18,0.06916075944900513,0.014755324460566044,-10.601308822631836
1.72942376711887e+18,0.03935660794377327,-0.04012709856033325,-10.638386726379395
1.7294237671248701e+18,-0.05973761901259422,-0.027059566229581833,-10.595622062683105
1.7294237671278702e+18,-0.0071458094753324986,0.028744883835315704,-10.597285270690918
1.7294237671338703e+18,0.019243652001023293,0.03463013842701912,-10.7119722366333
1.7294237671398705e+18,0.010134675540030003,0.02206808142364025,-10.658692359924316
1.7294237671458706e+18,0.016616573557257652,-0.011256143450737,-10.54940414428711
1.7294237671518707e+18,0.001998447347432375,-0.0010203653946518898,-10.567096710205078
1.7294237671578708e+18,0.060066815465688705,-0.0035865548998117447,-10.69230842590332
1.729423767160871e+18,0.009936586022377014,-0.006367210298776627,-10.599710464477539
1.729423767166871e+18,0.03686385974287987,0.038109052926301956,-10.607770919799805
1.7294237671728712e+18,-0.042661067098379135,0.015439692884683609,-10.695069313049316
1.7294237671788713e+18,0.08220741897821426,0.005760133266448975,-10.594769477844238
1.7294237671818714e+18,0.004536359570920467,-0.0006043949397280812,-10.534740447998047
1.7294237671878715e+18,0.05374212935566902,0.05986827239394188,-10.635340690612793
1.7294237671938716e+18,-0.00018620614719111472,0.023968856781721115,-10.663888931274414
1.7294237671998717e+18,0.01618056930601597,-0.05308859795331955,-10.60654354095459
1.7294237672058719e+18,-0.06028057262301445,0.05070528760552406,-10.567776679992676
1.729423767208872e+18,-0.011192308738827705,-0.0015267202397808433,-10.592100143432617
1.729423767214872e+18,-0.042454637587070465,-0.01892593316733837,-10.586203575134277
1.7294237672208722e+18,0.08734814077615738,0.005813010036945343,-10.617280960083008
1.7294237672238723e+18,0.13091380894184113,0.03711378201842308,-10.665718078613281
1.7294237672298724e+18,-0.006978635676205158,0.01361488364636898,-10.619126319885254
1.7294237672358725e+18,0.0014536038506776094,0.021905241534113884,-10.564144134521484
1.7294237672418726e+18,-0.0734052062034607,0.007724188268184662,-10.61395263671875
1.7294237672448727e+18,-0.1237591803073883,-0.04276614263653755,-10.541287422180176
1.7294237672508728e+18,-0.03189019858837128,0.01504524890333414,-10.54126262664795
1.729423767256873e+18,0.006569206714630127,-0.01973031461238861,-10.569089889526367
1.729423767262873e+18,0.013050907291471958,0.019095255061984062,-10.596259117126465
1.7294237672658732e+18,-0.0018071692902594805,-0.028340419754385948,-10.615655899047852
1.7294237672718733e+18,-0.06581728160381317,-0.04969286918640137,-10.717841148376465
1.7294237672778734e+18,0.027374284341931343,0.03720097243785858,-10.518600463867188
1.7294237672808735e+18,-0.05437052994966507,-0.0013791966484859586,-10.611725807189941
1.7294237672868736e+18,0.07263566553592682,-0.045209433883428574,-10.594230651855469
1.7294237672928737e+18,0.008421863429248333,-0.056221380829811096,-10.531853675842285
1.7294237672988739e+18,-0.006664079613983631,0.012453626841306686,-10.534099578857422
1.729423767304874e+18,-0.02848905511200428,-0.044540438801050186,-10.65287971496582
1.729423767310874e+18,0.012278789654374123,-0.07048306614160538,-10.651031494140625
1.7294237673138742e+18,0.002542702481150627,0.04414268955588341,-10.55080509185791
1.7294237673198743e+18,0.029107369482517242,0.05453132465481758,-10.591938018798828
1.7294237673258744e+18,-0.008087832480669022,-1.7857993952929974e-05,-10.556073188781738
1.7294237673318746e+18,-0.05320708081126213,-0.06762681901454926,-10.5354585647583
1.7294237673348746e+18,-0.060631200671195984,0.010043825022876263,-10.623342514038086
1.7294237673408748e+18,-0.024830248206853867,0.013510441407561302,-10.59464168548584
1.729423767346875e+18,0.0018888250924646854,-0.04111100733280182,-10.65141773223877
1.729423767352875e+18,-0.0040560318157076836,0.10255113244056702,-10.689857482910156
1.7294237673588751e+18,0.043057892471551895,-0.023876048624515533,-10.60049057006836
1.7294237673618752e+18,-0.012391189113259315,0.05858180671930313,-10.57190990447998
1.7294237673678753e+18,-0.032890018075704575,-0.03391694277524948,-10.611098289489746
1.7294237673738755e+18,0.008185346610844135,-0.0024147024378180504,-10.63017463684082
1.7294237673768755e+18,-0.09765756875276566,0.032641246914863586,-10.560235977172852
1.7294237673828756e+18,0.00732914824038744,-0.03644330054521561,-10.640772819519043
1.7294237673888758e+18,-0.03557814285159111,-0.0250614732503891,-10.572449684143066
1.729423767394876e+18,-0.025200597941875458,-0.04261757805943489,-10.721818923950195
1.729423767400876e+18,-0.02978561632335186,-0.01630052737891674,-10.663203239440918
1.729423767403876e+18,-0.01962588168680668,0.006772957742214203,-10.608642578125
1.7294237674098762e+18,-0.023146962746977806,7.42128468118608e-05,-10.638282775878906
1.7294237674158764e+18,0.05866693705320358,-0.086307592689991,-10.569393157958984
1.7294237674218765e+18,0.0675625130534172,-0.0062598842196166515,-10.628148078918457
1.7294237674248765e+18,-0.028681574389338493,-0.07586874812841415,-10.687705039978027
1.7294237674308767e+18,-0.0048563843593001366,-0.05743224546313286,-10.62568473815918
1.7294237674368768e+18,0.0020427850540727377,0.01421358436346054,-10.634592056274414
1.729423767442877e+18,0.0074409013614058495,0.003840916557237506,-10.653076171875
1.729423767448877e+18,0.02163200080394745,0.03302537277340889,-10.665214538574219
1.729423767451877e+18,0.010141601786017418,-0.016541963443160057,-10.566946983337402
1.7294237674578772e+18,0.04906092584133148,-0.07362072169780731,-10.522050857543945
1.7294237674638774e+18,-0.052705105394124985,0.08231960982084274,-10.658574104309082
1.7294237674698775e+18,-0.013016371987760067,-0.025481993332505226,-10.681262016296387
1.7294237674728776e+18,-0.0634724497795105,-0.03498225659132004,-10.62874984741211
1.7294237674788777e+18,0.0032905032858252525,-0.04667224735021591,-10.585589408874512
1.7294237674848778e+18,0.05464472249150276,0.02004716545343399,-10.504271507263184
1.729423767487878e+18,0.054647400975227356,0.0193401500582695,-10.580306053161621
1.729423767493878e+18,-0.0010760684963315725,-0.05806911364197731,-10.614540100097656
1.7294237674998781e+18,-0.058012474328279495,-0.009191715158522129,-10.607108116149902
1.7294237675058783e+18,0.08139664679765701,-0.014918007887899876,-10.63415813446045
1.7294237675088783e+18,0.08889494836330414,0.03926810249686241,-10.653788566589355
1.7294237675148785e+18,0.059558358043432236,0.0032525076530873775,-10.588456153869629
1.7294237675208786e+18,-0.00429741945117712,0.047603338956832886,-10.601381301879883
1.7294237675268787e+18,-0.008967255242168903,0.0239349827170372,-10.562155723571777
1.7294237675298788e+18,-0.04680348187685013,0.021531367674469948,-10.659794807434082
1.729423767535879e+18,0.032696183770895004,0.0057946075685322285,-10.547572135925293
1.729423767541879e+18,-0.01135321706533432,-0.1114252358675003,-10.56790828704834
1.7294237675478792e+18,-0.02677313983440399,-0.0351802222430706,-10.647371292114258
1.7294237675508792e+18,0.018946943804621696,0.026480089873075485,-10.674485206604004
1.7294237675568794e+18,-0.0040289247408509254,0.020057689398527145,-10.545340538024902
1.7294237675628795e+18,0.04040214419364929,0.009316852316260338,-10.595747947692871
1.7294237675688796e+18,-0.009560330770909786,0.14493386447429657,-10.48072624206543
1.7294237675718797e+18,-0.010530956089496613,0.031241649761795998,-10.565415382385254
1.7294237675778798e+18,-0.09932906180620193,-0.030526716262102127,-10.60449504852295
1.72942376758388e+18,0.023603402078151703,-0.03011404164135456,-10.57759952545166
1.72942376758988e+18,0.012851979583501816,0.04587383568286896,-10.592035293579102
1.72942376759288e+18,-0.05350112542510033,0.04944666475057602,-10.64294719696045
1.7294237675988803e+18,0.04734861105680466,0.07963091135025024,-10.62765121459961
1.7294237676048804e+18,0.008841482922434807,-0.050365597009658813,-10.572932243347168
1.7294237676108805e+18,-0.038044609129428864,0.007117459550499916,-10.632594108581543
1.7294237676138806e+18,-0.009932960383594036,0.019588306546211243,-10.583945274353027
1.7294237676198807e+18,-0.08851378411054611,0.05831736698746681,-10.522664070129395
1.7294237676258808e+18,0.05578866973519325,-0.085133858025074,-10.540755271911621
1.729423767631881e+18,0.08144177496433258,-0.005181793589144945,-10.494658470153809
1.729423767634881e+18,-0.08502423018217087,0.054623670876026154,-10.564002990722656
1.7294237676408812e+18,0.045019179582595825,-0.028282837942242622,-10.587722778320312
1.7294237676468813e+18,0.028499862179160118,-0.01891244389116764,-10.649778366088867
1.7294237676528814e+18,0.02696899324655533,0.04087134450674057,-10.595988273620605
1.7294237676588815e+18,0.0011658092262223363,0.030574828386306763,-10.531946182250977
1.7294237676648817e+18,0.005894106812775135,-0.045488208532333374,-10.649659156799316
1.7294237676678817e+18,-0.013396987691521645,-0.03355079144239426,-10.569750785827637
1.7294237676738819e+18,-0.015594015829265118,0.015496127307415009,-10.504049301147461
1.729423767679882e+18,-0.043030768632888794,-0.020165400579571724,-10.589736938476562
1.729423767682882e+18,0.014546552672982216,0.007282631006091833,-10.574692726135254
1.7294237676888822e+18,-0.04576714709401131,0.018896574154496193,-10.591435432434082
1.7294237676948823e+18,0.03025907836854458,0.06315601617097855,-10.527191162109375
1.7294237677008824e+18,0.08208943903446198,-0.012628206983208656,-10.531291961669922
1.7294237677038825e+18,0.02337525226175785,0.03829319030046463,-10.546775817871094
1.7294237677098826e+18,0.008443253114819527,0.03407726436853409,-10.51491928100586
1.7294237677158828e+18,0.04204221069812775,-0.11506161093711853,-10.611678123474121
1.7294237677188828e+18,-0.0165754072368145,-0.010920719243586063,-10.565997123718262
1.729423767724883e+18,0.0009279445512220263,0.04457515850663185,-10.605910301208496
1.729423767730883e+18,0.0436917282640934,-0.023929325863718987,-10.508600234985352
1.7294237677368832e+18,0.05100913345813751,0.0218792911618948,-10.64242935180664
1.7294237677398833e+18,-0.0008932296186685562,-0.05260353535413742,-10.654519081115723
1.7294237677458834e+18,0.025748342275619507,-0.0648430734872818,-10.556183815002441
1.7294237677518835e+18,0.054422009736299515,-0.0646834447979927,-10.582056045532227
1.7294237677548836e+18,0.03563331067562103,0.025137310847640038,-10.604759216308594
1.7294237677608837e+18,0.024624910205602646,-0.11200515925884247,-10.55070972442627
1.7294237677668838e+18,0.022706519812345505,-0.04439862444996834,-10.652462005615234
1.729423767772884e+18,0.043878164142370224,0.04901130497455597,-10.583420753479004
1.729423767775884e+18,0.01959243416786194,0.025553779676556587,-10.532029151916504
1.7294237677818842e+18,-0.05785921961069107,0.08018023520708084,-10.479779243469238
1.7294237677878843e+18,0.02425355464220047,0.03939460963010788,-10.592403411865234
1.7294237677938844e+18,0.002578785875812173,0.03380465507507324,-10.600837707519531
1.7294237677968845e+18,0.03892841562628746,0.015600824728608131,-10.497427940368652
1.7294237678028846e+18,-0.03544672951102257,0.06793735176324844,-10.443595886230469
1.7294237678088847e+18,0.02755175158381462,0.03672580420970917,-10.51994514465332
1.7294237678148849e+18,-0.023302625864744186,0.03950057923793793,-10.572824478149414
1.729423767817885e+18,0.016665570437908173,0.04257109388709068,-10.490999221801758
1.729423767823885e+18,0.04323391616344452,0.017831411212682724,-10.568702697753906
1.7294237678298852e+18,0.000835687096696347,0.02741571143269539,-10.511277198791504
1.7294237678358853e+18,-0.08418113738298416,-0.05491049960255623,-10.556723594665527
1.7294237678388854e+18,-0.04471731185913086,-0.024530086666345596,-10.621763229370117
1.7294237678448855e+18,-0.004530731588602066,0.043845221400260925,-10.547364234924316
1.7294237678508856e+18,0.03400058299303055,-0.013828318566083908,-10.609914779663086
1.7294237678568858e+18,0.0016309528145939112,0.019006606191396713,-10.590518951416016
1.729423767862886e+18,-0.015719875693321228,-0.01130993478000164,-10.431897163391113
1.729423767865886e+18,0.06774812191724777,0.06258725374937057,-10.577462196350098
1.729423767871886e+18,0.05922708660364151,0.0032303184270858765,-10.545638084411621
1.7294237678778862e+18,-0.010994799435138702,-0.003478007158264518,-10.478266716003418
1.7294237678808863e+18,-0.008995234034955502,0.0002602319582365453,-10.588618278503418
1.7294237678868864e+18,-0.011293664574623108,-0.04204118624329567,-10.508621215820312
1.7294237678928865e+18,-0.03303980082273483,0.07295869290828705,-10.586508750915527
1.7294237678988867e+18,0.04232974722981453,-0.013347776606678963,-10.61144733428955
1.7294237679018867e+18,0.02153586596250534,0.025257298722863197,-10.60489559173584
1.7294237679078868e+18,0.002197782276198268,-0.02400817535817623,-10.55212688446045
1.729423767913887e+18,0.051765214651823044,-0.06093170866370201,-10.578511238098145
1.729423767919887e+18,-0.06753101199865341,0.06724242120981216,-10.46385669708252
1.7294237679228872e+18,0.07196743786334991,-0.02307896502315998,-10.550028800964355
1.7294237679288873e+18,-0.009875230491161346,0.0030750324949622154,-10.56386947631836
1.7294237679348874e+18,-0.12124071270227432,0.010416078381240368,-10.473655700683594
1.7294237679408876e+18,-0.0007928463164716959,0.02611727826297283,-10.522117614746094
1.7294237679438876e+18,0.046605393290519714,-0.03144161403179169,-10.531474113464355
1.7294237679498877e+18,0.030980635434389114,-0.03384103253483772,-10.488384246826172
1.7294237679558879e+18,0.028909821063280106,-0.0292678065598011,-10.541318893432617
1.729423767961888e+18,0.01795787177979946,-0.05872952565550804,-10.551966667175293
1.729423767964888e+18,0.020936571061611176,0.04857799410820007,-10.521578788757324
1.7294237679708882e+18,-0.02420281618833542,-0.082770437002182,-10.546551704406738
1.7294237679768883e+18,0.05624742433428764,0.06050140783190727,-10.477873802185059
1.7294237679828884e+18,0.025401128455996513,-0.012491293251514435,-10.525142669677734
1.7294237679888886e+18,-0.010331209748983383,-0.01418373454362154,-10.503594398498535
1.7294237679918886e+18,0.009404800832271576,0.01897112838923931,-10.474501609802246
1.7294237679978888e+18,-0.04804850369691849,-0.0082797110080719,-10.602859497070312
1.729423768003889e+18,0.005504467524588108,0.07922892272472382,-10.486222267150879
1.729423768009889e+18,0.01831165887415409,-0.00868945475667715,-10.574688911437988
1.729423768012889e+18,-0.013765843585133553,0.02213059738278389,-10.563880920410156
1.7294237680188892e+18,0.044626716524362564,0.03607125207781792,-10.610437393188477
1.7294237680248893e+18,-0.015620246529579163,0.027145516127347946,-10.534226417541504
1.7294237680308895e+18,-0.02838296815752983,-0.02540457993745804,-10.485838890075684
1.7294237680338895e+18,0.03714828938245773,0.08196824043989182,-10.48886489868164
1.7294237680398897e+18,-0.051838409155607224,0.09207294881343842,-10.548645973205566
1.7294237680458898e+18,0.048364609479904175,0.03354911506175995,-10.510499954223633
1.72942376805189e+18,-0.0020809462293982506,0.001044715871103108,-10.474066734313965
1.72942376805489e+18,0.11072899401187897,-0.029745349660515785,-10.522562980651855
1.72942376806089e+18,-0.03621324151754379,0.028657063841819763,-10.551230430603027
1.7294237680668902e+18,-0.010964598506689072,0.04382447153329849,-10.510469436645508
1.7294237680728904e+18,0.02626560628414154,0.16472628712654114,-10.533459663391113
1.7294237680758904e+18,-0.026424609124660492,-0.03925448656082153,-10.39877700805664
1.7294237680818906e+18,0.07913032919168472,0.03672061488032341,-10.373857498168945
1.7294237680878907e+18,-0.02259860374033451,-0.035122647881507874,-10.396906852722168
1.7294237680938908e+18,-0.0080442875623703,-0.0012394171208143234,-10.442681312561035
1.729423768099891e+18,-0.04238491505384445,-0.021762676537036896,-10.463460922241211
1.729423768102891e+18,-0.03805379942059517,0.11566702276468277,-10.424808502197266
1.7294237681088911e+18,0.028287140652537346,0.0049085794016718864,-10.370806694030762
1.7294237681148913e+18,0.04272505268454552,-0.02380908839404583,-10.260978698730469
1.7294237681208914e+18,-0.02063462883234024,-0.00015806641022209078,-10.324346542358398
1.7294237681238915e+18,-0.05052317678928375,0.04950468987226486,-10.384157180786133
1.7294237681298916e+18,0.06408631801605225,-0.056441452354192734,-10.364502906799316
1.7294237681358917e+18,-0.054164864122867584,-0.004594737663865089,-10.350664138793945
1.7294237681418918e+18,0.051086604595184326,0.018411513417959213,-10.407903671264648
1.729423768144892e+18,0.026216160506010056,0.04529894143342972,-10.321415901184082
1.729423768150892e+18,0.0670124739408493,0.005208360962569714,-10.345060348510742
1.7294237681568922e+18,-0.021611712872982025,0.016620323061943054,-10.200411796569824
1.7294237681628923e+18,-0.0019377751741558313,0.026022525504231453,-10.268762588500977
1.7294237681658924e+18,0.014914203435182571,-0.16257983446121216,-10.209409713745117
1.7294237681718925e+18,0.03609968721866608,-0.03435133397579193,-10.136595726013184
1.7294237681778926e+18,0.052023567259311676,0.0015782782575115561,-10.118448257446289
1.7294237681808927e+18,0.038657307624816895,-0.014119977131485939,-10.18447494506836
1.7294237681868928e+18,-0.07553934305906296,-0.04783039167523384,-10.153084754943848
1.729423768192893e+18,0.06783522665500641,0.035083357244729996,-10.214788436889648
1.729423768198893e+18,-0.011482262052595615,0.04366953298449516,-10.087702751159668
1.729423768201893e+18,-0.012699160724878311,-0.04595448076725006,-10.127006530761719
1.7294237682078932e+18,-0.0013416542205959558,-0.03390255570411682,-10.142855644226074
1.7294237682138934e+18,-0.07456263154745102,0.0655537024140358,-10.043017387390137
1.7294237682198935e+18,0.09447923302650452,-0.04803438484668732,-10.052557945251465
1.7294237682228936e+18,-0.023717522621154785,-0.014432924799621105,-10.033306121826172
1.7294237682288937e+18,-0.0020588634070008993,-0.016625231131911278,-10.001830101013184
1.7294237682348938e+18,-0.025470025837421417,-0.03676801919937134,-10.040814399719238
1.729423768240894e+18,0.026919784024357796,-0.05579880252480507,-9.986717224121094
1.729423768243894e+18,-0.05302237719297409,-0.00826242845505476,-9.963451385498047
1.7294237682498941e+18,0.025404103100299835,0.02701753005385399,-9.938172340393066
1.7294237682558943e+18,0.02505485713481903,0.00780846644192934,-9.979604721069336
1.7294237682618944e+18,-0.11696537584066391,0.011432919651269913,-9.890933990478516
1.7294237682648945e+18,0.051246825605630875,0.04614593833684921,-9.937828063964844
1.7294237682708946e+18,-0.047839049249887466,-0.0035720369778573513,-9.796741485595703
1.7294237682768947e+18,0.0119599848985672,0.031087294220924377,-9.882323265075684
1.7294237682798948e+18,-0.06382162868976593,0.029982855543494225,-9.835391998291016
1.729423768285895e+18,0.02613293193280697,-0.04032337665557861,-9.794242858886719
1.729423768291895e+18,-0.04036235809326172,-0.0009744549170136452,-9.88959789276123
1.7294237682978952e+18,0.011105977930128574,0.07575180381536484,-9.761826515197754
1.7294237683008952e+18,0.061034590005874634,0.010079421103000641,-9.795045852661133
1.7294237683068954e+18,-0.014699270948767662,-0.009672502987086773,-9.749103546142578
1.7294237683128955e+18,-0.02879735641181469,-0.08791839331388474,-9.82165241241455
1.7294237683188956e+18,0.056163426488637924,0.04870191588997841,-9.695022583007812
1.7294237683218957e+18,-0.008471900597214699,0.05052211508154869,-9.783961296081543
1.7294237683278958e+18,-0.057838693261146545,-0.03830394521355629,-9.828904151916504
1.729423768333896e+18,0.019248735159635544,0.018672939389944077,-9.681425094604492
1.729423768339896e+18,0.03511196747422218,-0.04095722734928131,-9.693936347961426
1.7294237683458962e+18,-0.03770122304558754,0.012479914352297783,-9.707539558410645
1.7294237683488963e+18,-0.01552613265812397,0.008328631520271301,-9.673637390136719
1.7294237683548964e+18,-0.16422438621520996,0.09906379878520966,-9.678632736206055
1.7294237683608965e+18,-0.05650748685002327,-0.03522300720214844,-9.7305908203125
1.7294237683668966e+18,-0.009328629821538925,0.010276289656758308,-9.679985046386719
1.7294237683698967e+18,-0.014014659449458122,0.02253277413547039,-9.701356887817383
1.7294237683758968e+18,0.0261242538690567,-0.0164498221129179,-9.679298400878906
1.729423768381897e+18,-0.026563435792922974,0.01777263730764389,-9.65355396270752
1.729423768387897e+18,0.027844851836562157,-0.026420587673783302,-9.776000022888184
1.7294237683938972e+18,-0.04140712693333626,-0.020794503390789032,-9.715411186218262
1.7294237683968973e+18,-0.034482892602682114,0.11070577800273895,-9.669843673706055
1.7294237684028974e+18,-0.028034718707203865,0.01207903865724802,-9.669740676879883
1.7294237684088975e+18,0.06676198542118073,0.04176786541938782,-9.666791915893555
1.7294237684118976e+18,-0.008940376341342926,-0.027940915897488594,-9.618606567382812
1.7294237684178977e+18,0.02471933886408806,0.02066792920231819,-9.645021438598633
1.7294237684238979e+18,0.05805147811770439,0.025767769664525986,-9.611985206604004
1.729423768429898e+18,0.05344665050506592,0.06590328365564346,-9.730633735656738
1.729423768435898e+18,0.04307979345321655,-0.08729396015405655,-9.625514030456543
1.7294237684388982e+18,0.013302342966198921,0.04411282017827034,-9.55238151550293
1.7294237684448983e+18,-0.0649770125746727,-0.01789984293282032,-9.628789901733398
1.7294237684508984e+18,0.006070587318390608,0.036273758858442307,-9.662057876586914
1.7294237684568986e+18,0.0594613254070282,-0.044902876019477844,-9.671795845031738
1.7294237684628987e+18,-0.07759382575750351,-0.007174035534262657,-9.722826957702637
1.7294237684658988e+18,0.0018789845053106546,-0.03727247193455696,-9.56788444519043
1.729423768471899e+18,-0.023211054503917694,-0.03146258369088173,-9.624502182006836
1.729423768477899e+18,-0.007147444412112236,0.04716488718986511,-9.624584197998047
1.7294237684838991e+18,-0.03130899369716644,0.03048521652817726,-9.594183921813965
1.7294237684898993e+18,-0.02936224825680256,0.10935164988040924,-9.62354850769043
1.7294237684958994e+18,-0.04308979585766792,0.016216211020946503,-9.64346694946289
1.7294237685018995e+18,-0.03485221415758133,-0.06930619478225708,-9.559383392333984
1.7294237685078996e+18,0.03021666407585144,-0.033931050449609756,-9.646797180175781
1.7294237685138998e+18,-0.05569681152701378,-0.023785298690199852,-9.638222694396973
1.7294237685199e+18,-0.006025504786521196,-0.06537632644176483,-9.587213516235352
1.7294237685259e+18,0.06288747489452362,-0.004795653745532036,-9.549884796142578
1.7294237685319002e+18,0.08991245925426483,0.007045662961900234,-9.597262382507324
1.7294237685379003e+18,-0.02362251468002796,0.03464673459529877,-9.603371620178223
1.7294237685439004e+18,0.05077843740582466,-0.021508194506168365,-9.656618118286133
1.7294237685499005e+18,-0.0893700048327446,0.034560345113277435,-9.591888427734375
1.7294237685559007e+18,0.035451605916023254,0.0572383739054203,-9.624509811401367
1.7294237685589007e+18,0.039810702204704285,-0.10858208686113358,-9.62747859954834
1.7294237685649009e+18,-0.04714027792215347,-0.009395929984748363,-9.659418106079102
1.729423768570901e+18,0.034384291619062424,-0.07834165543317795,-9.675061225891113
1.729423768576901e+18,-0.024656902998685837,-0.03493969514966011,-9.620574951171875
1.7294237685829012e+18,0.014662898145616055,-0.04745534807443619,-9.596982955932617
1.7294237685889014e+18,-0.06183430179953575,-0.14797528088092804,-9.651037216186523
1.7294237685949015e+18,-0.029609404504299164,0.020246854051947594,-9.621274948120117
1.7294237686009016e+18,0.026668570935726166,-0.008508497849106789,-9.642983436584473
1.7294237686069018e+18,-0.012510627508163452,-0.04865887388586998,-9.632791519165039
1.7294237686099018e+18,0.00404534162953496,-0.03981686010956764,-9.630154609680176
1.729423768615902e+18,-0.04256898909807205,0.010623687878251076,-9.648036003112793
1.729423768621902e+18,0.061461564153432846,0.003391585312783718,-9.613899230957031
1.7294237686279022e+18,-0.002325031440705061,0.010476111434400082,-9.689648628234863
1.7294237686339023e+18,-0.05878714844584465,0.06956607848405838,-9.63122844696045
1.7294237686399025e+18,0.00652407156303525,-0.0759991779923439,-9.65291690826416
1.7294237686429025e+18,0.039666417986154556,-0.011857843026518822,-9.682003021240234
1.7294237686489027e+18,-0.06102655827999115,0.017191819846630096,-9.607259750366211
1.7294237686549028e+18,0.048838771879673004,0.04623686522245407,-9.69566822052002
1.729423768660903e+18,-0.011764930561184883,-0.014628387987613678,-9.6377534866333
1.729423768666903e+18,0.05591260641813278,-0.026483330875635147,-9.613882064819336
1.7294237686729032e+18,-0.032816462218761444,-0.08378352969884872,-9.638461112976074
1.7294237686759032e+18,-0.02372041717171669,0.01801753044128418,-9.63425064086914
1.7294237686819034e+18,-0.05224844068288803,0.0002709610853344202,-9.712066650390625
1.7294237686879035e+18,-0.005131199955940247,0.03406994044780731,-9.601758003234863
1.7294237686939036e+18,0.08326062560081482,-0.02128141187131405,-9.666150093078613
1.7294237686999037e+18,-0.03890317305922508,0.0008206687634810805,-9.640556335449219
1.7294237687029038e+18,0.05432944744825363,0.003628887701779604,-9.641098976135254
1.729423768708904e+18,0.0553453266620636,0.007023051381111145,-9.627553939819336
1.729423768714904e+18,0.029952188953757286,-0.01651712693274021,-9.58106803894043
1.7294237687179041e+18,0.03991115465760231,0.06082610785961151,-9.640457153320312
1.7294237687239043e+18,0.04580702260136604,0.01450375560671091,-9.580256462097168
1.7294237687299044e+18,-0.005699263885617256,-0.007500338833779097,-9.616134643554688
1.7294237687359045e+18,0.012892495840787888,-0.04948805272579193,-9.677714347839355
1.7294237687419046e+18,0.05697479099035263,0.049559496343135834,-9.648710250854492
1.7294237687449047e+18,-0.021995259448885918,-0.005789939779788256,-9.586819648742676
1.7294237687509048e+18,-0.01219029538333416,0.03848472237586975,-9.593673706054688
1.729423768756905e+18,-0.036999233067035675,-0.011122453957796097,-9.666360855102539
1.729423768762905e+18,0.0009708870784379542,0.01664884202182293,-9.60130500793457
1.7294237687689052e+18,0.09347282350063324,0.042941004037857056,-9.623632431030273
1.7294237687719053e+18,-0.028503542765975,0.002934967866167426,-9.6163969039917
1.7294237687779054e+18,0.012956967577338219,-0.03128284960985184,-9.68749713897705
1.7294237687839055e+18,0.04159457981586456,-0.011047717183828354,-9.542381286621094
1.7294237687899057e+18,-0.09108728170394897,-0.04571398347616196,-9.522815704345703
1.7294237687929057e+18,0.02578006498515606,0.0143771693110466,-9.641559600830078
1.7294237687989059e+18,0.04207743704319,-0.04234248399734497,-9.577600479125977
1.729423768804906e+18,-0.049390822649002075,0.01986706256866455,-9.596150398254395
1.729423768810906e+18,-0.08766497671604156,-0.007662140764296055,-9.701189994812012
1.7294237688139062e+18,0.04137184098362923,0.01145356334745884,-9.698033332824707
1.7294237688199063e+18,-0.002241340931504965,0.04767240583896637,-9.573015213012695
1.7294237688259064e+18,0.01402411237359047,-0.15274162590503693,-9.529894828796387
1.7294237688289065e+18,-0.04465816169977188,0.03380190208554268,-9.459694862365723
1.7294237688349066e+18,-0.013481173664331436,-0.036831796169281006,-9.633858680725098
1.7294237688409068e+18,0.039511773735284805,0.027836047112941742,-9.594015121459961
1.729423768846907e+18,0.009482658468186855,-0.019948748871684074,-9.654976844787598
1.729423768852907e+18,0.031158743426203728,0.02741149812936783,-9.583471298217773
1.729423768855907e+18,-0.05330762267112732,0.05652231350541115,-9.619501113891602
1.7294237688619072e+18,0.10411691665649414,-0.10866942256689072,-9.607985496520996
1.7294237688679073e+18,0.12612345814704895,0.02084142155945301,-9.609330177307129
1.7294237688739075e+18,-0.03162612020969391,-0.048782091587781906,-9.557312965393066
1.7294237688769075e+18,-0.024971680715680122,-0.01099536381661892,-9.552734375
1.7294237688829076e+18,0.03922199830412865,0.03563375025987625,-9.551698684692383
1.7294237688889078e+18,-0.0010624289279803634,-0.018567632883787155,-9.584802627563477
1.7294237688919078e+18,0.01970583014190197,-0.024735307320952415,-9.564596176147461
1.729423768897908e+18,0.007756249513477087,0.03125062584877014,-9.503141403198242
1.729423768903908e+18,0.032199155539274216,0.008182121440768242,-9.518606185913086
1.7294237689069082e+18,-0.03885544463992119,-0.008349196054041386,-9.594467163085938
1.7294237689129083e+18,0.059821717441082,0.01061002817004919,-9.56202507019043
1.7294237689189084e+18,-0.031866446137428284,0.00616972241550684,-9.625099182128906
1.7294237689249085e+18,-0.057534828782081604,-0.006563201546669006,-9.51318359375
1.7294237689309087e+18,-0.009439107030630112,-0.10299934446811676,-9.47282600402832
1.7294237689369088e+18,-0.02556556649506092,0.004528696648776531,-9.541158676147461
1.7294237689399089e+18,-0.010536917485296726,0.03153502568602562,-9.599069595336914
1.729423768945909e+18,0.08310122042894363,0.041980233043432236,-9.588740348815918
1.729423768951909e+18,-0.11518307030200958,-0.015092629007995129,-9.610894203186035
1.7294237689579092e+18,0.012579814530909061,-0.019295865669846535,-9.564078330993652
1.7294237689609093e+18,-0.04313337430357933,0.0087559400126338,-9.545729637145996
1.7294237689669094e+18,0.06601151823997498,0.025543460622429848,-9.654845237731934
1.7294237689729096e+18,0.027850523591041565,-0.026219487190246582,-9.60071849822998
1.7294237689789097e+18,-0.013658992946147919,0.015211578458547592,-9.551318168640137
1.7294237689849098e+18,-0.021374139934778214,-0.024219360202550888,-9.529973030090332
1.72942376898791e+18,-0.008947649970650673,-0.023284515365958214,-9.632918357849121
1.72942376899391e+18,-0.0514877513051033,0.00740081537514925,-9.605757713317871
1.7294237689999101e+18,-0.011367984116077423,0.02090498059988022,-9.622424125671387
1.7294237690059103e+18,0.006025872193276882,0.03375493735074997,-9.519977569580078
1.7294237690119104e+18,-0.03909612074494362,0.019619308412075043,-9.556766510009766
1.7294237690179105e+18,0.01364605501294136,-0.004133792594075203,-9.526596069335938
1.7294237690209106e+18,0.014546512626111507,-0.05524556338787079,-9.613065719604492
1.7294237690269107e+18,-0.007793063297867775,-0.07309701293706894,-9.498004913330078
1.7294237690329108e+18,-0.010400548577308655,-0.09114373475313187,-9.538566589355469
1.729423769038911e+18,-0.030186466872692108,0.007823385298252106,-9.531573295593262
1.729423769044911e+18,0.08353699743747711,-0.03939298167824745,-9.547609329223633
1.7294237690479112e+18,0.014482716098427773,-0.08671320229768753,-9.549525260925293
1.7294237690539113e+18,0.034125056117773056,0.05669881030917168,-9.515848159790039
1.7294237690599114e+18,-0.03965647891163826,0.037520166486501694,-9.559489250183105
1.7294237690659116e+18,0.05548027902841568,-0.0705282911658287,-9.53380012512207
1.7294237690689116e+18,-0.01746475137770176,-0.05064855515956879,-9.608854293823242
1.7294237690749117e+18,-0.09066025912761688,-0.008870820514857769,-9.565071105957031
1.729423769080912e+18,-0.02480931393802166,-0.0032494114711880684,-9.527029037475586
1.729423769086912e+18,0.01117773074656725,-0.007048704661428928,-9.510451316833496
1.729423769089912e+18,0.0338728092610836,-0.06007948890328407,-9.480018615722656
1.7294237690959122e+18,0.038675568997859955,-0.011901223100721836,-9.53139591217041
1.7294237691019123e+18,0.033138569444417953,-0.017814738675951958,-9.608269691467285
1.7294237691079124e+18,-0.07495924830436707,-0.015980707481503487,-9.584126472473145
1.7294237691139126e+18,-0.008783385157585144,-0.05445209518074989,-9.52840805053711
1.7294237691169126e+18,-0.022156180813908577,-0.018771670758724213,-9.488821983337402
1.7294237691229128e+18,0.06772361695766449,-0.05033308267593384,-9.497831344604492
1.729423769128913e+18,-0.007337342482060194,-0.017071474343538284,-9.459968566894531
1.729423769134913e+18,0.006581014022231102,0.014321099035441875,-9.537358283996582
1.729423769137913e+18,-0.043440788984298706,-0.05584675818681717,-9.447073936462402
1.7294237691439132e+18,0.027180533856153488,0.04828746244311333,-9.514892578125
1.7294237691499133e+18,0.05300196632742882,-0.03990652784705162,-9.473230361938477
1.7294237691529134e+18,-0.050961438566446304,-0.03224381431937218,-9.593879699707031
1.7294237691589135e+18,-0.04590097814798355,-0.012681969441473484,-9.46826457977295
1.7294237691649137e+18,0.014872565865516663,-0.03505919873714447,-9.582846641540527
1.7294237691709138e+18,0.04349745810031891,-0.004844716750085354,-9.471210479736328
1.7294237691739139e+18,-0.010210951790213585,-0.02087351679801941,-9.505681991577148
1.729423769179914e+18,0.013744588010013103,-0.009946680627763271,-9.48310375213623
1.729423769185914e+18,0.0033719397615641356,-0.016319457441568375,-9.50228500366211
1.7294237691919142e+18,0.010627198964357376,-0.05718023329973221,-9.48565673828125
1.7294237691949143e+18,-0.034079659730196,-0.0522061251103878,-9.425063133239746
1.7294237692009144e+18,-0.005289558786898851,0.035367731004953384,-9.472055435180664
1.7294237692069146e+18,-0.06061654910445213,-0.04803237318992615,-9.489668846130371
1.7294237692129147e+18,0.01687864027917385,0.016374506056308746,-9.48008918762207
1.7294237692159148e+18,0.004444010555744171,0.014833994209766388,-9.597207069396973
1.729423769221915e+18,-0.026304034516215324,-0.019390447065234184,-9.551473617553711
1.729423769227915e+18,-0.013018319383263588,-0.036417651921510696,-9.516146659851074
1.7294237692339151e+18,-0.03102940134704113,-0.05862472951412201,-9.474980354309082
1.7294237692369152e+18,-0.04420718550682068,0.049429330974817276,-9.491628646850586
1.7294237692429153e+18,-0.011207034811377525,0.013292516581714153,-9.472126960754395
1.7294237692489155e+18,-0.0523761585354805,0.03401663154363632,-9.434577941894531
1.7294237692519155e+18,0.014692945405840874,0.039242248982191086,-9.51363754272461
1.7294237692579156e+18,0.05152955651283264,0.0394141748547554,-9.537776947021484
1.7294237692639158e+18,-0.04009438678622246,-0.0406462699174881,-9.550018310546875
1.729423769269916e+18,-0.03235802799463272,0.042079269886016846,-9.577821731567383
1.729423769275916e+18,-0.03341933339834213,-0.03989820554852486,-9.475371360778809
1.729423769278916e+18,-0.019476216286420822,0.021855724975466728,-9.427563667297363
1.7294237692849162e+18,0.040873292833566666,-0.011880338191986084,-9.502372741699219
1.7294237692909164e+18,0.05882113054394722,0.05175900459289551,-9.541851043701172
1.7294237692939164e+18,0.013525900430977345,0.012835633009672165,-9.49024772644043
1.7294237692999165e+18,-0.005791225470602512,0.07326363772153854,-9.438712120056152
1.7294237693059167e+18,-0.03757820278406143,-0.027777383103966713,-9.455747604370117
1.7294237693089167e+18,0.0030837974045425653,-0.01393511425703764,-9.458799362182617
1.7294237693149169e+18,-0.00934754591435194,0.061949729919433594,-9.521368980407715
1.729423769320917e+18,0.0006823457079008222,-0.003154782112687826,-9.544849395751953
1.729423769326917e+18,-0.025095801800489426,-0.027091337367892265,-9.518851280212402
1.7294237693299172e+18,-0.019215930253267288,0.018504548817873,-9.646327018737793
1.7294237693359173e+18,-0.043901294469833374,0.03695845976471901,-9.436744689941406
1.7294237693419174e+18,-0.04344720393419266,0.02102728746831417,-9.462687492370605
1.7294237693479176e+18,0.025644436478614807,-0.033860642462968826,-9.537908554077148
1.7294237693539177e+18,0.10109879821538925,0.05920912325382233,-9.429487228393555
1.7294237693569178e+18,0.08130289614200592,-0.030473388731479645,-9.450238227844238
1.729423769362918e+18,0.02211049199104309,0.03524565324187279,-9.394930839538574
1.729423769368918e+18,0.006993031594902277,-0.012660996057093143,-9.5076265335083
1.7294237693749181e+18,-0.0021075725089758635,0.015320626087486744,-9.508432388305664
1.7294237693779182e+18,0.013614194467663765,-0.005543354898691177,-9.497041702270508
1.7294237693839183e+18,0.030085114762187004,-0.008698157034814358,-9.389240264892578
1.7294237693899185e+18,-0.019135911017656326,-0.001906704157590866,-9.493938446044922
1.7294237693959186e+18,0.06348704546689987,0.018194163218140602,-9.503045082092285
1.7294237693989187e+18,0.02515357732772827,-0.03792235627770424,-9.482098579406738
1.7294237694049188e+18,-0.08303181082010269,0.03909839689731598,-9.507033348083496
1.729423769410919e+18,-0.029624449089169502,0.02211911603808403,-9.445622444152832
1.729423769416919e+18,-0.03243931010365486,0.00844753161072731,-9.463558197021484
1.729423769419919e+18,-0.0645398423075676,-0.030156373977661133,-9.459978103637695
1.7294237694259192e+18,-0.01815730705857277,-0.07989201694726944,-9.479235649108887
1.7294237694319194e+18,0.018997566774487495,-0.009352860040962696,-9.458563804626465
1.7294237694379195e+18,0.01661381497979164,-0.01790686696767807,-9.504076957702637
1.7294237694409196e+18,0.026292551308870316,0.008036005310714245,-9.517386436462402
1.7294237694469197e+18,0.0671447291970253,0.042482681572437286,-9.51632022857666
1.7294237694529198e+18,-0.006295834667980671,-0.00972734298557043,-9.442072868347168
1.7294237694559199e+18,0.044645655900239944,-0.035595715045928955,-9.489738464355469
1.72942376946192e+18,-0.0403272919356823,0.06186676025390625,-9.439146041870117
1.7294237694679201e+18,-0.05339113622903824,0.06454839557409286,-9.455738067626953
1.7294237694739203e+18,-0.008194291032850742,0.014793604612350464,-9.416760444641113
1.7294237694799204e+18,-0.02986931800842285,0.0208557341247797,-9.425176620483398
1.7294237694829204e+18,0.036331333220005035,0.06734553724527359,-9.358919143676758
1.7294237694889206e+18,0.022065846249461174,-0.0447024330496788,-9.455705642700195
1.7294237694949207e+18,-0.014578541740775108,-0.017621567472815514,-9.448343276977539
1.7294237695009208e+18,-0.033428456634283066,-0.028987091034650803,-9.521808624267578
1.729423769503921e+18,0.01241100300103426,0.028299495577812195,-9.423823356628418
1.729423769509921e+18,0.02374941296875477,-0.004277300089597702,-9.450024604797363
1.7294237695159212e+18,-0.01451042853295803,-0.003805840853601694,-9.481367111206055
1.7294237695219213e+18,-0.01339348778128624,-0.026520438492298126,-9.512189865112305
1.7294237695279214e+18,-0.009146396070718765,-0.10928799211978912,-9.431078910827637
1.7294237695309215e+18,-0.06174963712692261,-0.022030293941497803,-9.458621978759766
1.7294237695369216e+18,0.029047293588519096,0.04087431728839874,-9.477277755737305
1.7294237695429217e+18,-0.029767578467726707,-0.009071805514395237,-9.435029983520508
1.7294237695489219e+18,-0.006109161302447319,0.05635621398687363,-9.451689720153809
1.729423769551922e+18,0.07261520624160767,0.020972715690732002,-9.444734573364258
1.729423769557922e+18,0.01967744715511799,-0.061951689422130585,-9.486799240112305
1.7294237695639222e+18,0.02778293937444687,0.05013192072510719,-9.353460311889648
1.7294237695699223e+18,-0.048756193369627,0.09866023063659668,-9.40893840789795
1.7294237695759224e+18,0.047030750662088394,-0.06205965578556061,-9.47567367553711
1.7294237695789225e+18,-0.02965044416487217,-0.014953156933188438,-9.453495979309082
1.7294237695849226e+18,-0.00911600049585104,-0.029845457524061203,-9.475358963012695
1.7294237695909228e+18,0.021110370755195618,0.05155551806092262,-9.47177791595459
1.729423769596923e+18,-0.05277453362941742,-0.029208214953541756,-9.399579048156738
1.729423769599923e+18,-0.0026174706872552633,0.037544943392276764,-9.387612342834473
1.729423769605923e+18,-0.03862592950463295,-0.05562964826822281,-9.460945129394531
1.7294237696119232e+18,-0.04643494263291359,0.01892324537038803,-9.390227317810059
1.7294237696149233e+18,0.015712272375822067,0.015546596609055996,-9.43205451965332
1.7294237696209234e+18,0.03285666182637215,0.002886347472667694,-9.355924606323242
1.7294237696269235e+18,-0.039481863379478455,0.024916701018810272,-9.522027969360352
1.7294237696329236e+18,0.03655495122075081,0.020964285358786583,-9.37881851196289
1.7294237696359237e+18,-0.03099292330443859,0.011015009135007858,-9.396435737609863
1.7294237696419238e+18,-0.07645323872566223,0.022595616057515144,-9.451074600219727
1.729423769647924e+18,0.010031254962086678,0.06671837717294693,-9.479905128479004
1.729423769653924e+18,-0.006088404916226864,-0.011178112588822842,-9.422276496887207
1.7294237696569242e+18,-0.02877444587647915,-0.04730796068906784,-9.390336990356445
1.7294237696629243e+18,0.035207126289606094,-0.013222793117165565,-9.444449424743652
1.7294237696689244e+18,0.006147780455648899,0.04442552849650383,-9.43571662902832
1.7294237696749245e+18,-0.018262455239892006,-0.030095180496573448,-9.445832252502441
1.7294237696779246e+18,0.02702571637928486,-0.03106268122792244,-9.44482135772705
1.7294237696839247e+18,0.015143449418246746,0.07419485598802567,-9.390419006347656
1.7294237696899249e+18,-0.003088016528636217,0.0670631006360054,-9.483851432800293
1.729423769695925e+18,0.01113937795162201,-0.022213779389858246,-9.438661575317383
1.729423769698925e+18,-0.009266940876841545,0.007411537691950798,-9.479766845703125
1.7294237697049252e+18,0.022327573969960213,-0.029661428183317184,-9.405353546142578
1.7294237697109253e+18,0.01930447854101658,-0.046811580657958984,-9.450028419494629
1.7294237697169254e+18,0.02116856351494789,0.010088058188557625,-9.513704299926758
1.7294237697229256e+18,-0.03753047063946724,-0.014529974199831486,-9.417726516723633
1.7294237697259256e+18,0.006579740904271603,-0.009601880796253681,-9.493842124938965
1.7294237697319258e+18,-0.02311788685619831,0.08713475614786148,-9.416312217712402
1.729423769737926e+18,-0.0034226865973323584,-0.01432133000344038,-9.42896556854248
1.729423769743926e+18,-0.011499100364744663,-0.02833365835249424,-9.477540016174316
1.729423769746926e+18,-0.014691948890686035,-0.048745978623628616,-9.397438049316406
1.7294237697529262e+18,0.04451395571231842,-0.034426070749759674,-9.456786155700684
1.7294237697589263e+18,-0.012419315055012703,-0.03136138617992401,-9.410697937011719
1.7294237697649265e+18,-0.07957960665225983,0.0755518451333046,-9.439269065856934
1.7294237697709266e+18,0.01835009455680847,0.022047927603125572,-9.490299224853516
1.7294237697739267e+18,-0.005720103159546852,-0.037115346640348434,-9.481024742126465
1.7294237697799268e+18,0.02267463319003582,0.0003304652636870742,-9.39229679107666
1.729423769785927e+18,-0.03548862040042877,0.011513318866491318,-9.362479209899902
1.729423769791927e+18,0.03567776829004288,-0.03359046205878258,-9.320268630981445
1.729423769794927e+18,-0.07246942818164825,-0.0009567170636728406,-9.460095405578613
1.7294237698009272e+18,-0.07440564036369324,-0.027439629659056664,-9.334975242614746
1.7294237698069274e+18,-0.018908077850937843,0.020134324207901955,-9.378148078918457
1.7294237698129275e+18,0.04765525087714195,0.10144893079996109,-9.409919738769531
1.7294237698159276e+18,0.058065708726644516,-0.005921314936131239,-9.34994888305664
1.7294237698219277e+18,0.04103516414761543,0.08073538541793823,-9.305023193359375
1.7294237698279278e+18,0.05030030757188797,-0.007954418659210205,-9.229292869567871
1.729423769833928e+18,0.03559921309351921,-0.0018257652409374714,-9.197747230529785
1.729423769839928e+18,-0.06666784733533859,-0.04397452995181084,-9.275286674499512
1.729423769842928e+18,0.01143827848136425,0.08574944734573364,-9.304574966430664
1.7294237698489283e+18,-0.012061110697686672,-0.01845059171319008,-9.230546951293945
1.7294237698549284e+18,0.0020776018500328064,0.0719006210565567,-9.188108444213867
1.7294237698609285e+18,-0.023303626105189323,0.016882136464118958,-9.255258560180664
1.7294237698669286e+18,-0.00581606850028038,0.014016705565154552,-9.181436538696289
1.7294237698699287e+18,0.05646169185638428,-0.04797796159982681,-9.198840141296387
1.7294237698759288e+18,0.03673898056149483,-0.010181011632084846,-9.09415340423584
1.729423769881929e+18,0.009546036832034588,-0.08535435795783997,-9.122361183166504
1.729423769887929e+18,-0.06208482012152672,0.007189308293163776,-9.104110717773438
1.7294237698939292e+18,-0.03326067700982094,-0.05114060640335083,-9.05672836303711
1.7294237698999293e+18,0.051119234412908554,0.013231856748461723,-9.114712715148926
1.7294237699029294e+18,0.014408253133296967,0.04963104799389839,-9.044833183288574
1.7294237699089295e+18,0.07501952350139618,0.04438820481300354,-8.908785820007324
1.7294237699149297e+18,0.007640024647116661,-0.04714987426996231,-8.987712860107422
1.7294237699209298e+18,0.007230987306684256,0.055978406220674515,-9.044135093688965
1.7294237699239299e+18,0.04719921946525574,-0.02353833056986332,-9.074238777160645
1.72942376992993e+18,-0.01829269528388977,-0.020705176517367363,-8.950032234191895
1.72942376993593e+18,0.00973157212138176,-0.053419508039951324,-8.959461212158203
1.7294237699389302e+18,-0.04544160142540932,-0.041943445801734924,-8.879551887512207
1.7294237699449303e+18,0.028778240084648132,0.059572990983724594,-8.922073364257812
1.7294237699509304e+18,0.061486028134822845,0.02654319442808628,-8.819689750671387
1.7294237699569306e+18,-0.03137665614485741,-0.04255962371826172,-8.883126258850098
1.7294237699629307e+18,0.025119798257946968,-0.08724458515644073,-8.872529029846191
1.7294237699689308e+18,0.05578543618321419,-0.01555168442428112,-8.812028884887695
1.729423769971931e+18,0.061968643218278885,0.006965051405131817,-8.712210655212402
1.729423769977931e+18,0.01049884594976902,-0.013848708011209965,-8.760343551635742
1.7294237699839311e+18,0.031810592859983444,0.05323253944516182,-8.766181945800781
1.7294237699899313e+18,-0.04597659036517143,-0.03587529808282852,-8.773921012878418
1.7294237699959314e+18,0.06142725422978401,-0.03068423457443714,-8.764968872070312
1.7294237699989315e+18,-0.03408559411764145,0.019353441894054413,-8.687583923339844
1.7294237700049316e+18,0.035682570189237595,0.09452906250953674,-8.714468002319336
1.7294237700109317e+18,-0.053516220301389694,-0.019717101007699966,-8.76206111907959
1.7294237700169318e+18,-0.09384243190288544,0.044608939439058304,-8.705792427062988
1.729423770022932e+18,0.0014545394806191325,0.04865802451968193,-8.66307258605957
1.729423770025932e+18,-0.0534764863550663,-0.0409737192094326,-8.58596420288086
1.7294237700319322e+18,-0.06675365567207336,-0.015253471210598946,-8.655122756958008
1.7294237700379323e+18,-0.050112124532461166,-0.02955508790910244,-8.626526832580566
1.7294237700409324e+18,0.022969013080000877,0.02163808047771454,-8.664742469787598
1.7294237700469325e+18,0.09009426087141037,-0.0314592681825161,-8.611063003540039
1.7294237700529326e+18,0.056419096887111664,0.0683164894580841,-8.669028282165527
1.7294237700559327e+18,-0.013094120658934116,0.035591010004282,-8.598655700683594
1.7294237700619328e+18,-0.009873060509562492,-0.0031494831200689077,-8.713302612304688
1.729423770067933e+18,-0.023829994723200798,0.052740428596735,-8.572850227355957
1.729423770073933e+18,0.021884139627218246,0.02971695363521576,-8.607013702392578
1.7294237700799332e+18,0.026392638683319092,-0.0038704678881913424,-8.718999862670898
1.7294237700829332e+18,-0.010819371789693832,0.0049758912064135075,-8.711456298828125
1.7294237700889334e+18,-0.002181430347263813,-0.0674210861325264,-8.69267749786377
1.7294237700949335e+18,-0.006111796945333481,-0.028684688732028008,-8.645051002502441
1.7294237701009336e+18,-0.049735572189092636,0.00618981197476387,-8.730977058410645
1.7294237701069338e+18,-0.036017045378685,-0.055653166025877,-8.675994873046875
1.7294237701099338e+18,0.03549753129482269,0.0014812890440225601,-8.770465850830078
1.729423770115934e+18,-0.00638578413054347,-0.011273753829300404,-8.744562149047852
1.729423770121934e+18,0.017362788319587708,0.005301684141159058,-8.750397682189941
1.7294237701279342e+18,-0.058122217655181885,-0.028391944244503975,-8.751232147216797
1.7294237701309343e+18,-0.012372104451060295,0.0006297278450801969,-8.751607894897461
1.7294237701369344e+18,0.06810476630926132,0.034213174134492874,-8.735926628112793
1.7294237701429345e+18,-0.042974840849637985,-0.0159774012863636,-8.807709693908691
1.7294237701489347e+18,-0.01187838613986969,-0.012890991754829884,-8.755308151245117
1.7294237701549348e+18,0.010162342339754105,0.032311901450157166,-8.745928764343262
1.7294237701579348e+18,0.07383812218904495,0.023741431534290314,-8.838417053222656
1.729423770163935e+18,-0.04014016315340996,-0.014049717225134373,-8.802610397338867
1.729423770169935e+18,0.06196550652384758,-0.016121424734592438,-8.830100059509277
1.7294237701759352e+18,-0.06156991422176361,0.00885224249213934,-12.146312713623047
1.7294237701819354e+18,0.03161997348070145,0.024344732984900475,-15.140375137329102
1.7294237701849354e+18,-0.0015825062291696668,-0.06410381942987442,-15.584918975830078
1.7294237701909356e+18,0.03848451375961304,-0.002379166427999735,-16.111024856567383
1.7294237701969357e+18,-0.025051288306713104,-0.02687421813607216,-16.274005889892578
1.7294237702029358e+18,-0.012325793504714966,0.022189905866980553,-16.468734741210938
1.7294237702059359e+18,0.09055015444755554,-0.0012278606882318854,-16.43161964416504
1.729423770211936e+18,-0.01333530806005001,0.046624355018138885,-16.327713012695312
1.7294237702179361e+18,0.024745134636759758,-0.009901399724185467,-16.290889739990234
1.7294237702239363e+18,-0.020196663215756416,-0.05340804159641266,-16.171281814575195
1.7294237702269363e+18,-0.08429011702537537,0.054031580686569214,-16.149742126464844
1.7294237702329364e+18,-0.019528742879629135,0.02254262939095497,-16.03777503967285
1.7294237702389366e+18,-0.005942313466221094,-0.03348841145634651,-16.01093292236328
1.7294237702449367e+18,-0.030225705355405807,0.07033167779445648,-15.809343338012695
1.7294237702509368e+18,-0.0002452832704875618,0.004568318370729685,-15.770106315612793
1.729423770256937e+18,0.033766306936740875,-0.035455599427223206,-15.867094039916992
1.729423770262937e+18,0.0820024311542511,-0.10155294835567474,-15.573534965515137
1.7294237702659372e+18,-0.011947347782552242,-0.05039722099900246,-15.615503311157227
1.7294237702719373e+18,0.014573423191905022,0.011580284684896469,-15.473651885986328
1.7294237702779374e+18,0.09277767688035965,-0.03962728753685951,-15.407736778259277
1.7294237702839375e+18,0.013629443943500519,-0.04130794480443001,-15.291885375976562
1.7294237702869376e+18,0.07659841328859329,0.03412632644176483,-15.340094566345215
1.7294237702929377e+18,0.001311826636083424,-0.04325566813349724,-15.137727737426758
1.7294237702989379e+18,0.027076706290245056,0.012317152693867683,-15.104689598083496
1.729423770304938e+18,0.026179641485214233,0.0014655139530077577,-15.04957103729248
1.729423770307938e+18,-0.014655710197985172,0.014750250615179539,-14.920289993286133
1.7294237703139382e+18,-0.031959131360054016,-0.03758000582456589,-14.973466873168945
1.7294237703199383e+18,0.023343414068222046,-0.03610280156135559,-14.806556701660156
1.7294237703259384e+18,-0.04673853889107704,0.04406452551484108,-14.762388229370117
1.7294237703289385e+18,-0.0017524291761219501,0.018589425832033157,-14.702895164489746
1.7294237703349386e+18,-0.07746513932943344,0.013247363269329071,-14.661523818969727
1.7294237703409388e+18,-0.025055892765522003,-0.014626378193497658,-14.5404691696167
1.729423770346939e+18,-0.017031781375408173,0.01837366819381714,-14.580857276916504
1.729423770349939e+18,0.005284978076815605,-0.004067686852067709,-14.5443115234375
1.729423770355939e+18,0.062143027782440186,-0.005603747442364693,-14.289324760437012
1.7294237703619392e+18,-0.11127588897943497,0.06544852256774902,-14.355406761169434
1.7294237703679393e+18,0.04478410258889198,-0.04002813994884491,-14.247316360473633
1.7294237703709394e+18,0.03780128434300423,0.027445925399661064,-14.063156127929688
1.7294237703769395e+18,-0.04349743202328682,0.012441104277968407,-14.203479766845703
1.7294237703829396e+18,-0.0453307144343853,0.0032677731942385435,-14.030220985412598
1.7294237703889398e+18,-0.034451909363269806,-0.0954199805855751,-13.861841201782227
1.7294237703919398e+18,0.04585159569978714,-0.0714261382818222,-13.92358684539795
1.72942377039794e+18,0.01348120253533125,0.05615179240703583,-13.927319526672363
1.72942377040394e+18,-0.028731271624565125,0.03369676321744919,-13.773573875427246
1.7294237704099402e+18,-0.05821911618113518,-0.03700998052954674,-13.725655555725098
1.7294237704129403e+18,0.06789548695087433,-0.0061908308416605,-13.702452659606934
1.7294237704189404e+18,0.04477161169052124,-0.04538530856370926,-13.649188041687012
1.7294237704249405e+18,-0.037230610847473145,-0.02139057219028473,-13.628249168395996
1.7294237704309407e+18,-0.05621079355478287,-0.05265996605157852,-13.46575927734375
1.7294237704339407e+18,0.11382348835468292,0.033935219049453735,-13.501567840576172
1.7294237704399409e+18,-0.11203242838382721,-0.030374418944120407,-13.483868598937988
1.729423770445941e+18,0.03906463831663132,-0.018693288788199425,-13.348198890686035
1.729423770451941e+18,0.03026825562119484,-0.06015494093298912,-13.385915756225586
1.7294237704549412e+18,-0.016949642449617386,0.1320793330669403,-13.276206970214844
1.7294237704609413e+18,-0.012552198953926563,-0.02272575907409191,-13.244330406188965
1.7294237704669414e+18,-0.08709762990474701,-0.028596224263310432,-13.194066047668457
1.7294237704729416e+18,0.022257355973124504,0.06851998716592789,-13.071328163146973
1.7294237704759416e+18,0.016296565532684326,-0.0011207633651793003,-13.129199981689453
1.7294237704819418e+18,-0.056177768856287,-0.02891397848725319,-12.976243019104004
1.729423770487942e+18,-0.05813105031847954,-0.15058673918247223,-12.975029945373535
1.729423770493942e+18,-0.014584734104573727,0.019519207999110222,-12.894783020019531
1.7294237704999421e+18,-0.05857441946864128,-0.0035694323014467955,-12.901021003723145
1.7294237705029422e+18,0.09781350940465927,-0.09300168603658676,-12.929902076721191
1.7294237705089423e+18,0.05233984440565109,0.07294594496488571,-12.81935977935791
1.7294237705149425e+18,0.023474542424082756,0.15111832320690155,-12.787240028381348
1.7294237705209426e+18,-0.008219463750720024,0.0011387201957404613,-12.792734146118164
1.7294237705239427e+18,0.025905020534992218,-0.02346024662256241,-12.75913143157959
1.7294237705299428e+18,-0.00485242810100317,0.01751437596976757,-12.631439208984375
1.729423770535943e+18,-0.04374226927757263,-0.06558668613433838,-12.635076522827148
1.729423770541943e+18,-0.02701958827674389,-0.06101079285144806,-12.48519229888916
1.729423770544943e+18,0.04974210262298584,-0.008411416783928871,-12.571046829223633
1.7294237705509432e+18,0.013119243085384369,0.05105690285563469,-12.503264427185059
1.7294237705569434e+18,0.031175808981060982,-0.06986646354198456,-12.449995994567871
1.7294237705629435e+18,0.055130310356616974,0.017827773466706276,-12.456975936889648
1.7294237705659436e+18,0.02278188243508339,-0.027054602280259132,-12.455183029174805
1.7294237705719437e+18,-0.04555081948637962,-0.013621440157294273,-12.357141494750977
1.7294237705779438e+18,0.05708106607198715,-0.08041980117559433,-12.430347442626953
1.729423770580944e+18,-0.02342972345650196,0.009821420535445213,-12.256734848022461
1.729423770586944e+18,0.006885330192744732,-0.0029075443744659424,-12.320932388305664
1.729423770592944e+18,0.009468002244830132,0.0719948410987854,-12.300647735595703
1.7294237705989443e+18,-0.020855596289038658,-0.03126659244298935,-12.213056564331055
1.7294237706049444e+18,0.005238562822341919,0.05405168980360031,-12.190482139587402
1.7294237706079444e+18,-0.020532341673970222,0.030715858563780785,-12.229558944702148
1.7294237706139446e+18,0.04118790477514267,0.01715710386633873,-12.13559627532959
1.7294237706199447e+18,-0.06371243298053741,0.012364068068563938,-12.114890098571777
1.7294237706259448e+18,0.01744798570871353,0.034980371594429016,-11.995442390441895
1.729423770628945e+18,0.017194995656609535,-0.029028426855802536,-12.001588821411133
1.729423770634945e+18,0.014015255495905876,0.05650644749403,-12.004712104797363
1.7294237706409452e+18,-0.033598948270082474,-0.03878673538565636,-11.91343879699707
1.7294237706469453e+18,-0.03205136954784393,0.0777156725525856,-11.974382400512695
1.7294237706499453e+18,-0.11096135526895523,-0.01076809223741293,-11.959692001342773
1.7294237706559455e+18,0.030918773263692856,0.022066602483391762,-11.811633110046387
1.7294237706619456e+18,0.05136728659272194,-0.019945047795772552,-11.821233749389648
1.7294237706679457e+18,-0.040191374719142914,-0.03932875394821167,-11.833277702331543
1.7294237706709458e+18,-0.06370311975479126,0.010276099666953087,-11.861557006835938
1.729423770676946e+18,-0.022678982466459274,-0.04234657809138298,-11.797069549560547
1.729423770682946e+18,-0.02206941694021225,0.012635651975870132,-11.822958946228027
1.729423770685946e+18,0.05730384960770607,-0.06843443214893341,-11.743243217468262
1.7294237706919462e+18,-0.027031082659959793,0.11437565833330154,-11.701570510864258
1.7294237706979464e+18,0.06274372339248657,-0.078361377120018,-11.65551471710205
1.7294237707039465e+18,-0.030070416629314423,-0.0207752026617527,-11.783974647521973
1.7294237707099466e+18,-0.019253965467214584,-0.003323968034237623,-11.708168983459473
1.7294237707129467e+18,0.038066864013671875,0.04914778470993042,-11.638447761535645
1.7294237707189468e+18,0.062243662774562836,0.007466844283044338,-11.62146282196045
1.729423770724947e+18,-0.06326249986886978,0.009025963954627514,-11.513976097106934
1.729423770730947e+18,-0.03152262046933174,0.05110670253634453,-11.569306373596191
1.7294237707339471e+18,-0.019991513341665268,-0.11872370541095734,-11.607025146484375
1.7294237707399473e+18,0.03518291190266609,0.12927424907684326,-11.488700866699219
1.7294237707459474e+18,-0.04502468928694725,0.0204754825681448,-11.499610900878906
1.7294237707489475e+18,0.05229414626955986,-0.03140455484390259,-11.47866153717041
1.7294237707549476e+18,0.05111246556043625,0.02185516059398651,-11.46851921081543
1.7294237707609477e+18,0.05231015384197235,0.045837171375751495,-11.392065048217773
1.7294237707669478e+18,-0.05485761538147926,0.00149134814273566,-11.44543170928955
1.729423770772948e+18,0.0076883528381586075,-0.02659149281680584,-11.410327911376953
1.729423770775948e+18,0.03902147337794304,-0.009011768735945225,-11.406012535095215
1.7294237707819482e+18,-0.07564398646354675,-0.04269034042954445,-11.424677848815918
1.7294237707879483e+18,0.024709898978471756,0.018037091940641403,-11.375248908996582
1.7294237707939484e+18,0.07128070294857025,0.045439787209033966,-11.307611465454102
1.7294237707999485e+18,-0.08802052587270737,0.004754594061523676,-11.236557006835938
1.7294237708029486e+18,-0.016900183632969856,-0.007831946946680546,-11.31340217590332
1.7294237708089487e+18,-0.013222958892583847,0.05077700316905975,-11.224349021911621
1.7294237708149489e+18,-0.01447466854006052,0.012624599039554596,-11.25676155090332
1.729423770817949e+18,-0.052442602813243866,0.006499632727354765,-11.219757080078125
1.729423770823949e+18,-0.0664319396018982,-0.04759175330400467,-11.185467720031738
1.7294237708299492e+18,0.03385089337825775,0.021852251142263412,-11.224177360534668
1.7294237708359493e+18,0.07476411759853363,-0.0681082010269165,-11.215263366699219
1.7294237708389494e+18,0.08356289565563202,0.0348246730864048,-11.179913520812988
1.7294237708449495e+18,-0.0077981906943023205,0.03581548482179642,-11.13463306427002
1.7294237708509496e+18,-0.054423846304416656,0.02651948668062687,-11.127228736877441
1.7294237708569498e+18,0.004431307781487703,-0.0068788351491093636,-11.032892227172852
1.7294237708599498e+18,0.02225165255367756,-0.04793756827712059,-11.1104736328125
1.72942377086595e+18,0.03189174458384514,0.02750398963689804,-11.052458763122559
1.72942377087195e+18,0.013371912762522697,0.020256683230400085,-11.112751007080078
1.7294237708779502e+18,-0.01308528333902359,0.0088421069085598,-11.063385009765625
1.7294237708839503e+18,0.017271067947149277,0.001159069244749844,-11.047419548034668
1.7294237708869504e+18,0.08593667298555374,-0.040100812911987305,-11.063426971435547
1.7294237708929505e+18,0.019991375505924225,0.032083045691251755,-11.022148132324219
1.7294237708989507e+18,0.05670097470283508,0.04444023221731186,-10.982447624206543
1.7294237709049508e+18,0.0340878963470459,0.028281988576054573,-10.898565292358398
1.7294237709079508e+18,-0.008295039646327496,0.04948486015200615,-10.88740062713623
1.729423770913951e+18,0.012697765603661537,-0.014780319295823574,-10.99516773223877
1.729423770919951e+18,-0.034429166465997696,0.04954741895198822,-10.89599323272705
1.7294237709259512e+18,0.03445799648761749,-0.010993319563567638,-10.880329132080078
1.7294237709319514e+18,-0.06544727087020874,-0.14106935262680054,-10.895957946777344
1.7294237709349514e+18,-0.009975872002542019,-0.07426579296588898,-10.83292293548584
1.7294237709409516e+18,0.11537700146436691,-0.02292577177286148,-10.902167320251465
1.7294237709469517e+18,0.08178619295358658,-0.03211609274148941,-10.828143119812012
1.7294237709499517e+18,0.013737751170992851,0.0697183832526207,-10.844392776489258
1.7294237709559519e+18,-0.011197421699762344,0.005514993332326412,-10.916557312011719
1.729423770961952e+18,-0.043187353760004044,-0.001589009421877563,-10.78924560546875
1.7294237709679521e+18,0.01392722874879837,0.019490400329232216,-10.780970573425293
1.7294237709709522e+18,0.0412270687520504,0.043204572051763535,-10.808329582214355
1.7294237709769523e+18,0.039311911910772324,0.011949045583605766,-10.805140495300293
1.7294237709829524e+18,-0.01678425818681717,0.055901315063238144,-10.704996109008789
1.7294237709889526e+18,-0.007179749198257923,-0.08633055537939072,-10.786154747009277
1.7294237709949527e+18,0.06335277855396271,0.0028974541928619146,-10.751314163208008
1.7294237709979528e+18,0.007962356321513653,-0.01087281946092844,-10.776359558105469
1.729423771003953e+18,-0.028074858710169792,-0.048319876194000244,-10.649529457092285
1.729423771009953e+18,-0.0021475290413945913,-0.013283034786581993,-10.659238815307617
1.729423771012953e+18,0.07048698514699936,0.07088375836610794,-10.625858306884766
1.7294237710189532e+18,-0.039386086165905,0.07742810249328613,-10.726180076599121
1.7294237710249533e+18,0.005155788268893957,0.007622133009135723,-10.641671180725098
1.7294237710309535e+18,-0.020207632333040237,-0.12914423644542694,-10.662799835205078
1.7294237710339535e+18,0.021706469357013702,0.038233622908592224,-10.611052513122559
1.7294237710399537e+18,0.010203102603554726,0.07174038141965866,-10.601962089538574
1.7294237710459538e+18,-0.001091638463549316,0.048317112028598785,-10.661279678344727
1.729423771051954e+18,-0.006943471264094114,-0.03178035467863083,-10.628689765930176
1.729423771057954e+18,0.012628147378563881,-0.024858370423316956,-10.731197357177734
1.729423771060954e+18,-0.04873105138540268,-0.07669849693775177,-10.5938081741333
1.7294237710669542e+18,0.00735284760594368,-0.08365301787853241,-10.6376314163208
1.7294237710729544e+18,-0.030554920434951782,-0.02675238996744156,-10.5814208984375
1.7294237710759544e+18,-0.06813693046569824,-0.010099729523062706,-10.502440452575684
1.7294237710819546e+18,-0.018797719851136208,-0.012322578579187393,-10.53564739227295
1.7294237710879547e+18,-0.06447795033454895,0.011857105419039726,-10.565528869628906
1.7294237710939548e+18,-0.02442038618028164,0.02460523694753647,-10.518113136291504
1.729423771099955e+18,0.049940794706344604,0.07752060890197754,-10.497183799743652
1.729423771102955e+18,-0.020393971353769302,0.00013105131802149117,-10.474239349365234
1.7294237711089551e+18,-0.03476268798112869,-0.07549502700567245,-10.456939697265625
1.7294237711149553e+18,0.009524672292172909,0.01539834775030613,-10.485698699951172
1.7294237711209554e+18,-0.06252150982618332,0.05094408243894577,-10.418867111206055
1.7294237711269555e+18,-0.05806063860654831,-0.041097018867731094,-10.498322486877441
1.7294237711299556e+18,0.03395027667284012,-0.02849460206925869,-10.430810928344727
1.7294237711359557e+18,-0.07952462136745453,0.07655265182256699,-10.36307144165039
1.7294237711419558e+18,0.012405249290168285,0.028618130832910538,-10.363452911376953
1.729423771147956e+18,0.10100988298654556,0.05705481022596359,-10.385592460632324
1.729423771150956e+18,0.028414836153388023,0.04869470372796059,-10.459016799926758
1.7294237711569562e+18,0.02141030877828598,-0.04717738553881645,-10.41579532623291
1.7294237711629563e+18,0.037207674235105515,0.07536912709474564,-10.330410957336426
1.7294237711689564e+18,-0.036558035761117935,0.01840827241539955,-10.40478801727295
1.7294237711719565e+18,-0.07059672474861145,0.008492134511470795,-10.413447380065918
1.7294237711779566e+18,0.05688539892435074,0.0391533188521862,-10.423192024230957
1.7294237711839567e+18,-0.04817257449030876,-0.01573406718671322,-10.340374946594238
1.7294237711899569e+18,0.09630025178194046,-0.0031946254894137383,-10.350092887878418
1.729423771195957e+18,0.03210624307394028,0.08267528563737869,-10.351278305053711
1.729423771198957e+18,-0.00151999038644135,-0.07328528165817261,-10.308487892150879
1.7294237712049572e+18,0.051809005439281464,-0.06337045133113861,-10.355880737304688
1.7294237712109573e+18,-0.006587755400687456,0.013627162203192711,-10.2442626953125
1.7294237712169574e+18,0.04686003550887108,0.014857987873256207,-10.251727104187012
1.7294237712229576e+18,-0.019009964540600777,-0.0716322734951973,-10.271730422973633
1.7294237712289577e+18,-0.010438531637191772,-0.007843879982829094,-10.250754356384277
1.7294237712349578e+18,-0.04135114327073097,0.014479248784482479,-10.288422584533691
1.729423771237958e+18,0.014295727014541626,0.021463721990585327,-10.343950271606445
1.729423771243958e+18,-0.024778377264738083,-0.02378351427614689,-10.292359352111816
1.7294237712499581e+18,-0.025465896353125572,0.04980393499135971,-10.251901626586914
1.7294237712559583e+18,0.0016599722439423203,-0.01823086105287075,-10.271350860595703
1.7294237712619584e+18,0.019122852012515068,0.0099407397210598,-10.248337745666504
1.7294237712679585e+18,-0.01941296085715294,-0.005641954485327005,-10.27403736114502
1.7294237712709586e+18,0.02210405468940735,0.03141267970204353,-10.22706413269043
1.7294237712799588e+18,0.00554697448387742,0.04711930826306343,-10.289608001708984
1.7294237712829588e+18,-0.015992190688848495,-0.05060849338769913,-10.241551399230957
1.729423771288959e+18,-0.024670131504535675,0.13092683255672455,-10.16635799407959
1.729423771294959e+18,-0.011330243200063705,0.05201748013496399,-10.182766914367676
1.7294237713009592e+18,-0.01728108525276184,0.0029971376061439514,-10.184025764465332
1.7294237713069594e+18,-0.021692940965294838,-0.013856617733836174,-10.249635696411133
1.7294237713129595e+18,0.009475682862102985,-0.05874587595462799,-10.153977394104004
1.7294237713189596e+18,0.012396246194839478,-0.003722994588315487,-10.19386100769043
1.7294237713219597e+18,0.0688677728176117,-0.02109707146883011,-10.095148086547852
1.7294237713279598e+18,0.03241262212395668,0.03434418886899948,-10.139179229736328
1.72942377133396e+18,-0.025374699383974075,0.057564277201890945,-10.091174125671387
1.72942377133996e+18,0.06358998268842697,-0.01176859438419342,-10.159585952758789
1.7294237713459602e+18,0.017595602199435234,-0.007750134915113449,-10.14978313446045
1.7294237713519603e+18,-0.036520157009363174,-0.006454396061599255,-10.174962043762207
1.7294237713579604e+18,0.005295089911669493,0.01953517645597458,-10.189445495605469
1.7294237713639606e+18,0.02945152297616005,-0.016358619555830956,-10.181208610534668
1.7294237713699607e+18,0.02389780431985855,0.018128952011466026,-10.107198715209961
1.7294237713759608e+18,-0.02056087926030159,0.0005884654237888753,-10.149720191955566
1.729423771381961e+18,-0.015279700048267841,-0.022628329694271088,-10.035433769226074
1.729423771387961e+18,-0.00545105617493391,0.08550377190113068,-10.116752624511719
1.7294237713939612e+18,0.03347167372703552,0.04656123369932175,-9.99544906616211
1.7294237713999613e+18,0.008430284447968006,0.05720260366797447,-10.090202331542969
1.7294237714059615e+18,-0.0007477549952454865,-0.07185304909944534,-10.029284477233887
1.7294237714119616e+18,-0.03930715098977089,0.013671417720615864,-10.154986381530762
1.7294237714179617e+18,0.03279738500714302,-0.05067633092403412,-10.013564109802246
1.7294237714239619e+18,0.049480922520160675,-0.024386130273342133,-10.023240089416504
1.729423771429962e+18,0.003481976455077529,0.05688749998807907,-10.045560836791992
1.729423771435962e+18,-0.044181596487760544,0.051569584757089615,-10.048669815063477
1.7294237714419622e+18,0.004343527369201183,-0.019225159659981728,-10.101162910461426
1.7294237714449623e+18,-0.029752125963568687,-0.015794353559613228,-10.051444053649902
1.7294237714509624e+18,-0.00698778685182333,-0.026561927050352097,-10.042283058166504
1.7294237714569626e+18,-0.08442924171686172,-0.052026309072971344,-10.09584903717041
1.7294237714629627e+18,0.04664147272706032,0.001061682472936809,-10.098005294799805
1.7294237714689628e+18,0.012944517657160759,0.09631851315498352,-10.038246154785156
1.729423771474963e+18,0.024040527641773224,0.047226157039403915,-10.081284523010254
1.729423771480963e+18,0.018180638551712036,-0.004986360669136047,-9.9905366897583
1.7294237714869632e+18,0.1052771806716919,0.006919181905686855,-10.096776008605957
1.7294237714929633e+18,-0.02241930551826954,-0.015365296974778175,-10.04378604888916
1.7294237714989635e+18,0.05126588046550751,-0.02346111088991165,-10.065667152404785
1.7294237715049636e+18,-0.04442240297794342,-0.033453237265348434,-9.943713188171387
1.7294237715079636e+18,-0.046650230884552,0.08118516206741333,-9.97426986694336
1.7294237715139638e+18,-0.055915262550115585,0.05198299139738083,-9.972916603088379
1.729423771519964e+18,-0.02769612707197666,-0.00982426106929779,-9.948430061340332
1.729423771525964e+18,-0.005800371523946524,-0.036449652165174484,-10.018924713134766
1.7294237715319642e+18,-0.051998548209667206,-0.01863374374806881,-9.97066593170166
1.7294237715379643e+18,0.04814586415886879,-0.03835036978125572,-9.950141906738281
1.7294237715439644e+18,-0.10869825631380081,-0.0027736378833651543,-9.970848083496094
1.7294237715499645e+18,-0.0514334961771965,0.026839302852749825,-10.026850700378418
1.7294237715559647e+18,0.062191080302000046,0.051731836050748825,-9.937084197998047
1.7294237715589647e+18,-0.02122598886489868,-0.005352889187633991,-9.94350528717041
1.7294237715649649e+18,0.05839366465806961,0.05629105865955353,-9.958565711975098
1.729423771570965e+18,-0.027955422177910805,0.0057523055002093315,-9.897762298583984
1.729423771576965e+18,0.020411336794495583,0.03133619204163551,-9.948473930358887
1.7294237715829652e+18,-0.03647318482398987,0.04070090129971504,-9.923874855041504
1.7294237715889654e+18,-0.031211314722895622,-0.000701632525306195,-9.93394660949707
1.7294237715949655e+18,0.046075593680143356,0.013376248069107533,-9.886664390563965
1.7294237716009656e+18,0.03575282543897629,0.016866981983184814,-9.900992393493652
1.7294237716069658e+18,-0.009312006644904613,-0.00924262311309576,-9.889726638793945
1.729423771612966e+18,0.015585084445774555,-0.02658759243786335,-9.915610313415527
1.729423771618966e+18,-0.037121400237083435,0.02008727565407753,-9.935330390930176
1.7294237716249661e+18,0.01545702014118433,-0.018356727436184883,-9.925802230834961
1.7294237716279662e+18,-0.018541790544986725,0.03325865790247917,-9.832374572753906
1.7294237716369664e+18,0.015339788980782032,0.07071038335561752,-9.91164493560791
1.7294237716399665e+18,-0.1058163046836853,-0.038887303322553635,-9.879866600036621
1.7294237716459666e+18,-0.06152262166142464,0.006317447870969772,-9.931300163269043
1.7294237716519667e+18,0.0191874410957098,-0.039100151509046555,-9.950630187988281
1.7294237716579668e+18,0.05159491300582886,-0.0247183870524168,-9.932833671569824
1.729423771663967e+18,-0.12220321595668793,-0.08430306613445282,-9.871479034423828
1.729423771669967e+18,-0.06515882909297943,-0.03183282911777496,-9.850278854370117
1.7294237716759672e+18,0.015163135714828968,0.01927298493683338,-9.909246444702148
1.7294237716789673e+18,0.006415970623493195,0.07763488590717316,-9.940528869628906
1.7294237716849674e+18,0.01274061668664217,0.008034668862819672,-9.896632194519043
1.7294237716909676e+18,0.08861240744590759,0.07028301060199738,-9.902057647705078
1.7294237716969677e+18,0.02466524951159954,0.061442576348781586,-9.816815376281738
1.7294237717029678e+18,-0.031984057277441025,0.09522277116775513,-9.853304862976074
1.729423771708968e+18,-0.04815080761909485,0.03494073823094368,-9.871456146240234
1.729423771714968e+18,-0.0005892069893889129,0.02677921950817108,-9.85566520690918
1.7294237717209682e+18,-0.020078420639038086,0.03484208881855011,-9.828559875488281
1.7294237717269683e+18,-0.06192941591143608,-0.062377940863370895,-9.865921974182129
1.7294237717329684e+18,0.06211283430457115,-0.058953866362571716,-9.763606071472168
1.7294237717359685e+18,0.020188119262456894,-0.02033749595284462,-9.837510108947754
1.7294237717419686e+18,0.027751177549362183,7.546177948825061e-05,-9.907023429870605
1.7294237717479688e+18,-0.02514318749308586,0.01995554380118847,-9.89826488494873
1.729423771753969e+18,0.041048258543014526,-0.10878734290599823,-9.742132186889648
1.729423771759969e+18,0.008879573084414005,-0.0015104677295312285,-9.821476936340332
1.7294237717659692e+18,-0.026026185601949692,0.026349788531661034,-9.79609203338623
1.7294237717719693e+18,-0.008851096965372562,0.08148453384637833,-9.83496379852295
1.7294237717779694e+18,0.054555341601371765,0.01779918372631073,-9.789692878723145
