timestamp,gyro_x,gyro_y,gyro_z
1.7294237642178081e+18,0.0032257246784865856,-0.0007365609635598958,-0.00014486878353636712
1.7294237642238083e+18,-0.000761668139602989,-5.953326399321668e-05,-0.00043184944661334157
1.7294237642298084e+18,-0.001936651417054236,-0.0016859732568264008,0.0010191925102844834
1.7294237642328084e+18,-0.0007142799440771341,0.002412085421383381,-0.0002700639597605914
1.7294237642388086e+18,0.0006705030100420117,0.0021199325565248728,-0.001228034496307373
1.7294237642448087e+18,-0.0018704802496358752,0.0010182560654357076,-0.0004571342433337122
1.7294237642478088e+18,0.0017182715237140656,-0.001362286158837378,-0.0009247394627891481
1.729423764253809e+18,0.0006647847476415336,0.003154776757583022,0.0005652625113725662
1.729423764259809e+18,-0.0026572272181510925,-0.002296872204169631,0.000507006305269897
1.7294237642658092e+18,-0.001593641354702413,0.0026567657478153706,0.00020166733884252608
1.7294237642688092e+18,-0.0011223230976611376,0.001106959767639637,-0.0015630809357389808
1.7294237642748093e+18,-0.00033524303580634296,0.0023439754731953144,0.0015283499378710985
1.7294237642808095e+18,0.00030852589407004416,-0.001229950226843357,-0.0021700577344745398
1.7294237642838095e+18,0.0021656458266079426,-0.0004466587270144373,0.0013772356323897839
1.7294237642898097e+18,0.0012143728090450168,-0.0009264269028790295,-0.0007961335359141231
1.7294237642958098e+18,0.0001725436159176752,-0.0015097861178219318,-0.002427932806313038
1.72942376430181e+18,-0.0013304426101967692,0.0002529663033783436,-0.00013237983512226492
1.72942376430781e+18,0.0008303934591822326,0.0009425678290426731,-0.0011170575162395835
1.7294237643138102e+18,-0.00022238951351027936,-0.0013907041866332293,0.0017532457131892443
1.7294237643168102e+18,-0.00246726768091321,0.0019447249360382557,-0.0012288505677133799
1.7294237643228104e+18,0.0006254757172428071,-0.003224268089979887,-0.000738701899535954
1.7294237643288105e+18,0.0014157413970679045,-0.0012897882843390107,-0.00015496271953452379
1.7294237643348106e+18,0.0004326139751356095,0.003361721523106098,-0.00033212077687494457
1.7294237643378107e+18,0.001087237149477005,-0.001720564323477447,0.0007557241478934884
1.7294237643438108e+18,-0.0006904317415319383,-0.0014092065393924713,-0.001120306900702417
1.729423764349811e+18,0.0010937005281448364,-0.0003277044161222875,-0.0004891185089945793
1.729423764355811e+18,0.0036999196745455265,-0.0007349103689193726,-0.000347217166563496
1.7294237643618112e+18,-0.0014665971975773573,-0.0017083458369597793,0.002850764198228717
1.7294237643678113e+18,0.00022942635405343026,-0.00032662678859196603,-0.0010231300257146358
1.7294237643738115e+18,-0.00044659647392109036,-0.000920112244784832,0.0029331687837839127
1.7294237643768115e+18,0.0006804937147535384,-0.0019434366840869188,0.00010152605682378635
1.7294237643858117e+18,-3.4997021430172026e-05,-0.0029925198759883642,-0.0007596274372190237
1.7294237643888118e+18,0.002399147255346179,0.0007112316088750958,0.0018429491901770234
1.729423764394812e+18,0.0003593811998143792,0.0021971645765006542,0.0009494337136857212
1.729423764400812e+18,0.0013721395516768098,0.0005998691776767373,0.0009681918891146779
1.7294237644068122e+18,0.003465816844254732,-0.0015250261640176177,0.0034165503457188606
1.7294237644128123e+18,0.0012133835116401315,0.0012669512070715427,0.0029250963125377893
1.7294237644158124e+18,-0.0013448947574943304,-0.0020206556655466557,0.0002886656438931823
1.7294237644218125e+18,0.0009318587835878134,-0.0005484978901222348,0.0010928659467026591
1.7294237644278126e+18,-0.0023706641513854265,-0.000783213006798178,0.001385759562253952
1.7294237644338127e+18,-0.0011051788460463285,0.0011384139070287347,0.0035523020196706057
1.7294237644398129e+18,-0.004268585238605738,-0.0031049849931150675,0.002421017037704587
1.729423764442813e+18,-4.020964479423128e-05,-0.00033325201366096735,0.0010624727001413703
1.729423764448813e+18,-0.0029311873950064182,-0.0027533008251339197,0.0007397501613013446
1.7294237644578132e+18,0.0018621156923472881,0.0001644333970034495,-0.000887321075424552
1.7294237644608133e+18,-0.0009751148172654212,-0.0002612489915918559,0.0008700847974978387
1.7294237644668134e+18,0.0009088103543035686,0.0005913466447964311,0.0006316460785456002
1.7294237644728136e+18,0.002629501512274146,0.0014665726339444518,0.001459726132452488
1.7294237644788137e+18,-0.0010576675413176417,-0.000468183628981933,-0.003032418666407466
1.7294237644848138e+18,-0.003502285573631525,-0.0008854607585817575,0.0016789637738838792
1.729423764487814e+18,-0.0019713728688657284,0.0014328669058158994,-2.5974810341722332e-05
1.729423764493814e+18,-0.00131519406568259,-0.0030762318056076765,5.938505273661576e-05
1.7294237644998141e+18,-0.0012918058782815933,-0.000994026893749833,-0.00024725045659579337
1.7294237645058143e+18,0.0006465850165113807,-0.0002555060782469809,-0.0011760928900912404
1.7294237645088143e+18,0.0015852339565753937,0.0018261342775076628,0.0004021034692414105
1.7294237645148145e+18,-1.6661702829878777e-05,0.0006211903528310359,0.00017366086831316352
1.7294237645208146e+18,0.00040574531885795295,0.0001231308706337586,0.000456019100965932
1.7294237645268147e+18,-0.001761864172294736,-0.0011231821263208985,0.00048079161206260324
1.7294237645328148e+18,0.00045880163088440895,-0.001767297275364399,-0.0027396464720368385
1.729423764535815e+18,0.0018701915396377444,-0.0022380086593329906,-0.0011451701866462827
1.729423764541815e+18,-0.0003561374032869935,-0.0020910126622766256,0.00012136336590629071
1.7294237645478152e+18,-0.002088031731545925,0.0010597353102639318,-0.001076481188647449
1.7294237645538153e+18,-0.0012375296792015433,0.0020574377849698067,-0.0005211415118537843
1.7294237645598154e+18,0.0009496923885308206,0.00018025204190053046,1.999753976633656e-06
1.7294237645628155e+18,-0.000607736234087497,0.00045339850476011634,-0.0019723898731172085
1.7294237645688156e+18,-0.0004338206781540066,0.0022426650393754244,0.0009612767607904971
1.7294237645748157e+18,0.0007522383239120245,-0.001504075713455677,0.002394790528342128
1.729423764580816e+18,0.002809725934639573,-0.0033995239064097404,-0.0013561146333813667
1.729423764583816e+18,0.002180534414947033,0.0013943144585937262,0.001203816500492394
1.729423764589816e+18,-0.003280090168118477,0.0034280261024832726,-0.0036626143846660852
1.7294237645958162e+18,-0.00011518622341100127,0.0023644929751753807,-0.0012656545732170343
1.7294237645988163e+18,-0.0006690965965390205,-0.0007623239071108401,-0.0010016048327088356
1.7294237646048164e+18,0.002464965684339404,0.0022580036893486977,0.00033055583480745554
1.7294237646108165e+18,0.0016898567555472255,0.0008629739750176668,0.00358169199898839
1.7294237646138166e+18,0.00030149935628287494,-0.0017020830418914557,-0.0020740916952490807
1.7294237646198167e+18,0.0018356345826759934,5.714312646887265e-05,-0.0018656948814168572
1.7294237646258168e+18,0.0018459521234035492,0.0023110860493034124,-0.00022570912551600486
1.729423764628817e+18,-0.002084178850054741,-0.0011390945874154568,0.0016945966053754091
1.729423764634817e+18,0.0031594515312463045,0.0011800241190940142,-0.0015828703762963414
1.7294237646408172e+18,-0.0017836488550528884,-0.001933613675646484,0.0026958263479173183
1.7294237646468173e+18,0.0007523760432377458,-0.0012846185127273202,-0.0007205364527180791
1.7294237646498173e+18,0.000629881804343313,-0.0039449124597013,-7.113990432117134e-05
1.7294237646558175e+18,-0.00017436192138120532,0.00031059898901730776,-0.0026743069756776094
1.7294237646618176e+18,-0.00189812236931175,-0.0006341005791909993,0.0011685099452733994
1.7294237646648177e+18,-0.004027104936540127,-0.001483988482505083,0.00018954150436911732
1.7294237646708178e+18,0.0003902061434928328,0.0007014001603238285,-0.0005009847809560597
1.729423764676818e+18,0.0012466446496546268,0.0014327836688607931,0.00026183444424532354
1.729423764679818e+18,0.0006119878380559385,0.0014490782050415874,-1.794980198610574e-05
1.729423764685818e+18,0.0013367142528295517,-0.0006530530517920852,-0.00017544173169881105
1.7294237646918182e+18,-0.000435967551311478,0.0008173537789843976,0.001924108131788671
1.7294237646948183e+18,-8.939916824601823e-07,0.0013883132487535477,0.0007196743390522897
1.7294237647008184e+18,0.0006528435042127967,-0.00016629260790068656,-0.0013254605000838637
1.7294237647068186e+18,-0.0015603898791596293,-6.273709732340649e-05,-0.0008182019810192287
1.7294237647098186e+18,-0.0008392463205382228,0.0009990636026486754,-0.0009524045162834227
1.7294237647158188e+18,-0.0012902544112876058,0.0007604607380926609,-0.0010143653489649296
1.729423764721819e+18,0.0005711314151994884,0.0012871084036305547,-0.00048226374201476574
1.729423764727819e+18,-0.0008143434533849359,-0.0005451608449220657,0.0008857246139086783
1.729423764730819e+18,0.0009624719968996942,-0.001772588468156755,0.00021171178377699107
1.7294237647368192e+18,-0.000594884273596108,0.00044251588406041265,-0.0003941016038879752
1.7294237647428193e+18,3.923474287148565e-05,0.0016825406346470118,0.0008024959824979305
1.7294237647458194e+18,-0.0011637662537395954,0.00020726698858197778,-0.0002494802756700665
1.7294237647518195e+18,7.693216321058571e-05,0.0011940234107896686,0.0009255147888325155
1.7294237647578196e+18,-0.0016575807239860296,-0.0002953367365989834,-0.000814167142380029
1.7294237647608197e+18,0.00010601225949358195,0.0010375939309597015,-0.0004187504528090358
1.7294237647668198e+18,7.366742647718638e-05,-0.00017070242029149085,0.0016244950238615274
1.72942376477282e+18,0.0011288615642115474,0.0008042117115110159,-0.0018898447742685676
1.72942376477582e+18,0.00038183198194019496,-8.88113136170432e-05,-0.0026345793157815933
1.7294237647818202e+18,0.0009723298717290163,1.4183878192852717e-05,-0.0020429976284503937
1.7294237647878203e+18,0.0018208998953923583,0.0017309107352048159,0.00038760656025260687
1.7294237647938204e+18,0.0012895972467958927,0.003111243946477771,0.00157850980758667
1.7294237647968205e+18,0.0006563056958839297,-0.002542866161093116,-0.0010359642328694463
1.7294237648028206e+18,-0.00025067609385587275,0.0012980629689991474,0.0036213079001754522
1.7294237648088207e+18,0.003169854637235403,-0.0014381618238985538,0.000932463735807687
1.7294237648148209e+18,-0.00031226431019604206,0.001798233832232654,0.0015046513872221112
1.729423764817821e+18,-0.002381534082815051,-0.0010301514994353056,-0.0003417116531636566
1.729423764823821e+18,0.0010750731453299522,0.0013314919779077172,-0.0013906428357586265
1.7294237648298212e+18,-0.0013982565142214298,-0.0013162337709218264,0.001830174122005701
1.7294237648328212e+18,-0.0021541938185691833,0.0005074887303635478,0.0008087195456027985
1.7294237648388214e+18,-0.0006928496295586228,0.001335667446255684,0.0010791951790452003
1.7294237648448215e+18,0.0034063418861478567,0.00039389406447298825,-0.000814877450466156
1.7294237648478216e+18,0.00038142039556987584,-0.0023563106078654528,0.0027187843807041645
1.7294237648538217e+18,0.00205256137996912,-0.0006444923346862197,-0.0006763825076632202
1.7294237648598218e+18,-0.00023740676988381892,0.0016367953503504395,0.003933463711291552
1.729423764862822e+18,0.00010723957529990003,0.0005186657072044909,-0.0022358091082423925
1.729423764868822e+18,-0.001979715656489134,-0.0019276494858786464,-0.00018524893675930798
1.7294237648748221e+18,-0.0003496568533591926,0.0014940178953111172,-0.0005619398434646428
1.7294237648778222e+18,-0.0005526914028450847,0.00026666122721508145,0.0003378303663339466
1.7294237648838223e+18,-0.0005617845454253256,0.0016903082141652703,-0.002529982477426529
1.7294237648898225e+18,-0.0005293732392601669,-0.0036313445307314396,-0.00028140819631516933
1.7294237648958226e+18,0.0009170006960630417,0.0006825944874435663,0.0004544224648270756
1.7294237648988227e+18,0.0007838848978281021,-0.00044967044959776103,0.0025633187033236027
1.7294237649048228e+18,-0.0007992252940312028,-0.0008489443571306765,0.0010663005523383617
1.729423764910823e+18,0.0011925175786018372,-0.0010354653932154179,-0.0013971925945952535
1.729423764913823e+18,0.0007925850222818553,-0.0007827886147424579,0.003477011574432254
1.729423764919823e+18,0.0008758550393395126,-0.0022948519326746464,0.00017730497347656637
1.7294237649258232e+18,0.0005728493561036885,-0.0007829996175132692,0.00013854271674063057
1.7294237649318234e+18,-0.0006425208994187415,-0.00373159465380013,0.0004739993019029498
1.7294237649348234e+18,0.00349958217702806,0.00033584199263714254,-0.0008595634717494249
1.7294237649408236e+18,0.004480465315282345,-0.00021302011737134308,-0.0012083516921848059
1.7294237649468237e+18,0.0007755022961646318,0.0016462721396237612,-0.001191718620248139
1.7294237649498237e+18,-0.0025557635817676783,0.0022440890315920115,0.0008586697513237596
1.7294237649558239e+18,-0.0006915401318110526,0.001433739671483636,-0.00019361241720616817
1.729423764961824e+18,0.00018867822655010968,-0.0016016541048884392,0.0011352839646860957
1.729423764964824e+18,-0.0013842988992109895,-0.0002649684902280569,0.0004929405404254794
1.7294237649708242e+18,0.001651029335334897,-0.001071985112503171,-0.0029733937699347734
1.7294237649768243e+18,-0.001759426319040358,-0.0015013733645901084,-0.0018558630254119635
1.7294237649828244e+18,0.0008887961739674211,-0.00024333607871085405,-0.000284014007775113
1.7294237649858245e+18,-0.0003537696902640164,-0.0030679439660161734,0.0011164615862071514
1.7294237649918246e+18,-0.0015352575574070215,-0.0011996158864349127,0.0007918404880911112
1.7294237649978248e+18,-0.001645454904064536,-0.001127439783886075,-0.001574853202328086
1.7294237650008248e+18,0.0008281610207632184,0.004553453531116247,0.000949291919823736
1.729423765006825e+18,0.0004727094783447683,-0.0005123117007315159,5.3662053687730804e-05
1.729423765012825e+18,0.00012992910342290998,0.0014040181413292885,0.0017848378047347069
1.7294237650158252e+18,0.0022918132599443197,0.0012729010777547956,-2.1815605578012764e-05
1.7294237650218253e+18,0.001453777658753097,0.0023519389797002077,0.002435247413814068
1.7294237650278254e+18,-0.0006737777730450034,0.001155639300122857,0.00010703656153054908
1.7294237650338255e+18,0.0013343743048608303,0.0009399785776622593,-0.0006601643399335444
1.7294237650398257e+18,0.0010131878079846501,0.0013503520749509335,0.0015269176801666617
1.7294237650428257e+18,-0.0017559024272486567,-0.0014568959595635533,0.0014079671818763018
1.7294237650488259e+18,-0.00240596616640687,0.001753134187310934,-0.00025734593509696424
1.729423765054826e+18,-0.0012822587741538882,-0.0001972300378838554,-0.0015267564449459314
1.729423765060826e+18,0.0011685761855915189,-0.0016110684955492616,-0.0013202597619965672
1.7294237650638262e+18,-0.0037136150058358908,-0.0005800099461339414,0.0017255591228604317
1.7294237650698263e+18,-0.0011637629941105843,0.00028375585679896176,-0.0019130771979689598
1.7294237650758264e+18,-0.003620424773544073,9.715179476188496e-05,-0.0009639382478781044
1.7294237650788265e+18,0.00011866876593558118,0.0006345355068333447,0.002453152323141694
1.7294237650848266e+18,0.0036435751244425774,0.00010016923624789342,-0.0009894008981063962
1.7294237650908268e+18,-0.0003787354798987508,-0.0011661119060590863,-0.000272894132649526
1.729423765096827e+18,0.0003762895939871669,-0.0016796501586213708,0.0007907512481324375
1.729423765102827e+18,0.0007503066444769502,0.0020739517640322447,-0.0002633041876833886
1.729423765105827e+18,0.000760094728320837,-0.002587919821962714,0.0010560997761785984
1.7294237651118272e+18,0.002855585888028145,-0.0006466113845817745,-0.0023853250313550234
1.7294237651178273e+18,-0.0007513132877647877,-0.0005398268694989383,0.0019157471833750606
1.7294237651208274e+18,-0.00039063493022695184,0.0007331089582294226,-0.0003061280876863748
1.7294237651268275e+18,-0.00021551232202909887,0.0021770300809293985,-0.0010216095251962543
1.7294237651328276e+18,0.002354829804971814,0.0029520480893552303,-0.0007362728356383741
1.7294237651358277e+18,-9.27661585592432e-06,0.001338186557404697,-0.00018519582226872444
1.7294237651418278e+18,-0.000591212825383991,0.002619575010612607,-0.001485246466472745
1.729423765147828e+18,0.0027376459911465645,-0.000322248408338055,-0.0005990674253553152
1.729423765153828e+18,0.000247197545832023,0.002453891560435295,-0.0020205811597406864
1.7294237651568282e+18,-0.0008907084120437503,0.00016451733245048672,0.0004473481676541269
1.7294237651628283e+18,0.001322742784395814,0.0020560866687446833,0.0004855917359236628
1.7294237651688284e+18,-0.0006355224759317935,-0.0020808205008506775,0.000563470646739006
1.7294237651748285e+18,-0.00040146373794414103,-0.000482191244373098,-0.0004963529063388705
1.7294237651778286e+18,0.0018811365589499474,-0.000551162869669497,-0.00039573508547618985
1.7294237651838287e+18,-0.002154081128537655,-0.0005693135899491608,0.00011900971730938181
1.7294237651898289e+18,0.0006827677716501057,-0.00036419081152416766,-0.00017073325579985976
1.729423765192829e+18,0.0028449397068470716,0.0014172941446304321,-0.0002748411789070815
1.729423765198829e+18,0.002494935179129243,-0.0006233913009054959,0.0018651023274287581
1.7294237652048292e+18,0.0028694819193333387,-0.0011012146715074778,-0.00013950349239166826
1.7294237652108293e+18,0.001052285311743617,0.0032931994646787643,0.0013745806645601988
1.7294237652138294e+18,-0.0014577412512153387,0.002297752071171999,0.0010664990404620767
1.7294237652198295e+18,0.0014290891122072935,0.0009727220167405903,-0.0008412629249505699
1.7294237652258296e+18,-0.0018457722617313266,-0.00040285364957526326,-0.000374255032511428
1.7294237652318298e+18,0.0007554895710200071,0.003439160529524088,0.0027895572129637003
1.7294237652348298e+18,0.0009410242200829089,-0.0010395422577857971,0.0033366165589541197
1.72942376524083e+18,0.00023624367895536125,0.0015366486040875316,0.0005103653529658914
1.72942376524683e+18,0.0002680761681403965,-0.0021916371770203114,-0.001625357079319656
1.7294237652498301e+18,0.0005886890576221049,-0.0004551949677988887,0.000820336805190891
1.7294237652558303e+18,-0.0007445139344781637,-0.0008759204647503793,-0.0002657753648236394
1.7294237652618304e+18,-0.00010613402264425531,-0.0016157722566276789,-0.0026446429546922445
1.7294237652678305e+18,0.0016130339354276657,-0.0013104144018143415,-0.0034154129680246115
1.7294237652708306e+18,-0.0002403795369900763,-0.000828161952085793,-0.0023327437229454517
1.7294237652768307e+18,-0.00036939053097739816,0.004019736312329769,0.0018454628298059106
1.7294237652828308e+18,0.0007475803140550852,-0.002293827012181282,-0.0019411391112953424
1.729423765288831e+18,-0.0002775003085844219,-0.0006907793576829135,-0.0020643221214413643
1.729423765291831e+18,0.0008661966421641409,-0.0007436069427058101,0.00019895170407835394
1.7294237652978312e+18,-0.00423426041379571,-1.973113467101939e-05,-0.00011169274512212723
1.7294237653038313e+18,0.00034076833981089294,0.002553556114435196,0.0010396339930593967
1.7294237653068314e+18,0.0008950435440056026,0.0013356588315218687,-0.000795160245615989
1.7294237653128315e+18,-0.000852071912959218,-0.0014635102124884725,-0.0023973684292286634
1.7294237653188316e+18,0.0023851459845900536,-0.0008249594829976559,0.0009858844568952918
1.7294237653248317e+18,0.0002881910768337548,-1.2373359368211823e-06,-0.003957366105169058
1.7294237653278318e+18,-0.0014144059969112277,-0.0010171702597290277,0.0009604583610780537
1.729423765333832e+18,-0.0018525747582316399,0.0001162274056696333,0.00017252811812795699
1.729423765339832e+18,0.0008834986947476864,-0.0027919921558350325,0.00029823562363162637
1.7294237653458322e+18,-0.002131763147190213,-7.01956741977483e-05,-0.0026088906452059746
1.7294237653488323e+18,0.0019499799236655235,0.0006838546833023429,0.0012547397054731846
1.7294237653548324e+18,-0.001075142528861761,0.0012687670532613993,0.0003217263438273221
1.7294237653608325e+18,-0.0016389740630984306,0.0017763576470315456,-0.0004324742767494172
1.7294237653668326e+18,0.000259763328358531,-0.0006808086181990802,-0.001024451106786728
1.7294237653698327e+18,-0.00048773817252367735,-0.000783294381108135,0.0008849257719703019
1.7294237653758328e+18,-0.0002405931445537135,0.0006278427317738533,0.0009286569547839463
1.729423765381833e+18,0.0036975922994315624,-0.0008357905899174511,0.0009761180263012648
1.729423765387833e+18,-0.0013588800793513656,0.0002895058423746377,0.0014406375121325254
1.7294237653938332e+18,0.0017341775819659233,0.001073413877747953,-4.238867404637858e-05
1.7294237653968333e+18,0.0036445357836782932,0.0012293504551053047,-0.0014322587521746755
1.7294237654028334e+18,0.0009754133061505854,-0.0018034628592431545,-0.001166274189017713
1.7294237654088335e+18,-0.000774043845012784,0.0012233327142894268,-0.0010978340869769454
1.7294237654148337e+18,0.0007784930057823658,0.0015907157212495804,0.0007053403533063829
1.7294237654208338e+18,-0.0011971935164183378,-1.2509938642324414e-05,0.0005012010224163532
1.7294237654238339e+18,0.0013377962168306112,0.0005502688582055271,0.003560574958100915
1.729423765429834e+18,-0.000598107697442174,0.0020378793124109507,-0.0008546733879484236
1.729423765435834e+18,-0.001026107114739716,0.000819509441498667,-0.0007583896513096988
1.7294237654388342e+18,-0.0007517684134654701,-0.001558822812512517,-0.0022549221757799387
1.7294237654448343e+18,0.001096111023798585,-9.248523565474898e-05,0.0006810582126490772
1.7294237654508344e+18,0.003062533214688301,-0.00024099170695990324,0.001481813145801425
1.7294237654568346e+18,0.000982097233645618,-0.0012297093635424972,-0.001487073372118175
1.7294237654598346e+18,0.000410691078286618,0.004878306295722723,0.0021045797038823366
1.7294237654658348e+18,0.0012512464309111238,-0.0015412714565172791,-0.0030158490408211946
1.729423765471835e+18,0.0026302821934223175,0.0010500078788027167,-0.0007222080021165311
1.729423765477835e+18,-0.000960814650170505,0.0003936694120056927,-0.002610984491184354
1.729423765480835e+18,-0.0009240543004125357,0.003318991046398878,-0.004162669647485018
1.7294237654868352e+18,0.0007935965550132096,-0.0011153193190693855,-0.002273180987685919
1.7294237654928353e+18,-0.0018611382693052292,-8.056002843659371e-05,-0.0003281229001004249
1.7294237654988355e+18,0.00013143396063242108,0.0032110351603478193,-0.0034217003267258406
1.7294237655018355e+18,0.0006312488112598658,-6.758803647244349e-05,-0.001015039044432342
1.7294237655078356e+18,-0.0006941379397176206,-0.0030413286294788122,-0.0013869511894881725
1.7294237655138358e+18,0.0002884292043745518,-0.0015204278752207756,-0.0011516178492456675
1.729423765519836e+18,-0.0003162811044603586,0.0035101096145808697,0.0006275162450037897
1.729423765522836e+18,-0.001462885644286871,-0.0008150544599629939,-0.0008748973486945033
1.729423765528836e+18,0.0016498510958626866,0.002291943645104766,-0.001570003223605454
1.7294237655348362e+18,-0.0034068759996443987,0.0006181851495057344,0.0019591047894209623
1.7294237655408364e+18,-0.0005229077651165426,-0.0006522618350572884,0.0002304836962139234
1.7294237655438364e+18,0.004976405296474695,0.000208676588954404,0.0010687540052458644
1.7294237655498365e+18,0.001954018836840987,-3.616574394982308e-05,0.0003417926491238177
1.7294237655558367e+18,0.002880291547626257,-0.0016006618971005082,0.003793364856392145
1.7294237655588367e+18,0.0006056556012481451,-0.0015310849994421005,0.001784858526661992
1.7294237655648369e+18,0.0008401648374274373,0.0013984902761876583,-0.001859187614172697
1.729423765570837e+18,0.0016317765694111586,0.0004924340173602104,-0.0010163818951696157
1.729423765576837e+18,0.002258503343909979,0.0021325228735804558,-0.00025744878803379834
1.7294237655798372e+18,0.0023243820760399103,-0.0009783279383555055,0.0016913771396502852
1.7294237655858373e+18,0.0006175099406391382,0.00037674341001547873,0.0023206891492009163
1.7294237655918374e+18,-0.0015119957970455289,-0.0007878169417381287,0.00013287326146382838
1.7294237655978376e+18,1.0469629160070326e-05,0.000719119911082089,0.001054295338690281
1.7294237656008376e+18,0.0035813390277326107,0.0008872970938682556,0.0008972229552455246
1.7294237656068378e+18,0.0010786883067339659,-0.0011007270077243447,0.001338281435891986
1.729423765612838e+18,0.00041881445213221014,-0.0002500393020454794,-0.0003738706582225859
1.729423765615838e+18,-0.0019134492613375187,0.001370897050946951,4.5638626033905894e-05
1.729423765621838e+18,-0.0004104342369828373,0.0008339679334312677,0.001551240449771285
1.7294237656278382e+18,-0.0012290393933653831,-0.0002309651899849996,0.000564596033655107
1.7294237656338383e+18,0.0016087889671325684,0.0007309979991987348,0.0011316247982904315
1.7294237656398385e+18,0.0015355683863162994,0.00029148260364308953,-0.0016904661897569895
1.7294237656428385e+18,-0.0025265291333198547,-0.0016503457445651293,0.00039154550177045166
1.7294237656488387e+18,-0.0016914253355935216,-0.0035349158570170403,-0.00010517871123738587
1.7294237656548388e+18,-0.001198748592287302,0.0005728507530875504,-0.0009349916945211589
1.7294237656578388e+18,-0.0007034532027319074,-3.3143474865937606e-05,0.0009078086004592478
1.729423765663839e+18,0.002520619658753276,-0.0013331248192116618,-0.003005858976393938
1.729423765669839e+18,-0.000565156398806721,0.001133061246946454,0.0015365300932899117
1.7294237656758392e+18,0.00029526438447646797,-0.003503793617710471,0.0028495772276073694
1.7294237656788393e+18,-8.471609180560336e-05,0.0017715394496917725,-0.0005722386995330453
1.7294237656848394e+18,0.000727880687918514,0.000843679765239358,0.0010920042404904962
1.7294237656908396e+18,0.0025206669233739376,-0.0021084847394376993,0.0018028051126748323
1.7294237656938396e+18,-0.002830766374245286,-0.0010083606466650963,0.0004662407445721328
1.7294237656998397e+18,0.0011762260692194104,0.001040930044837296,-0.00261840783059597
1.7294237657058399e+18,-0.002290828386321664,-0.0008417328936047852,0.0010764990001916885
1.72942376571184e+18,-0.0011615289840847254,-0.0002609128423500806,0.0032772503327578306
1.72942376571484e+18,-0.00259252917021513,-0.0018747275462374091,0.0009229792049154639
1.7294237657208402e+18,-0.0018534734845161438,0.0008078875835053623,0.0003117625310551375
1.7294237657268403e+18,0.0010620553512126207,0.0019113573944196105,0.0017446073470637202
1.7294237657328404e+18,9.983205382013693e-05,0.0010714555392041802,0.0035271025262773037
1.7294237657358405e+18,0.0012911796802654862,-0.00011804574023699388,0.00017551051860209554
1.7294237657418406e+18,-0.0005737246829085052,-0.002537802793085575,-9.450483048567548e-05
1.7294237657478408e+18,0.0008599353604950011,0.0007721176370978355,0.0012509515509009361
1.7294237657508408e+18,-0.001248568412847817,-0.00018211331916972995,-0.0023927302099764347
1.729423765756841e+18,0.00017733103595674038,-7.2303587330679875e-06,-5.055652218288742e-05
1.729423765762841e+18,0.0005032764747738838,1.1654982699838001e-05,-0.002421792596578598
1.7294237657688412e+18,-0.00019958386837970465,-0.001358460751362145,0.00012466929911170155
1.7294237657718413e+18,0.0008791108266450465,0.002308567753061652,0.0024080248549580574
1.7294237657778414e+18,-0.00029551651095971465,-0.00017021605162881315,-0.0017490119207650423
1.7294237657838415e+18,0.0003163733927067369,0.0010741754667833447,-0.0011008309666067362
1.7294237657868416e+18,0.0029025343246757984,0.00030973684624768794,0.0036624351050704718
1.7294237657928417e+18,0.0027172714471817017,-0.0005497056990861893,-0.0006350121693685651
1.7294237657988419e+18,0.0011697305599227548,0.00011674621055135503,0.001534773618914187
1.729423765804842e+18,-0.001610342413187027,0.0006401070859283209,-0.00033569560036994517
1.729423765807842e+18,-0.0027854025829583406,-0.0017786107491701841,3.7500915368582355e-06
1.7294237658138422e+18,0.0027662424836307764,0.00190818274859339,-0.0013091560686007142
1.7294237658198423e+18,-0.0003953040577471256,0.002286504488438368,-0.0008454564958810806
1.7294237658228424e+18,-0.0003391825594007969,-0.0019811156671494246,-0.000876541540492326
1.7294237658288425e+18,-0.0006616951432079077,0.0006837301189079881,0.0006469227955676615
1.7294237658348426e+18,0.0007223645807243884,-0.0013427927624434233,-0.0045890044420957565
1.7294237658378427e+18,-0.0025926788803189993,-0.0016317451372742653,-3.7099925975780934e-05
1.7294237658438428e+18,-0.001801114878617227,0.002292800694704056,0.0006343768909573555
1.729423765849843e+18,0.0011553268413990736,-0.0005341380601748824,-0.000299246545182541
1.729423765852843e+18,-0.0009206641698256135,-0.001345997559837997,-0.0015786245930939913
1.7294237658588431e+18,-0.0008174299146048725,-0.0011851039016619325,0.002844404662027955
1.7294237658648433e+18,0.0006246768170967698,-0.0021555915009230375,-0.0024808577727526426
1.7294237658708434e+18,0.002108598593622446,-0.002002846682444215,-0.0004536244668997824
1.7294237658738435e+18,-0.0023647728376090527,0.0012297778157517314,-0.0019059603800997138
1.7294237658798436e+18,0.0011309527326375246,-0.0004307446943130344,0.00025841229944489896
1.7294237658858437e+18,0.002302885055541992,-0.0024897765833884478,0.00035602529533207417
1.7294237658918438e+18,-0.0006089434609748423,0.000224231174797751,0.0020225816406309605
1.729423765894844e+18,0.002116435905918479,0.0014198549324646592,-0.0003117289743386209
1.729423765900844e+18,0.0013057029573246837,0.001661758404225111,0.002342990832403302
1.7294237659068442e+18,0.001048521138727665,0.002414169954136014,-0.00025456369621679187
1.7294237659098442e+18,0.0006945361965335906,-0.0029093041084706783,-0.0014510543551295996
1.7294237659158444e+18,0.0004630147304851562,0.0006581644411198795,-0.002225079806521535
1.7294237659218445e+18,-0.0007017250754870474,-0.002075738273561001,-0.0013070182176306844
1.7294237659248445e+18,0.00221170368604362,-0.0016975796315819025,0.0016860446194186807
1.7294237659308447e+18,-0.00032798494794405997,0.0002201654715463519,-0.0019502093782648444
1.7294237659368448e+18,-0.0012518828734755516,0.002225360367447138,-0.0006895367405377328
1.7294237659398449e+18,0.0033996333368122578,-0.0014592031948268414,0.0007845272775739431
1.729423765945845e+18,0.00025289086624979973,-0.0035134446807205677,0.0012820132542401552
1.729423765951845e+18,-0.0016914325533434749,-0.0006067859940230846,5.43072383152321e-05
1.7294237659548452e+18,-0.0030873806681483984,0.00023139131371863186,0.0012925390619784594
1.7294237659608453e+18,-0.000637104210909456,0.0003146991366520524,-0.0001456991012673825
1.7294237659668454e+18,0.0004796613357029855,-0.001786600099876523,-0.0005536276730708778
1.7294237659728456e+18,-0.0022052025888115168,-0.0032758666202425957,0.00021843779541086406
1.7294237659758456e+18,-0.0003173291333951056,0.00046983169158920646,0.000613146461546421
1.7294237659818458e+18,0.0006126074003987014,0.0007718181586824358,0.0020150181371718645
1.729423765987846e+18,0.001908502192236483,-0.0018455040408298373,0.0011484854621812701
1.729423765993846e+18,0.00219221250154078,-0.0014446377754211426,-0.0008386495755985379
1.729423765996846e+18,-0.0010311899241060019,-0.0006693485775031149,-0.0007268009358085692
1.7294237660028462e+18,0.0017957448726519942,0.002426187740638852,0.0023130658082664013
1.7294237660088463e+18,-0.0010688481852412224,0.000461202667793259,-0.00029738395824097097
1.7294237660118464e+18,-0.0013979235664010048,-0.002260401379317045,0.00043867845670320094
1.7294237660178465e+18,-0.0021205395460128784,0.00044375346624292433,-0.0031860985327512026
1.7294237660238467e+18,-0.0014000224182382226,-0.0004588938900269568,-0.000708805222529918
1.7294237660298468e+18,0.0014371571596711874,0.0006023321184329689,-0.002872376935556531
1.7294237660328468e+18,-0.0002030484174611047,-0.0015684349928051233,-0.0019557978957891464
1.729423766038847e+18,0.0008662755135446787,0.0013291612267494202,0.001167795853689313
1.729423766044847e+18,0.0003511908289510757,0.0008853519102558494,0.002403644844889641
1.7294237660508472e+18,0.0010683764703571796,0.0031020413152873516,-0.001823586761020124
1.7294237660538473e+18,0.0005933275097049773,-0.00015920840087346733,0.00014866622223053128
1.7294237660598474e+18,0.0012074129190295935,-0.0012565121287479997,-0.0016229989705607295
1.7294237660658476e+18,0.0020111973863095045,-0.0005914418143220246,-0.00031850035884417593
1.7294237660718477e+18,9.837949619395658e-05,-8.030756725929677e-05,0.0014570202911272645
1.7294237660748477e+18,0.0018232817528769374,-0.0004949112189933658,0.0018613517750054598
1.729423766080848e+18,0.002544574672356248,-0.00020070285245310515,0.0012275588233023882
1.729423766086848e+18,-0.001383014372549951,-0.0016686678864061832,-0.0017863783286884427
1.729423766089848e+18,0.0021490410435944796,-0.002547285985201597,0.0014222009340301156
1.7294237660958482e+18,-0.0011400843504816294,-0.0030734131578356028,-0.0012673414312303066
1.7294237661018483e+18,-0.0007988213910721242,-0.0013981262454763055,-0.001488391892053187
1.7294237661048484e+18,0.0004876780149061233,-0.0010961838997900486,0.0013112041633576155
1.7294237661108485e+18,-0.002353152260184288,-0.000138353745569475,-0.001605831552296877
1.7294237661168486e+18,-0.00011791333236033097,0.0020815301686525345,0.0011096191592514515
1.7294237661228488e+18,-6.788834980397951e-06,0.00028885708888992667,0.0003601033240556717
1.729423766128849e+18,0.0002939860860351473,-0.0015103560872375965,-0.0003304197161924094
1.729423766131849e+18,-0.0005429766606539488,-0.0007114190375432372,0.002129674656316638
1.729423766137849e+18,0.0003763264394365251,-0.001772517105564475,-0.0007115926709957421
1.7294237661438492e+18,0.002534011611714959,7.200416439445689e-05,-0.0019453574204817414
1.7294237661498493e+18,-0.0024237080942839384,-9.765088179847226e-05,0.000473216874524951
1.7294237661528494e+18,-0.002911932999268174,-0.0023875439073890448,-0.001441669068299234
1.7294237661588495e+18,2.054423930530902e-05,0.0003159224579576403,-0.0017250578384846449
1.7294237661648497e+18,0.0019369414076209068,-0.0013205064460635185,-0.0007561384700238705
1.7294237661708498e+18,-0.0017706481739878654,-0.0016076749889180064,0.0017403124365955591
1.7294237661738499e+18,-0.0014409915311262012,-2.8038888558512554e-05,-0.0008318618638440967
1.72942376617985e+18,-0.0008444883278571069,2.527762990212068e-05,-0.00223463773727417
1.72942376618585e+18,0.001535993185825646,-0.0001133222394855693,-0.0008634376572445035
1.7294237661918502e+18,0.002919780323281884,-0.0010016408050432801,0.00028839337755925953
1.7294237661948503e+18,-0.001170661998912692,0.00045644541387446225,-0.0006004957831464708
1.7294237662008504e+18,0.0012428699992597103,-0.0020499611273407936,0.00023093172057997435
1.7294237662068506e+18,0.00041703766328282654,-0.0011492858175188303,-9.470419900026172e-05
1.7294237662098506e+18,-1.756168421707116e-05,0.0018591206753626466,0.0031926140654832125
1.7294237662158508e+18,-0.0010634716600179672,0.0012924029724672437,0.0002462204429320991
1.729423766221851e+18,0.00038924033287912607,-0.000497659610118717,0.00014573708176612854
1.729423766224851e+18,-0.0015527025097981095,0.0018290854059159756,0.002117989817634225
1.729423766230851e+18,0.0008219025912694633,-0.0036534774117171764,-0.0012695674085989594
1.7294237662368512e+18,0.0017788599943742156,-0.0016393022378906608,-0.0012656499166041613
1.7294237662398513e+18,0.0011747785611078143,-0.00016707248869352043,0.001661860034801066
1.7294237662458514e+18,0.0008743203361518681,-0.00011315764277242124,-0.0006217655609361827
1.7294237662518515e+18,0.0009072585380636156,-0.0015193044673651457,0.0021846562158316374
1.7294237662578516e+18,2.5872648620861582e-05,0.002540181390941143,-0.0008701386395841837
1.7294237662608517e+18,-0.001110119977965951,0.0024861269630491734,-0.003886035643517971
1.7294237662668518e+18,0.0016835835995152593,0.0030566309578716755,0.0013958871131762862
1.729423766272852e+18,0.0011468210723251104,-0.002389945788308978,-0.00017209516954608262
1.729423766278852e+18,-0.0013465920928865671,-0.0009219414205290377,-0.0013820838648825884
1.7294237662818522e+18,0.002948925830423832,0.00045928024337626994,-0.0003939069574698806
1.7294237662878523e+18,0.0003298506489954889,0.0007099740905687213,7.163525879150257e-05
1.7294237662938524e+18,0.0013202771078795195,0.002410809975117445,0.002140290103852749
1.7294237662968525e+18,0.002002449706196785,0.0024952725507318974,-0.0022259284742176533
1.7294237663028526e+18,0.0012807219754904509,-0.0010698720579966903,-0.0009415406384505332
1.7294237663088527e+18,0.0011869107838720083,0.0024380472023040056,0.003122373018413782
1.7294237663118528e+18,-0.0008855483611114323,0.002812083112075925,0.0011961472919210792
1.729423766317853e+18,0.001217860379256308,-0.0009470026125200093,0.0004239132977090776
1.729423766323853e+18,-0.0015538545558229089,-0.0002105939493048936,-0.0016118516214191914
1.7294237663298532e+18,0.0009276705677621067,-0.0007680063135921955,-0.0002131535584339872
1.7294237663328532e+18,0.0016910857520997524,-0.0018286837730556726,2.907129965024069e-05
1.7294237663388534e+18,0.002414118265733123,-0.0006440417491830885,0.0009164467919617891
1.7294237663448535e+18,-0.0014659547014161944,-0.0024233045987784863,0.0009342324919998646
1.7294237663508536e+18,0.002475896617397666,0.0009013573289848864,0.00017345233936794102
1.7294237663538537e+18,0.0017717808950692415,0.0009282891405746341,0.0011014894116669893
1.7294237663598538e+18,-0.0009056153940036893,0.000766037788707763,-0.0005750570562668145
1.729423766365854e+18,0.0019473019056022167,-0.000766104320064187,0.0020418777130544186
1.729423766371854e+18,0.0006224389071576297,-0.001189916511066258,0.0004168477898929268
1.7294237663748541e+18,-0.0013799142325296998,0.00016430244431830943,-0.000511567632202059
1.7294237663808543e+18,-0.001231351401656866,-0.0029513498302549124,-0.0010117316851392388
1.7294237663868544e+18,0.0006285354611463845,-0.00209975428879261,0.0004582411493174732
1.7294237663928545e+18,0.0003381844435352832,-0.002043983433395624,-0.0010651273187249899
1.7294237663988547e+18,0.0016835189890116453,-0.0012907206546515226,0.0034897688310593367
1.7294237664018547e+18,-0.002080078236758709,-9.10836024559103e-05,-0.001526286476291716
1.7294237664078548e+18,-0.0012469848152250051,-0.0002575507096480578,-0.0006847365875728428
1.729423766413855e+18,0.0015756122302263975,0.0013936962932348251,-0.0006731055327691138
1.729423766419855e+18,0.0001064745374605991,-0.0008378359489142895,-0.0003803455620072782
1.7294237664228552e+18,0.00018837442621588707,0.0013126564444974065,-0.0009590358822606504
1.7294237664288553e+18,0.0025611240416765213,-0.0006722991238348186,0.0006034938269294798
1.7294237664348554e+18,0.0011129718041047454,-7.595856732223183e-05,-0.000711630389560014
1.7294237664408556e+18,-0.00042666916851885617,0.00022773459204472601,0.002639994490891695
1.7294237664438556e+18,0.0013697239337489009,0.0009609099943190813,-0.0003994170983787626
1.7294237664498557e+18,0.0010157428914681077,0.00037584922392852604,0.0007754804682917893
1.7294237664558559e+18,0.001537707052193582,0.0010652897180989385,-0.002888945396989584
1.729423766461856e+18,-0.002720793941989541,-0.00020162307191640139,-0.0024597044102847576
1.729423766464856e+18,-0.0002055264194495976,0.0001942557137226686,0.0009199733030982316
1.7294237664708562e+18,0.002185081597417593,0.0026481659151613712,-0.0013285966124385595
1.7294237664768563e+18,0.0005090299528092146,0.002005956368520856,0.0020565218292176723
1.7294237664798564e+18,0.0005120985442772508,0.0018328162841498852,-0.0011230522068217397
1.7294237664858565e+18,0.002154325833544135,0.0008376053301617503,0.0007722337613813579
1.7294237664918566e+18,0.0009400086710229516,-0.0002532093785703182,0.002099248580634594
1.7294237664978568e+18,-0.00017623520398046821,0.0038593062199652195,0.00026203421293757856
1.7294237665008568e+18,-0.0001746695052133873,0.0030481216963380575,0.0015058889985084534
1.729423766506857e+18,0.000577445374801755,0.0022200439125299454,-0.002294916193932295
1.729423766512857e+18,0.0006094194250181317,0.0007218154496513307,-0.0011024137493222952
1.7294237665158572e+18,-0.0032972111366689205,-0.0017516908701509237,0.0007717601838521659
1.7294237665218573e+18,0.002004266018047929,-0.0011522717541083694,-0.0009078355506062508
1.7294237665278574e+18,0.0015368048334494233,0.0004237161483615637,-0.0019126321421936154
1.7294237665308575e+18,-0.00035351651604287326,-0.00014608695346396416,-0.00040836172411218286
1.7294237665368576e+18,0.0013488141121342778,-7.965861004777253e-05,-0.0008062368724495173
1.7294237665428577e+18,0.0015336659271270037,0.0005554819945245981,-0.0008366209804080427
1.7294237665488579e+18,0.003744319546967745,-0.0032498552463948727,0.0012800672557204962
1.729423766551858e+18,0.0005488095921464264,-0.001288180355913937,-0.0006784600554965436
1.729423766557858e+18,-0.0034252391196787357,-0.0001476160978199914,-0.0002004475682042539
1.7294237665638582e+18,-0.00014786492101848125,-0.0026031830348074436,-0.00010845928045455366
1.7294237665698583e+18,0.00041200467967428267,-0.003443874418735504,0.0005315556772984564
1.7294237665728584e+18,0.0015256538754329085,0.0015978864394128323,-0.0007487175753340125
1.7294237665788585e+18,0.0005373424501158297,0.0006407640175893903,0.000746888923458755
1.7294237665848586e+18,-0.001957809319719672,0.002661770675331354,-0.0009406174067407846
1.7294237665908588e+18,-0.0003631336148828268,0.0007322142482735217,0.002635297365486622
1.7294237665938588e+18,-0.00032551755430176854,-0.001129589625634253,-0.00026873330352827907
1.729423766599859e+18,-0.00028532693977467716,0.001410716911777854,-0.000470167666207999
1.729423766605859e+18,-0.042817916721105576,-0.0015134159475564957,-0.002769147977232933
1.7294237666088591e+18,-0.0722159594297409,0.007105635479092598,-0.001477732672356069
1.7294237666148593e+18,-0.1307409107685089,0.006324242800474167,-0.0010942615335807204
1.7294237666208594e+18,-0.18602412939071655,0.009932231158018112,-0.0006605710368603468
1.7294237666238595e+18,-0.21197468042373657,0.013864099979400635,0.0005270992405712605
1.7294237666298596e+18,-0.25557348132133484,0.018034540116786957,-0.005139507353305817
1.7294237666358597e+18,-0.2754749357700348,0.024686075747013092,-0.0029548159800469875
1.7294237666418598e+18,-0.27029454708099365,0.024235134944319725,-0.004115508869290352
1.72942376664486e+18,-0.2598472535610199,0.022723166272044182,-0.0022041175980120897
1.72942376665086e+18,-0.23578673601150513,0.021773209795355797,-0.004371366463601589
1.7294237666568602e+18,-0.20397254824638367,0.021711548790335655,-0.0016177021898329258
1.7294237666628603e+18,-0.1781165450811386,0.01992862857878208,-0.0066052814945578575
1.7294237666658604e+18,-0.1725015491247177,0.018511606380343437,-0.005486459005624056
1.7294237666718605e+18,-0.16547925770282745,0.013999618589878082,-0.008385203778743744
1.7294237666778606e+18,-0.17113539576530457,0.016128553077578545,-0.0066031720489263535
1.7294237666838607e+18,-0.19161488115787506,0.015777496621012688,-0.005575468763709068
1.7294237666898609e+18,-0.21180087327957153,0.014116356149315834,-0.006079769227653742
1.729423766692861e+18,-0.2191799432039261,0.01597314141690731,-0.007821427658200264
1.729423766698861e+18,-0.23123793303966522,0.018386442214250565,-0.011213133111596107
1.7294237667048612e+18,-0.2316739708185196,0.01978784240782261,-0.009232476353645325
1.7294237667078612e+18,-0.22583843767642975,0.016729552298784256,-0.005631841719150543
1.7294237667138614e+18,-0.20171242952346802,0.017261145636439323,-0.011394922621548176
1.7294237667198615e+18,-0.1749749481678009,0.014818067662417889,-0.01268684957176447
1.7294237667258616e+18,-0.1469195932149887,0.015011434443295002,-0.012900005094707012
1.7294237667288617e+18,-0.13274189829826355,0.01405034027993679,-0.015002460218966007
1.7294237667348618e+18,-0.10985052585601807,0.009783418849110603,-0.011779776774346828
1.729423766740862e+18,-0.09405449777841568,0.007510364521294832,-0.0131148099899292
1.729423766746862e+18,-0.08841141313314438,0.006305702030658722,-0.0139344846829772
1.7294237667498621e+18,-0.08896413445472717,0.005785843823105097,-0.012554557994008064
1.7294237667558623e+18,-0.0954761728644371,0.0015188357792794704,-0.012968652881681919
1.7294237667618624e+18,-0.1003992110490799,0.003184500616043806,-0.016084972769021988
1.7294237667678625e+18,-0.10191014409065247,0.0064047398045659065,-0.015043916180729866
1.7294237667708626e+18,-0.10124877095222473,0.0032944928389042616,-0.017545005306601524
1.7294237667768627e+18,-0.09404051303863525,0.0070986514911055565,-0.0172189399600029
1.7294237667828628e+18,-0.07862977683544159,0.00626767985522747,-0.01705252192914486
1.729423766788863e+18,-0.05532968044281006,0.004979396238923073,-0.01658521592617035
1.729423766791863e+18,-0.044226568192243576,0.006609453819692135,-0.01739029586315155
1.7294237667978632e+18,-0.022057384252548218,0.0059702349826693535,-0.01905464194715023
1.7294237668038633e+18,-0.0017219602596014738,0.002854915801435709,-0.017420930787920952
1.7294237668098634e+18,0.00690795574337244,-0.0006731352768838406,-0.016556434333324432
1.7294237668128635e+18,0.012848620302975178,-0.0003162395441904664,-0.019058039411902428
1.7294237668188636e+18,0.014144543558359146,-0.0019063344225287437,-0.017321361228823662
1.7294237668248637e+18,0.013932387344539165,-0.0019712818320840597,-0.019407616928219795
1.729423766830864e+18,0.011073028668761253,-0.0021906858310103416,-0.021427717059850693
1.729423766833864e+18,0.010317356325685978,-0.004221306182444096,-0.019031429663300514
1.729423766839864e+18,0.008726073428988457,-0.003030681749805808,-0.021610980853438377
1.7294237668458642e+18,0.0180472694337368,-0.004266730044037104,-0.019752200692892075
1.7294237668488643e+18,0.019525688141584396,-0.0023912168107926846,-0.01781323179602623
1.7294237668548644e+18,0.03379366919398308,-0.0032590338960289955,-0.01881241425871849
1.7294237668608645e+18,0.04828807711601257,-0.004550545010715723,-0.02040722407400608
1.7294237668668646e+18,0.06034792959690094,8.293520659208298e-05,-0.02278764732182026
1.7294237668698647e+18,0.07072506844997406,-0.009345384314656258,-0.021006109192967415
1.7294237668758648e+18,0.07541442662477493,-0.010341089218854904,-0.02157815918326378
1.729423766881865e+18,0.07834133505821228,-0.006408794317394495,-0.024438846856355667
1.729423766887865e+18,0.07821197807788849,-0.00834964495152235,-0.023312808945775032
1.7294237668908652e+18,0.07600286602973938,-0.005551391281187534,-0.02192494086921215
1.7294237668968653e+18,0.07306110858917236,-0.005617178976535797,-0.02084307372570038
1.7294237669028654e+18,0.06674855947494507,-0.009828656911849976,-0.02135719545185566
1.7294237669088655e+18,0.06621438264846802,-0.008129761554300785,-0.024136798456311226
1.7294237669118656e+18,0.06886788457632065,-0.00918734259903431,-0.018992096185684204
1.7294237669178657e+18,0.07000502198934555,-0.01016983762383461,-0.021954162046313286
1.7294237669238659e+18,0.08000320941209793,-0.010331586003303528,-0.02330891042947769
1.729423766929866e+18,0.08589145541191101,-0.009014302864670753,-0.02175825834274292
1.729423766932866e+18,0.09156512469053268,-0.00906887836754322,-0.021577609702944756
1.7294237669388662e+18,0.09920776635408401,-0.011043480597436428,-0.02410786598920822
1.7294237669448663e+18,0.1008237898349762,-0.00990295596420765,-0.022526804357767105
1.7294237669508664e+18,0.10031117498874664,-0.012168914079666138,-0.026240278035402298
1.7294237669568666e+18,0.10115804523229599,-0.009144248440861702,-0.02202926203608513
1.7294237669598666e+18,0.0964043140411377,-0.009608006104826927,-0.024800078943371773
1.7294237669658668e+18,0.09199441969394684,-0.013139428570866585,-0.025786232203245163
1.729423766971867e+18,0.08689144998788834,-0.010487407445907593,-0.024378422647714615
1.729423766977867e+18,0.08554383367300034,-0.009634926915168762,-0.019358010962605476
1.729423766980867e+18,0.08583255112171173,-0.008998673409223557,-0.022291285917162895
1.7294237669868672e+18,0.0848119929432869,-0.012989826500415802,-0.023278122767806053
1.7294237669928673e+18,0.08784747123718262,-0.006509567145258188,-0.02394389547407627
1.7294237669988675e+18,0.09232395887374878,-0.00830946397036314,-0.026823069900274277
1.7294237670018675e+18,0.09424211084842682,-0.006351887248456478,-0.02526571974158287
1.7294237670078676e+18,0.09471957385540009,-0.006454287562519312,-0.024001892656087875
1.7294237670138678e+18,0.09623228758573532,-0.006592089310288429,-0.025319313630461693
1.729423767019868e+18,0.0971355140209198,-0.00939254555851221,-0.023325391113758087
1.729423767022868e+18,0.09376977384090424,-0.005602212622761726,-0.027080286294221878
1.729423767028868e+18,0.08900260925292969,-0.007205063942819834,-0.026371804997324944
1.7294237670348682e+18,0.0848747119307518,-0.009081301279366016,-0.024334896355867386
1.7294237670378683e+18,0.08243538439273834,-0.010341985151171684,-0.028266070410609245
1.7294237670438684e+18,0.07734324038028717,-0.00953435804694891,-0.023755274713039398
1.7294237670498685e+18,0.07770828157663345,-0.007091241423040628,-0.02338598668575287
1.7294237670558687e+18,0.0771845355629921,-0.008542116731405258,-0.024909861385822296
1.7294237670618688e+18,0.07813531160354614,-0.004183806478977203,-0.027503307908773422
1.7294237670648689e+18,0.07711436599493027,-0.006483390461653471,-0.022992348298430443
1.729423767070869e+18,0.07811276614665985,-0.006710979621857405,-0.024961093440651894
1.729423767076869e+18,0.07903346419334412,-0.004998315125703812,-0.025732293725013733
1.7294237670828692e+18,0.07790996134281158,-0.007829719223082066,-0.022125188261270523
1.7294237670858693e+18,0.08131394535303116,-0.007869082503020763,-0.02373667247593403
1.7294237670918694e+18,0.0747738629579544,-0.0065336027182638645,-0.026871120557188988
1.7294237670978696e+18,0.07641353458166122,-0.009311448782682419,-0.025574643164873123
1.7294237671038697e+18,0.0685364305973053,-0.0075875818729400635,-0.02447550743818283
1.7294237671068698e+18,0.06974015384912491,-0.005887247156351805,-0.02776399813592434
1.72942376711287e+18,0.062839075922966,-0.00578590901568532,-0.02602306194603443
1.72942376711887e+18,0.06596948206424713,-0.005214880220592022,-0.022594425827264786
1.7294237671248701e+18,0.06435193866491318,-0.0036691371351480484,-0.024450207129120827
1.7294237671278702e+18,0.06641750782728195,-0.004614895209670067,-0.026701996102929115
1.7294237671338703e+18,0.06298144906759262,-0.0014159861020743847,-0.02553873509168625
1.7294237671398705e+18,0.06509833037853241,-0.006392239592969418,-0.0265707615762949
1.7294237671458706e+18,0.06876570731401443,-0.004296476021409035,-0.02550751343369484
1.7294237671518707e+18,0.06470948457717896,-0.007687178440392017,-0.024416465312242508
1.7294237671578708e+18,0.06182052195072174,-0.006889837794005871,-0.02868218719959259
1.729423767160871e+18,0.05682462081313133,-0.006234060972929001,-0.023292958736419678
1.729423767166871e+18,0.05945562198758125,-0.005483776796609163,-0.026135781779885292
1.7294237671728712e+18,0.05843265354633331,-0.004712095484137535,-0.02775711566209793
1.7294237671788713e+18,0.052631184458732605,-0.004191956948488951,-0.023330461233854294
1.7294237671818714e+18,0.04959888011217117,-0.0024068010970950127,-0.02452537789940834
1.7294237671878715e+18,0.046730317175388336,-0.00304809189401567,-0.026088576763868332
1.7294237671938716e+18,0.05133858323097229,-0.0017839649226516485,-0.026219140738248825
1.7294237671998717e+18,0.05287911742925644,-0.002655107295140624,-0.027677156031131744
1.7294237672058719e+18,0.050995729863643646,-0.0010345455957576632,-0.0250942911952734
1.729423767208872e+18,0.047751717269420624,-0.0014923098497092724,-0.028563473373651505
1.729423767214872e+18,0.04886917397379875,-0.0007415554719045758,-0.026154574006795883
1.7294237672208722e+18,0.046610020101070404,-0.00020420138025656343,-0.023942913860082626
1.7294237672238723e+18,0.04953848198056221,0.0002548779593780637,-0.024157140403985977
1.7294237672298724e+18,0.045592308044433594,0.0011057561496272683,-0.02256951294839382
1.7294237672358725e+18,0.045547399669885635,0.0020072534680366516,-0.0226640235632658
1.7294237672418726e+18,0.040216509252786636,-0.0013858596794307232,-0.020286697894334793
1.7294237672448727e+18,0.040973592549562454,0.0016674575163051486,-0.02276913821697235
1.7294237672508728e+18,0.04117149859666824,-0.0026167298201471567,-0.024137916043400764
1.729423767256873e+18,0.037799738347530365,0.0005870761815458536,-0.023909879848361015
1.729423767262873e+18,0.03922811150550842,0.001471314113587141,-0.0224541537463665
1.7294237672658732e+18,0.03552493453025818,-0.0018564787460491061,-0.020336540415883064
1.7294237672718733e+18,0.03616242855787277,0.0014328340766951442,-0.021542927250266075
1.7294237672778734e+18,0.03425217047333717,-0.0005495157092809677,-0.022217251360416412
1.7294237672808735e+18,0.03701946139335632,-0.0008531134808436036,-0.023391086608171463
1.7294237672868736e+18,0.037399888038635254,-0.0017876208294183016,-0.02342231199145317
1.7294237672928737e+18,0.036544594913721085,0.0017433440079912543,-0.020737048238515854
1.7294237672988739e+18,0.03631191700696945,0.0009756102808751166,-0.0231632050126791
1.729423767304874e+18,0.034252509474754333,-0.0006950800307095051,-0.02263573743402958
1.729423767310874e+18,0.03391216695308685,-0.005515220575034618,-0.021881725639104843
1.7294237673138742e+18,0.03365243226289749,-0.0018874089000746608,-0.02100459858775139
1.7294237673198743e+18,0.035953253507614136,-0.0016081276116892695,-0.022269628942012787
1.7294237673258744e+18,0.03306318446993828,-0.001678592641837895,-0.020755816251039505
1.7294237673318746e+18,0.03273656219244003,-0.003093837294727564,-0.022457629442214966
1.7294237673348746e+18,0.033550020307302475,-0.005853448994457722,-0.020657379180192947
1.7294237673408748e+18,0.029157578945159912,-0.0032950364984571934,-0.019777754321694374
1.729423767346875e+18,0.031655337661504745,-0.004828788340091705,-0.023971229791641235
1.729423767352875e+18,0.03149913251399994,-0.00288508553057909,-0.019763488322496414
1.7294237673588751e+18,0.030002061277627945,-0.004938587546348572,-0.017866872251033783
1.7294237673618752e+18,0.032224640250205994,-0.0028875377029180527,-0.01664673164486885
1.7294237673678753e+18,0.0332622267305851,-0.0019497326575219631,-0.019676564261317253
1.7294237673738755e+18,0.03183627873659134,-0.0033162233885377645,-0.022123610600829124
1.7294237673768755e+18,0.034233517944812775,-0.004046519752591848,-0.020569080486893654
1.7294237673828756e+18,0.030580667778849602,-0.0038727200590074062,-0.02053855173289776
1.7294237673888758e+18,0.031100260093808174,-0.004124506842344999,-0.017409052699804306
1.729423767394876e+18,0.03302737697958946,-0.001805990468710661,-0.019016344100236893
1.729423767400876e+18,0.029765954241156578,-0.00345707219094038,-0.017400184646248817
1.729423767403876e+18,0.027821552008390427,-0.00040899915620684624,-0.018642397597432137
1.7294237674098762e+18,0.028365610167384148,-0.0009584020008333027,-0.017286719754338264
1.7294237674158764e+18,0.024894097819924355,-0.004562322981655598,-0.017411788925528526
1.7294237674218765e+18,0.021462898701429367,-0.0017924472922459245,-0.020510392263531685
1.7294237674248765e+18,0.024656284600496292,-0.005198675207793713,-0.0182783342897892
1.7294237674308767e+18,0.02501007542014122,-0.003662385046482086,-0.01714557781815529
1.7294237674368768e+18,0.023820936679840088,-0.002971798647195101,-0.01626500114798546
1.729423767442877e+18,0.027833297848701477,-0.004679746925830841,-0.018751967698335648
1.729423767448877e+18,0.026633603498339653,-0.005732368677854538,-0.015624032355844975
1.729423767451877e+18,0.027562756091356277,0.000423576682806015,-0.014774651266634464
1.7294237674578772e+18,0.02741498127579689,-0.0020953596103936434,-0.015795715153217316
1.7294237674638774e+18,0.026614543050527573,-0.0035435082390904427,-0.01694062538444996
1.7294237674698775e+18,0.0269060917198658,-0.00213613361120224,-0.012147203087806702
1.7294237674728776e+18,0.027984779328107834,-0.005974730476737022,-0.01439890917390585
1.7294237674788777e+18,0.025501416996121407,-0.003920470364391804,-0.01230263989418745
1.7294237674848778e+18,0.02372375689446926,-0.0022384522017091513,-0.014233752153813839
1.729423767487878e+18,0.02350081317126751,-0.0017620300641283393,-0.012057703919708729
1.729423767493878e+18,0.026530059054493904,-0.0005275531439110637,-0.013685869984328747
1.7294237674998781e+18,0.023114608600735664,-0.0021769898012280464,-0.014473091810941696
1.7294237675058783e+18,0.023514214903116226,-0.0025302052963525057,-0.013394124805927277
1.7294237675088783e+18,0.025482142344117165,0.0007665610173717141,-0.0135662741959095
1.7294237675148785e+18,0.02114402875304222,-0.0017518147360533476,-0.014064785093069077
1.7294237675208786e+18,0.02239137329161167,-0.0004864193615503609,-0.012429747730493546
1.7294237675268787e+18,0.025476329028606415,-0.0013504752423614264,-0.011635405011475086
1.7294237675298788e+18,0.023595646023750305,0.002049599774181843,-0.014461634680628777
1.729423767535879e+18,0.02443518489599228,-0.0014030931051820517,-0.009103965945541859
1.729423767541879e+18,0.025433126837015152,-0.0053893099538981915,-0.00881495513021946
1.7294237675478792e+18,0.025073405355215073,-0.00024397321976721287,-0.011445960961282253
1.7294237675508792e+18,0.022535257041454315,-0.0011623392347246408,-0.009937461465597153
1.7294237675568794e+18,0.025191042572259903,0.0011068165767937899,-0.007682922296226025
1.7294237675628795e+18,0.019001232460141182,0.00015133566921576858,-0.013593785464763641
1.7294237675688796e+18,0.023630671203136444,0.0009158679749816656,-0.009700133465230465
1.7294237675718797e+18,0.02227599173784256,0.0011257410515099764,-0.008638371713459492
1.7294237675778798e+18,0.02079097554087639,-0.00023429802968166769,-0.009201958775520325
1.72942376758388e+18,0.018668297678232193,0.00042150571243837476,-0.010092883370816708
1.72942376758988e+18,0.019294699653983116,-0.0018069244688376784,-0.012319539673626423
1.72942376759288e+18,0.016635693609714508,-0.00014939135871827602,-0.00771729601547122
1.7294237675988803e+18,0.017751308158040047,0.0004698284901678562,-0.009864617139101028
1.7294237676048804e+18,0.018764978274703026,-0.002602421212941408,-0.006270481273531914
1.7294237676108805e+18,0.019538208842277527,-0.0002692732959985733,-0.008558573201298714
1.7294237676138806e+18,0.020319916307926178,-0.003983764909207821,-0.00861490610986948
1.7294237676198807e+18,0.020681971684098244,-0.0023637639824301004,-0.00572509178891778
1.7294237676258808e+18,0.020377540960907936,-0.0005388553254306316,-0.009133689105510712
1.729423767631881e+18,0.020346052944660187,-0.002426587278023362,-0.006663964129984379
1.729423767634881e+18,0.017626430839300156,-0.0011599580757319927,-0.007462954148650169
1.7294237676408812e+18,0.015550078824162483,-0.0006806524470448494,-0.0072176046669483185
1.7294237676468813e+18,0.0132827740162611,-0.0013631111942231655,-0.008720621466636658
1.7294237676528814e+18,0.012699074111878872,-0.003952219616621733,-0.005673860665410757
1.7294237676588815e+18,0.01160905696451664,0.00020810042042285204,-0.00690895039588213
1.7294237676648817e+18,0.012112797237932682,-0.0029736629221588373,-0.00357765331864357
1.7294237676678817e+18,0.012836978770792484,-0.002351889619603753,-0.005507367663085461
1.7294237676738819e+18,0.015156230889260769,-0.002105665858834982,-0.005676738917827606
1.729423767679882e+18,0.015071364119648933,-0.002596191829070449,-0.004803529474884272
1.729423767682882e+18,0.01766284741461277,-0.0029533712659031153,-0.004396681673824787
1.7294237676888822e+18,0.017062116414308548,-0.0016047110548242927,-0.004425486084073782
1.7294237676948823e+18,0.018338210880756378,-0.0018458579434081912,-0.005100736860185862
1.7294237677008824e+18,0.015145134180784225,-0.003017726354300976,-0.0034500828478485346
1.7294237677038825e+18,0.016473330557346344,-0.0032503725960850716,-0.002407168038189411
1.7294237677098826e+18,0.0145600950345397,-0.004170900210738182,-0.0062839919701218605
1.7294237677158828e+18,0.010682044550776482,-0.00015954510308802128,-0.005676543805748224
1.7294237677188828e+18,0.012987560592591763,-0.003014966379851103,-0.00452935416251421
1.729423767724883e+18,0.014760090038180351,-0.005137791857123375,-0.0008975700475275517
1.729423767730883e+18,0.012148202396929264,-0.0008338521001860499,-0.0017069312743842602
1.7294237677368832e+18,0.01476502325385809,-0.002584520261734724,-0.0005576811381615698
1.7294237677398833e+18,0.012878908775746822,-0.001599669805727899,-0.0015111496904864907
1.7294237677458834e+18,0.014504553750157356,-0.0013521427754312754,-0.0013730486389249563
1.7294237677518835e+18,0.013039613142609596,0.0030462383292615414,-0.002999295946210623
1.7294237677548836e+18,0.015458138659596443,0.00214904872700572,0.0008065147558227181
1.7294237677608837e+18,0.015530165284872055,0.0016052074497565627,0.0005763914668932557
1.7294237677668838e+18,0.012109391391277313,0.0023216840345412493,0.0042607528157532215
1.729423767772884e+18,0.011984232813119888,0.0028398879803717136,0.0029645597096532583
1.729423767775884e+18,0.01284415926784277,0.00341834151186049,0.0008559763664379716
1.7294237677818842e+18,0.010609195567667484,0.0006947042420506477,-0.0003528667730279267
1.7294237677878843e+18,0.009872833266854286,0.0018221248174086213,-0.00040870410157367587
1.7294237677938844e+18,0.011755645275115967,0.0008543322328478098,0.003134302794933319
1.7294237677968845e+18,0.009754086844623089,0.0018824947765097022,0.0014041460817679763
1.7294237678028846e+18,0.01261106226593256,0.0034387540072202682,0.0025694360956549644
1.7294237678088847e+18,0.012105841189622879,0.005112025421112776,-0.00035535008646547794
1.7294237678148849e+18,0.013333880342543125,0.005121959373354912,0.0023127272725105286
1.729423767817885e+18,0.015236038714647293,0.006085126660764217,0.00037133495789021254
1.729423767823885e+18,0.013921341858804226,0.0048172385431826115,0.002633999101817608
1.7294237678298852e+18,0.015721702948212624,0.005592541303485632,-0.0008550023194402456
1.7294237678358853e+18,0.009767860174179077,0.006657224148511887,0.0009530468378216028
1.7294237678388854e+18,0.008925139904022217,0.005159229971468449,0.006445178296416998
1.7294237678448855e+18,0.011635076254606247,0.005306702572852373,0.005936959758400917
1.7294237678508856e+18,0.008751877583563328,0.002534126164391637,0.0032549924217164516
1.7294237678568858e+18,0.008563357405364513,0.001966567477211356,0.003046128898859024
1.729423767862886e+18,0.010115168988704681,0.002101021585986018,0.0069017428904771805
1.729423767865886e+18,0.011248074471950531,0.0025137527845799923,0.003273171838372946
1.729423767871886e+18,0.008404073305428028,0.003329690545797348,0.004533684812486172
1.7294237678778862e+18,0.007144393399357796,0.003251942340284586,0.005222892388701439
1.7294237678808863e+18,0.007200044579803944,0.0027468453627079725,0.005842133890837431
1.7294237678868864e+18,0.0073344106785953045,0.002306832931935787,0.004318797029554844
1.7294237678928865e+18,0.006457619369029999,0.0019618691876530647,0.004923617001622915
1.7294237678988867e+18,0.004781666211783886,0.002782037016004324,0.005808352958410978
1.7294237679018867e+18,0.007086103782057762,0.0023050366435199976,0.006190367974340916
1.7294237679078868e+18,0.003894680179655552,0.0003153927391394973,0.004089034162461758
1.729423767913887e+18,0.004686505999416113,6.403430597856641e-05,0.006809609942138195
1.729423767919887e+18,0.0033990631345659494,-0.004146316554397345,0.006038927007466555
1.7294237679228872e+18,0.005531440954655409,0.0009600116172805429,0.005829974543303251
1.7294237679288873e+18,0.005391849670559168,0.00012895878171548247,0.004355143755674362
1.7294237679348874e+18,0.002202919451519847,-0.00032752324477769434,0.007027851417660713
1.7294237679408876e+18,0.005125237628817558,-0.0009285832056775689,0.008736787363886833
1.7294237679438876e+18,0.001233200542628765,-0.00039484567241743207,0.004466857761144638
1.7294237679498877e+18,0.00614916579797864,0.0014965954469516873,0.0071062929928302765
1.7294237679558879e+18,0.0036989524960517883,-0.00025596912018954754,0.007905516773462296
1.729423767961888e+18,0.0030198495369404554,0.003299036528915167,0.008376258425414562
1.729423767964888e+18,0.0063520739786326885,0.002268701558932662,0.009840348735451698
1.7294237679708882e+18,0.004890963435173035,0.002424822188913822,0.007644220720976591
1.7294237679768883e+18,0.005873347632586956,0.0015898740384727716,0.009862065315246582
1.7294237679828884e+18,0.004620173946022987,0.00156858516857028,0.009109904989600182
1.7294237679888886e+18,0.0026559249963611364,0.001222590683028102,0.010974518954753876
1.7294237679918886e+18,0.0035239423159509897,0.0026964996941387653,0.007093376480042934
1.7294237679978888e+18,0.0018956917338073254,0.0018900521099567413,0.010241874493658543
1.729423768003889e+18,0.00012017926201224327,-0.001390464953146875,0.004725053906440735
1.729423768009889e+18,-0.0010360584128648043,0.0002734249283093959,0.009181510657072067
1.729423768012889e+18,0.002338327467441559,0.0033836516086012125,0.007569054141640663
1.7294237680188892e+18,0.000986095517873764,-0.0003998666943516582,0.010434828698635101
1.7294237680248893e+18,0.001634567161090672,-0.0035530338063836098,0.010611963458359241
1.7294237680308895e+18,0.0029865968972444534,-1.5452736988663673e-05,0.008636941201984882
1.7294237680338895e+18,0.0051980996504426,0.0016145306872203946,0.009700888767838478
1.7294237680398897e+18,0.004352962598204613,-0.002289530588313937,0.00988706760108471
1.7294237680458898e+18,0.007210594601929188,0.0017620347207412124,0.011103632859885693
1.72942376805189e+18,0.005022648721933365,-0.0019849743694067,0.011473046615719795
1.72942376805489e+18,0.0027694471646100283,0.00037708692252635956,0.011700824834406376
1.72942376806089e+18,0.00041006237734109163,-5.3380848839879036e-05,0.0118341576308012
1.7294237680668902e+18,-0.0019665947183966637,0.0009120290633291006,0.00923498347401619
1.7294237680728904e+18,-0.0049583762884140015,0.0019927716348320246,0.011309043504297733
1.7294237680758904e+18,-0.0014272978296503425,0.0027433952782303095,0.01124857272952795
1.7294237680818906e+18,-0.006206467282027006,-0.0009804540313780308,0.01278541050851345
1.7294237680878907e+18,-0.002293502679094672,0.0015388148603960872,0.01388792134821415
1.7294237680938908e+18,-0.0015614369185641408,0.002023438923060894,0.012682350352406502
1.729423768099891e+18,-0.00016301704454235733,0.001960861263796687,0.01076196413487196
1.729423768102891e+18,-0.0002164878969779238,0.00045805214904248714,0.011699159629642963
1.7294237681088911e+18,-0.0008589389035478234,-0.0005480201216414571,0.011390681378543377
1.7294237681148913e+18,0.0007701098220422864,0.0033064845483750105,0.011318064294755459
1.7294237681208914e+18,-0.0010341739980503917,0.0013280787970870733,0.010447217151522636
1.7294237681238915e+18,-0.005076300352811813,-0.0013810631353408098,0.011489218100905418
1.7294237681298916e+18,-0.0023905527777969837,-0.0011851249728351831,0.012843284755945206
1.7294237681358917e+18,-0.0058508641086518764,-0.0007911376305855811,0.014259562827646732
1.7294237681418918e+18,-0.004420521669089794,0.00039532131631858647,0.01281137764453888
1.729423768144892e+18,-0.007418748922646046,0.0012094213161617517,0.012164905667304993
1.729423768150892e+18,-0.005521385930478573,-0.0020429473370313644,0.014092299155890942
1.7294237681568922e+18,-0.005177457816898823,-0.0013457810273393989,0.010188490152359009
1.7294237681628923e+18,-0.004506133496761322,-0.001166911912150681,0.013628706336021423
1.7294237681658924e+18,-0.0027813357301056385,-0.0008935945807024837,0.013268807902932167
1.7294237681718925e+18,-0.00042263336945325136,-0.0032973841298371553,0.015540186315774918
1.7294237681778926e+18,0.0010630183387547731,0.0006363216089084744,0.012922550551593304
1.7294237681808927e+18,0.002636222168803215,0.0005936899688094854,0.013681130483746529
1.7294237681868928e+18,0.0017327138921245933,0.0008695119759067893,0.015514787286520004
1.729423768192893e+18,-0.0020840554498136044,0.0014645194169133902,0.013875414617359638
1.729423768198893e+18,-0.0033682752400636673,-0.0017271048855036497,0.013287006877362728
1.729423768201893e+18,-0.0011467242147773504,0.002330003771930933,0.014617540873587132
1.7294237682078932e+18,-0.005787414498627186,0.00305745261721313,0.013174546882510185
1.7294237682138934e+18,-0.006458910182118416,-0.00036719272611662745,0.01183977723121643
1.7294237682198935e+18,-0.005857258569449186,-0.0016375910490751266,0.014373504556715488
1.7294237682228936e+18,-0.003234781324863434,-1.3114884495735168e-05,0.014008770696818829
1.7294237682288937e+18,-0.004069989081472158,-0.0005547184264287353,0.017372623085975647
1.7294237682348938e+18,0.00022918626200407743,0.0008184867911040783,0.01248322892934084
1.729423768240894e+18,0.0012051573721691966,0.00262691592797637,0.015194553881883621
1.729423768243894e+18,0.0024966266937553883,-0.0022620921954512596,0.013624832034111023
1.7294237682498941e+18,0.0024947552010416985,-5.680833419319242e-05,0.015487773343920708
1.7294237682558943e+18,0.003449502168223262,0.000859683845192194,0.014724867418408394
1.7294237682618944e+18,0.0011154861422255635,0.001059683389030397,0.013922062702476978
1.7294237682648945e+18,-0.0011066163424402475,0.0010290282079949975,0.01235645730048418
1.7294237682708946e+18,-0.0011251377873122692,-0.0048445723950862885,0.014863766729831696
1.7294237682768947e+18,-0.005728085525333881,-0.0028594289906322956,0.017387548461556435
1.7294237682798948e+18,-0.005088647827506065,-0.0005978171247988939,0.01452043280005455
1.729423768285895e+18,-0.0065450421534478664,-0.0011672734981402755,0.013210064731538296
1.729423768291895e+18,-0.005059144925326109,-0.001737744896672666,0.0143596101552248
1.7294237682978952e+18,-0.00585423968732357,0.00014123512664809823,0.01446317508816719
1.7294237683008952e+18,-0.00827174261212349,0.0015798094682395458,0.014126403257250786
1.7294237683068954e+18,-0.002936053089797497,0.0011816194746643305,0.014739804901182652
1.7294237683128955e+18,0.0018548319349065423,-0.00037441274616867304,0.016223059967160225
1.7294237683188956e+18,0.0014163560699671507,0.0016196031356230378,0.014947019517421722
1.7294237683218957e+18,-0.0017521167173981667,0.002156196627765894,0.011325185187160969
1.7294237683278958e+18,-0.00018541677854955196,-0.0013870740076527,0.015900233760476112
1.729423768333896e+18,0.001423978479579091,-0.0006012051599100232,0.013895596377551556
1.729423768339896e+18,0.00031020212918519974,-0.00040668895235285163,0.016090450808405876
1.7294237683458962e+18,-0.00291821057908237,-0.0019096488831564784,0.014627139084041119
1.7294237683488963e+18,-0.0033036619424819946,-0.0033014221116900444,0.012152887880802155
1.7294237683548964e+18,-0.0018626300152391195,0.0011598707642406225,0.015261005610227585
1.7294237683608965e+18,-0.006176867056638002,-0.0011513166828081012,0.013969904743134975
1.7294237683668966e+18,-0.007799733430147171,0.0008934970246627927,0.014870376326143742
1.7294237683698967e+18,-0.004830782767385244,-0.0020905910059809685,0.01234508864581585
1.7294237683758968e+18,-0.007840203121304512,6.648030830547214e-05,0.01294641476124525
1.729423768381897e+18,-0.001930802478455007,-0.0006304573034867644,0.01481799315661192
1.729423768387897e+18,0.00021282522357068956,0.0018644300289452076,0.015174095518887043
1.7294237683938972e+18,0.00018623191863298416,-0.0023149552289396524,0.015245134942233562
1.7294237683968973e+18,0.0027193468995392323,-0.003528787288814783,0.015732591971755028
1.7294237684028974e+18,0.0035349088720977306,-0.0038542370311915874,0.012935131788253784
1.7294237684088975e+18,-0.001469746115617454,-0.003611082211136818,0.015406200662255287
1.7294237684118976e+18,0.0007639331161044538,-0.0018475847318768501,0.016330670565366745
1.7294237684178977e+18,-0.0029244618490338326,-0.004574338905513287,0.014323776587843895
1.7294237684238979e+18,-0.006892187986522913,-0.0011838433565571904,0.015125822275876999
1.729423768429898e+18,-0.009015165269374847,-0.0015363176353275776,0.013771062716841698
1.729423768435898e+18,-0.009245449677109718,-0.0045522465370595455,0.012777486816048622
1.7294237684388982e+18,-0.009381829760968685,-0.001273504225537181,0.014042417518794537
1.7294237684448983e+18,-0.005990693811327219,-0.00036802433896809816,0.01673278771340847
1.7294237684508984e+18,-0.004272316582500935,-0.0012285427656024694,0.018058838322758675
1.7294237684568986e+18,-0.004680517129600048,0.0005379256326705217,0.011524178087711334
1.7294237684628987e+18,-0.0007575139170512557,-0.0013321455335244536,0.010981343686580658
1.7294237684658988e+18,-0.00113357650116086,-0.001687723444774747,0.01309248898178339
1.729423768471899e+18,-0.0031733301002532244,-0.005597442388534546,0.012592606246471405
1.729423768477899e+18,-0.003205938497558236,-0.0014896849170327187,0.016514945775270462
1.7294237684838991e+18,-0.008299880661070347,-0.0022075704764574766,0.010825883597135544
1.7294237684898993e+18,-0.006201467476785183,-0.00028964225202798843,0.012586553581058979
1.7294237684958994e+18,-0.007018465083092451,-0.0008997672121040523,0.015973379835486412
1.7294237685018995e+18,-0.009385933168232441,-0.0005910484469495714,0.014681859873235226
1.7294237685078996e+18,-0.0051414635963737965,6.658374331891537e-06,0.01692306250333786
1.7294237685138998e+18,-0.004724713042378426,0.0018197406316176057,0.013483665883541107
1.7294237685199e+18,-0.004196948371827602,0.002210537903010845,0.014455737546086311
1.7294237685259e+18,-0.000343783525750041,0.0025838790461421013,0.0156632699072361
1.7294237685319002e+18,-0.0028844245243817568,-0.0013588336296379566,0.01430079061537981
1.7294237685379003e+18,-0.005060260184109211,9.644925012253225e-05,0.015091631561517715
1.7294237685439004e+18,-0.007051506079733372,0.00016254271031357348,0.015567226335406303
1.7294237685499005e+18,-0.009852882474660873,0.0020311912521719933,0.014118609018623829
1.7294237685559007e+18,-0.010401003062725067,-0.000955992320086807,0.016038209199905396
1.7294237685589007e+18,-0.010716748423874378,0.0008541684364899993,0.013503910042345524
1.7294237685649009e+18,-0.00958640594035387,0.0013150733429938555,0.013420874252915382
1.729423768570901e+18,-0.0062699029222130775,-0.0021158158779144287,0.013930209912359715
1.729423768576901e+18,-0.0050025200471282005,0.0025672963820397854,0.012325771152973175
1.7294237685829012e+18,-0.00559786893427372,-0.0011108232429251075,0.014883656054735184
1.7294237685889014e+18,-0.004867057781666517,-0.0018722056411206722,0.01360468752682209
1.7294237685949015e+18,-0.005308626219630241,0.0012567478697746992,0.011898000724613667
1.7294237686009016e+18,-0.007882891222834587,0.00012624351074919105,0.015157733112573624
1.7294237686069018e+18,-0.006800832226872444,0.0024163885973393917,0.013497982174158096
1.7294237686099018e+18,-0.007222397718578577,0.0011840022634714842,0.014010561630129814
1.729423768615902e+18,-0.006328301504254341,0.0013319028075784445,0.01136695221066475
1.729423768621902e+18,-0.008651912212371826,-0.0002461997792124748,0.010512123815715313
1.7294237686279022e+18,-0.006924150045961142,0.001986372284591198,0.014037016779184341
1.7294237686339023e+18,-0.009756915271282196,0.0027905688621103764,0.010633883997797966
1.7294237686399025e+18,-0.007053095381706953,-0.0001907007535919547,0.011786775663495064
1.7294237686429025e+18,-0.0070929015055298805,-0.004609343130141497,0.01014720555394888
1.7294237686489027e+18,-0.006390805821865797,-0.0007294283132068813,0.009011693298816681
1.7294237686549028e+18,-0.0031314229127019644,-0.002519794972613454,0.011606166139245033
1.729423768660903e+18,-0.004586762748658657,-0.0038731286767870188,0.011620715260505676
1.729423768666903e+18,-0.004121393896639347,-0.0014565944438800216,0.010973485186696053
1.7294237686729032e+18,-0.00365808024071157,-7.647206075489521e-05,0.014558137394487858
1.7294237686759032e+18,-0.003659723326563835,-0.0014700687024742365,0.012740624137222767
1.7294237686819034e+18,-0.006399089470505714,0.0018340442329645157,0.011846541427075863
1.7294237686879035e+18,-0.005923140328377485,0.0008750984561629593,0.014105252921581268
1.7294237686939036e+18,-0.005169070325791836,0.0015399956610053778,0.011338193900883198
1.7294237686999037e+18,-0.0067033665254712105,0.0013172654435038567,0.01104123704135418
1.7294237687029038e+18,-0.007435571867972612,-0.0018259786302223802,0.008308881893754005
1.729423768708904e+18,-0.006899119820445776,3.732310142368078e-05,0.012375429272651672
1.729423768714904e+18,-0.007877541705965996,-0.004441609140485525,0.009493052028119564
1.7294237687179041e+18,-0.0023481943644583225,-0.0029302695766091347,0.011405634693801403
1.7294237687239043e+18,-0.002348196692764759,-0.002012206707149744,0.010498871095478535
1.7294237687299044e+18,-0.0076041147112846375,0.0008862661197781563,0.011382799595594406
1.7294237687359045e+18,-0.0015036126133054495,-0.001250221161171794,0.008759221993386745
1.7294237687419046e+18,-0.006301929708570242,0.0010455623269081116,0.008719520643353462
1.7294237687449047e+18,-0.00597259309142828,0.001963617280125618,0.0087322648614645
1.7294237687509048e+18,-0.007690022233873606,0.0005912555498071015,0.009003803133964539
1.729423768756905e+18,-0.0102548748254776,0.002774056512862444,0.0111296521499753
1.729423768762905e+18,-0.005527508445084095,-0.00039184780325740576,0.009869350120425224
1.7294237687689052e+18,-0.007299469783902168,0.0009923616889864206,0.01225612685084343
1.7294237687719053e+18,-0.006588287185877562,-0.0012093354016542435,0.006564947310835123
1.7294237687779054e+18,-0.006981944665312767,0.001087047508917749,0.007429974153637886
1.7294237687839055e+18,-0.006522112991660833,0.0023655667901039124,0.009976936504244804
1.7294237687899057e+18,-0.007737886626273394,-0.0011248517548665404,0.0084844920784235
1.7294237687929057e+18,-0.008687423542141914,0.0007457481697201729,0.007277673576027155
1.7294237687989059e+18,-0.008577855303883553,0.0049307579174637794,0.011061284691095352
1.729423768804906e+18,-0.008434943854808807,0.0022364244796335697,0.008861592970788479
1.729423768810906e+18,-0.01187906228005886,0.003686862997710705,0.008595017716288567
1.7294237688139062e+18,-0.00938661489635706,0.003872917965054512,0.006824135780334473
1.7294237688199063e+18,-0.012053091078996658,0.0010851731058210135,0.007959043607115746
1.7294237688259064e+18,-0.0116770314052701,-0.00164322042837739,0.007903371937572956
1.7294237688289065e+18,-0.011053142137825489,-0.0019100771751254797,0.009266884997487068
1.7294237688349066e+18,-0.009946724399924278,-0.00018656176689546555,0.00528214406222105
1.7294237688409068e+18,-0.009932361543178558,-0.001857665367424488,0.010453607887029648
1.729423768846907e+18,-0.007105269469320774,-0.0014714925782755017,0.006933449301868677
1.729423768852907e+18,-0.009790551848709583,0.0003020759904757142,0.005034503526985645
1.729423768855907e+18,-0.008629323914647102,0.0019240278052166104,0.0061193350702524185
1.7294237688619072e+18,-0.009418629109859467,0.002250178251415491,0.008044034242630005
1.7294237688679073e+18,-0.011446060612797737,0.00525237899273634,0.005194281693547964
1.7294237688739075e+18,-0.01207668986171484,0.003415375715121627,0.006881847977638245
1.7294237688769075e+18,-0.010129955597221851,0.002459657844156027,0.0077499449253082275
1.7294237688829076e+18,-0.009459691122174263,0.004085039719939232,0.005887527484446764
1.7294237688889078e+18,-0.008282194845378399,0.003168385475873947,0.004653536714613438
1.7294237688919078e+18,-0.00994935818016529,-0.00041165295988321304,0.005037485156208277
1.729423768897908e+18,-0.009485797956585884,0.0008505660807713866,0.006498886737972498
1.729423768903908e+18,-0.009236564859747887,0.0008659056620672345,0.0065552713349461555
1.7294237689069082e+18,-0.010333533398807049,-0.001962622394785285,0.008494146168231964
1.7294237689129083e+18,-0.008424801751971245,-0.003581464057788253,0.005423496477305889
1.7294237689189084e+18,-0.00860633235424757,-6.511819083243608e-05,0.00402679992839694
1.7294237689249085e+18,-0.010458987206220627,-3.653002204373479e-05,0.00609453534707427
1.7294237689309087e+18,-0.008797761052846909,0.0007106444099918008,0.0039084781892597675
1.7294237689369088e+18,-0.008298058062791824,0.0003532030386850238,0.005129789002239704
1.7294237689399089e+18,-0.010993314906954765,0.0006929162773303688,0.005816059187054634
1.729423768945909e+18,-0.011406437493860722,0.002436355920508504,0.0024574247654527426
1.729423768951909e+18,-0.010444875806570053,0.0008418626384809613,0.0036405252758413553
1.7294237689579092e+18,-0.009464764967560768,0.0032878220081329346,0.006176549941301346
1.7294237689609093e+18,-0.011808998882770538,-0.0005432623438537121,-0.001104127150028944
1.7294237689669094e+18,-0.010072142817080021,0.0007500104256905615,0.0022534034214913845
1.7294237689729096e+18,-0.009433373808860779,-0.0015798688400536776,0.003052282612770796
1.7294237689789097e+18,-0.009858276695013046,0.00236856983974576,0.003089969279244542
1.7294237689849098e+18,-0.008214705623686314,-0.0017426107078790665,0.0032986500300467014
1.72942376898791e+18,-0.009673373773694038,0.0007672573556192219,0.0018525172490626574
1.72942376899391e+18,-0.009851754643023014,0.0010221722768619657,0.0026596395764499903
1.7294237689999101e+18,-0.007305539678782225,0.0004630633629858494,0.0012772820191457868
1.7294237690059103e+18,-0.008588777855038643,-0.002125154249370098,0.0008716018637642264
1.7294237690119104e+18,-0.005466850008815527,-0.0023081544786691666,0.0013606742722913623
1.7294237690179105e+18,-0.008591110818088055,0.0006494576809927821,0.002284256275743246
1.7294237690209106e+18,-0.008015584200620651,-0.00270600663498044,0.00024154665879905224
1.7294237690269107e+18,-0.010348121635615826,0.0004199461545795202,0.002017274498939514
1.7294237690329108e+18,-0.008538875728845596,-0.0009515683632344007,-0.0016213678754866123
1.729423769038911e+18,-0.00990812573581934,-0.006161585450172424,-0.005402464419603348
1.729423769044911e+18,-0.011488236486911774,-0.004545181058347225,-0.010800166986882687
1.7294237690479112e+18,-0.009992447681725025,-0.005613057874143124,-0.012971078976988792
1.7294237690539113e+18,-0.01073335763067007,-0.008839762769639492,-0.014339406974613667
1.7294237690599114e+18,-0.011752111837267876,-0.00883165467530489,-0.015655824914574623
1.7294237690659116e+18,-0.007642410695552826,-0.006781987380236387,-0.019021006301045418
1.7294237690689116e+18,-0.011738784611225128,-0.007271172478795052,-0.01884295605123043
1.7294237690749117e+18,-0.005960940849035978,-0.010485023260116577,-0.019125256687402725
1.729423769080912e+18,-0.007345929741859436,-0.010294049046933651,-0.01736753061413765
1.729423769086912e+18,-0.008930443786084652,-0.007623488083481789,-0.01945091411471367
1.729423769089912e+18,-0.009327350184321404,-0.00510710384696722,-0.01844116672873497
1.7294237690959122e+18,-0.011151128448545933,-0.008583039976656437,-0.01986774615943432
1.7294237691019123e+18,-0.012225043028593063,-0.007111825980246067,-0.02100912109017372
1.7294237691079124e+18,-0.010061394423246384,-0.008833804167807102,-0.02169114723801613
1.7294237691139126e+18,-0.007495424710214138,-0.00517218466848135,-0.021456386893987656
1.7294237691169126e+18,-0.009387933649122715,-0.008359103463590145,-0.03052138164639473
1.7294237691229128e+18,-0.008597174659371376,-0.008825264871120453,-0.023236319422721863
1.729423769128913e+18,-0.004950748756527901,-0.0074896011501550674,-0.02371400035917759
1.729423769134913e+18,-0.006218492519110441,-0.010997898876667023,-0.027575211599469185
1.729423769137913e+18,-0.005634609144181013,-0.007804198190569878,-0.026061180979013443
1.7294237691439132e+18,-0.006461183074861765,-0.010437020100653172,-0.028761185705661774
1.7294237691499133e+18,-0.01136075984686613,-0.012416757643222809,-0.028613274917006493
1.7294237691529134e+18,-0.008427312597632408,-0.011399977840483189,-0.029024166986346245
1.7294237691589135e+18,-0.009898172691464424,-0.010207150131464005,-0.027099164202809334
1.7294237691649137e+18,-0.010989688336849213,-0.009217362850904465,-0.030364099889993668
1.7294237691709138e+18,-0.013309923000633717,-0.0064279851503670216,-0.03115375153720379
1.7294237691739139e+18,-0.015201338566839695,-0.006198014132678509,-0.030009225010871887
1.729423769179914e+18,-0.010248326696455479,-0.00234839110635221,-0.03240633010864258
1.729423769185914e+18,-0.009290628135204315,-0.0018655725289136171,-0.03600192815065384
1.7294237691919142e+18,-0.006612561643123627,-0.005904742516577244,-0.035660065710544586
1.7294237691949143e+18,-0.007414801046252251,-0.005639105569571257,-0.03330586478114128
1.7294237692009144e+18,-0.006171468645334244,-0.008091731928288937,-0.037225306034088135
1.7294237692069146e+18,-0.006141595542430878,-0.0036436012014746666,-0.037247948348522186
1.7294237692129147e+18,-0.00711718900129199,-0.004938638769090176,-0.032601360231637955
1.7294237692159148e+18,-0.01091801282018423,-0.004781042225658894,-0.03713511303067207
1.729423769221915e+18,-0.013909157365560532,-0.002409084001556039,-0.03701329231262207
1.729423769227915e+18,-0.012224779464304447,-0.00521095423027873,-0.04073032736778259
1.7294237692339151e+18,-0.01581192947924137,-0.00222489470615983,-0.03898939490318298
1.7294237692369152e+18,-0.012701334431767464,-0.005435057915747166,-0.04160836711525917
1.7294237692429153e+18,-0.014658575877547264,-0.0007388232043012977,-0.04215388745069504
1.7294237692489155e+18,-0.011694934219121933,-0.0020249627996236086,-0.04165201261639595
1.7294237692519155e+18,-0.008242018520832062,-0.0028207728173583746,-0.043389637023210526
1.7294237692579156e+18,-0.00951018463820219,-0.004814404994249344,-0.04570064693689346
1.7294237692639158e+18,-0.009471099823713303,-0.0012997734593227506,-0.04683518409729004
1.729423769269916e+18,-0.006668726913630962,-0.003704069647938013,-0.04520564153790474
1.729423769275916e+18,-0.009218018501996994,-0.0006074956618249416,-0.0416787751019001
1.729423769278916e+18,-0.011679360643029213,-0.0003008039202541113,-0.0461818128824234
1.7294237692849162e+18,-0.0132115688174963,-0.001771574025042355,-0.04537662863731384
1.7294237692909164e+18,-0.01222322229295969,-0.00024600568576715887,-0.04571489617228508
1.7294237692939164e+18,-0.012216105125844479,0.0026304423809051514,-0.044463180005550385
1.7294237692999165e+18,-0.012893527746200562,0.0012104640481993556,-0.04769187420606613
1.7294237693059167e+18,-0.01739254593849182,0.0034926775842905045,-0.046125154942274094
1.7294237693089167e+18,-0.01279708556830883,-0.0001762985484674573,-0.04523156210780144
1.7294237693149169e+18,-0.015423319302499294,-0.0011035948991775513,-0.047739021480083466
1.729423769320917e+18,-0.011986866593360901,0.003015825990587473,-0.04672067239880562
1.729423769326917e+18,-0.009531551040709019,0.0007048563566058874,-0.04934818297624588
1.7294237693299172e+18,-0.008794989436864853,-0.0007367319194599986,-0.04677831009030342
1.7294237693359173e+18,-0.00818950030952692,0.002017072169110179,-0.04810725525021553
1.7294237693419174e+18,-0.009005670435726643,-0.0007942189695313573,-0.04756342992186546
1.7294237693479176e+18,-0.009050666354596615,0.0023567175958305597,-0.04705655202269554
1.7294237693539177e+18,-0.012103095650672913,0.0012292369501665235,-0.04895322769880295
1.7294237693569178e+18,-0.013742033392190933,0.001698679756373167,-0.052660588175058365
1.729423769362918e+18,-0.013229467906057835,0.0009557909797877073,-0.04989496245980263
1.729423769368918e+18,-0.018898842856287956,0.004359974525868893,-0.04831979051232338
1.7294237693749181e+18,-0.016271544620394707,0.0020674713887274265,-0.04601825773715973
1.7294237693779182e+18,-0.01373677235096693,0.004707973916083574,-0.048637162894010544
1.7294237693839183e+18,-0.017916038632392883,0.0014914865605533123,-0.05381636321544647
1.7294237693899185e+18,-0.014142477884888649,0.005372591782361269,-0.04994342476129532
1.7294237693959186e+18,-0.01185319758951664,0.008030395954847336,-0.050664130598306656
1.7294237693989187e+18,-0.012046482414007187,0.003628999926149845,-0.050656359642744064
1.7294237694049188e+18,-0.013316433876752853,0.0023571718484163284,-0.05278546363115311
1.729423769410919e+18,-0.010179364122450352,0.004808481782674789,-0.0489855632185936
1.729423769416919e+18,-0.012588919140398502,0.004151138011366129,-0.051228974014520645
1.729423769419919e+18,-0.011476431041955948,-0.0013931216672062874,-0.053790438920259476
1.7294237694259192e+18,-0.015634287148714066,0.003992941230535507,-0.05108583718538284
1.7294237694319194e+18,-0.015503065660595894,0.001281022559851408,-0.04898174852132797
1.7294237694379195e+18,-0.017727233469486237,0.005551611073315144,-0.051072463393211365
1.7294237694409196e+18,-0.01712566427886486,0.00894572027027607,-0.05144696310162544
1.7294237694469197e+18,-0.01633862964808941,0.006542123854160309,-0.05129869282245636
1.7294237694529198e+18,-0.014565171673893929,0.006917580962181091,-0.05119914188981056
1.7294237694559199e+18,-0.010668936185538769,0.008513299748301506,-0.049482084810733795
1.72942376946192e+18,-0.010424439795315266,0.0048324428498744965,-0.047812703996896744
1.7294237694679201e+18,-0.00933019444346428,0.003867621533572674,-0.04859452322125435
1.7294237694739203e+18,-0.009690788574516773,0.003985044080764055,-0.050675902515649796
1.7294237694799204e+18,-0.010755031369626522,0.002257268177345395,-0.05125478655099869
1.7294237694829204e+18,-0.011930262669920921,0.0034275678917765617,-0.04979712888598442
1.7294237694889206e+18,-0.011395572684705257,0.0014207330532371998,-0.049538299441337585
1.7294237694949207e+18,-0.013923282735049725,0.0013462792849168181,-0.05092673748731613
1.7294237695009208e+18,-0.01630338653922081,0.002028736984357238,-0.05169505253434181
1.729423769503921e+18,-0.013613739050924778,0.0014332305872812867,-0.04960808902978897
1.729423769509921e+18,-0.01367652602493763,0.0051949177868664265,-0.048233792185783386
1.7294237695159212e+18,-0.01285954937338829,0.00479112146422267,-0.049935612827539444
1.7294237695219213e+18,-0.015477019362151623,0.0059150513261556625,-0.053060729056596756
1.7294237695279214e+18,-0.013744608499109745,0.005041087977588177,-0.048612646758556366
1.7294237695309215e+18,-0.009756477549672127,0.004903210327029228,-0.04764324054121971
1.7294237695369216e+18,-0.012519801035523415,0.004537275526672602,-0.04782788082957268
1.7294237695429217e+18,-0.014276900328695774,0.005835407413542271,-0.05016027018427849
1.7294237695489219e+18,-0.01336221769452095,0.001214454066939652,-0.05113634467124939
1.729423769551922e+18,-0.014232715591788292,0.003092960687354207,-0.04900984466075897
1.729423769557922e+18,-0.01503071840852499,0.0018575936555862427,-0.051742471754550934
1.7294237695639222e+18,-0.013595991767942905,0.0025333960074931383,-0.048104144632816315
1.7294237695699223e+18,-0.014285418204963207,0.0014131760690361261,-0.05208815634250641
1.7294237695759224e+18,-0.01113811880350113,0.0036519274581223726,-0.04878964275121689
1.7294237695789225e+18,-0.01038172747939825,0.004258955828845501,-0.0503804087638855
1.7294237695849226e+18,-0.01244334690272808,0.003198010381311178,-0.04878893494606018
1.7294237695909228e+18,-0.009958915412425995,0.00740777375176549,-0.046746864914894104
1.729423769596923e+18,-0.009853226132690907,0.004602538421750069,-0.046318743377923965
1.729423769599923e+18,-0.012645379640161991,0.003688192693516612,-0.047560177743434906
1.729423769605923e+18,-0.013070925138890743,0.006736705545336008,-0.04796349257230759
1.7294237696119232e+18,-0.016796663403511047,0.0048818266950547695,-0.05401987582445145
1.7294237696149233e+18,-0.013032426126301289,0.005005598068237305,-0.04941019043326378
1.7294237696209234e+18,-0.016070596873760223,0.0025298085529357195,-0.04515249282121658
1.7294237696269235e+18,-0.015517327934503555,0.0020386511459946632,-0.04734966158866882
1.7294237696329236e+18,-0.015048270113766193,0.003013470210134983,-0.046956323087215424
1.7294237696359237e+18,-0.01369749940931797,0.0036897866521030664,-0.050623103976249695
1.7294237696419238e+18,-0.012724770233035088,0.004131767898797989,-0.04393293708562851
1.729423769647924e+18,-0.011393029242753983,0.0017725027864798903,-0.04617913067340851
1.729423769653924e+18,-0.00927189365029335,0.003202286548912525,-0.04529046639800072
1.7294237696569242e+18,-0.008678469806909561,0.00438300147652626,-0.04424700886011124
1.7294237696629243e+18,-0.00839457381516695,0.0011700330069288611,-0.04373848810791969
1.7294237696689244e+18,-0.0131972786039114,0.0007246288005262613,-0.04756547510623932
1.7294237696749245e+18,-0.011278976686298847,0.0014714779099449515,-0.04473915323615074
1.7294237696779246e+18,-0.011505825445055962,0.0012113202828913927,-0.04563475772738457
1.7294237696839247e+18,-0.012703295797109604,-0.0013431301340460777,-0.0444735623896122
1.7294237696899249e+18,-0.012702228501439095,0.0016514608869329095,-0.043275970965623856
1.729423769695925e+18,-0.014978116378188133,-0.0036053687799721956,-0.04226969927549362
1.729423769698925e+18,-0.014467372559010983,0.003317894646897912,-0.042144786566495895
1.7294237697049252e+18,-0.015901604667305946,0.0010908306576311588,-0.041038066148757935
1.7294237697109253e+18,-0.011719928123056889,0.0020426264964044094,-0.04080885276198387
1.7294237697169254e+18,-0.010325188748538494,0.0010841508628800511,-0.04210297763347626
1.7294237697229256e+18,-0.012817627750337124,0.0019068220863118768,-0.039054062217473984
1.7294237697259256e+18,-0.006193347740918398,0.0025173951871693134,-0.04052795097231865
1.7294237697319258e+18,-0.010600559413433075,0.002302015433087945,-0.037208765745162964
1.729423769737926e+18,-0.01144368015229702,-0.000886526657268405,-0.03889714553952217
1.729423769743926e+18,-0.008562147617340088,0.003927061799913645,-0.03448190167546272
1.729423769746926e+18,-0.012453281320631504,0.0030862190760672092,-0.0381808802485466
1.7294237697529262e+18,-0.010782401077449322,0.0029107225127518177,-0.03656294196844101
1.7294237697589263e+18,-0.014856062829494476,0.0027982075698673725,-0.034446652978658676
1.7294237697649265e+18,-0.012452026829123497,0.005571659654378891,-0.03444243222475052
1.7294237697709266e+18,-0.010468531399965286,0.001957974163815379,-0.03346678242087364
1.7294237697739267e+18,-0.01291823573410511,0.0034028752706944942,-0.03354932367801666
1.7294237697799268e+18,-0.012089263647794724,0.004522097762674093,-0.032239239662885666
1.729423769785927e+18,-0.011352072469890118,0.00185648282058537,-0.031826168298721313
1.729423769791927e+18,-0.00917243491858244,0.001088616787455976,-0.03239220008254051
1.729423769794927e+18,-0.009146913886070251,0.0011758038308471441,-0.03285714611411095
1.7294237698009272e+18,-0.00900479406118393,0.0043075536377727985,-0.03402911499142647
1.7294237698069274e+18,-0.009595520794391632,0.0017380688805133104,-0.030887030065059662
1.7294237698129275e+18,-0.009275072254240513,0.0008620673324912786,-0.03007437102496624
1.7294237698159276e+18,-0.007026895880699158,0.0005483427084982395,-0.030609752982854843
1.7294237698219277e+18,-0.01121562160551548,0.0030693423468619585,-0.02810775488615036
1.7294237698279278e+18,-0.011235134676098824,0.002545734401792288,-0.028361493721604347
1.729423769833928e+18,-0.007097790017724037,0.004464024677872658,-0.027402497828006744
1.729423769839928e+18,-0.01101603638380766,0.0022859203163534403,-0.024940643459558487
1.729423769842928e+18,-0.008956766687333584,0.0051310500130057335,-0.027483610436320305
1.7294237698489283e+18,-0.009116473607718945,0.0019288260955363512,-0.02262822538614273
1.7294237698549284e+18,-0.007183096371591091,0.004163686651736498,-0.024141613394021988
1.7294237698609285e+18,-0.011399009265005589,0.0002485085278749466,-0.025483770295977592
1.7294237698669286e+18,-0.008018826134502888,0.0036672307178378105,-0.020394550636410713
1.7294237698699287e+18,-0.006806576624512672,0.0014225783525034785,-0.02259845845401287
1.7294237698759288e+18,-0.00890858843922615,0.0021704556420445442,-0.021540092304348946
1.729423769881929e+18,-0.011343516409397125,0.000848582829348743,-0.020770419389009476
1.729423769887929e+18,-0.011312536895275116,0.0018155052093788981,-0.01686924882233143
1.7294237698939292e+18,-0.013073340989649296,0.003976627718657255,-0.018769893795251846
1.7294237698999293e+18,-0.011135720647871494,0.0049437363632023335,-0.018320951610803604
1.7294237699029294e+18,-0.011797732673585415,0.004605114925652742,-0.019343337044119835
1.7294237699089295e+18,-0.008604824542999268,0.003605227917432785,-0.01867508701980114
1.7294237699149297e+18,-0.01206644345074892,0.004203595221042633,-0.01845739595592022
1.7294237699209298e+18,-0.010997455567121506,0.003270392306149006,-0.014598616398870945
1.7294237699239299e+18,-0.00899801217019558,0.0025117401964962482,-0.01332556176930666
1.72942376992993e+18,-0.008374601602554321,0.001103394664824009,-0.015895677730441093
1.72942376993593e+18,-0.007852958515286446,0.0026871799491345882,-0.012938235886394978
1.7294237699389302e+18,-0.007635447196662426,0.0038482281379401684,-0.012418444268405437
1.7294237699449303e+18,-0.008757765404880047,-0.0007745705079287291,-0.010738395154476166
1.7294237699509304e+18,-0.003648214042186737,0.004211724735796452,-0.01285545527935028
1.7294237699569306e+18,-0.006191703025251627,0.008244644850492477,-0.011613632552325726
1.7294237699629307e+18,-0.009153220802545547,0.0029544862918555737,-0.01088479533791542
1.7294237699689308e+18,-0.008111097849905491,0.006571673322468996,-0.011139917187392712
1.729423769971931e+18,-0.012113204225897789,0.007532534189522266,-0.011117445304989815
1.729423769977931e+18,-0.008705520071089268,0.007804833352565765,-0.008585314266383648
1.7294237699839311e+18,-0.008139320649206638,0.0073423832654953,-0.009530461393296719
1.7294237699899313e+18,-0.00614836486056447,0.006182120647281408,-0.010362141765654087
1.7294237699959314e+18,-0.004585403483361006,0.0031348757911473513,-0.008541964925825596
1.7294237699989315e+18,-0.0057981438003480434,0.002062782645225525,-0.008999049663543701
1.7294237700049316e+18,-0.006671924144029617,0.004033650271594524,-0.007467740681022406
1.7294237700109317e+18,-0.0028606047853827477,0.0030515282414853573,-0.006129881367087364
1.7294237700169318e+18,-0.004142608493566513,0.005260029807686806,-0.007416358683258295
1.729423770022932e+18,-0.005300066899508238,0.005258478689938784,-0.0055277240462601185
1.729423770025932e+18,-0.005389477591961622,0.006506332661956549,-0.005370816681534052
1.7294237700319322e+18,-0.00898864958435297,0.007057456765323877,-0.005692772567272186
1.7294237700379323e+18,-0.007078798022121191,0.004031330347061157,-0.007236084900796413
1.7294237700409324e+18,-0.004944572225213051,0.004468243569135666,-0.0028104677330702543
1.7294237700469325e+18,-0.009053699672222137,0.005414473824203014,-0.002925217617303133
1.7294237700529326e+18,-0.006131937261670828,0.0034679598174989223,-0.0019075156887993217
1.7294237700559327e+18,-0.009255798533558846,0.0065321652218699455,-0.0022145952098071575
1.7294237700619328e+18,-0.009237527847290039,0.0048111132346093655,-0.0036190447863191366
1.729423770067933e+18,-0.007396272383630276,0.005045229569077492,-0.0021153204143047333
1.729423770073933e+18,-0.007841123268008232,0.0027890698984265327,-0.0018677677726373076
1.7294237700799332e+18,-0.004397271201014519,0.007269203197211027,0.0003053703112527728
1.7294237700829332e+18,-0.005047493614256382,0.004988532513380051,-0.003180702216923237
1.7294237700889334e+18,-0.010583242401480675,0.004243098199367523,4.33741370216012e-05
1.7294237700949335e+18,-0.008658324368298054,0.006605756469070911,0.0011452208273112774
1.7294237701009336e+18,-0.008495543152093887,0.0035489406436681747,-0.0005358483176678419
1.7294237701069338e+18,-0.0055353716015815735,0.0037637166678905487,-0.0003924604970961809
1.7294237701099338e+18,-0.009984966367483139,0.001996384235098958,-0.0001057962654158473
1.729423770115934e+18,-0.007630038540810347,0.003331943182274699,0.0036592476535588503
1.729423770121934e+18,-0.004355539567768574,0.00016818265430629253,0.0020813103765249252
1.7294237701279342e+18,-0.0029072160832583904,0.0015353255439549685,0.002018969040364027
1.7294237701309343e+18,-0.005459505133330822,0.0016228370368480682,0.0037676224019378424
1.7294237701369344e+18,-0.004577412735670805,0.0040597254410386086,0.0038873993325978518
1.7294237701429345e+18,-0.0033524534665048122,0.004175473935902119,0.0016329677309840918
1.7294237701489347e+18,-0.005194430239498615,0.006312016863375902,0.005611594766378403
1.7294237701549348e+18,-0.007739790249615908,0.0047859433107078075,0.0055737365037202835
1.7294237701579348e+18,-0.005134786479175091,0.005699601024389267,0.0039314040914177895
1.729423770163935e+18,-0.010820334777235985,0.008251888677477837,0.007364305667579174
1.729423770169935e+18,-0.007682248018682003,0.0043843272142112255,0.007776434533298016
1.7294237701759352e+18,-0.006673862691968679,0.0052803996950387955,0.007267056033015251
1.7294237701819354e+18,-0.010208645835518837,0.002502633724361658,0.0058450521901249886
1.7294237701849354e+18,-0.012568069621920586,0.0020295518916100264,0.011344430968165398
1.7294237701909356e+18,-0.01848285086452961,0.00021677592303603888,0.007215233985334635
1.7294237701969357e+18,-0.02425294555723667,0.0007362497271969914,0.00971263088285923
1.7294237702029358e+18,-0.025856109336018562,0.003772519761696458,0.007279584649950266
1.7294237702059359e+18,-0.029475854709744453,0.004401713144034147,0.006532356142997742
1.729423770211936e+18,-0.03170500323176384,0.008342845365405083,0.008779912255704403
1.7294237702179361e+18,-0.03271297365427017,0.008222353644669056,0.0075348238460719585
1.7294237702239363e+18,-0.03260926902294159,0.010878502391278744,0.010099731385707855
1.7294237702269363e+18,-0.02909807488322258,0.008054631762206554,0.007803780026733875
1.7294237702329364e+18,-0.029559047892689705,0.008605417795479298,0.006816990673542023
1.7294237702389366e+18,-0.027495669201016426,0.007754589896649122,0.007540422026067972
1.7294237702449367e+18,-0.02903580851852894,0.0037055916618555784,0.008575821295380592
1.7294237702509368e+18,-0.031071893870830536,0.0002825050614774227,0.006659283302724361
1.729423770256937e+18,-0.030996330082416534,0.006318059749901295,0.0072243609465658665
1.729423770262937e+18,-0.03155321627855301,0.005352504551410675,0.008624456822872162
1.7294237702659372e+18,-0.033600129187107086,0.001693529775366187,0.006899260450154543
1.7294237702719373e+18,-0.03599388152360916,0.005748137831687927,0.006660873536020517
1.7294237702779374e+18,-0.03287164866924286,0.008315852843225002,0.0039800177328288555
1.7294237702839375e+18,-0.03224935755133629,0.006058858707547188,0.008290810510516167
1.7294237702869376e+18,-0.029718169942498207,0.007819699123501778,0.005300608463585377
1.7294237702929377e+18,-0.0304984450340271,0.005088249687105417,0.008095300756394863
1.7294237702989379e+18,-0.02834409661591053,0.0029401208739727736,0.004232706502079964
1.729423770304938e+18,-0.02761934883892536,0.0006387245375663042,0.00877328310161829
1.729423770307938e+18,-0.024931207299232483,0.003815729171037674,0.006403854116797447
1.7294237703139382e+18,-0.02476770430803299,0.004733453504741192,0.008672360330820084
1.7294237703199383e+18,-0.027882998809218407,0.0037566456012427807,0.006707789842039347
1.7294237703259384e+18,-0.02636602148413658,0.00531510217115283,0.003112410195171833
1.7294237703289385e+18,-0.025472383946180344,0.0051848627626895905,0.009324638172984123
1.7294237703349386e+18,-0.024483591318130493,0.006327270530164242,0.006320688873529434
1.7294237703409388e+18,-0.026841310784220695,0.006727605126798153,0.005147600546479225
1.729423770346939e+18,-0.02547495625913143,0.008490918204188347,0.005579207092523575
1.729423770349939e+18,-0.025459039956331253,0.0095062842592597,0.006737256422638893
1.729423770355939e+18,-0.024643288925290108,0.00897214561700821,0.003146587638184428
1.7294237703619392e+18,-0.021533973515033722,0.005350444000214338,0.006056067533791065
1.7294237703679393e+18,-0.01980234682559967,0.006596635095775127,0.006310335826128721
1.7294237703709394e+18,-0.020684901624917984,0.007452432997524738,0.005413375794887543
1.7294237703769395e+18,-0.0168067067861557,0.00692873727530241,0.005689944140613079
1.7294237703829396e+18,-0.017225440591573715,0.006019440479576588,0.007028808817267418
1.7294237703889398e+18,-0.016471149399876595,0.0034858263097703457,0.00640915147960186
1.7294237703919398e+18,-0.01740017905831337,0.004466584417968988,0.007303293328732252
1.72942377039794e+18,-0.017095068469643593,0.000893301097676158,0.004895884543657303
1.72942377040394e+18,-0.01652803085744381,0.0026862965896725655,0.003940868191421032
1.7294237704099402e+18,-0.017608484253287315,0.0026555885560810566,0.0036037308163940907
1.7294237704129403e+18,-0.015877166762948036,0.0036720777861773968,0.003602144308388233
1.7294237704189404e+18,-0.01562114804983139,0.003786312183365226,0.005785198882222176
1.7294237704249405e+18,-0.013903336599469185,0.003296074690297246,0.0025452752597630024
1.7294237704309407e+18,-0.014341708272695541,0.004646575544029474,0.005105465650558472
1.7294237704339407e+18,-0.014734704047441483,0.002799517009407282,0.008740979246795177
1.7294237704399409e+18,-0.012237828224897385,0.0007739922730252147,0.0029388582333922386
1.729423770445941e+18,-0.006705961190164089,0.0003341499250382185,0.005553673021495342
1.729423770451941e+18,-0.010304570198059082,0.003593588247895241,0.002524497453123331
1.7294237704549412e+18,-0.006399352569133043,0.002836198778823018,0.006204156205058098
1.7294237704609413e+18,-0.004378316458314657,0.0013327761553227901,0.00561347184702754
1.7294237704669414e+18,-0.006429133005440235,0.0018238106276839972,0.003613154636695981
1.7294237704729416e+18,-0.0033235561568289995,0.0006142028141766787,0.004407069180160761
1.7294237704759416e+18,-0.00045332731679081917,0.0011564403539523482,0.002387763001024723
1.7294237704819418e+18,-0.003610152518376708,-0.0005835005431436002,0.006465031299740076
1.729423770487942e+18,-0.003209338989108801,-0.0004414779250510037,0.005232436582446098
1.729423770493942e+18,0.0022450776305049658,-0.0023986143060028553,0.0021788787562400103
1.7294237704999421e+18,-0.002548864111304283,-0.0025542299263179302,0.002755127614364028
1.7294237705029422e+18,0.000134375412017107,0.0005857786745764315,0.0020177618134766817
1.7294237705089423e+18,-0.002288705902174115,-0.003105217358097434,0.0007234176155179739
1.7294237705149425e+18,-0.0010482548968866467,-0.0016880105249583721,0.00337132066488266
1.7294237705209426e+18,-0.002694477094337344,0.0013416365254670382,0.0019126420374959707
1.7294237705239427e+18,-0.00488964281976223,0.0005475518992170691,0.005409697070717812
1.7294237705299428e+18,-0.0016295870300382376,0.004451572895050049,0.0030475882813334465
1.729423770535943e+18,-0.004447736777365208,0.0020320992916822433,0.004246904980391264
1.729423770541943e+18,-0.004645866807550192,0.001979855354875326,0.005434631835669279
1.729423770544943e+18,0.0008157552219927311,0.0012496178969740868,0.0036952076479792595
1.7294237705509432e+18,-0.001701220404356718,0.0014349694829434156,0.0038137761875987053
1.7294237705569434e+18,0.0016201214166358113,0.0005777462502010167,0.0005071309860795736
1.7294237705629435e+18,0.000680403143633157,-0.0025093748699873686,0.004045072942972183
1.7294237705659436e+18,0.0010802608449012041,0.001435222220607102,0.0019168463768437505
1.7294237705719437e+18,0.0021464687306433916,-0.0010568549623712897,0.004000543616712093
1.7294237705779438e+18,-0.003076145425438881,5.1733513828366995e-06,0.0036039496771991253
1.729423770580944e+18,-0.00189529312774539,0.0010954099707305431,0.003521532518789172
1.729423770586944e+18,-0.005721925292164087,0.0027820724062621593,0.0033260793425142765
1.729423770592944e+18,-0.004451191518455744,0.0028393841348588467,0.004849320277571678
1.7294237705989443e+18,-0.0035279039293527603,0.0025864990893751383,0.0020075184293091297
1.7294237706049444e+18,-0.003298930823802948,0.003998007625341415,0.003910565283149481
1.7294237706079444e+18,-0.0033964409958571196,0.004470774903893471,0.004829693119972944
1.7294237706139446e+18,-0.001930591301061213,0.0048333266749978065,0.002775313798338175
1.7294237706199447e+18,0.0023571690544486046,-0.0002187616191804409,0.002351989969611168
1.7294237706259448e+18,0.00398656539618969,-0.0012487779604271054,0.001462168525904417
1.729423770628945e+18,0.004135779105126858,0.0013284551678225398,0.0036638807505369186
1.729423770634945e+18,0.003807793138548732,-0.0027535962872207165,0.0027725340332835913
1.7294237706409452e+18,0.004447653889656067,-0.0015153971035033464,0.003951207734644413
1.7294237706469453e+18,0.0015621527563780546,0.001482142717577517,0.003068924183025956
1.7294237706499453e+18,0.004243597388267517,-0.0007435820298269391,0.001349605736322701
1.7294237706559455e+18,-0.0026928556617349386,0.002173002576455474,0.005821367725729942
1.7294237706619456e+18,-0.002892810385674238,0.0028873083647340536,0.0032837442122399807
1.7294237706679457e+18,-0.005210839677602053,0.0038795722648501396,0.004129665903747082
1.7294237706709458e+18,-0.006427326239645481,0.0027241103816777468,0.0031712441705167294
1.729423770676946e+18,-0.005918169394135475,0.003823630977421999,0.0010689907940104604
1.729423770682946e+18,-0.0038676050025969744,-3.602530341595411e-05,0.003920891787856817
1.729423770685946e+18,-0.00295251258648932,-0.0008662045001983643,0.0008043177658692002
1.7294237706919462e+18,-0.005118180997669697,-0.0005671962862834334,0.000338058453053236
1.7294237706979464e+18,-0.0016759808640927076,-0.0040334491059184074,0.0014704025816172361
1.7294237707039465e+18,0.0002582416054792702,-0.0032528159208595753,0.0020471683237701654
1.7294237707099466e+18,0.0023471261374652386,-0.0042030480690300465,0.001778183039277792
1.7294237707129467e+18,-0.0007778228027746081,-0.0021899123676121235,0.0023994294460862875
1.7294237707189468e+18,0.0036545966286212206,-0.0032761250622570515,0.0018511498346924782
1.729423770724947e+18,0.0009618853218853474,-0.0015936363488435745,0.0017942930571734905
1.729423770730947e+18,-0.0016704429872334003,0.002144088037312031,-0.002146603772416711
1.7294237707339471e+18,0.002250390127301216,0.002265941584482789,0.000837899511680007
1.7294237707399473e+18,0.0001300415606237948,0.00443657673895359,0.0028362139128148556
1.7294237707459474e+18,0.001533086528070271,5.6978315114974976e-06,0.005053003318607807
1.7294237707489475e+18,-0.0005200058221817017,0.0005552349612116814,-0.000671454006806016
1.7294237707549476e+18,0.00010646239388734102,0.0004745848709717393,0.0004336151760071516
1.7294237707609477e+18,0.0006343318382278085,-0.0024830142501741648,0.0015847069444134831
1.7294237707669478e+18,0.004662269726395607,-0.002811049809679389,0.005487700924277306
1.729423770772948e+18,0.0034755575470626354,-0.004270949866622686,-0.0029051965102553368
1.729423770775948e+18,0.004599536303430796,-0.0038362338673323393,0.0016136118210852146
1.7294237707819482e+18,0.005727532785385847,0.001118548447266221,0.0021413376089185476
1.7294237707879483e+18,0.004973848350346088,-0.0027778898365795612,0.002376972697675228
1.7294237707939484e+18,0.007893973961472511,-0.0031205422710627317,0.0023459873627871275
1.7294237707999485e+18,0.0032158480025827885,-0.002589654875919223,0.001441898406483233
1.7294237708029486e+18,0.0054132165387272835,0.0018045422621071339,0.0016980180516839027
1.7294237708089487e+18,0.00536965299397707,-0.0025080200284719467,0.002587763359770179
1.7294237708149489e+18,0.005469133146107197,-0.0019549403805285692,0.001115288119763136
1.729423770817949e+18,0.0025068798568099737,-0.0033476119861006737,0.00384213263168931
1.729423770823949e+18,0.002376727992668748,-0.0011360628996044397,0.00111436250153929
1.7294237708299492e+18,0.002853953978046775,-0.005745161324739456,0.0023967281449586153
1.7294237708359493e+18,0.0047559188678860664,-0.0033603673800826073,0.0013345647603273392
1.7294237708389494e+18,2.9621878638863564e-05,-0.004370765760540962,0.004261501133441925
1.7294237708449495e+18,0.0030023411381989717,-0.002299955114722252,0.00017778214532881975
1.7294237708509496e+18,0.004100531339645386,0.0006566977826878428,0.001641258131712675
1.7294237708569498e+18,0.007250562775880098,-0.001182757900096476,0.0017479180824011564
1.7294237708599498e+18,0.006997984834015369,-0.002124977298080921,0.0012864158488810062
1.72942377086595e+18,0.0077616143971681595,0.0011428537545725703,0.0032723143231123686
1.72942377087195e+18,0.00467568589374423,-0.0017338268226012588,0.0009207588154822588
1.7294237708779502e+18,0.00577652407810092,-0.002697456395253539,0.0038413582369685173
1.7294237708839503e+18,0.0035184959415346384,-0.004986054729670286,0.0008700669859535992
1.7294237708869504e+18,0.004474953282624483,-0.0004834358114749193,0.0001919030910357833
1.7294237708929505e+18,0.0016002051997929811,-0.004059138707816601,0.0036375911440700293
1.7294237708989507e+18,0.0025745867751538754,-0.006171593442559242,0.0016944771632552147
1.7294237709049508e+18,0.0020113226491957903,-0.002734351670369506,0.00355862220749259
1.7294237709079508e+18,0.0037122354842722416,-0.003538516815751791,0.00017176603432744741
1.729423770913951e+18,0.008058199658989906,-0.0022152946330606937,-0.0002939794212579727
1.729423770919951e+18,0.008227754384279251,-0.0011311523849144578,0.0020106923766434193
1.7294237709259512e+18,0.01418212428689003,-0.00023515382781624794,-6.748328451067209e-05
1.7294237709319514e+18,0.008878212422132492,-0.00023418536875396967,0.0011019355151802301
1.7294237709349514e+18,0.008611725643277168,-0.0031635831110179424,0.0012190134730190039
1.7294237709409516e+18,0.007996154017746449,0.0005767052061855793,-4.055234603583813e-05
1.7294237709469517e+18,0.005952932871878147,-0.0008870562305673957,0.00011041644029319286
1.7294237709499517e+18,0.005531627219170332,0.002130453707650304,-0.0008952032076194882
1.7294237709559519e+18,0.0031835869885981083,-0.0035491324961185455,-0.0016209213063120842
1.729423770961952e+18,0.0015525970375165343,-0.0007784194895066321,0.0009110622340813279
1.7294237709679521e+18,0.0014496742514893413,-0.0021393513306975365,-0.00038469128776341677
1.7294237709709522e+18,0.0063085490837693214,-0.0002663005143404007,0.004539760295301676
1.7294237709769523e+18,0.004792558494955301,-0.000877220241818577,0.0005704524810425937
1.7294237709829524e+18,0.005887695588171482,-0.0016903331270441413,0.0010395393474027514
1.7294237709889526e+18,0.009344862774014473,-0.0037378487177193165,0.0014314515283331275
1.7294237709949527e+18,0.014372053556144238,0.00228005088865757,-0.00024417764507234097
1.7294237709979528e+18,0.01032517571002245,0.00015271554002538323,-0.0010517827467992902
1.729423771003953e+18,0.009914807975292206,-0.0024651058483868837,-0.0013617707882076502
1.729423771009953e+18,0.01276339590549469,0.0032758470624685287,-0.0009118419839069247
1.729423771012953e+18,0.010130305774509907,0.001472613075748086,0.002763004507869482
1.7294237710189532e+18,0.008184021338820457,0.003787606954574585,0.0032158680260181427
1.7294237710249533e+18,0.00819411687552929,0.0024967726785689592,0.0021542140748351812
1.7294237710309535e+18,0.006629487033933401,-0.0006732912152074277,0.0014833564637228847
1.7294237710339535e+18,0.006589262746274471,-0.0017810362624004483,-0.0016138035571202636
1.7294237710399537e+18,0.009686978533864021,-0.0002405174309387803,0.0012178820325061679
1.7294237710459538e+18,0.00820518471300602,-0.0052718669176101685,0.003601975506171584
1.729423771051954e+18,0.00900357961654663,-0.0038880701176822186,-0.0003336010267958045
1.729423771057954e+18,0.014227379113435745,-0.0026613054797053337,-0.0019104632083326578
1.729423771060954e+18,0.011334778741002083,-0.0015950901433825493,0.0021964721381664276
1.7294237710669542e+18,0.015398414805531502,-0.006862325128167868,7.551093585789204e-05
1.7294237710729544e+18,0.016734983772039413,-0.0039089135825634,-0.0008494164794683456
1.7294237710759544e+18,0.013474803417921066,-0.0015320440288633108,4.919519415125251e-05
1.7294237710819546e+18,0.015999937430024147,-0.002508876146748662,0.0010555618209764361
1.7294237710879547e+18,0.012291056104004383,-0.0019106650725007057,0.0007641534321010113
1.7294237710939548e+18,0.012360455468297005,-0.0006057877908460796,0.0017144728917628527
1.729423771099955e+18,0.01212069671601057,-0.004940941464155912,0.0013581191888079047
1.729423771102955e+18,0.00956147164106369,0.000301106832921505,0.00026564684230834246
1.7294237711089551e+18,0.01097544003278017,0.0008342908695340157,0.0010688828770071268
1.7294237711149553e+18,0.01198582723736763,-0.001537706353701651,0.00031525292433798313
1.7294237711209554e+18,0.01395446714013815,-0.003384283045306802,0.0007434389553964138
1.7294237711269555e+18,0.01790481247007847,-0.005287322215735912,-0.0008066135924309492
1.7294237711299556e+18,0.015455535613000393,-0.004606354515999556,0.0010110491421073675
1.7294237711359557e+18,0.017863823100924492,-0.004261191934347153,0.0019791345112025738
1.7294237711419558e+18,0.016395756974816322,-0.0036124889738857746,0.0017660734010860324
1.729423771147956e+18,0.016787614673376083,-0.005623058881610632,0.0016717016696929932
1.729423771150956e+18,0.01564083807170391,-0.005486403591930866,-0.0005716460291296244
1.7294237711569562e+18,0.01769418641924858,-0.0024487138725817204,0.0009410581551492214
1.7294237711629563e+18,0.01617293991148472,-0.0029247840866446495,0.0026314961723983288
1.7294237711689564e+18,0.015529981814324856,-0.006295700557529926,-0.0018241056241095066
1.7294237711719565e+18,0.01401986088603735,-0.005288061685860157,0.0017098229145631194
1.7294237711779566e+18,0.013314904645085335,-0.004615577403455973,0.0028492966666817665
1.7294237711839567e+18,0.014006376266479492,-0.00679708831012249,-0.0018923012539744377
1.7294237711899569e+18,0.011188749223947525,-0.006157448515295982,0.0003132864076178521
1.729423771195957e+18,0.01075378991663456,-0.0060599250718951225,0.002729201689362526
1.729423771198957e+18,0.012895218096673489,-0.0063116345554590225,0.0010236231610178947
1.7294237712049572e+18,0.010725738480687141,-0.006269553676247597,0.0021332011092454195
1.7294237712109573e+18,0.009998388588428497,-0.0059908353723585606,-0.00013772699458058923
1.7294237712169574e+18,0.0120292529463768,-0.006834135390818119,-3.437676059547812e-05
1.7294237712229576e+18,0.010881969705224037,-0.005355720408260822,-2.719784970395267e-05
1.7294237712289577e+18,0.009154821746051311,-0.006385831627994776,0.0021966893691569567
1.7294237712349578e+18,0.011395765468478203,-0.004858983680605888,0.0024745306000113487
1.729423771237958e+18,0.01043397095054388,-0.0061339582316577435,0.0006313967751339078
1.729423771243958e+18,0.012756967917084694,-0.003542093327268958,-0.0013100146315991879
1.7294237712499581e+18,0.00958817545324564,-0.0059112729504704475,0.0030741733498871326
1.7294237712559583e+18,0.015563762746751308,-0.008449199609458447,0.00033047416945919394
1.7294237712619584e+18,0.013299688696861267,-0.004540164954960346,-0.0024610422551631927
1.7294237712679585e+18,0.015069348737597466,-0.0010018176399171352,-0.002157217590138316
1.7294237712709586e+18,0.014010311104357243,-0.004116959869861603,0.0023582791909575462
1.7294237712799588e+18,0.011801742017269135,-0.0020648743957281113,0.0006214778986759484
1.7294237712829588e+18,0.014906139113008976,-0.005239230580627918,-5.138339474797249e-05
1.729423771288959e+18,0.016102023422718048,-0.002074312884360552,0.0014561815187335014
1.729423771294959e+18,0.011753600090742111,-0.0038075391203165054,0.002148326952010393
1.7294237713009592e+18,0.01665223203599453,-0.0026399872731417418,0.0008657480357214808
1.7294237713069594e+18,0.014241722412407398,-0.005117838270962238,0.00035372833372093737
1.7294237713129595e+18,0.011473431251943111,-0.003320370800793171,2.9142858693376184e-05
1.7294237713189596e+18,0.011418008245527744,-0.005248663946986198,-0.0006749542662873864
1.7294237713219597e+18,0.012553948909044266,-0.0034135968890041113,-0.001262247678823769
1.7294237713279598e+18,0.011126120574772358,-0.0022760718129575253,-0.0008145332103595138
1.72942377133396e+18,0.011354608461260796,-0.004982116632163525,0.00034347642213106155
1.72942377133996e+18,0.012125423178076744,0.0002705564256757498,-0.0024132600519806147
1.7294237713459602e+18,0.012657019309699535,-0.004521893337368965,-0.0003166678361594677
1.7294237713519603e+18,0.01297063659876585,-0.0027182381600141525,-0.002162904478609562
1.7294237713579604e+18,0.01164225209504366,-0.006560040637850761,0.002299516461789608
1.7294237713639606e+18,0.014468987472355366,0.00029994058422744274,-0.0013125084806233644
