timestamp,accel_x,accel_y,accel_z
1.7294972975099254e+18,-0.06797724217176437,-0.010543161071836948,-9.792283058166504
1.7294972975189256e+18,0.021819794550538063,0.08117713034152985,-9.76126766204834
1.7294972975249257e+18,0.008953760378062725,0.06337761878967285,-9.799121856689453
1.729497297533926e+18,-0.04683990776538849,-0.00760057894513011,-9.762985229492188
1.729497297542926e+18,0.05025642737746239,-0.017302053049206734,-9.795076370239258
1.7294972975489262e+18,0.05323028564453125,0.03865000605583191,-9.758464813232422
1.7294972975579264e+18,0.02261270210146904,-0.05533907562494278,-9.851820945739746
1.7294972975639265e+18,0.11954127997159958,0.03742988407611847,-9.81873607635498
1.7294972975729267e+18,-0.030588902533054352,0.03895672783255577,-9.784525871276855
1.729497297581927e+18,0.047540780156850815,-0.017265036702156067,-9.816313743591309
1.729497297590927e+18,0.012954391539096832,0.01943223923444748,-9.854484558105469
1.7294972975969272e+18,-0.03704534471035004,0.023359062150120735,-9.863525390625
1.7294972976059274e+18,0.028295161202549934,0.0430682934820652,-9.815397262573242
1.7294972976119276e+18,0.004962838254868984,0.025774484500288963,-9.885558128356934
1.7294972976209277e+18,-0.03274273872375488,0.0082998750731349,-9.888938903808594
1.729497297629928e+18,-0.04915238916873932,-0.061519600450992584,-9.933469772338867
1.729497297635928e+18,0.008256370201706886,0.019478678703308105,-9.768108367919922
1.7294972976449283e+18,-0.08670414984226227,0.03383084386587143,-9.765547752380371
1.7294972976539284e+18,-0.006999417208135128,-0.020466525107622147,-9.79356861114502
1.7294972976629286e+18,-0.006383756175637245,8.274905849248171e-05,-9.789380073547363
1.7294972976719288e+18,0.025608915835618973,-0.027137013152241707,-9.826753616333008
1.729497297683929e+18,0.024882201105356216,0.10676633566617966,-9.851977348327637
1.7294972976899292e+18,0.014131097123026848,0.0726105123758316,-9.84044075012207
1.7294972976989294e+18,-0.023059256374835968,0.04119911789894104,-9.830164909362793
1.7294972977079296e+18,0.030129455029964447,-0.05804431810975075,-9.776330947875977
1.7294972977139297e+18,0.025003964081406593,0.019520891830325127,-9.73379898071289
1.72949729772293e+18,0.10533950477838516,0.030680054798722267,-9.820440292358398
1.72949729773193e+18,-0.0610458143055439,-0.03432898595929146,-9.8118257522583
1.7294972977379302e+18,0.002780931768938899,-0.042757097631692886,-9.824028968811035
1.7294972977469304e+18,-0.002448938088491559,-0.03200477734208107,-9.838536262512207
1.7294972977559306e+18,0.03496536612510681,0.06042371690273285,-9.793760299682617
1.7294972977619308e+18,0.0019153940957039595,0.060416072607040405,-9.739974975585938
1.729497297770931e+18,-0.04611661657691002,-0.0024572231341153383,-9.73849105834961
1.729497297776931e+18,-0.029018348082900047,0.07161501795053482,-9.852377891540527
1.7294972977859313e+18,-0.0647120326757431,0.01442652102559805,-9.728656768798828
1.7294972977949315e+18,-0.13833266496658325,-0.02762487716972828,-9.81666374206543
1.7294972978009316e+18,-0.033805642277002335,-0.011831063777208328,-9.78325080871582
1.7294972978099318e+18,-0.04233172535896301,0.018396694213151932,-9.791766166687012
1.729497297818932e+18,-0.041767142713069916,-0.012406996451318264,-9.770078659057617
1.7294972978279322e+18,-0.04997745528817177,0.01890239492058754,-9.775198936462402
1.7294972978339323e+18,0.030071916058659554,-0.048383962363004684,-9.78173542022705
1.7294972978429325e+18,-0.04228586703538895,0.025310514494776726,-9.84769344329834
1.7294972978519327e+18,0.052252259105443954,0.031938448548316956,-9.780606269836426
1.7294972978579328e+18,0.03504267707467079,0.06832165271043777,-9.833516120910645
1.729497297866933e+18,0.013531549833714962,-0.0662909522652626,-9.757627487182617
1.729497297872933e+18,0.010790575295686722,0.0249027106910944,-9.752031326293945
1.7294972978819333e+18,-0.08807218074798584,0.005889393389225006,-9.936671257019043
1.7294972978909335e+18,0.02469009906053543,-0.03040715679526329,-9.879944801330566
1.7294972978999337e+18,-0.021445684134960175,-0.025424472987651825,-9.825400352478027
1.7294972979059338e+18,0.05583017319440842,-0.05139335244894028,-9.786308288574219
1.729497297914934e+18,-0.07443680614233017,0.021504295989871025,-9.798110008239746
1.7294972979239342e+18,-0.05684006214141846,0.020811492577195168,-9.712348937988281
1.7294972979299343e+18,0.03000887669622898,0.07494847476482391,-9.81863021850586
1.7294972979389345e+18,-0.000872843200340867,0.009063871577382088,-9.80696964263916
1.7294972979449347e+18,0.05887192487716675,0.011088949628174305,-9.8095703125
1.7294972979539348e+18,-0.053571492433547974,0.019917763769626617,-9.86047077178955
1.729497297962935e+18,-0.02663305029273033,0.03173087537288666,-9.857592582702637
1.7294972979719352e+18,-0.03662561997771263,-0.029480580240488052,-9.810994148254395
1.7294972979809354e+18,-0.06310038268566132,0.053028933703899384,-9.81911563873291
1.7294972979899356e+18,-0.0016573697794228792,0.03831161558628082,-9.77247428894043
1.7294972979989358e+18,0.08810171484947205,-0.011761480011045933,-9.791399955749512
1.729497298004936e+18,-0.024261046200990677,0.06720837205648422,-9.81950855255127
1.729497298013936e+18,0.03643377125263214,0.011234624311327934,-9.781081199645996
1.7294972980229363e+18,0.018777702003717422,0.05621714890003204,-9.763914108276367
1.7294972980319365e+18,-0.04534044861793518,-0.08735821396112442,-9.837335586547852
1.7294972980379366e+18,0.013396704569458961,-0.03281605243682861,-9.79540729522705
1.7294972980469368e+18,-0.05540495365858078,-0.044552549719810486,-9.761065483093262
1.729497298052937e+18,0.09168810397386551,-0.030742496252059937,-9.839460372924805
1.7294972980619372e+18,0.019280225038528442,0.030768226832151413,-9.82871150970459
1.7294972980709373e+18,-0.011394087225198746,-0.015115798451006413,-9.806888580322266
1.7294972980769375e+18,0.007783206645399332,-0.058547601103782654,-9.784960746765137
1.7294972980859377e+18,-0.03330745920538902,0.043436337262392044,-9.832727432250977
1.7294972980949379e+18,-0.033210914582014084,0.0923352912068367,-9.886423110961914
1.729497298100938e+18,0.020715676248073578,-0.021199828013777733,-9.8884916305542
1.7294972981099382e+18,-0.03256039693951607,0.07813970744609833,-9.822279930114746
1.7294972981159383e+18,0.060094594955444336,-0.09266927093267441,-9.699539184570312
1.7294972981249385e+18,0.08631595224142075,0.054742489010095596,-9.763388633728027
1.7294972981309386e+18,0.00836693961173296,0.015130654908716679,-9.784747123718262
1.7294972981399388e+18,0.0181718897074461,-0.06524699181318283,-9.836878776550293
1.729497298148939e+18,0.04267698898911476,-0.041327062994241714,-9.806549072265625
1.7294972981549391e+18,-0.03175075352191925,-0.025391310453414917,-9.791255950927734
1.7294972981639393e+18,0.010185481049120426,0.03317006304860115,-9.824414253234863
1.7294972981699395e+18,0.02826991304755211,0.07430257648229599,-9.812490463256836
1.7294972981819397e+18,-0.00609575817361474,0.03536127135157585,-9.738290786743164
1.7294972981879398e+18,-0.006486749276518822,-0.028802664950489998,-9.800381660461426
1.72949729819694e+18,-0.02005654014647007,-0.03411949425935745,-9.807511329650879
1.7294972982059402e+18,0.030153531581163406,0.006398382596671581,-9.862297058105469
1.7294972982119404e+18,-0.006847868207842112,-0.12918592989444733,-9.85096549987793
1.7294972982209405e+18,-0.07729925960302353,-0.08119788765907288,-9.819440841674805
1.7294972982299407e+18,-0.018324753269553185,-0.028976714238524437,-9.836158752441406
1.729497298238941e+18,0.0001768433430697769,-0.004573397804051638,-9.84589958190918
1.729497298247941e+18,0.07125534117221832,-0.014678946696221828,-9.723577499389648
1.7294972982539412e+18,0.022553253918886185,0.002146773738786578,-9.790642738342285
1.7294972982629414e+18,0.020736627280712128,-0.048736680299043655,-9.768914222717285
1.7294972982719416e+18,-0.019727716222405434,-0.008923842571675777,-9.791361808776855
1.7294972982779418e+18,0.10866610705852509,-0.02727215364575386,-9.874222755432129
1.729497298283942e+18,0.05394357815384865,-0.006159899290651083,-9.859874725341797
1.729497298292942e+18,-0.03123822622001171,-0.036836862564086914,-9.806144714355469
1.7294972983019423e+18,0.04338923096656799,-0.019838592037558556,-9.775358200073242
1.7294972983109425e+18,-0.02281043864786625,0.08952809125185013,-9.814810752868652
1.7294972983169426e+18,0.04199735447764397,-0.01837657392024994,-9.835345268249512
1.7294972983259428e+18,0.028975974768400192,-0.020898452028632164,-9.78071403503418
1.729497298334943e+18,-0.04900996759533882,-0.03964622691273689,-9.80781364440918
1.7294972983439432e+18,0.026202844455838203,0.04010726884007454,-9.788342475891113
1.7294972983529434e+18,0.005140430759638548,0.08792993426322937,-9.788947105407715
1.7294972983589435e+18,-0.01813720539212227,0.05447624623775482,-9.85860538482666
1.7294972983679437e+18,0.0448581762611866,0.034396104514598846,-9.915061950683594
1.7294972983769439e+18,-0.00031884026248008013,0.054308824241161346,-10.015596389770508
1.729497298382944e+18,0.011649241670966148,0.007241390645503998,-10.011252403259277
1.7294972983919442e+18,0.03451881557703018,-0.008781555108726025,-10.124135971069336
1.7294972983979443e+18,-0.029645774513483047,0.003765678498893976,-10.13919448852539
1.7294972984069445e+18,-0.022370358929038048,-0.04283237084746361,-10.184106826782227
1.7294972984159447e+18,0.1239052340388298,0.02744600549340248,-10.188981056213379
1.7294972984219448e+18,0.06502608954906464,0.012362423352897167,-10.215256690979004
1.729497298430945e+18,-0.052084509283304214,-0.08211693912744522,-10.25125789642334
1.7294972984399452e+18,0.012204738333821297,0.03330434486269951,-10.307562828063965
1.7294972984459453e+18,0.030011549592018127,-0.043665893375873566,-10.369536399841309
1.7294972984549455e+18,-0.022301163524389267,-0.05996713414788246,-10.499011993408203
1.7294972984639457e+18,-0.01122204028069973,0.052059099078178406,-10.435705184936523
1.7294972984699459e+18,-0.003580604214221239,-0.009853018447756767,-10.498265266418457
1.729497298478946e+18,0.010529210790991783,0.023706747218966484,-10.6248140335083
1.7294972984879462e+18,0.03217924386262894,-0.09019165486097336,-10.612491607666016
1.7294972984939464e+18,-0.027095379307866096,0.0038087035063654184,-10.522432327270508
1.7294972985029466e+18,0.02071664296090603,-0.053386203944683075,-10.642791748046875
1.7294972985119468e+18,-0.10532943904399872,0.01943739503622055,-10.676336288452148
1.729497298517947e+18,-0.005684195086359978,0.0223939698189497,-10.67576789855957
1.729497298526947e+18,-0.021848591044545174,-0.012162317521870136,-10.758116722106934
1.7294972985359473e+18,0.09124085307121277,0.010078956373035908,-10.742703437805176
1.7294972985419474e+18,0.011033641174435616,0.02402345836162567,-10.734748840332031
1.7294972985509476e+18,-0.08733796328306198,-0.005996589548885822,-10.891830444335938
1.7294972985569477e+18,0.004620081279426813,-0.01967022567987442,-10.853217124938965
1.729497298565948e+18,-0.04300365597009659,0.037288159132003784,-10.878573417663574
1.729497298571948e+18,-0.02005023881793022,-0.07425523549318314,-10.937301635742188
1.7294972985809482e+18,-0.07147068530321121,0.03078930266201496,-10.908708572387695
1.7294972985899484e+18,0.03480548411607742,-0.04295085370540619,-10.927804946899414
1.7294972985959485e+18,0.010730547830462456,0.09145395457744598,-10.980555534362793
1.7294972986049487e+18,-0.02469746768474579,0.07072857022285461,-11.033223152160645
1.7294972986109489e+18,0.028571071103215218,0.05177270621061325,-11.048863410949707
1.729497298619949e+18,-0.06740287691354752,0.03293945640325546,-11.076101303100586
1.7294972986289492e+18,0.03229736164212227,0.0016585690900683403,-11.10293197631836
1.7294972986349494e+18,0.032138898968696594,0.006788697559386492,-11.218647003173828
1.7294972986439496e+18,-0.08899214118719101,-0.04176265746355057,-11.133345603942871
1.7294972986499497e+18,-0.0792933851480484,0.02193259820342064,-11.192506790161133
1.72949729865895e+18,0.025191564112901688,0.003249135799705982,-11.213241577148438
1.72949729866795e+18,-0.03765308856964111,-0.05913087725639343,-11.185126304626465
1.7294972986739502e+18,0.014096066355705261,-0.02215074934065342,-11.256304740905762
1.7294972986829504e+18,-0.021803656592965126,0.06123187020421028,-11.273649215698242
1.7294972986919506e+18,-0.010724930092692375,0.01633988507091999,-11.263389587402344
1.7294972987009508e+18,-0.0371769443154335,0.02638494223356247,-11.377460479736328
1.729497298709951e+18,0.03870090842247009,0.01214116346091032,-11.358708381652832
1.729497298715951e+18,-0.0213842261582613,0.021176550537347794,-11.328863143920898
1.7294972987249513e+18,0.007124637253582478,0.07309409230947495,-11.37828540802002
1.7294972987309514e+18,0.030657878145575523,-0.08230981230735779,-11.411456108093262
1.7294972987399516e+18,-0.02835782803595066,-0.019255617633461952,-11.338932991027832
1.7294972987489518e+18,-0.049548085778951645,-0.015705181285738945,-11.44129753112793
1.729497298754952e+18,-0.0026079716626554728,-0.020594554021954536,-11.433886528015137
1.729497298763952e+18,0.008958556689321995,-0.0006136216688901186,-11.508426666259766
1.7294972987729523e+18,0.1127326563000679,-0.052169233560562134,-11.490845680236816
1.7294972987789524e+18,-0.001640604343265295,-0.029139643535017967,-11.42428970336914
1.7294972987879526e+18,0.006114720832556486,0.0709131583571434,-11.49716854095459
1.7294972987969528e+18,0.007090442813932896,0.02740834280848503,-11.581504821777344
1.729497298805953e+18,0.06463323533535004,-0.010809981264173985,-11.494303703308105
1.7294972988119532e+18,-0.02056768909096718,0.03446629270911217,-11.611384391784668
1.7294972988209533e+18,0.008604560047388077,-0.0161216352134943,-11.549825668334961
1.7294972988269535e+18,0.007170983124524355,-0.02920004539191723,-11.545323371887207
1.7294972988359537e+18,0.0472421869635582,0.026327790692448616,-11.588226318359375
1.7294972988449539e+18,-0.028934866189956665,-0.06776569783687592,-11.545431137084961
1.729497298850954e+18,-0.01055089384317398,-0.03218216449022293,-11.73038101196289
1.7294972988599542e+18,0.009602028876543045,0.02926556020975113,-11.590437889099121
1.7294972988689544e+18,-0.0010078492341563106,0.06791985034942627,-11.709507942199707
1.7294972988749545e+18,-0.029795289039611816,-0.018676990643143654,-11.759018898010254
1.7294972988839547e+18,0.019988177344202995,-0.05183222144842148,-11.642021179199219
1.729497298892955e+18,-0.0174140352755785,0.018637150526046753,-11.609569549560547
1.729497298898955e+18,0.0069526126608252525,-0.020151905715465546,-11.714753150939941
1.7294972989079552e+18,-0.004689797759056091,0.004629781469702721,-11.70733642578125
1.7294972989169554e+18,-0.021468713879585266,0.058476563543081284,-11.78353500366211
1.7294972989229555e+18,0.09432915598154068,0.05242376774549484,-11.702064514160156
1.7294972989319557e+18,-0.05787505581974983,-0.041176825761795044,-11.829792976379395
1.729497298940956e+18,0.026609346270561218,0.01486876793205738,-11.790261268615723
1.729497298949956e+18,-0.03837180510163307,-0.03258718550205231,-11.824012756347656
1.7294972989559562e+18,0.012888028286397457,-0.048696666955947876,-11.753132820129395
1.7294972989679565e+18,-0.04280678927898407,-0.00476450938731432,-11.768806457519531
1.7294972989739566e+18,-0.029597990214824677,0.0023328079842031,-11.829365730285645
1.7294972989829568e+18,0.010159042663872242,-0.027825262397527695,-11.743485450744629
1.729497298988957e+18,0.020375115796923637,0.05172773450613022,-11.79432487487793
1.729497298997957e+18,0.02104472555220127,0.06409657001495361,-11.749554634094238
1.7294972990069573e+18,0.03446279093623161,0.06256900727748871,-11.807442665100098
1.7294972990129574e+18,-0.01166917197406292,-0.06326238811016083,-11.900850296020508
1.7294972990219576e+18,0.051013488322496414,-0.0004437054740265012,-11.861169815063477
1.7294972990309578e+18,0.08187516033649445,0.04632851108908653,-11.868860244750977
1.729497299036958e+18,-0.03323496878147125,-0.06047319248318672,-11.928494453430176
1.7294972990459581e+18,-0.06500080972909927,-0.02560296468436718,-11.870902061462402
1.7294972990519583e+18,-0.007505747023969889,0.005635366775095463,-11.861722946166992
1.7294972990609585e+18,0.03689435496926308,0.09371408075094223,-11.947441101074219
1.7294972990699587e+18,-0.003439660184085369,-0.034753959625959396,-11.843144416809082
1.7294972990759588e+18,-0.0176672525703907,0.016990123316645622,-11.814270973205566
1.729497299084959e+18,0.08086708933115005,-0.028180783614516258,-11.873608589172363
1.729497299090959e+18,-0.004128257278352976,-0.022391974925994873,-11.915246963500977
1.7294972990999593e+18,0.0024115981068462133,-0.02410506084561348,-11.929388046264648
1.7294972991089595e+18,0.025470344349741936,0.005315149202942848,-11.930265426635742
1.7294972991149596e+18,0.0042634326964616776,-0.062134791165590286,-11.945784568786621
1.7294972991239598e+18,-0.041775915771722794,0.11874964833259583,-11.991106033325195
1.72949729912996e+18,-0.06401611119508743,-0.0010301567381247878,-12.012722969055176
1.7294972991389601e+18,0.07239052653312683,-0.024446846917271614,-11.895601272583008
1.7294972991449603e+18,0.030690135434269905,-0.001452036900445819,-11.987252235412598
1.7294972991539604e+18,0.05117592588067055,0.02279386855661869,-11.923519134521484
1.7294972991629606e+18,-0.01008487120270729,-0.01213831827044487,-11.889166831970215
1.7294972991719608e+18,0.09912583976984024,-0.006412647198885679,-11.991813659667969
1.729497299177961e+18,0.060538191348314285,0.00011613097740337253,-11.966390609741211
1.7294972991869612e+18,-0.033820293843746185,-0.03550523519515991,-12.002914428710938
1.7294972991929613e+18,-0.009672834537923336,-0.014310948550701141,-12.060601234436035
1.7294972992019615e+18,-0.004894808866083622,0.06242892146110535,-12.019244194030762
1.7294972992109617e+18,0.022169537842273712,-0.03087562322616577,-11.988574981689453
1.7294972992199619e+18,0.012336335144937038,0.01809978112578392,-11.979955673217773
1.729497299225962e+18,0.020852230489253998,-0.05594533681869507,-11.93313217163086
1.7294972992349622e+18,0.06521985679864883,0.02482193149626255,-12.001951217651367
1.7294972992439624e+18,0.006026803515851498,-0.00206821970641613,-11.99277400970459
1.7294972992499625e+18,0.01089441031217575,0.028303956612944603,-11.98262882232666
1.7294972992649628e+18,-0.06278220564126968,0.0427778884768486,-12.021824836730957
1.729497299273963e+18,-0.04050933197140694,-0.00492276344448328,-11.90639877319336
1.7294972992799631e+18,0.050074756145477295,-0.09017346054315567,-11.96794319152832
1.7294972992889633e+18,-0.030424470081925392,0.009470024146139622,-12.01357364654541
1.7294972992949635e+18,0.013349522836506367,-0.04295332729816437,-12.015748023986816
1.7294972993039636e+18,0.02413560450077057,-0.0021319808438420296,-12.069732666015625
1.7294972993129638e+18,-0.01742532290518284,-0.008571705780923367,-12.01776123046875
1.729497299318964e+18,-0.013747388496994972,0.013385179452598095,-12.068864822387695
1.7294972993279642e+18,0.07685348391532898,-0.01873103715479374,-11.9949312210083
1.7294972993369644e+18,-0.004091426730155945,0.061417046934366226,-12.001768112182617
1.7294972993429645e+18,0.009397199377417564,0.04482834413647652,-12.033061027526855
1.7294972993519647e+18,-0.01662290468811989,0.0072210016660392284,-11.968796730041504
1.7294972993579648e+18,-0.0012637237086892128,-0.0029862963128834963,-12.059081077575684
1.729497299366965e+18,0.05466534569859505,-0.03491445630788803,-12.064598083496094
1.7294972993759652e+18,-0.04416158050298691,0.06246566027402878,-11.949506759643555
1.7294972993849654e+18,0.00778050534427166,-0.07613607496023178,-12.022741317749023
1.7294972993909655e+18,0.028279053047299385,0.08948881179094315,-12.082998275756836
1.7294972993999657e+18,0.018909644335508347,-0.005514714401215315,-11.985004425048828
1.7294972994059658e+18,-0.013543762266635895,-0.013240917585790157,-12.095003128051758
1.729497299414966e+18,-0.043553274124860764,0.026784595102071762,-11.94747257232666
1.7294972994239662e+18,0.024854766204953194,-0.05410999059677124,-12.04096508026123
1.7294972994299663e+18,0.03953541815280914,-0.03359871357679367,-12.01506519317627
1.7294972994389665e+18,-0.015858860686421394,-0.0407308004796505,-12.080182075500488
1.7294972994449667e+18,0.023159479722380638,-0.045689649879932404,-11.998980522155762
1.7294972994539668e+18,0.007713396102190018,0.011189749464392662,-11.976627349853516
1.729497299462967e+18,0.05031596124172211,0.03440419211983681,-11.97077465057373
1.7294972994719672e+18,0.010394992306828499,0.013752808794379234,-12.068991661071777
1.7294972994779674e+18,-0.017154069617390633,0.05332444980740547,-11.989812850952148
1.7294972994869676e+18,0.005465495400130749,0.0028154710307717323,-11.993000984191895
1.7294972994959677e+18,-0.02665751241147518,-0.037828799337148666,-12.111133575439453
1.729497299504968e+18,-0.0034583171363919973,0.014483736827969551,-11.965510368347168
1.729497299513968e+18,0.04501967877149582,-0.07043672353029251,-12.018763542175293
1.7294972995199683e+18,0.0155782550573349,0.08668916672468185,-12.02130126953125
1.7294972995289684e+18,0.013325761072337627,-0.026552090421319008,-11.994973182678223
1.7294972995349686e+18,-0.043608102947473526,-0.07096920162439346,-11.91207504272461
1.7294972995439688e+18,0.04529190436005592,-0.03827545419335365,-12.029136657714844
1.729497299552969e+18,-0.05570254102349281,0.06415402144193649,-11.935515403747559
1.729497299558969e+18,-0.07397528737783432,-0.0409085750579834,-11.932672500610352
1.7294972995679693e+18,0.005534183233976364,-0.014895128086209297,-11.888559341430664
1.7294972995769695e+18,-0.012821253389120102,0.0033494431991130114,-11.86345386505127
1.7294972995829696e+18,0.047019701451063156,-0.023806558921933174,-11.880728721618652
1.7294972995919698e+18,0.021603388711810112,0.0056744408793747425,-11.781482696533203
1.72949729959797e+18,-0.008226226083934307,-0.03698842227458954,-11.74392032623291
1.72949729960697e+18,-0.02786969020962715,0.02447923645377159,-11.732175827026367
1.7294972996159703e+18,-0.007481642998754978,0.03311215341091156,-11.64055061340332
1.7294972996309706e+18,0.05612112209200859,0.05702805519104004,-11.640762329101562
1.729497299642971e+18,0.05155261978507042,0.05241427570581436,-11.625030517578125
1.729497299648971e+18,-0.04051336646080017,-0.029582282528281212,-11.57199764251709
1.7294972996579712e+18,-0.0880933478474617,-0.0036230217665433884,-11.483428001403809
1.7294972996669714e+18,-0.04764052852988243,0.005273817107081413,-11.411273002624512
1.7294972996729715e+18,-0.061253566294908524,0.01578204147517681,-11.428122520446777
1.7294972996819717e+18,-0.030849799513816833,-0.05622848868370056,-11.409059524536133
1.729497299690972e+18,-0.0530923455953598,0.020510293543338776,-11.449254989624023
1.729497299699972e+18,0.05746442824602127,-0.059546127915382385,-11.365150451660156
1.7294972997089723e+18,-0.011205796152353287,0.03160420060157776,-11.362405776977539
1.7294972997149724e+18,0.015682488679885864,0.07063686847686768,-11.279426574707031
1.7294972997239726e+18,-0.10393238067626953,-0.010382598266005516,-11.279788970947266
1.7294972997299727e+18,0.0365842804312706,-0.025717880576848984,-11.273104667663574
1.729497299738973e+18,0.0218078400939703,0.030793899670243263,-11.201461791992188
1.729497299747973e+18,0.03763163834810257,-0.016894223168492317,-11.208250045776367
1.7294972997539732e+18,0.04128359630703926,-0.03603466600179672,-11.159843444824219
1.7294972997629734e+18,0.012372467666864395,-0.019513502717018127,-11.152125358581543
1.7294972997689736e+18,-0.013329404406249523,-0.0046348534524440765,-11.120722770690918
1.7294972997779738e+18,0.06631529331207275,0.03805844485759735,-11.086017608642578
1.729497299786974e+18,-0.005627774633467197,0.021961454302072525,-11.074175834655762
1.729497299792974e+18,-0.015973595902323723,0.002259946893900633,-11.077103614807129
1.7294972998019743e+18,0.03849095478653908,-0.03259557858109474,-10.987346649169922
1.7294972998079744e+18,-0.08599988371133804,0.06097299978137016,-10.98754596710205
1.7294972998169746e+18,0.028918392956256866,0.05549205094575882,-10.926813125610352
1.7294972998259748e+18,0.009730205871164799,0.024618756026029587,-10.910741806030273
1.729497299831975e+18,0.014743590727448463,0.07801438122987747,-10.922013282775879
1.729497299840975e+18,-0.008841583505272865,0.043508052825927734,-10.90362548828125
1.7294972998469752e+18,-0.08793338388204575,-0.021738242357969284,-10.8303804397583
1.7294972998559754e+18,-0.032787349075078964,0.05980672314763069,-10.843109130859375
1.7294972998649756e+18,0.0005747855757363141,0.005520766135305166,-10.916437149047852
1.7294972998709757e+18,-0.0024749680887907743,0.038323309272527695,-10.821303367614746
1.729497299879976e+18,-0.010821462608873844,0.03535442426800728,-10.84006404876709
1.7294972998889761e+18,0.06362830847501755,-0.009517011232674122,-10.768341064453125
1.7294972998979763e+18,0.07195908576250076,0.053687211126089096,-10.745772361755371
1.7294972999039764e+18,0.0023967998567968607,-0.06629583239555359,-10.76373291015625
1.7294972999129766e+18,-0.025583883747458458,0.043630603700876236,-10.740148544311523
1.7294972999219768e+18,0.050090596079826355,0.04236220195889473,-10.665520668029785
1.729497299927977e+18,0.003456604667007923,-0.02828465960919857,-10.659924507141113
1.7294972999369772e+18,0.1070256382226944,0.0535896010696888,-10.685131072998047
1.7294972999429773e+18,-0.056671999394893646,-0.05089745670557022,-10.680351257324219
1.7294972999519775e+18,0.020001763477921486,-0.008089488372206688,-10.605550765991211
1.7294972999609777e+18,-0.017078733071684837,-0.026841407641768456,-10.564186096191406
1.7294972999669778e+18,0.0031147031113505363,0.030986107885837555,-10.606078147888184
1.729497299975978e+18,0.09395401179790497,-0.06951786577701569,-10.592166900634766
1.7294972999849782e+18,-0.01468526292592287,0.06300120055675507,-10.620284080505371
1.7294972999939784e+18,-0.03248804062604904,0.031682126224040985,-10.546048164367676
1.7294972999999785e+18,0.04847447946667671,-0.01727883145213127,-10.601624488830566
1.7294973000089787e+18,-0.04181555658578873,0.05274292081594467,-10.588347434997559
1.729497300017979e+18,-0.03150865435600281,-0.02026243321597576,-10.497509956359863
1.729497300023979e+18,-0.029696587473154068,0.009414460510015488,-10.471920013427734
1.7294973000329792e+18,-0.05234946683049202,-0.026136573404073715,-10.512256622314453
1.7294973000419794e+18,-0.03767593950033188,0.04368465393781662,-10.505550384521484
1.7294973000509796e+18,0.006440762430429459,0.03218603506684303,-10.486690521240234
1.7294973000569797e+18,0.08512033522129059,0.054433681070804596,-10.421577453613281
1.72949730006598e+18,-0.05243633687496185,-0.030403558164834976,-10.401142120361328
1.72949730007198e+18,0.0697525218129158,-0.011216318234801292,-10.449614524841309
1.7294973000809802e+18,-0.0439395010471344,-0.05748526751995087,-10.45197582244873
1.7294973000899804e+18,-0.042393431067466736,0.05037971958518028,-10.413166046142578
1.7294973000959805e+18,-0.08481623977422714,0.016264550387859344,-10.379318237304688
1.7294973001049807e+18,-0.0013019666075706482,0.07734876871109009,-10.351008415222168
1.729497300113981e+18,0.06889275461435318,0.0021510289516299963,-10.366874694824219
1.729497300119981e+18,0.03837834671139717,-0.0211726613342762,-10.336502075195312
1.7294973001289812e+18,-0.01019234023988247,-0.07850207388401031,-10.366943359375
1.7294973001379814e+18,0.0596025288105011,-0.009001174941658974,-10.326654434204102
1.7294973001469816e+18,-0.022408876568078995,0.01327852439135313,-10.270005226135254
1.7294973001529818e+18,-0.07619602233171463,0.01841689832508564,-10.281057357788086
1.729497300161982e+18,-0.024184800684452057,-0.060653068125247955,-10.363783836364746
1.7294973001709821e+18,0.004764844663441181,-0.023455718532204628,-10.294158935546875
1.7294973001769823e+18,0.03395286202430725,-0.01503189280629158,-10.380061149597168
1.7294973001859825e+18,-0.019992588087916374,-0.019052933901548386,-10.31300163269043
1.7294973001949827e+18,-0.04675215482711792,0.08701635152101517,-10.24164867401123
1.7294973002009828e+18,-0.09229074418544769,-0.0030395512003451586,-10.260156631469727
1.729497300209983e+18,0.047919947654008865,-0.03832520544528961,-10.320568084716797
1.7294973002189832e+18,-0.034516822546720505,-0.0410805344581604,-10.201464653015137
1.7294973002279834e+18,-0.05061909928917885,-0.06746163964271545,-10.207493782043457
1.7294973002339835e+18,0.0009259306825697422,-0.028547871857881546,-10.219377517700195
1.7294973002429837e+18,-0.04848188906908035,0.05300920084118843,-10.148260116577148
1.7294973002489838e+18,0.002705426188185811,0.050310660153627396,-10.205207824707031
1.729497300257984e+18,0.018279027193784714,0.03173230215907097,-10.260534286499023
1.7294973002669842e+18,0.014695612713694572,-0.0033590556122362614,-10.17910385131836
1.7294973002729843e+18,-0.022790394723415375,-0.00697636092081666,-10.164295196533203
1.7294973002819845e+18,-0.013689901679754257,-0.04869312420487404,-10.15800952911377
1.7294973002909847e+18,0.008236064575612545,0.011441342532634735,-10.201253890991211
1.729497300299985e+18,-0.0661669671535492,0.0056931134313344955,-10.215559005737305
1.729497300308985e+18,-0.03763947635889053,0.021570811048150063,-10.149161338806152
1.7294973003179853e+18,0.00816800445318222,0.03913818299770355,-10.251786231994629
1.7294973003239854e+18,-0.001339656300842762,-0.06842320412397385,-10.05518913269043
1.7294973003329856e+18,-0.028839189559221268,-0.0023164628073573112,-10.10560131072998
1.7294973003419858e+18,0.0012512679677456617,-0.08556615561246872,-10.1637544631958
1.729497300350986e+18,0.01668422855436802,-0.049254681915044785,-10.069458961486816
1.729497300356986e+18,-0.1094544529914856,-0.006972147151827812,-10.11880111694336
1.7294973003659863e+18,0.009661991149187088,-0.041724465787410736,-10.12918758392334
1.7294973003749865e+18,0.01549928542226553,0.06000429764389992,-10.15855598449707
1.7294973003809866e+18,0.018306300044059753,0.07067819684743881,-10.157976150512695
1.7294973003899868e+18,-0.06357963383197784,0.03583916276693344,-10.034716606140137
1.729497300398987e+18,0.03021145984530449,-0.021710509434342384,-10.062209129333496
1.7294973004079872e+18,0.019643837586045265,-0.02527431771159172,-10.145729064941406
1.7294973004169874e+18,-0.004316665232181549,-0.038275863975286484,-10.048457145690918
1.7294973004229875e+18,-0.021723836660385132,0.033175259828567505,-10.06275463104248
1.7294973004319877e+18,-0.05705499276518822,-0.06501992046833038,-10.052436828613281
1.729497300440988e+18,-0.0072086891159415245,-0.02072804421186447,-10.011164665222168
1.729497300446988e+18,-0.05949511379003525,-0.06526128202676773,-10.120506286621094
1.7294973004559882e+18,0.006137415301054716,0.005524768028408289,-9.994441032409668
1.7294973004649884e+18,-0.04058988019824028,-0.0015340592944994569,-10.003411293029785
1.7294973004739886e+18,-0.07099649310112,-0.003885333426296711,-10.027027130126953
1.7294973004829888e+18,0.046223171055316925,0.03450331836938858,-10.060514450073242
1.729497300491989e+18,-0.01588636450469494,0.07070979475975037,-10.099145889282227
1.729497300497989e+18,0.02685130201280117,-0.050707876682281494,-10.038649559020996
1.7294973005069893e+18,0.05002586916089058,0.026752158999443054,-10.015868186950684
1.7294973005159895e+18,0.03576834499835968,0.015171476639807224,-9.927268981933594
1.7294973005219896e+18,0.006622396409511566,0.008400891907513142,-9.983352661132812
1.7294973005309898e+18,0.02932659164071083,-0.011018865741789341,-10.063444137573242
1.72949730053999e+18,0.0696803480386734,0.0004902909859083593,-9.965705871582031
1.7294973005489902e+18,0.005297011695802212,0.05386213958263397,-9.93156623840332
1.7294973005579904e+18,0.039308514446020126,-0.015385870821774006,-9.898364067077637
1.7294973005639905e+18,0.012645604088902473,0.0026555233635008335,-10.028298377990723
1.7294973005729907e+18,0.01456499844789505,-0.05263563618063927,-9.961182594299316
1.729497300581991e+18,0.0407232940196991,-0.004165137652307749,-9.977273941040039
1.729497300590991e+18,-0.008896473795175552,0.03882567957043648,-9.973113059997559
1.7294973005999913e+18,0.04092519357800484,0.005522618070244789,-9.913922309875488
1.7294973006059914e+18,-0.01877177506685257,0.09349723905324936,-9.964394569396973
1.7294973006179917e+18,0.05441415309906006,-0.03258409723639488,-9.991035461425781
1.7294973006239918e+18,0.01817421242594719,-0.03978511691093445,-9.97530746459961
1.729497300632992e+18,0.04223319888114929,0.07604678720235825,-10.029016494750977
1.7294973006389921e+18,-0.07660984247922897,-0.04355255141854286,-10.026015281677246
1.7294973006479923e+18,0.03439924865961075,0.042158275842666626,-9.919710159301758
1.7294973006569925e+18,-0.02226576954126358,0.08703166991472244,-9.9404296875
1.7294973006629926e+18,-0.04854664206504822,-0.03303791210055351,-9.978482246398926
1.7294973006719928e+18,-0.017532596364617348,0.0922050029039383,-9.993975639343262
1.729497300680993e+18,-0.01962326467037201,0.005236875265836716,-9.84822940826416
1.7294973006869932e+18,0.05136799067258835,0.02630753442645073,-9.909592628479004
1.7294973006959933e+18,-0.009400404989719391,-0.023935597389936447,-9.954134941101074
1.7294973007049935e+18,0.03871915116906166,0.0027411296032369137,-9.832376480102539
1.7294973007139937e+18,-0.02624133788049221,-0.033061373978853226,-9.947850227355957
1.7294973007199939e+18,-0.0146589744836092,0.010336998850107193,-9.958281517028809
1.729497300728994e+18,-0.018620565533638,0.12022016942501068,-9.912665367126465
1.7294973007379942e+18,0.03685303032398224,0.00021578205632977188,-9.948582649230957
1.7294973007439944e+18,-0.004818168468773365,0.008903471753001213,-9.883339881896973
1.7294973007529946e+18,-0.16144630312919617,0.047194335609674454,-9.854918479919434
1.7294973007619948e+18,-0.014271380379796028,-0.036339182406663895,-9.898818016052246
1.729497300767995e+18,0.011157430708408356,-0.03980062156915665,-9.905075073242188
1.729497300776995e+18,0.008035949431359768,0.0268776286393404,-9.918048858642578
1.7294973007829952e+18,0.006169702857732773,0.037067051976919174,-9.900304794311523
1.7294973007919954e+18,0.023110784590244293,0.004814108368009329,-9.944364547729492
1.7294973008009956e+18,-0.0013813861878588796,-0.019852930679917336,-9.894820213317871
1.7294973008099958e+18,0.0315958671271801,0.02390957437455654,-9.888094902038574
1.729497300815996e+18,0.007826435379683971,-0.004639611579477787,-9.899931907653809
1.729497300824996e+18,0.04891619086265564,0.00821016263216734,-9.793974876403809
1.7294973008339963e+18,0.0045748925767838955,-0.03619757294654846,-9.898918151855469
1.7294973008429965e+18,-0.016915570944547653,0.049116797745227814,-9.891573905944824
1.7294973008489966e+18,-0.03350419923663139,-0.015441526658833027,-9.88956069946289
1.7294973008579968e+18,0.02134094201028347,0.011414379812777042,-9.87707805633545
1.729497300866997e+18,0.04623977839946747,-0.06495221704244614,-9.877225875854492
1.729497300872997e+18,0.0339970663189888,-0.09664890170097351,-9.86825180053711
1.7294973008819973e+18,0.06323785334825516,0.06964511424303055,-9.86314868927002
1.7294973008909975e+18,0.07287546992301941,0.010941748507320881,-9.84512710571289
1.7294973008999977e+18,0.0025823849719017744,-0.02192618139088154,-9.747601509094238
1.7294973009059978e+18,-0.00965807307511568,-0.007040414493530989,-9.870015144348145
1.729497300914998e+18,-0.013467688113451004,0.007516444660723209,-9.906065940856934
1.7294973009239982e+18,-0.03597033768892288,0.10493842512369156,-9.897859573364258
1.7294973009299983e+18,0.027219336479902267,0.06202569976449013,-9.806912422180176
1.7294973009389985e+18,-0.04389248788356781,0.032176725566387177,-9.90049934387207
1.7294973009479987e+18,0.0025977264158427715,0.017050491645932198,-9.837580680847168
1.7294973009539988e+18,-0.01953434757888317,-0.07423561811447144,-9.846447944641113
1.729497300962999e+18,-0.06015299633145332,-0.06598661094903946,-9.854654312133789
1.7294973009689992e+18,0.04764625430107117,-0.025189053267240524,-9.805879592895508
1.7294973009779994e+18,-0.008389086462557316,0.03359989821910858,-9.826457023620605
1.7294973009869996e+18,-0.07056152820587158,-0.04024658724665642,-9.837444305419922
1.7294973009929997e+18,0.048400215804576874,-0.023320265114307404,-9.795717239379883
1.729497301002e+18,0.07042432576417923,-0.0657704696059227,-9.808051109313965
1.729497301008e+18,0.018892675638198853,0.028523297980427742,-9.830875396728516
1.7294973010170002e+18,0.056001413613557816,0.0017098546959459782,-9.880498886108398
1.7294973010260004e+18,-0.06167641282081604,-0.059059157967567444,-9.81116771697998
1.7294973010320005e+18,-0.037916187196969986,-0.05193033814430237,-9.871066093444824
1.7294973010410007e+18,-0.06085435673594475,0.04895379766821861,-9.768669128417969
1.729497301050001e+18,-0.09766019880771637,0.04756859317421913,-9.751396179199219
1.729497301056001e+18,-0.02614108845591545,-0.08770065009593964,-9.81998062133789
1.7294973010650012e+18,-0.05511798337101936,-0.03568899258971214,-9.757999420166016
1.7294973010710013e+18,-0.00653477618470788,0.002976688789203763,-9.841103553771973
1.7294973010800015e+18,0.07146068662405014,-0.023067334666848183,-9.781805038452148
1.7294973010890017e+18,0.0355391800403595,-0.0017687170766294003,-9.834892272949219
1.7294973010950019e+18,-0.08667764812707901,-0.00039785748231224716,-9.842151641845703
1.729497301104002e+18,-0.0687670111656189,-0.03485254570841789,-9.767414093017578
1.7294973011130022e+18,0.0015928008360788226,0.08260152488946915,-9.827409744262695
1.7294973011220024e+18,-0.037751950323581696,-0.018231498077511787,-9.800297737121582
1.7294973011310026e+18,-0.06931626796722412,-0.10863997042179108,-9.880972862243652
1.7294973011370028e+18,0.005076189059764147,0.038744401186704636,-9.837830543518066
1.729497301146003e+18,0.02731078304350376,0.017574552446603775,-9.788178443908691
1.7294973011550031e+18,-0.036382127553224564,0.018243461847305298,-9.839973449707031
1.7294973011610033e+18,-0.0316130705177784,-0.010610478930175304,-9.833463668823242
1.7294973011700035e+18,-0.0033810576424002647,0.008428128436207771,-9.784104347229004
1.7294973011790036e+18,-0.07757852971553802,0.00048615343985147774,-9.853556632995605
1.7294973011850038e+18,0.024962682276964188,-0.11906231939792633,-9.813883781433105
1.729497301194004e+18,0.02888309210538864,0.009047126397490501,-9.798537254333496
1.7294973012030042e+18,-0.062016163021326065,0.031128503382205963,-9.798925399780273
1.7294973012090043e+18,0.07429694384336472,-0.007341655902564526,-9.809922218322754
1.7294973012180045e+18,-0.0067138951271772385,-0.06148781627416611,-9.897621154785156
1.7294973012240046e+18,-0.019335724413394928,0.010831153951585293,-9.790566444396973
1.7294973012330048e+18,-0.020665070042014122,-0.023869559168815613,-9.839783668518066
1.729497301242005e+18,-0.00766541576012969,0.022781293839216232,-9.825454711914062
1.7294973012510052e+18,-0.0034240714740008116,-0.00877662468701601,-9.831007957458496
1.7294973012600054e+18,-0.025869220495224,-0.0027349910233169794,-9.847185134887695
1.7294973012660055e+18,0.022671246901154518,-0.048234011977910995,-9.7732515335083
1.7294973012750057e+18,-0.013852891512215137,0.014572305604815483,-9.83264446258545
1.7294973012810058e+18,-0.03136236220598221,-0.06348957121372223,-9.755513191223145
1.729497301290006e+18,0.0013028864050284028,0.0378970243036747,-9.76857852935791
1.7294973012990062e+18,0.054588522762060165,-0.036711037158966064,-9.78748607635498
1.7294973013050063e+18,0.04135800898075104,0.020241962745785713,-9.79532241821289
1.7294973013140065e+18,0.0038499576039612293,0.03441186621785164,-9.813957214355469
1.7294973013230067e+18,0.037795424461364746,-0.014582165516912937,-9.807149887084961
1.7294973013290068e+18,0.004685915540903807,-0.03409162908792496,-9.765755653381348
1.729497301338007e+18,0.006621384061872959,-0.0609559528529644,-9.762210845947266
1.7294973013470072e+18,0.03768328204751015,0.06251265108585358,-9.763792991638184
1.7294973013560074e+18,-0.041045382618904114,0.026284687221050262,-9.772987365722656
1.7294973013620076e+18,0.060321543365716934,0.007410273887217045,-9.726292610168457
1.7294973013710077e+18,0.021367089822888374,-0.011293946765363216,-9.880986213684082
1.729497301380008e+18,0.006724991835653782,-0.016878347843885422,-9.723020553588867
1.7294973013890081e+18,-0.01792222447693348,-0.00686562480404973,-9.890222549438477
1.7294973013950083e+18,-0.03677036985754967,-0.059668365865945816,-9.876898765563965
1.7294973014040084e+18,-7.125575211830437e-05,0.07403504103422165,-9.787006378173828
1.7294973014130086e+18,-0.006358637474477291,0.01616612821817398,-9.814593315124512
1.7294973014190088e+18,0.09277883172035217,-0.012414087541401386,-9.743240356445312
1.729497301428009e+18,0.13597668707370758,0.032085467129945755,-9.794697761535645
1.7294973014370092e+18,-0.005874111317098141,-0.06686253100633621,-9.795373916625977
1.7294973014460093e+18,-0.020978054031729698,-0.03204759582877159,-9.745319366455078
1.7294973014520095e+18,-0.01152273640036583,-0.016984723508358,-9.83916187286377
1.7294973014610097e+18,0.09042026847600937,-0.0013626988511532545,-9.7568998336792
1.7294973014700099e+18,-0.03195086121559143,-0.02823702245950699,-9.824603080749512
1.72949730147901e+18,0.0026377998292446136,0.0931599885225296,-9.812212944030762
1.7294973014880102e+18,-0.09935840219259262,-0.0029885810799896717,-9.80560302734375
1.7294973014940104e+18,0.06965426355600357,0.04685629904270172,-9.798815727233887
1.7294973015030106e+18,-0.05283588916063309,-0.02671985700726509,-9.752498626708984
1.7294973015120108e+18,0.04784047603607178,-0.0038293388206511736,-9.845836639404297
1.729497301518011e+18,0.006402901373803616,0.06152412295341492,-9.805283546447754
1.729497301527011e+18,0.030340230092406273,-0.040884457528591156,-9.771870613098145
1.7294973015360113e+18,-0.014493773691356182,-0.03027876280248165,-9.827454566955566
1.7294973015420114e+18,-0.005243959836661816,-0.004475481808185577,-9.75915813446045
1.7294973015510116e+18,-0.003912922460585833,0.04453184828162193,-9.784031867980957
1.7294973015570117e+18,0.05533568188548088,0.03704266995191574,-9.736187934875488
1.729497301566012e+18,0.006387857720255852,0.030906185507774353,-9.795491218566895
1.729497301575012e+18,0.02471385896205902,-0.06015915051102638,-9.80823802947998
1.7294973015810122e+18,-0.028149904683232307,-0.0198617335408926,-9.805113792419434
1.7294973015900124e+18,0.014240218326449394,-0.011041663587093353,-9.756942749023438
1.7294973015960125e+18,-0.006895979400724173,0.027303092181682587,-9.844239234924316
1.7294973016050127e+18,0.02435419335961342,-0.01507004164159298,-9.763099670410156
1.729497301614013e+18,-0.013369408436119556,0.03880373015999794,-9.84770679473877
1.729497301620013e+18,-0.07632528990507126,-0.016532350331544876,-9.773192405700684
1.7294973016290132e+18,0.013239703141152859,0.023601599037647247,-9.716592788696289
1.7294973016380134e+18,0.07943224161863327,0.024264072999358177,-9.889512062072754
1.7294973016440136e+18,-0.07455503195524216,-0.03968628868460655,-9.776497840881348
1.7294973016530138e+18,0.06459486484527588,-0.03182968124747276,-9.852799415588379
1.729497301662014e+18,0.04901772737503052,-0.025769032537937164,-9.78786849975586
1.729497301668014e+18,-0.00412446353584528,-0.0024443715810775757,-9.840904235839844
1.7294973016770143e+18,-0.01427407655864954,-0.02584037557244301,-9.736920356750488
1.7294973016860145e+18,-0.021697480231523514,-0.06577566266059875,-9.767721176147461
1.7294973016920146e+18,0.016046935692429543,0.01909688673913479,-9.653956413269043
1.7294973017010148e+18,0.06453270465135574,0.0393349714577198,-9.763542175292969
1.729497301710015e+18,0.08584614098072052,-0.020237218588590622,-9.782398223876953
1.729497301716015e+18,0.04210479557514191,0.024244409054517746,-9.834371566772461
1.7294973017250153e+18,0.007653149776160717,-0.07991225272417068,-9.896381378173828
1.7294973017370156e+18,-0.09109824150800705,0.01497571635991335,-9.80877685546875
1.7294973017430157e+18,-0.057357270270586014,0.016023194417357445,-9.839738845825195
1.729497301752016e+18,-0.037177953869104385,-5.709484685212374e-05,-9.771596908569336
1.729497301761016e+18,0.01047541480511427,0.019891759380698204,-9.812917709350586
1.7294973017700163e+18,-0.018920157104730606,-0.014626914635300636,-9.827007293701172
1.7294973017760164e+18,-0.04516887664794922,0.07526569068431854,-9.830988883972168
1.7294973017850166e+18,0.05775345116853714,0.039193134754896164,-9.831892013549805
1.7294973017940168e+18,-0.07519495487213135,0.02409340627491474,-9.81794548034668
1.729497301800017e+18,0.0039519211277365685,0.024470265954732895,-9.75295639038086
1.729497301809017e+18,0.001286142272874713,0.03564395383000374,-9.796125411987305
1.7294973018180173e+18,0.02695435844361782,0.04442495107650757,-9.753124237060547
1.7294973018240174e+18,0.0073673296719789505,0.010935992933809757,-9.855769157409668
1.7294973018330176e+18,0.05583404004573822,0.0011471598409116268,-9.757975578308105
1.7294973018390177e+18,-0.029302043840289116,0.016622578725218773,-9.75678539276123
1.729497301848018e+18,-0.08638046681880951,0.00916728563606739,-9.839009284973145
1.729497301854018e+18,0.03736135736107826,-0.0005149388452991843,-9.815902709960938
1.7294973018630182e+18,0.051993876695632935,0.020880283787846565,-9.806427001953125
1.7294973018720184e+18,0.015487095341086388,0.004606312140822411,-9.89819049835205
1.7294973018810186e+18,0.009894815273582935,-0.03577828407287598,-9.814330101013184
1.7294973018870188e+18,0.0337388701736927,-0.05774703621864319,-9.773653030395508
1.729497301896019e+18,-0.0043271444737911224,0.0029947981238365173,-9.789335250854492
1.7294973019050191e+18,0.03783094137907028,0.06429445743560791,-9.823156356811523
1.7294973019140193e+18,0.010205238126218319,0.023394662886857986,-9.778871536254883
1.7294973019230195e+18,-0.019721705466508865,-0.020427942276000977,-9.744393348693848
1.7294973019290196e+18,0.025980696082115173,-0.04997130483388901,-9.753232955932617
1.7294973019380198e+18,0.016886938363313675,0.0065996404737234116,-9.782771110534668
1.72949730194702e+18,-0.01761672832071781,-0.04903816804289818,-9.773241996765137
1.7294973019530202e+18,0.01760464906692505,-0.0004414900904521346,-9.822073936462402
1.7294973019620204e+18,0.005402655340731144,-0.023490065708756447,-9.799896240234375
1.7294973019680205e+18,-0.006780791096389294,-0.046740688383579254,-9.730084419250488
1.7294973019770207e+18,-0.0031762397848069668,0.0036719709169119596,-9.801131248474121
1.7294973019830208e+18,0.010762506164610386,-0.02575070410966873,-9.829296112060547
1.729497301992021e+18,-0.06997760385274887,0.05505334213376045,-9.7194242477417
1.7294973020010212e+18,-0.02784654125571251,0.08487845212221146,-9.755414962768555
1.7294973020070213e+18,0.03552782163023949,-0.04446372017264366,-9.83779525756836
1.7294973020160215e+18,-0.09045697003602982,-0.018773488700389862,-9.798395156860352
1.7294973020250217e+18,-0.019049813970923424,0.023326046764850616,-9.776015281677246
1.729497302034022e+18,0.0722273588180542,0.040356844663619995,-9.777509689331055
1.729497302040022e+18,0.0007599994423799217,0.022459713742136955,-9.863686561584473
1.7294973020490222e+18,-0.06030485779047012,0.04006287455558777,-9.852023124694824
1.7294973020580224e+18,-0.05212889611721039,-0.03308223932981491,-9.786697387695312
1.7294973020670226e+18,-0.08654764294624329,-0.10657239705324173,-9.74386978149414
1.7294973020730227e+18,0.015538990497589111,0.04009835049510002,-9.818160057067871
1.729497302082023e+18,0.07005445659160614,-0.034334294497966766,-9.862555503845215
1.729497302091023e+18,-0.03454066812992096,-0.0346505306661129,-9.742379188537598
1.7294973020970232e+18,-0.030502114444971085,0.10078306496143341,-9.835003852844238
1.7294973021060234e+18,-0.04507492110133171,0.00040777213871479034,-9.841238021850586
1.7294973021150236e+18,-0.023937420919537544,-0.05518537014722824,-9.782493591308594
1.7294973021210237e+18,0.0865393579006195,0.06330318748950958,-9.879108428955078
1.729497302130024e+18,-0.038950104266405106,-0.060730572789907455,-9.869773864746094
1.729497302136024e+18,-0.015347601845860481,0.07208958268165588,-9.753800392150879
1.7294973021450243e+18,-0.0009245795663446188,0.018864881247282028,-9.802549362182617
1.7294973021540244e+18,0.04631192982196808,-0.002337920479476452,-9.807064056396484
1.7294973021630246e+18,-0.03987811133265495,0.02412281185388565,-9.810158729553223
1.7294973021690248e+18,0.04577197507023811,0.02630709297955036,-9.806435585021973
1.729497302178025e+18,-0.008402962237596512,0.02572021819651127,-9.868206977844238
1.7294973021870252e+18,0.015827571973204613,0.029426930472254753,-9.791218757629395
1.7294973021930253e+18,-0.034459732472896576,-0.010013017803430557,-9.793407440185547
1.7294973022020255e+18,-0.04978089779615402,-0.08409908413887024,-9.717649459838867
1.7294973022080256e+18,-0.03641623258590698,0.04678238928318024,-9.760412216186523
1.7294973022170258e+18,0.03926089406013489,0.028142699971795082,-9.723915100097656
1.729497302226026e+18,0.04247627407312393,0.00822294782847166,-9.898463249206543
1.729497302232026e+18,-0.00398105476051569,-0.025454428046941757,-9.808002471923828
1.7294973022410263e+18,0.0012744427658617496,-0.05481744557619095,-9.769168853759766
1.7294973022500265e+18,0.0071626948192715645,0.024041274562478065,-9.804160118103027
1.7294973022560266e+18,0.032854899764060974,0.012703328393399715,-9.929570198059082
1.7294973022650268e+18,-0.00961752887815237,0.041617024689912796,-9.857436180114746
1.729497302274027e+18,0.0654120147228241,-0.0156925767660141,-9.903934478759766
1.7294973022800271e+18,0.011293296702206135,0.13492155075073242,-9.810735702514648
1.7294973022890273e+18,0.029719628393650055,-0.030016209930181503,-9.804651260375977
1.7294973022980275e+18,0.12139789015054703,0.04610942676663399,-9.7272310256958
1.7294973023070277e+18,0.04524337127804756,-0.004805420525372028,-9.811705589294434
1.7294973023130278e+18,0.01275643426924944,0.023446647450327873,-9.797417640686035
1.729497302322028e+18,-0.011627147905528545,0.03057018853724003,-9.821573257446289
1.7294973023280282e+18,-0.05247189849615097,0.07821733504533768,-9.80781078338623
1.7294973023370284e+18,-0.06416501104831696,-0.005390448030084372,-9.832772254943848
1.7294973023460285e+18,0.015035784803330898,0.0549115315079689,-9.846519470214844
1.7294973023520287e+18,-0.0173411313444376,-0.040691815316677094,-9.759261131286621
1.7294973023610289e+18,-0.046286530792713165,0.013255929574370384,-9.865459442138672
1.729497302370029e+18,-0.028357332572340965,-0.054374780505895615,-9.86707878112793
1.7294973023760292e+18,0.044779133051633835,0.04052533209323883,-9.867289543151855
1.7294973023850294e+18,0.07377017289400101,-0.007385504897683859,-9.780394554138184
1.7294973023940296e+18,-0.027457375079393387,0.03248485550284386,-9.787328720092773
1.7294973024000297e+18,0.024116573855280876,0.0432373583316803,-9.888895034790039
1.72949730240903e+18,-0.028385912999510765,-0.002576977014541626,-9.763999938964844
1.72949730241803e+18,0.019373489543795586,0.05505593866109848,-9.741752624511719
1.7294973024240302e+18,0.045646198093891144,0.03187400847673416,-9.771885871887207
1.7294973024330304e+18,0.029734916985034943,-0.02150985784828663,-9.719280242919922
1.7294973024390305e+18,0.010399473831057549,0.011747033335268497,-9.789997100830078
1.7294973024480307e+18,-0.0059079332277178764,0.009186603128910065,-9.76158332824707
1.729497302457031e+18,-0.040977951139211655,0.023810487240552902,-9.737159729003906
1.729497302463031e+18,-0.06937609612941742,-0.007303474470973015,-9.700655937194824
1.7294973024720312e+18,-0.0359945073723793,-0.016837436705827713,-9.807722091674805
1.7294973024810314e+18,0.03674506023526192,-0.023356623947620392,-9.810420989990234
1.7294973024870316e+18,-0.07526155561208725,-0.016972387209534645,-9.762946128845215
1.7294973024960317e+18,0.02341633103787899,-0.0008158559794537723,-9.845182418823242
1.729497302502032e+18,-0.04225419461727142,0.04295254126191139,-9.864859580993652
1.729497302511032e+18,-0.018639028072357178,-0.06910005211830139,-9.819173812866211
1.7294973025200323e+18,0.0373101681470871,-0.037791986018419266,-9.876020431518555
1.7294973025290324e+18,0.011429693549871445,0.07553701102733612,-9.777445793151855
1.7294973025350326e+18,-0.04452984035015106,-0.013736214488744736,-9.831269264221191
1.7294973025440328e+18,0.018792133778333664,0.014630051329731941,-9.782818794250488
1.729497302553033e+18,0.036011964082717896,-0.052325859665870667,-9.811452865600586
1.7294973025620332e+18,0.023302827030420303,-0.0402257926762104,-9.862639427185059
1.7294973025710333e+18,0.08005543053150177,-0.08464677631855011,-9.785218238830566
1.7294973025770335e+18,-0.002238142304122448,-0.024350721389055252,-9.774683952331543
1.7294973025860337e+18,-0.03176412358880043,0.029138045385479927,-9.756044387817383
1.7294973025950339e+18,-0.010899946093559265,-0.048201534897089005,-9.875940322875977
1.729497302601034e+18,-0.05996352434158325,-0.06163213402032852,-9.87818431854248
1.7294973026100342e+18,0.0338594876229763,-0.02932879701256752,-9.895621299743652
1.7294973026190344e+18,-0.024084217846393585,0.003927494864910841,-9.81690502166748
1.7294973026250345e+18,-0.032087355852127075,0.024830076843500137,-9.814903259277344
1.7294973026340347e+18,-0.03026762790977955,-0.04364091530442238,-9.839089393615723
1.729497302643035e+18,-0.01798483543097973,-0.02789069339632988,-9.899846076965332
1.729497302649035e+18,0.026064518839120865,-0.026025746017694473,-9.849889755249023
1.7294973026580352e+18,0.10605286806821823,-0.038474779576063156,-9.83724594116211
1.7294973026670354e+18,-0.03988485410809517,0.0411323606967926,-9.86729907989502
1.7294973026730355e+18,-0.008681634441018105,-0.04792419821023941,-9.823369026184082
1.7294973026820357e+18,0.07405697554349899,0.022343318909406662,-9.769709587097168
1.7294973026880358e+18,-0.012753107585012913,0.048121001571416855,-9.828645706176758
1.729497302697036e+18,-0.01286117359995842,-0.0027721920050680637,-9.861766815185547
1.7294973027060362e+18,0.032397277653217316,-0.047444723546504974,-9.87143611907959
1.7294973027120364e+18,-0.005218205042183399,0.006179491989314556,-9.798391342163086
1.7294973027210365e+18,0.039835065603256226,0.005387741141021252,-9.812897682189941
1.7294973027300367e+18,-0.007621643133461475,-0.01963762752711773,-9.818734169006348
1.7294973027360369e+18,-0.009441121481359005,-0.05277146399021149,-9.880107879638672
1.729497302745037e+18,-0.014384383335709572,0.012969428673386574,-9.85558795928955
1.7294973027510372e+18,-0.017229188233613968,0.01710086315870285,-9.836922645568848
1.7294973027630374e+18,0.04890374466776848,-0.02955831028521061,-9.838306427001953
1.7294973027720376e+18,-0.045215774327516556,0.06824571639299393,-9.808030128479004
1.7294973027810378e+18,-0.006447497755289078,0.05611797422170639,-9.876075744628906
1.729497302787038e+18,-0.04422875866293907,-0.020986836403608322,-9.82884407043457
1.7294973027960381e+18,0.008389785885810852,0.07025068998336792,-9.78956413269043
1.7294973028050383e+18,0.03766195848584175,0.015650402754545212,-9.804655075073242
1.7294973028110385e+18,0.03376036509871483,-0.07958263903856277,-9.811725616455078
1.7294973028200387e+18,0.005389808677136898,0.02301366999745369,-9.871264457702637
1.7294973028290388e+18,-0.03689269721508026,-0.0010788996005430818,-9.824012756347656
1.729497302835039e+18,0.0801619365811348,-0.026635494083166122,-9.860167503356934
1.7294973028440392e+18,-0.05615977942943573,-0.04418449476361275,-9.807188034057617
1.7294973028560394e+18,0.06377485394477844,-0.022445932030677795,-9.820470809936523
1.7294973028620396e+18,0.02143377996981144,-0.020304502919316292,-9.791455268859863
1.7294973028710397e+18,0.09489049017429352,-0.03286207094788551,-9.872057914733887
1.7294973028770399e+18,0.04864782840013504,-0.06969484686851501,-9.814630508422852
1.72949730288604e+18,-0.006020910106599331,-0.018324391916394234,-9.830236434936523
1.7294973028950403e+18,0.043798718601465225,-0.052678607404232025,-9.75855541229248
1.7294973029010404e+18,0.004797446541488171,-0.04430433735251427,-9.79411792755127
1.7294973029100406e+18,0.03192823752760887,0.057202357798814774,-9.789145469665527
1.7294973029190408e+18,-0.06229301542043686,-0.038736265152692795,-9.859567642211914
1.729497302928041e+18,0.0426507368683815,0.026647083461284637,-9.804555892944336
1.729497302934041e+18,0.03380948677659035,0.04714815318584442,-9.799243927001953
1.7294973029430413e+18,0.006029772572219372,0.019724782556295395,-9.830098152160645
1.7294973029520415e+18,-0.004715377930551767,0.03999485448002815,-9.80842113494873
1.7294973029610417e+18,-0.027592193335294724,0.05494668707251549,-9.74599552154541
1.7294973029670418e+18,0.03962589427828789,-0.0670744925737381,-9.767135620117188
1.729497302976042e+18,0.005415040999650955,-0.00792305450886488,-9.874578475952148
1.7294973029850422e+18,-0.08367735892534256,-0.0019978696946054697,-9.887056350708008
1.7294973029940424e+18,-0.056456368416547775,-0.10452036559581757,-9.805135726928711
1.7294973030000425e+18,0.02419373020529747,-0.016067354008555412,-9.77009105682373
1.7294973030090427e+18,-0.014985197223722935,0.009661800228059292,-9.836529731750488
1.729497303018043e+18,0.026166794821619987,0.0007434920989908278,-9.876882553100586
1.729497303024043e+18,-0.030989672988653183,-0.07253416627645493,-9.791836738586426
1.7294973030330432e+18,0.03368531912565231,-0.006472507491707802,-9.782646179199219
1.7294973030420434e+18,-0.053292516618967056,-0.0267379991710186,-9.831921577453613
1.7294973030480435e+18,-0.03097637929022312,0.049573738127946854,-9.850390434265137
1.7294973030570437e+18,0.00591783132404089,0.01882501132786274,-9.804342269897461
1.7294973030630438e+18,-0.04174014553427696,0.03836453706026077,-9.834325790405273
1.729497303072044e+18,0.07821501046419144,0.06345066428184509,-9.760736465454102
1.7294973030810442e+18,0.051694102585315704,-0.02029784582555294,-9.854269027709961
1.7294973030870444e+18,0.01559465005993843,-0.05600598454475403,-9.779082298278809
1.7294973030960445e+18,0.02421640045940876,0.004276310093700886,-9.890222549438477
1.7294973031050447e+18,-0.02702910266816616,0.018406711518764496,-9.71713924407959
1.7294973031110449e+18,0.06008687987923622,-0.019016683101654053,-9.86976146697998
1.729497303120045e+18,0.04772323742508888,0.01848878338932991,-9.828018188476562
1.7294973031290452e+18,0.02999190427362919,-0.04365571215748787,-9.871589660644531
1.7294973031380454e+18,-0.05102197453379631,0.0064421771094202995,-9.75300121307373
1.7294973031440456e+18,-0.018940037116408348,0.06700962781906128,-9.812397003173828
1.7294973031530458e+18,-0.021090179681777954,-0.0027109673246741295,-9.798748016357422
1.729497303162046e+18,-0.022900713607668877,-0.02731124311685562,-9.817320823669434
1.729497303168046e+18,0.061520736664533615,-0.02896762080490589,-9.816842079162598
1.7294973031770463e+18,-0.06604523956775665,0.009362892247736454,-9.865950584411621
1.7294973031890465e+18,-0.05721348151564598,-0.011795937083661556,-9.887843132019043
1.7294973031980467e+18,0.014149394817650318,0.08652116358280182,-9.804844856262207
1.7294973032040468e+18,0.02298453450202942,0.01659204065799713,-9.780549049377441
1.729497303213047e+18,0.006916657090187073,0.017877018079161644,-9.767158508300781
1.7294973032220472e+18,0.012877155095338821,-0.015927409753203392,-9.766246795654297
1.7294973032310474e+18,0.03747055307030678,-0.004315164405852556,-9.834613800048828
1.7294973032370476e+18,0.003054988570511341,-0.0418461449444294,-9.752889633178711
1.7294973032460477e+18,-0.07159020006656647,0.02116030640900135,-9.823847770690918
1.729497303255048e+18,0.02778780832886696,0.02153911627829075,-9.802949905395508
1.729497303264048e+18,-0.0465652197599411,0.06580781191587448,-9.79784870147705
1.7294973032700483e+18,0.038341812789440155,0.05202450230717659,-9.805209159851074
1.7294973032790484e+18,-0.050518739968538284,-0.02910025231540203,-9.804560661315918
1.7294973032880486e+18,0.012211935594677925,0.02343723736703396,-9.795616149902344
1.7294973032940488e+18,0.00037593237357214093,-0.007472459692507982,-9.83491039276123
1.729497303303049e+18,-0.00045233912533149123,-0.0009130911203101277,-9.82253646850586
1.7294973033120492e+18,-0.031303249299526215,-0.04673890024423599,-9.86075496673584
1.7294973033180493e+18,-0.052387624979019165,-0.047990817576646805,-9.804807662963867
1.7294973033270495e+18,0.015160803683102131,0.09729992598295212,-9.84196662902832
1.7294973033330496e+18,0.023832743987441063,0.031645819544792175,-9.822186470031738
1.7294973033420498e+18,-0.008916118182241917,0.06973019242286682,-9.795547485351562
1.72949730335105e+18,0.031151507049798965,0.049232713878154755,-9.840591430664062
1.7294973033600502e+18,-0.015776032581925392,0.06179710850119591,-9.883932113647461
1.7294973033660503e+18,-0.061097703874111176,-0.0031013647094368935,-9.828980445861816
1.7294973033750505e+18,-0.0635991245508194,-0.015200871974229813,-9.846968650817871
1.7294973033840507e+18,0.048103880137205124,0.04528658092021942,-9.7431058883667
1.729497303396051e+18,-0.04847791790962219,0.04349242523312569,-9.870728492736816
1.7294973034050511e+18,-0.019141515716910362,0.0066936202347278595,-9.792614936828613
1.7294973034140513e+18,0.08775478601455688,0.026196757331490517,-9.787822723388672
1.7294973034230515e+18,0.027244461700320244,-0.025325164198875427,-9.800907135009766
1.7294973034290516e+18,-0.005759732332080603,0.055080026388168335,-9.811957359313965
1.7294973034380518e+18,-0.023423250764608383,0.05063868314027786,-9.883237838745117
1.729497303447052e+18,0.044400326907634735,0.0028398309368640184,-9.791728973388672
1.7294973034530522e+18,-0.018163282424211502,-0.006609680596739054,-9.865945816040039
1.7294973034620524e+18,0.012342914938926697,0.011097708716988564,-9.795998573303223
1.7294973034710525e+18,-0.0047563412226736546,0.055853471159935,-9.701635360717773
1.7294973034770527e+18,-0.1106388047337532,-0.03468189388513565,-9.813922882080078
1.7294973034860529e+18,-0.014943145215511322,0.08859013020992279,-9.766847610473633
1.729497303495053e+18,-0.025623762980103493,0.006885787937790155,-9.852078437805176
1.7294973035010532e+18,0.04623895138502121,-0.04564565792679787,-9.791038513183594
1.7294973035100534e+18,-0.018603553995490074,0.00892251543700695,-9.893397331237793
1.7294973035190536e+18,0.0586809404194355,-0.0033120322041213512,-9.79002571105957
1.7294973035280538e+18,0.07042092829942703,-0.14452281594276428,-9.808425903320312
1.729497303534054e+18,0.018422851338982582,-0.013416614383459091,-9.899293899536133
1.729497303543054e+18,0.011648125946521759,0.051392488181591034,-9.844450950622559
1.7294973035520543e+18,0.039883311837911606,-0.0206486526876688,-9.850976943969727
1.7294973035610545e+18,0.0012281942181289196,0.00044241949217393994,-9.74545669555664
1.7294973035670546e+18,-0.003306676633656025,-0.009063918143510818,-9.844613075256348
1.7294973035760548e+18,-0.05266531929373741,-0.038213908672332764,-9.885154724121094
1.729497303585055e+18,-0.05870477110147476,-0.10149296373128891,-9.75684928894043
1.729497303591055e+18,0.011012660339474678,0.04796433821320534,-9.796545028686523
1.7294973036000553e+18,0.05794841796159744,0.012430727481842041,-9.84200382232666
1.7294973036090555e+18,-0.013286646455526352,0.07415691018104553,-9.920673370361328
1.7294973036150556e+18,0.015863072127103806,0.07326151430606842,-9.790694236755371
1.7294973036240558e+18,-0.01353259477764368,-0.04336947575211525,-9.7929048538208
1.729497303633056e+18,-0.04353833943605423,-0.05663055554032326,-9.875847816467285
1.7294973036420562e+18,0.023587800562381744,0.03164226561784744,-9.82597541809082
1.7294973036510564e+18,-0.03666871786117554,-0.009028511121869087,-9.851130485534668
1.7294973036600566e+18,-0.048439349979162216,0.014243877492845058,-9.737713813781738
1.7294973036660567e+18,0.0009784630965441465,-0.031528815627098083,-9.781296730041504
1.729497303675057e+18,-0.06641726195812225,0.08029092103242874,-9.801960945129395
1.729497303681057e+18,-0.008567340672016144,0.002063312567770481,-9.828746795654297
1.7294973036900572e+18,0.07892628759145737,0.026046933606266975,-9.929742813110352
1.7294973036990574e+18,0.06714198738336563,0.01528104953467846,-9.850004196166992
1.7294973037080576e+18,0.07169671356678009,-0.028531916439533234,-9.848715782165527
1.7294973037140577e+18,-0.06875638663768768,0.00435767462477088,-9.779092788696289
1.729497303723058e+18,0.005810375791043043,-0.08772791922092438,-9.889451026916504
1.729497303732058e+18,-0.04255637526512146,0.05001765862107277,-9.869973182678223
1.7294973037380582e+18,-0.059488445520401,-0.05498574674129486,-9.8483247756958
1.7294973037470584e+18,-0.02340715564787388,0.024072004482150078,-9.800884246826172
1.7294973037560586e+18,0.008092244155704975,0.06615620106458664,-9.8787841796875
1.7294973037620588e+18,-0.00691550737246871,-0.0011387874837964773,-9.740884780883789
1.729497303771059e+18,-0.03537541255354881,-0.05703363195061684,-9.833888053894043
1.7294973037800591e+18,-0.1211601048707962,0.02170557714998722,-9.849202156066895
1.7294973037890593e+18,0.02361992932856083,-0.008015422150492668,-9.870030403137207
1.7294973037950595e+18,-0.0165096502751112,0.023845084011554718,-9.852145195007324
1.7294973038040596e+18,-0.012032434344291687,-0.007448054384440184,-9.78227710723877
1.7294973038130598e+18,0.014940059743821621,0.02868274413049221,-9.792255401611328
1.72949730382206e+18,0.052001580595970154,-0.013059137389063835,-9.813780784606934
1.7294973038310602e+18,-0.039427660405635834,-0.02890675514936447,-9.828277587890625
1.7294973038400604e+18,-0.040474917739629745,-0.08183018863201141,-9.834827423095703
1.7294973038490606e+18,0.013805417343974113,0.006276573054492474,-9.849246978759766
1.7294973038550607e+18,0.008589009754359722,-0.05191840976476669,-9.763022422790527
1.729497303864061e+18,-0.07356113940477371,-0.00036478182300925255,-9.728286743164062
1.729497303873061e+18,0.015232779085636139,0.0368201807141304,-9.8302583694458
1.7294973038820613e+18,0.021597035229206085,-0.004803892225027084,-9.803420066833496
1.7294973038880614e+18,-0.01917150802910328,-0.015491032041609287,-9.873037338256836
1.7294973038970616e+18,0.046584393829107285,-0.02967752143740654,-9.830368995666504
1.7294973039060618e+18,-0.06946820765733719,-0.010900557972490788,-9.849507331848145
1.729497303912062e+18,0.008570380508899689,0.008350569754838943,-9.766979217529297
1.7294973039210621e+18,-0.04445253312587738,-0.029671819880604744,-9.82451057434082
1.7294973039270623e+18,-0.013793998397886753,-0.014613330364227295,-9.790417671203613
1.7294973039360625e+18,-0.03926572576165199,0.032508671283721924,-9.82911491394043
1.7294973039450627e+18,-0.03831690922379494,-0.016379693523049355,-9.842638969421387
1.7294973039540628e+18,-0.043313369154930115,0.12653739750385284,-9.88852310180664
1.729497303963063e+18,0.006985757499933243,-0.005908042658120394,-9.849645614624023
1.7294973039690632e+18,-0.05667995288968086,-0.011468385346233845,-9.823464393615723
1.7294973039780634e+18,-0.015374897979199886,-0.051849521696567535,-9.769723892211914
1.7294973039870636e+18,0.0014343361835926771,-0.024174051359295845,-9.820516586303711
1.7294973039960637e+18,-0.01209254190325737,0.0955485925078392,-9.838452339172363
1.729497304002064e+18,0.07224788516759872,0.06337321549654007,-9.868738174438477
1.729497304011064e+18,-0.03719136491417885,0.006771135609596968,-9.823695182800293
1.7294973040230643e+18,0.008704503066837788,0.02853619121015072,-9.830617904663086
1.7294973040290644e+18,-0.028595099225640297,0.0915507972240448,-9.826082229614258
1.7294973040380646e+18,-0.026068685576319695,0.01585327833890915,-9.835668563842773
1.7294973040440648e+18,0.09933049976825714,-0.005187674891203642,-9.86838436126709
1.729497304053065e+18,0.03162363916635513,0.05174746736884117,-9.789631843566895
1.7294973040620652e+18,-0.006531992927193642,0.026203671470284462,-9.843057632446289
1.7294973040680653e+18,0.04364636167883873,0.02875548228621483,-9.905552864074707
1.7294973040770655e+18,0.015798699110746384,0.042723968625068665,-9.826828956604004
1.7294973040830656e+18,-0.018227510154247284,-0.0034553525038063526,-9.797980308532715
1.7294973040920658e+18,0.0075523387640714645,0.0242170263081789,-9.78768253326416
1.729497304101066e+18,-0.0503883957862854,-0.0019015148282051086,-9.804276466369629
1.7294973041100662e+18,0.10480039566755295,-0.005203711334615946,-9.829931259155273
1.7294973041160663e+18,-0.050528183579444885,-0.032314762473106384,-9.889041900634766
1.7294973041250665e+18,-0.0672558918595314,0.031230725347995758,-9.821145057678223
1.7294973041340667e+18,-0.05988365784287453,-0.031753476709127426,-9.84775447845459
1.729497304143067e+18,0.02399730682373047,0.0064374711364507675,-9.811784744262695
1.729497304149067e+18,-0.016305310651659966,0.02916872128844261,-9.799078941345215
1.7294973041580672e+18,0.04415949806571007,0.06987163424491882,-9.81175422668457
1.7294973041670674e+18,-0.016377156600356102,-0.05453435704112053,-9.800732612609863
1.7294973041730675e+18,-0.017821071669459343,0.10851522535085678,-9.831326484680176
1.7294973041820677e+18,-0.004875981714576483,-0.0016789420042186975,-9.847076416015625
1.729497304191068e+18,0.005043637007474899,0.03719530999660492,-9.892683982849121
1.729497304200068e+18,0.034042444080114365,-0.00041284746839664876,-9.859468460083008
1.7294973042060682e+18,-0.050589002668857574,-0.023017004132270813,-9.843988418579102
1.7294973042150684e+18,0.033543094992637634,-0.03787834569811821,-9.825295448303223
1.7294973042210685e+18,0.027005262672901154,0.004844320472329855,-9.838739395141602
1.7294973042300687e+18,0.006385978311300278,0.020537249743938446,-9.810881614685059
1.7294973042360689e+18,0.017823275178670883,-0.011979917995631695,-9.745460510253906
1.729497304245069e+18,-0.034855253994464874,0.019669342786073685,-9.828543663024902
1.7294973042540692e+18,-0.005668779369443655,0.004796742461621761,-9.791897773742676
1.7294973042630694e+18,0.06741338223218918,-0.0014266112120822072,-9.80943489074707
1.7294973042690696e+18,0.07580503821372986,-0.08380420506000519,-9.854373931884766
1.7294973042780698e+18,0.038737017661333084,-0.021067094057798386,-9.739128112792969
1.72949730428707e+18,0.03135714307427406,0.04026752710342407,-9.825042724609375
1.72949730429307e+18,-0.07979679107666016,0.04271264374256134,-9.898258209228516
1.7294973043020703e+18,0.03608732670545578,-0.033379364758729935,-9.724204063415527
1.7294973043080704e+18,-0.00972665287554264,0.022306639701128006,-9.860042572021484
1.7294973043170706e+18,-0.028474120423197746,-0.02708183415234089,-9.819128036499023
1.7294973043260708e+18,0.07935375720262527,-0.07775576412677765,-9.842974662780762
1.729497304335071e+18,-0.03910735622048378,0.007041539065539837,-9.824233055114746
1.7294973043440712e+18,-0.039547309279441833,-0.06699013710021973,-9.81926441192627
1.7294973043530714e+18,0.06919461488723755,-0.08945287019014359,-9.794805526733398
1.7294973043620716e+18,0.01754775084555149,0.08919894695281982,-9.854655265808105
1.7294973043710717e+18,-0.061016324907541275,0.041403625160455704,-9.808894157409668
1.729497304380072e+18,0.07332312315702438,-0.015503725036978722,-9.815714836120605
1.7294973043890721e+18,-0.015012270770967007,-0.03136735409498215,-9.739775657653809
1.7294973043950723e+18,-0.00784132070839405,0.06804390996694565,-9.84144115447998
1.7294973044040724e+18,-0.08649326860904694,0.023658575490117073,-9.873903274536133
1.7294973044100726e+18,0.007811374496668577,0.019685951992869377,-9.816115379333496
1.7294973044190728e+18,0.029521474614739418,-0.027218174189329147,-9.769388198852539
1.729497304428073e+18,-0.01552096102386713,0.07121498137712479,-9.740804672241211
1.7294973044370732e+18,-0.02089270018041134,0.037250816822052,-9.923284530639648
1.7294973044460733e+18,-0.053578175604343414,-0.02032795175909996,-9.916766166687012
1.7294973044520735e+18,0.05774488300085068,0.020450029522180557,-9.786637306213379
1.7294973044610737e+18,0.10619576275348663,0.03483229875564575,-9.797818183898926
1.7294973044700739e+18,0.011191482655704021,-0.010461769066751003,-9.827408790588379
1.729497304479074e+18,-0.025555353611707687,-0.019930263981223106,-9.829648971557617
1.7294973044850742e+18,0.0385129339993,-0.062089577317237854,-9.838656425476074
1.7294973044940744e+18,-0.05846356600522995,0.03703569248318672,-9.894585609436035
1.7294973045030746e+18,0.019828125834465027,0.05734912306070328,-9.818906784057617
1.7294973045120748e+18,0.0167121272534132,-0.03154308721423149,-9.846643447875977
1.729497304518075e+18,-0.006597969215363264,-0.050365157425403595,-9.798905372619629
1.729497304527075e+18,-0.04437773674726486,-0.09005758166313171,-9.806427955627441
1.7294973045360753e+18,-0.0006518388399854302,-0.07209237664937973,-9.814603805541992
1.7294973045450755e+18,-0.03871103376150131,0.031350523233413696,-9.852021217346191
1.7294973045570757e+18,-0.042392607778310776,0.0014984083827584982,-9.88943862915039
1.729497304569076e+18,-0.046605184674263,-0.06348468363285065,-9.768369674682617
1.7294973045780762e+18,-0.029496584087610245,-0.03477030247449875,-9.789780616760254
1.7294973045870764e+18,0.05029171332716942,0.044733550399541855,-9.790358543395996
1.7294973045960765e+18,-0.03480744734406471,-0.050345681607723236,-9.831748008728027
1.7294973046050767e+18,-0.02908828854560852,0.04563238099217415,-9.811894416809082
1.729497304614077e+18,0.043714284896850586,-0.09041942656040192,-9.786358833312988
1.729497304620077e+18,0.006138006690889597,-0.016003936529159546,-9.768199920654297
1.7294973046290772e+18,0.022952953353524208,-0.021528400480747223,-9.850339889526367
1.7294973046380774e+18,-0.007154212798923254,0.03659624233841896,-9.842446327209473
1.7294973046470776e+18,-0.03922704979777336,0.002386078704148531,-9.823651313781738
1.7294973046560778e+18,0.0069321575574576855,0.0511525459587574,-9.777754783630371
1.729497304665078e+18,-0.016867008060216904,-0.013221347704529762,-9.831286430358887
1.7294973046740782e+18,-0.028908371925354004,-0.007520772982388735,-9.818943977355957
1.7294973046800783e+18,0.07466311007738113,0.07289353013038635,-9.817525863647461
1.7294973046890785e+18,-0.05365508794784546,-0.04119618237018585,-9.773311614990234
1.7294973046980787e+18,-0.009940425865352154,-0.03351087495684624,-9.845318794250488
1.729497304707079e+18,-8.947739115683362e-05,-0.01948579214513302,-9.789796829223633
1.729497304716079e+18,0.05229968577623367,-0.04538024961948395,-9.861227989196777
1.7294973047250793e+18,-0.03862548619508743,0.0030468557961285114,-9.87375545501709
1.7294973047340795e+18,-0.014407739974558353,-0.012932954356074333,-9.75904655456543
1.7294973047430797e+18,-0.03262869641184807,0.01512937992811203,-9.793130874633789
1.7294973047490798e+18,0.005258447490632534,0.02765742503106594,-9.880468368530273
1.72949730475808e+18,0.0006393854273483157,-0.009927915409207344,-9.818612098693848
1.7294973047670802e+18,-0.018241003155708313,0.07286664843559265,-9.823427200317383
1.7294973047760804e+18,0.07743474096059799,-0.006370215676724911,-9.799247741699219
1.7294973047820805e+18,-0.026983439922332764,0.004536338150501251,-9.817975997924805
1.7294973047910807e+18,0.007283863611519337,-0.025051144883036613,-9.797161102294922
1.729497304800081e+18,0.03638293221592903,0.013011475093662739,-9.771401405334473
1.729497304809081e+18,0.03639962524175644,0.01794978603720665,-9.756916999816895
1.7294973048150812e+18,0.0315541997551918,-0.0420488603413105,-9.846177101135254
1.7294973048240814e+18,-0.018426062539219856,0.07369455695152283,-9.949625015258789
1.7294973048330816e+18,-0.009574230760335922,0.007192552089691162,-9.800291061401367
1.7294973048420818e+18,-0.009148746728897095,0.07578836381435394,-9.781376838684082
1.729497304851082e+18,-0.008610312826931477,-0.012240543961524963,-9.836554527282715
1.7294973048600822e+18,0.01316065527498722,0.03419739753007889,-9.856818199157715
1.7294973048690824e+18,-0.045265063643455505,-0.03373605012893677,-9.834003448486328
1.7294973048750825e+18,0.06771380454301834,0.021930653601884842,-9.851486206054688
1.7294973048840827e+18,0.0023509019520133734,0.018068017438054085,-9.818078994750977
1.729497304893083e+18,-0.03537552431225777,-0.06362833082675934,-9.833216667175293
1.729497304899083e+18,0.11328785866498947,0.08095543086528778,-9.77084732055664
1.7294973049080832e+18,-0.07162854075431824,-0.055897630751132965,-9.777499198913574
1.7294973049170834e+18,0.0666329637169838,-0.027668729424476624,-9.796224594116211
1.7294973049230835e+18,0.05740232765674591,0.018018614500761032,-9.81315803527832
1.7294973049320837e+18,0.01922161690890789,0.007505289278924465,-9.867037773132324
1.729497304941084e+18,0.011360798962414265,0.07068043202161789,-9.856526374816895
1.729497304950084e+18,-0.09070971608161926,-0.025109073147177696,-9.842967987060547
1.7294973049560842e+18,-0.07789792120456696,0.023571856319904327,-9.845288276672363
1.7294973049650844e+18,-0.031657084822654724,0.08750056475400925,-9.79311752319336
1.7294973049710845e+18,0.049825914204120636,0.030987171456217766,-9.777069091796875
1.7294973049800847e+18,0.033877961337566376,0.043153416365385056,-9.831679344177246
1.729497304989085e+18,0.005758990999311209,-0.05812126398086548,-9.858963012695312
1.729497304995085e+18,0.0253658015280962,-0.0479608029127121,-9.845871925354004
1.7294973050070853e+18,0.03956015035510063,0.04191747307777405,-9.826712608337402
1.7294973050130854e+18,0.04523148760199547,-0.004537307657301426,-9.778698921203613
1.7294973050220856e+18,-0.0050361426547169685,-0.045474305748939514,-9.807951927185059
1.7294973050310858e+18,-0.0054980493150651455,-0.028796426951885223,-9.751053810119629
1.729497305037086e+18,-0.05893025919795036,-0.04836128652095795,-9.889259338378906
1.7294973050460861e+18,-0.0340147390961647,-0.06153428554534912,-9.888493537902832
1.7294973050550863e+18,0.008897177875041962,0.0178539901971817,-9.793343544006348
1.7294973050640865e+18,0.041210904717445374,-0.019528619945049286,-9.839072227478027
1.7294973050730867e+18,-0.01762188971042633,-0.0028449571691453457,-9.78420639038086
1.7294973050790868e+18,0.024131769314408302,0.0463499091565609,-9.78084659576416
1.729497305088087e+18,-0.016993366181850433,-0.07283008843660355,-9.819164276123047
1.7294973050970872e+18,-0.03403392806649208,-0.0040657236240804195,-9.817122459411621
1.7294973051060874e+18,0.025900403037667274,0.09562251716852188,-9.74902629852295
1.7294973051120876e+18,0.0031303358264267445,0.08387503772974014,-9.826933860778809
1.7294973051210877e+18,-0.007713017985224724,0.04790216311812401,-9.838397026062012
1.729497305130088e+18,-0.033564094454050064,0.018616942688822746,-9.848448753356934
1.729497305136088e+18,0.037424396723508835,0.024996334686875343,-9.891857147216797
1.7294973051450883e+18,-0.0008949903422035277,0.013804622925817966,-9.79667854309082
1.7294973051540884e+18,0.028911765664815903,0.015340214595198631,-9.743102073669434
1.7294973051600886e+18,0.023336051031947136,-0.01252560131251812,-9.811909675598145
1.7294973051690888e+18,-0.017289424315094948,-0.004300788510590792,-9.87573528289795
1.729497305175089e+18,-0.021946609020233154,-0.05380802974104881,-9.729998588562012
1.729497305184089e+18,-0.049570173025131226,-0.029496828094124794,-9.813275337219238
1.7294973051930893e+18,-0.002949447836726904,0.01910616271197796,-9.907703399658203
1.7294973052020895e+18,0.03182557225227356,-0.0551011897623539,-9.884350776672363
1.7294973052110897e+18,-0.08263470977544785,0.01388110127300024,-9.79279613494873
1.7294973052200899e+18,0.007028003688901663,-0.010601992718875408,-9.862194061279297
1.72949730522909e+18,0.03275149315595627,0.02572624571621418,-8.444994926452637
1.7294973052350902e+18,0.04193506017327309,0.018662676215171814,-8.209249496459961
1.7294973052440904e+18,0.011282263323664665,-0.008995147421956062,-8.15640640258789
1.7294973052530906e+18,0.06495340168476105,0.013600090518593788,-8.4798583984375
1.7294973052590907e+18,0.11347579956054688,0.07316382229328156,-8.423469543457031
1.729497305268091e+18,0.0384456031024456,0.06775086373090744,-8.340719223022461
1.729497305277091e+18,0.01887468993663788,0.06840358674526215,-8.334330558776855
1.7294973052830912e+18,0.09169135987758636,0.10919003188610077,-8.225194931030273
1.7294973052920914e+18,0.059626076370477676,0.06453265249729156,-7.907826900482178
1.7294973052980915e+18,0.0027357302606105804,0.023935522884130478,-7.827069282531738
1.7294973053070917e+18,0.059619754552841187,0.07861557602882385,-7.726319313049316
1.729497305316092e+18,0.032764606177806854,0.10515504330396652,-7.594667434692383
1.729497305325092e+18,0.021916136145591736,0.08702743053436279,-7.58300256729126
1.7294973053340923e+18,0.016151685267686844,0.044469013810157776,-7.739477634429932
1.7294973053400924e+18,0.06945577263832092,0.046840451657772064,-7.619739532470703
1.7294973053490926e+18,0.03823986276984215,-0.019498705863952637,-7.743443012237549
1.7294973053580928e+18,0.055733077228069305,0.09924918413162231,-7.584807395935059
1.729497305364093e+18,0.08485087752342224,-0.04365571588277817,-7.447987079620361
1.729497305373093e+18,0.12230426073074341,0.026612810790538788,-7.400164604187012
1.7294973053790932e+18,0.007733773440122604,0.03068504109978676,-7.1706085205078125
1.7294973053880934e+18,0.008563205599784851,0.08843384683132172,-7.220415115356445
1.7294973053970936e+18,0.06689515709877014,0.03397929668426514,-7.292060375213623
1.7294973054060938e+18,0.08180605620145798,0.026235871016979218,-7.253184795379639
1.729497305415094e+18,0.024487413465976715,0.014687050133943558,-7.389454364776611
1.7294973054240942e+18,-0.013480070978403091,0.11487153172492981,-7.338869094848633
1.7294973054300943e+18,0.018554653972387314,0.008412960916757584,-7.244377613067627
1.7294973054390945e+18,-0.028790179640054703,0.13907384872436523,-7.303998947143555
1.7294973054480947e+18,0.03826860338449478,-0.04262557998299599,-7.296453475952148
1.729497305457095e+18,-0.015788599848747253,0.09637864679098129,-7.0821685791015625
1.729497305463095e+18,0.033028893172740936,0.005405662581324577,-7.108635425567627
1.7294973054720952e+18,0.002676461823284626,-0.0018647098913788795,-7.130772113800049
1.7294973054780954e+18,0.0546373650431633,-0.031654126942157745,-7.175778388977051
1.7294973054870956e+18,0.044313084334135056,0.02380112186074257,-7.107773780822754
1.7294973054960957e+18,0.01833205483853817,0.06511428952217102,-7.182163238525391
1.729497305505096e+18,0.022112570703029633,-0.02906573936343193,-7.283654689788818
1.729497305511096e+18,0.021728869527578354,0.09124090522527695,-7.395225524902344
1.7294973055200963e+18,0.02653666026890278,-0.03836185485124588,-7.344264030456543
1.7294973055260964e+18,-0.03877190873026848,0.07404015213251114,-7.1754560470581055
1.7294973055350966e+18,0.01285672839730978,-0.008099459111690521,-7.205759525299072
1.7294973055440968e+18,-0.04853221774101257,0.040783222764730453,-7.050095081329346
1.729497305553097e+18,-0.09656035155057907,-0.02163044922053814,-7.177440643310547
1.729497305559097e+18,-0.09876986593008041,0.022996138781309128,-7.105143070220947
1.7294973055680973e+18,-0.08111488819122314,0.02729659341275692,-7.252044677734375
1.7294973055770975e+18,0.03138166293501854,-0.05664294958114624,-7.346173286437988
1.7294973055860977e+18,-0.025391431525349617,-0.018601559102535248,-7.409646987915039
1.7294973055950979e+18,-0.03874266520142555,-0.06570514291524887,-7.420365810394287
1.729497305604098e+18,-0.025822222232818604,-0.004418348893523216,-7.326181888580322
1.7294973056130982e+18,-0.014366138726472855,0.013165570795536041,-7.298030376434326
1.7294973056220984e+18,-0.02821730449795723,-0.10493524372577667,-7.33689546585083
1.7294973056310986e+18,0.015465598553419113,0.04087645187973976,-7.455914497375488
1.7294973056400988e+18,-0.03621840476989746,-0.08020594716072083,-7.590394020080566
1.729497305649099e+18,-0.059422049671411514,0.026197422295808792,-7.497865676879883
1.7294973056580992e+18,0.001029396429657936,-0.08059434592723846,-6.077000141143799
1.7294973056670994e+18,-0.014207873493432999,0.04948144406080246,-5.898602485656738
1.7294973056730995e+18,-0.04476878419518471,-0.04537154361605644,-5.842101097106934
1.7294973056820997e+18,-0.006046085152775049,0.03432116284966469,-5.9908857345581055
1.7294973056911e+18,-0.03768265247344971,-0.02217957377433777,-6.106509208679199
1.7294973057001e+18,1.6592908650636673e-05,-0.061472028493881226,-6.115460395812988
1.7294973057091003e+18,-0.020010150969028473,-0.039992716163396835,-6.281111240386963
1.7294973057151004e+18,-0.07940145581960678,0.054220713675022125,-6.333587646484375
1.7294973057241006e+18,-0.01703459396958351,0.03594226762652397,-6.37772274017334
1.7294973057331008e+18,-0.0514206625521183,-0.02430131286382675,-6.546056747436523
1.729497305745101e+18,0.014973817393183708,0.03041302040219307,-6.726369380950928
1.7294973057541012e+18,9.062699973583221e-05,0.009306960739195347,-6.823619842529297
1.7294973057631014e+18,-0.0849476307630539,0.01018220093101263,-6.8711256980896
1.7294973057721016e+18,0.006094601936638355,-0.056194692850112915,-7.037624359130859
1.7294973057781018e+18,-0.029223252087831497,0.04167283698916435,-7.095066070556641
1.729497305787102e+18,-0.07860784232616425,-0.06481894850730896,-7.177842140197754
1.7294973057961021e+18,0.019789334386587143,-0.04700448736548424,-7.269342422485352
1.7294973058051023e+18,0.010174869559705257,-0.023036634549498558,-7.31364107131958
1.7294973058141025e+18,-0.06298603117465973,-0.051864031702280045,-7.348327159881592
1.7294973058231027e+18,-0.004690016154199839,-0.04535854980349541,-7.443630218505859
1.729497305832103e+18,0.05135193094611168,0.04338749498128891,-7.559117794036865
1.729497305838103e+18,-0.016696609556674957,-0.030817903578281403,-7.642053127288818
1.7294973058471032e+18,-0.010982387699186802,-0.017627893015742302,-7.70387077331543
1.7294973058561034e+18,0.03381958231329918,0.0471070297062397,-7.741758823394775
1.7294973058621036e+18,-0.015693865716457367,-0.010065291076898575,-7.7972211837768555
1.7294973058711037e+18,0.0030850875191390514,-0.12714891135692596,-7.825252056121826
1.729497305880104e+18,-0.006182796321809292,-0.023724250495433807,-7.9029340744018555
1.729497305886104e+18,0.07970238476991653,0.03156456723809242,-7.9127516746521
1.7294973058951043e+18,-0.07175052911043167,0.0026358813047409058,-8.01370906829834
1.7294973059041044e+18,0.03534556180238724,-0.04206579923629761,-8.005147933959961
1.7294973059101046e+18,0.048320088535547256,0.02071007713675499,-8.103710174560547
1.7294973059191048e+18,-0.016894903033971786,0.016658492386341095,-8.15957260131836
1.729497305928105e+18,-0.08684200048446655,-0.01686912775039673,-8.207498550415039
1.7294973059371052e+18,-0.012937026098370552,0.042763788253068924,-8.323225975036621
1.7294973059431053e+18,0.0398075096309185,0.031981103122234344,-8.309825897216797
1.7294973059521055e+18,0.019683830440044403,0.029416978359222412,-8.316506385803223
1.7294973059611057e+18,0.0697745755314827,-0.06232558190822601,-8.368465423583984
1.7294973059671058e+18,-0.005342644639313221,0.017549999058246613,-8.43803882598877
1.729497305976106e+18,0.012386729940772057,0.031093910336494446,-8.39311408996582
1.7294973059851062e+18,-0.0073001570999622345,-0.0367918461561203,-8.563896179199219
1.7294973059941064e+18,0.014863815158605576,0.018653862178325653,-8.54853343963623
1.7294973060001065e+18,-0.0009613363072276115,0.05208315700292587,-8.59259033203125
1.7294973060091067e+18,0.03541916236281395,0.07627658545970917,-8.629277229309082
1.7294973060151068e+18,-0.0035048918798565865,0.005767174996435642,-8.624247550964355
1.729497306027107e+18,0.036790188401937485,0.06202339008450508,-8.622105598449707
1.7294973060391073e+18,0.004474717658013105,0.038029707968235016,-8.687851905822754
1.7294973060481075e+18,0.028278933838009834,-0.0009978879243135452,-8.777101516723633
1.7294973060571077e+18,0.01643362268805504,0.04574529454112053,-8.861801147460938
1.7294973060631078e+18,0.020465891808271408,0.03293910622596741,-8.804793357849121
1.729497306072108e+18,-0.07280343025922775,0.049720752984285355,-8.852540969848633
1.7294973060781082e+18,-0.04077279567718506,0.09654892981052399,-8.920307159423828
1.7294973060871084e+18,0.0162186399102211,0.030694931745529175,-8.888948440551758
1.7294973060961085e+18,0.05415382608771324,-0.03598339483141899,-8.91462516784668
1.7294973061021087e+18,0.06392654031515121,0.03519083559513092,-8.971020698547363
1.7294973061111089e+18,0.001191834919154644,0.049570512026548386,-8.994890213012695
1.729497306120109e+18,0.035789355635643005,-0.01766621693968773,-9.07883358001709
1.7294973061261092e+18,0.029912251979112625,0.09471841901540756,-9.009281158447266
1.7294973061351094e+18,0.03188791126012802,0.08395148813724518,-9.049724578857422
1.7294973061441096e+18,-0.03198574110865593,-0.042170196771621704,-9.080255508422852
1.7294973061501097e+18,0.03428792953491211,0.07050648331642151,-9.088390350341797
1.72949730615911e+18,-0.005097368732094765,0.055532731115818024,-9.141945838928223
1.72949730616511e+18,0.030917752534151077,-0.02135736122727394,-9.153433799743652
1.7294973061741102e+18,-0.028400640934705734,0.02108953893184662,-9.134501457214355
1.7294973061801103e+18,-0.01711801439523697,0.0045616403222084045,-9.186254501342773
1.7294973061891105e+18,-0.02607204020023346,0.04839996621012688,-9.192071914672852
1.7294973061981107e+18,0.0120923463255167,0.07255242764949799,-9.21969985961914
1.7294973062041108e+18,-0.016292039304971695,0.09141996502876282,-9.293110847473145
1.729497306213111e+18,-0.026798076927661896,-0.022420749068260193,-9.172015190124512
1.7294973062221112e+18,0.0033401865512132645,0.06773702800273895,-9.33001708984375
1.7294973062281114e+18,0.06654280424118042,-0.0016335844993591309,-9.338409423828125
1.7294973062371116e+18,0.06720180809497833,0.09245319664478302,-9.406942367553711
1.7294973062431117e+18,0.07254739105701447,0.03715914115309715,-9.343738555908203
1.729497306252112e+18,-0.10035945475101471,-0.023897703737020493,-9.375136375427246
1.729497306261112e+18,-0.019409336149692535,0.05114953964948654,-9.3939208984375
1.7294973062671122e+18,0.02308797277510166,-0.03916262835264206,-9.401042938232422
1.7294973062761124e+18,0.021929260343313217,0.0030806325376033783,-9.308995246887207
1.7294973062881126e+18,-0.010603725910186768,0.008285213261842728,-9.424155235290527
1.7294973062971128e+18,-0.030827555805444717,0.06231370568275452,-9.495051383972168
1.729497306303113e+18,-0.001616479828953743,0.017077723518013954,-9.498374938964844
1.7294973063121132e+18,0.04448834806680679,0.038576360791921616,-9.405562400817871
1.7294973063211133e+18,0.13020342588424683,0.08236165344715118,-9.46667194366455
1.7294973063301135e+18,0.011308347806334496,0.07752540707588196,-9.492236137390137
1.7294973063361137e+18,0.024841032922267914,0.056114811450242996,-9.417591094970703
1.7294973063451139e+18,0.042924582958221436,0.01689770817756653,-9.513968467712402
1.729497306351114e+18,0.0017422381788492203,0.06066512688994408,-9.564489364624023
1.7294973063601142e+18,0.01777433604001999,0.06855842471122742,-9.587830543518066
1.7294973063661143e+18,0.039050307124853134,0.11492826789617538,-9.505053520202637
1.7294973063751145e+18,0.07139335572719574,0.06443081051111221,-9.53429126739502
1.7294973063841147e+18,0.04328710213303566,-0.036777809262275696,-9.594942092895508
1.7294973063901148e+18,0.09153604507446289,0.05359680950641632,-9.540122032165527
1.729497306402115e+18,0.07386794686317444,-0.0011587776243686676,-9.511091232299805
1.7294973064111153e+18,0.001635439693927765,0.046816885471343994,-9.652580261230469
1.7294973064171154e+18,0.10606968402862549,0.12974493205547333,-9.649248123168945
1.7294973064261156e+18,0.055318765342235565,0.12000379711389542,-9.660717964172363
1.7294973064351158e+18,-0.037117257714271545,0.03709777444601059,-9.69314956665039
1.729497306441116e+18,0.034079454839229584,0.06613006442785263,-9.602193832397461
1.729497306450116e+18,0.002642100676894188,0.13186068832874298,-9.643946647644043
1.7294973064591163e+18,0.055525705218315125,0.12668564915657043,-9.671121597290039
1.7294973064681165e+18,0.028830964118242264,0.05774027109146118,-9.688722610473633
1.7294973064741166e+18,0.06962206959724426,0.09752122312784195,-9.682538986206055
1.7294973064831168e+18,0.06055668368935585,0.07930383831262589,-9.67912769317627
1.729497306492117e+18,0.007182193920016289,0.12482677400112152,-9.688299179077148
1.729497306498117e+18,0.03254038840532303,0.09707097709178925,-9.715217590332031
1.7294973065101174e+18,0.013213275000452995,0.0707555040717125,-9.768279075622559
1.7294973065191176e+18,0.054927848279476166,0.1172415167093277,-9.677712440490723
1.729497306534118e+18,0.10493971407413483,0.09833423793315887,-9.714351654052734
1.729497306540118e+18,0.046629078686237335,0.11303345859050751,-9.780049324035645
1.7294973065491182e+18,0.0074214208871126175,0.15202784538269043,-9.73709774017334
1.7294973065611185e+18,0.027928758412599564,0.10340707004070282,-9.759947776794434
1.7294973065701187e+18,0.0561743900179863,0.09152042120695114,-9.81190299987793
1.7294973065761188e+18,0.02953191287815571,-0.027900636196136475,-9.733448028564453
1.729497306585119e+18,0.07139933109283447,0.07006914168596268,-9.74984073638916
1.7294973065941192e+18,-0.023869961500167847,0.08207999914884567,-9.721806526184082
1.7294973066001193e+18,0.05678357928991318,-0.010739050805568695,-9.708990097045898
1.7294973066091195e+18,0.0012007839977741241,0.08123014867305756,-9.846943855285645
1.7294973066181197e+18,0.08663785457611084,0.04622607305645943,-10.864728927612305
1.7294973066271199e+18,0.01693517342209816,0.03372293338179588,-11.22834300994873
1.72949730663612e+18,0.005635684356093407,0.09233337640762329,-11.330925941467285
1.7294973066421202e+18,0.01851554773747921,0.18906831741333008,-11.307785987854004
1.7294973066511204e+18,-0.039383165538311005,0.09509650617837906,-11.326994895935059
1.7294973066601206e+18,0.08233839273452759,0.0917467251420021,-11.419417381286621
1.7294973066661207e+18,0.01026117242872715,0.014772169291973114,-11.4579439163208
1.729497306675121e+18,0.013484083116054535,0.11388998478651047,-11.36124038696289
1.729497306681121e+18,0.04773348197340965,0.08629107475280762,-11.4431791305542
1.7294973066901212e+18,-0.03013128787279129,0.07268793880939484,-11.490785598754883
1.7294973066991214e+18,-0.09899288415908813,0.08521753549575806,-11.484026908874512
1.7294973067081216e+18,0.05563369393348694,0.0930013656616211,-11.410469055175781
1.7294973067171218e+18,0.1107955276966095,0.1422596573829651,-11.546950340270996
1.729497306723122e+18,0.0358046293258667,0.05419374629855156,-11.50904655456543
1.729497306732122e+18,-0.06458599865436554,0.14514310657978058,-11.468979835510254
1.7294973067381222e+18,0.0415855273604393,0.050632111728191376,-11.412071228027344
1.7294973067531226e+18,0.025454316288232803,0.11095107346773148,-11.335186004638672
1.7294973067591227e+18,0.10358598083257675,0.08691294491291046,-11.35908317565918
1.729497306768123e+18,0.03303813934326172,0.05863538756966591,-11.551370620727539
1.729497306777123e+18,0.023089159280061722,0.16241106390953064,-11.496460914611816
1.7294973067861233e+18,0.12477609515190125,0.11063886433839798,-11.551750183105469
1.7294973067951235e+18,0.06317411363124847,0.08426225185394287,-11.540127754211426
1.7294973068041236e+18,0.030319517478346825,0.10478673130273819,-11.512272834777832
1.7294973068131238e+18,-0.034276023507118225,0.0694769024848938,-11.493159294128418
1.729497306819124e+18,0.060139209032058716,0.04591028392314911,-11.430057525634766
1.7294973068281242e+18,0.013858979567885399,0.09614080935716629,-11.490753173828125
1.7294973068371244e+18,0.03535842150449753,0.084881491959095,-11.464696884155273
1.7294973068461245e+18,0.06074261665344238,0.06928403675556183,-11.653373718261719
1.7294973068551247e+18,0.09259385615587234,0.16828414797782898,-11.689790725708008
1.7294973068611249e+18,-0.015745364129543304,0.13449421525001526,-11.653521537780762
1.729497306870125e+18,0.09766245633363724,0.09218181669712067,-11.62175464630127
1.7294973068791252e+18,0.01943948119878769,0.12148571014404297,-11.613356590270996
1.7294973068881254e+18,0.06653660535812378,0.003634050488471985,-11.582579612731934
1.7294973068941256e+18,0.0006838515400886536,0.119601309299469,-11.534085273742676
1.7294973069031258e+18,0.029459893703460693,0.09334444254636765,-11.610273361206055
1.729497306912126e+18,0.023119406774640083,0.08008076995611191,-11.693499565124512
1.7294973069211261e+18,-0.030262596905231476,0.0873994380235672,-11.622450828552246
1.7294973069301263e+18,0.06756699085235596,0.16298030316829681,-11.663908004760742
1.7294973069361265e+18,-0.025831155478954315,0.08521319180727005,-11.59854507446289
1.7294973069451267e+18,0.027553118765354156,0.08464085310697556,-11.59535026550293
1.7294973069541268e+18,-0.03179202228784561,0.16695347428321838,-11.683450698852539
1.729497306963127e+18,0.00044451281428337097,0.18987898528575897,-11.709297180175781
1.7294973069691272e+18,0.059271834790706635,0.1773042231798172,-11.597999572753906
1.7294973069781274e+18,0.02778320387005806,0.12071651965379715,-11.66221809387207
1.7294973069871276e+18,-0.013619516044855118,0.12608793377876282,-11.68851089477539
1.7294973069931277e+18,0.09654878079891205,0.11514908820390701,-11.715989112854004
1.729497307002128e+18,0.023666072636842728,0.10146994143724442,-11.631823539733887
1.729497307011128e+18,0.05623205006122589,0.14268992841243744,-11.691247940063477
1.7294973070171282e+18,0.05275418609380722,0.21167771518230438,-11.662171363830566
1.7294973070261284e+18,0.059526294469833374,0.05445057153701782,-11.71636962890625
1.7294973070321285e+18,0.07705233991146088,0.14733068645000458,-11.648811340332031
1.7294973070411287e+18,0.04899222403764725,0.12241724878549576,-11.736196517944336
1.729497307050129e+18,-0.024656586349010468,0.1227552592754364,-11.693562507629395
1.729497307056129e+18,0.033770736306905746,0.07322389632463455,-11.754005432128906
1.7294973070681293e+18,0.05075615644454956,0.0669478327035904,-11.702628135681152
1.7294973070801295e+18,-0.0058573149144649506,0.07199733704328537,-11.87059211730957
1.7294973070891297e+18,0.0687473937869072,0.16933351755142212,-11.83748722076416
1.72949730709813e+18,0.01516304723918438,0.16724072396755219,-11.705338478088379
1.72949730710413e+18,-0.033140406012535095,0.1801535189151764,-11.756693840026855
1.7294973071131302e+18,0.01869746297597885,0.15663836896419525,-11.71267032623291
1.7294973071221304e+18,0.01697361096739769,0.18731869757175446,-11.793153762817383
1.7294973071311306e+18,-0.019180510193109512,0.18921247124671936,-11.742066383361816
1.7294973071371308e+18,0.11418769508600235,0.13774219155311584,-11.78841781616211
1.729497307146131e+18,0.04370049759745598,0.15034081041812897,-11.817056655883789
1.7294973071551311e+18,0.059152714908123016,0.22516319155693054,-11.842474937438965
1.7294973071641313e+18,0.005846235901117325,0.09400424361228943,-11.870677947998047
1.7294973071731315e+18,0.001784592866897583,0.09271122515201569,-11.682961463928223
1.7294973071821317e+18,0.05765661224722862,0.2039688527584076,-11.74398136138916
1.729497307191132e+18,0.011394292116165161,0.21364286541938782,-11.82778263092041
1.729497307200132e+18,0.07853025197982788,0.15109902620315552,-11.76549243927002
1.7294973072061322e+18,0.030350178480148315,0.08195031434297562,-11.746254920959473
1.7294973072181325e+18,0.0041405074298381805,0.13102947175502777,-11.756348609924316
1.7294973072271327e+18,0.02031843364238739,0.07618042081594467,-11.825772285461426
1.7294973072331328e+18,0.09136869758367538,0.12889201939105988,-11.847652435302734
1.729497307242133e+18,0.02647189423441887,0.18300822377204895,-11.92094898223877
1.7294973072511332e+18,0.0966934859752655,0.087084099650383,-11.913233757019043
1.7294973072601334e+18,0.06091371178627014,0.20451006293296814,-11.878092765808105
1.7294973072661335e+18,-0.014804840087890625,0.15907493233680725,-11.706441879272461
1.7294973072751337e+18,0.012613337486982346,0.14618711173534393,-11.650129318237305
1.7294973072811338e+18,-0.004919078201055527,0.2104359269142151,-11.692342758178711
1.729497307290134e+18,0.061813414096832275,0.11660453677177429,-11.848679542541504
1.7294973072991342e+18,0.057828210294246674,0.15705014765262604,-11.725818634033203
1.7294973073051343e+18,-0.012017406523227692,0.1429837942123413,-11.832145690917969
1.7294973073141345e+18,0.0967504233121872,0.16657809913158417,-11.793414115905762
1.7294973073231347e+18,0.03611825779080391,0.1146492213010788,-11.815823554992676
1.729497307332135e+18,0.035942062735557556,0.12571017444133759,-11.812399864196777
1.729497307338135e+18,0.03014601208269596,0.2377031445503235,-11.753718376159668
1.7294973073471352e+18,-0.004311185330152512,0.14432202279567719,-11.685137748718262
1.7294973073561354e+18,0.09005557000637054,0.1700354814529419,-11.756665229797363
1.7294973073621356e+18,-0.004183590412139893,0.1604095995426178,-11.668695449829102
1.7294973073711357e+18,0.05584118142724037,0.12872165441513062,-11.666583061218262
1.729497307380136e+18,0.06923320889472961,0.1249605193734169,-11.659887313842773
1.729497307386136e+18,0.018504109233617783,0.1567697823047638,-11.605220794677734
1.7294973073951363e+18,0.07986770570278168,0.1300475001335144,-11.696100234985352
1.7294973074101366e+18,0.02419082075357437,0.13273565471172333,-11.620171546936035
1.7294973074161367e+18,0.03638170287013054,0.1750861406326294,-11.723522186279297
1.729497307425137e+18,-0.06102032959461212,0.14208462834358215,-11.642670631408691
1.729497307434137e+18,0.05709686502814293,0.18005765974521637,-11.652088165283203
1.7294973074431373e+18,0.02867971360683441,0.15576113760471344,-11.6587553024292
1.7294973074521375e+18,-0.003982696682214737,0.21497146785259247,-11.562742233276367
1.7294973074581376e+18,-0.0008795671164989471,0.18216894567012787,-11.685534477233887
1.7294973074671378e+18,-0.007197842001914978,0.143829345703125,-11.69543743133545
1.729497307476138e+18,0.03032691404223442,0.15804016590118408,-11.737173080444336
1.729497307482138e+18,0.09507501125335693,0.21185904741287231,-11.545888900756836
1.7294973074911383e+18,0.005709793418645859,0.11778852343559265,-11.649307250976562
1.7294973075001385e+18,-0.04581442475318909,0.14277896285057068,-11.608207702636719
1.7294973075061386e+18,0.1240917444229126,0.19101528823375702,-11.625347137451172
1.7294973075151388e+18,0.09929628670215607,0.1287499964237213,-11.495458602905273
1.729497307524139e+18,0.00694829598069191,0.10861019790172577,-11.5904541015625
1.7294973075331392e+18,-0.00790664553642273,0.09850869327783585,-11.486858367919922
1.7294973075391393e+18,0.03255615755915642,0.24748797714710236,-11.562845230102539
1.7294973075481395e+18,0.07859198749065399,0.16689898073673248,-11.53761100769043
1.7294973075571397e+18,0.09451866149902344,0.20648419857025146,-11.506948471069336
1.72949730756614e+18,0.01342293806374073,0.1881750226020813,-11.465142250061035
1.72949730757214e+18,0.09708064049482346,0.12087485194206238,-11.494208335876465
1.7294973075811402e+18,0.08204922080039978,0.14237254858016968,-11.475584030151367
1.7294973075871404e+18,0.045273710042238235,0.21734747290611267,-11.437995910644531
1.7294973075961405e+18,0.08485540747642517,0.16064557433128357,-11.346237182617188
1.7294973076051407e+18,0.11406904458999634,0.11498419940471649,-11.48359203338623
1.729497307614141e+18,0.04816965013742447,0.0651981309056282,-11.407882690429688
1.729497307623141e+18,0.04302196577191353,0.206462100148201,-11.364662170410156
1.7294973076291412e+18,0.07064695656299591,0.13396041095256805,-11.393146514892578
1.7294973076381414e+18,0.016318073496222496,0.1575029045343399,-11.378327369689941
1.7294973076471416e+18,0.07472410053014755,0.17174890637397766,-11.348069190979004
1.7294973076561418e+18,0.04911185801029205,0.14965161681175232,-11.357097625732422
1.729497307665142e+18,0.06922392547130585,0.17338189482688904,-11.306249618530273
1.7294973076711421e+18,0.04378494992852211,0.2137124240398407,-11.263761520385742
1.7294973076801423e+18,0.02446116879582405,0.1658822000026703,-11.274755477905273
1.7294973076861425e+18,0.009223658591508865,0.19145554304122925,-11.31256103515625
1.7294973076951427e+18,0.04778759926557541,0.1565791219472885,-11.352792739868164
1.7294973077041428e+18,0.0796847939491272,0.1492534726858139,-11.234209060668945
1.729497307713143e+18,0.026972291991114616,0.21279005706310272,-11.265386581420898
1.7294973077191432e+18,0.03460196405649185,0.17366470396518707,-11.23891830444336
1.7294973077281434e+18,0.03669540584087372,0.17097313702106476,-11.186957359313965
1.7294973077371436e+18,0.0030553825199604034,0.09502954035997391,-11.23912239074707
1.7294973077461437e+18,-0.008850328624248505,0.13586491346359253,-11.16911792755127
1.729497307752144e+18,0.07597701251506805,0.2286107987165451,-11.231485366821289
1.729497307761144e+18,-0.02344021573662758,0.21108874678611755,-11.213651657104492
1.7294973077701443e+18,-0.036753617227077484,0.19119793176651,-11.223372459411621
1.7294973077761444e+18,0.03945763781666756,0.20030036568641663,-11.16163158416748
1.7294973077851446e+18,-0.0008384324610233307,0.14153088629245758,-11.201103210449219
1.7294973077941448e+18,0.009712900966405869,0.1737683117389679,-11.066084861755371
1.729497307800145e+18,-0.0043754056096076965,0.2495565414428711,-11.086731910705566
1.729497307809145e+18,0.029261674731969833,0.23644699156284332,-11.156476020812988
1.7294973078181453e+18,0.07828329503536224,0.026505589485168457,-11.089883804321289
1.7294973078241454e+18,0.08030728995800018,0.1625320166349411,-11.079977989196777
1.7294973078331456e+18,0.07023563981056213,0.18927882611751556,-11.052762031555176
1.7294973078421458e+18,0.06613274663686752,0.16500791907310486,-11.056730270385742
1.729497307851146e+18,0.07822622358798981,0.12406232953071594,-11.007926940917969
1.729497307857146e+18,0.050356175750494,0.14774930477142334,-11.075265884399414
1.7294973078661463e+18,0.09595445543527603,0.206695556640625,-10.974213600158691
1.7294973078751465e+18,0.040026258677244186,0.15651696920394897,-10.986968994140625
1.7294973078811466e+18,0.02420903742313385,0.18914999067783356,-10.899357795715332
1.7294973078901468e+18,0.062137164175510406,0.19956575334072113,-10.972570419311523
1.729497307896147e+18,-0.06653127074241638,0.19760750234127045,-10.953800201416016
1.7294973079051471e+18,0.05505061894655228,0.1421515792608261,-10.920555114746094
1.7294973079141473e+18,0.02970215678215027,0.19440017640590668,-10.851198196411133
1.7294973079231475e+18,0.03776850178837776,0.24754443764686584,-10.829882621765137
1.7294973079291476e+18,0.022007647901773453,0.15000352263450623,-10.788475036621094
1.7294973079381478e+18,0.08803987503051758,0.19585348665714264,-10.980545997619629
1.729497307947148e+18,0.027161600068211555,0.18237902224063873,-11.117156982421875
1.7294973079561482e+18,0.11670961230993271,0.18440066277980804,-11.020735740661621
1.7294973079651484e+18,0.012156441807746887,0.22313378751277924,-11.003617286682129
1.7294973079741486e+18,0.010758619755506516,0.1734028458595276,-10.863184928894043
1.7294973079801487e+18,0.1441810429096222,0.1665002554655075,-10.947968482971191
1.729497307989149e+18,0.07558669149875641,0.1258758008480072,-10.90090274810791
1.729497307998149e+18,-0.03852975368499756,0.19309014081954956,-10.936421394348145
1.7294973080041492e+18,0.042412612587213516,0.24661797285079956,-10.919045448303223
1.7294973080131494e+18,0.03318173810839653,0.19153185188770294,-10.837038040161133
1.7294973080221496e+18,0.010102413594722748,0.12157649546861649,-10.819246292114258
1.7294973080281498e+18,0.02958448976278305,0.2484513521194458,-10.733599662780762
1.72949730803715e+18,0.049630358815193176,0.17754946649074554,-10.797982215881348
1.7294973080461501e+18,-0.07289735972881317,0.22202736139297485,-10.76390552520752
1.7294973080551503e+18,0.09881521761417389,0.0986892580986023,-10.738235473632812
1.7294973080611505e+18,0.026772471144795418,0.12285938113927841,-10.732858657836914
1.7294973080701507e+18,0.10795984417200089,0.16002850234508514,-10.700618743896484
1.7294973080791508e+18,0.017950857058167458,0.18511028587818146,-10.7173490524292
1.729497308085151e+18,0.08716808259487152,0.20097269117832184,-10.686915397644043
1.7294973080941512e+18,0.06399215757846832,0.17589826881885529,-10.548373222351074
1.7294973081001513e+18,0.043614864349365234,0.18121376633644104,-10.646173477172852
1.7294973081091515e+18,0.038967277854681015,0.2024458646774292,-10.581462860107422
1.7294973081181517e+18,0.1356431245803833,0.20344382524490356,-10.575108528137207
1.7294973081241518e+18,-0.01943913847208023,0.16878405213356018,-10.553500175476074
1.729497308133152e+18,0.0044670142233371735,0.18025417625904083,-10.569615364074707
1.7294973081421522e+18,0.09704539179801941,0.1747807264328003,-10.474472045898438
1.7294973081511524e+18,0.07771839201450348,0.19219724833965302,-10.414481163024902
1.7294973081571525e+18,-0.032531920820474625,0.13459178805351257,-10.491109848022461
1.7294973081661527e+18,0.020435791462659836,0.16860000789165497,-10.363186836242676
1.729497308175153e+18,0.012027610093355179,0.13806907832622528,-10.425917625427246
1.729497308181153e+18,0.011749837547540665,0.20279064774513245,-10.445535659790039
1.7294973081901532e+18,0.10987373441457748,0.23575173318386078,-10.410400390625
1.7294973082021535e+18,0.04925401136279106,0.1841764748096466,-10.460708618164062
1.7294973082111537e+18,0.06411389261484146,0.17546521127223969,-10.436158180236816
1.7294973082201539e+18,0.04866322875022888,0.19491317868232727,-10.260161399841309
1.729497308229154e+18,0.06313186138868332,0.15683598816394806,-10.209295272827148
1.7294973082381542e+18,0.05984169989824295,0.17707525193691254,-10.240427017211914
1.7294973082471544e+18,0.0008120238780975342,0.13794608414173126,-10.24217414855957
1.7294973082531546e+18,0.01550898514688015,0.10906440764665604,-10.19758129119873
1.7294973082621548e+18,0.0931045413017273,0.21486252546310425,-10.259519577026367
1.729497308271155e+18,0.05067169666290283,0.20956303179264069,-10.174918174743652
1.729497308277155e+18,0.08207167685031891,0.21125006675720215,-10.136571884155273
1.7294973082861553e+18,0.11962135136127472,0.1417207568883896,-10.197257041931152
1.7294973082951555e+18,0.07376426458358765,0.12433353066444397,-10.173362731933594
1.7294973083041556e+18,0.010839022696018219,0.1849091351032257,-10.101882934570312
1.7294973083101558e+18,0.0915403813123703,0.17978179454803467,-10.190925598144531
1.729497308319156e+18,0.07357536256313324,0.2166454941034317,-10.09049129486084
1.7294973083281562e+18,0.03896605223417282,0.21221323311328888,-10.069588661193848
1.7294973083341563e+18,0.058525312691926956,0.23709505796432495,-10.159897804260254
1.7294973083431565e+18,0.004222072660923004,0.22713208198547363,-10.077800750732422
1.7294973083521567e+18,0.017990659922361374,0.24367621541023254,-10.12156867980957
1.7294973083611569e+18,0.00982193648815155,0.1429399698972702,-10.101232528686523
1.729497308367157e+18,0.06908337771892548,0.18991287052631378,-10.030442237854004
1.7294973083761572e+18,0.005460832267999649,0.16241034865379333,-10.019195556640625
1.7294973083851574e+18,0.03760311380028725,0.15127411484718323,-10.129026412963867
1.7294973083911575e+18,0.017848782241344452,0.24224303662776947,-10.038630485534668
1.7294973084001577e+18,-0.0650845468044281,0.21271377801895142,-9.970250129699707
1.729497308409158e+18,0.01819569244980812,0.23789018392562866,-9.999216079711914
1.729497308418158e+18,0.0714002251625061,0.14719557762145996,-9.950632095336914
1.7294973084271583e+18,-0.010052062571048737,0.15581315755844116,-9.91539192199707
1.7294973084331584e+18,0.08728474378585815,0.12227775901556015,-9.897242546081543
1.7294973084421586e+18,0.06289099156856537,0.12562111020088196,-7.7897233963012695
1.7294973084481587e+18,0.007502999156713486,0.23453210294246674,-6.143309116363525
1.729497308457159e+18,-0.02921310067176819,0.16652807593345642,-5.430302619934082
1.729497308466159e+18,0.04394539073109627,0.20479577779769897,-7.257112503051758
1.7294973084721592e+18,0.02896789088845253,0.24496619403362274,-7.781290054321289
1.7294973084811594e+18,-0.06970996409654617,0.22173115611076355,-8.279778480529785
1.7294973084901596e+18,-0.07832084596157074,0.2248901128768921,-8.26709270477295
1.7294973084961597e+18,-0.0014561573043465614,0.12818218767642975,-8.39145278930664
1.72949730850516e+18,0.028396600857377052,0.055849865078926086,-8.572542190551758
1.72949730851416e+18,0.02981172874569893,0.15113970637321472,-8.653559684753418
1.7294973085231603e+18,-0.005494477227330208,0.19796064496040344,-8.732071876525879
1.7294973085291604e+18,0.008220255374908447,0.20768386125564575,-8.911216735839844
1.7294973085381606e+18,-0.01190396398305893,0.18268471956253052,-8.894756317138672
1.7294973085471608e+18,-0.022342419251799583,0.25474727153778076,-8.920928955078125
1.729497308553161e+18,-0.027388092130422592,0.12996986508369446,-8.974381446838379
1.7294973085621612e+18,0.01970631070435047,0.1650232970714569,-9.088329315185547
1.7294973085681613e+18,-0.06293708086013794,0.1004532054066658,-9.09152889251709
1.7294973085771615e+18,-0.014374932274222374,0.13862913846969604,-9.19461441040039
1.7294973085861617e+18,-0.02792726457118988,0.15358075499534607,-9.250773429870605
1.7294973085951619e+18,-0.00024206098169088364,0.19186392426490784,-9.257394790649414
1.729497308607162e+18,0.012382645159959793,0.1341610550880432,-9.328070640563965
1.7294973086161623e+18,0.00752725824713707,0.10054241865873337,-9.334343910217285
1.7294973086251625e+18,0.049787212163209915,0.17057214677333832,-9.422804832458496
1.7294973086311626e+18,0.09195515513420105,0.21212147176265717,-9.391982078552246
1.7294973086401628e+18,0.02530664950609207,0.1404331773519516,-9.390697479248047
1.729497308649163e+18,0.02420310489833355,0.1952395737171173,-9.379199981689453
1.7294973086551631e+18,-0.030341405421495438,0.1545962244272232,-9.379222869873047
1.7294973086641633e+18,0.05911289528012276,0.18689104914665222,-9.490279197692871
1.7294973086731635e+18,-0.002647705376148224,0.17526867985725403,-9.474006652832031
1.7294973086821637e+18,0.04969190061092377,0.18970076739788055,-9.486926078796387
1.7294973086881638e+18,0.0956321582198143,0.12901541590690613,-9.437586784362793
1.729497308697164e+18,0.010560205206274986,0.2435910701751709,-9.524937629699707
1.7294973087061642e+18,0.059437721967697144,0.10411197692155838,-9.476737022399902
1.7294973087121644e+18,0.08138485997915268,0.20714205503463745,-9.563650131225586
1.7294973087211645e+18,0.06788860261440277,0.11315079778432846,-9.54924201965332
1.7294973087301647e+18,0.05809563398361206,0.18690510094165802,-9.577855110168457
1.729497308739165e+18,0.08027160167694092,0.2226574718952179,-9.609746932983398
1.729497308745165e+18,0.04394881799817085,0.1531854271888733,-9.53957462310791
1.7294973087541652e+18,0.01700492948293686,0.07545331865549088,-9.616734504699707
1.7294973087631654e+18,0.07388202846050262,0.18274754285812378,-9.536364555358887
1.7294973087721656e+18,-0.04324537515640259,0.1659359484910965,-9.656002044677734
1.7294973087811658e+18,0.058755867183208466,0.2280099093914032,-9.71840763092041
1.729497308790166e+18,0.07230354845523834,0.16538308560848236,-9.649384498596191
1.7294973087961661e+18,0.12696829438209534,0.20154471695423126,-9.638947486877441
1.7294973088051663e+18,0.04065973684191704,0.19961370527744293,-9.624499320983887
1.7294973088141665e+18,0.03230227902531624,0.16864611208438873,-9.629940032958984
1.7294973088231667e+18,0.06721489131450653,0.12379857152700424,-9.675230979919434
1.729497308832167e+18,0.09853934496641159,0.1513647437095642,-9.70458698272705
1.729497308841167e+18,0.036180995404720306,0.208085834980011,-9.721414566040039
1.7294973088471672e+18,0.06069315969944,0.16300463676452637,-9.727731704711914
1.7294973088561674e+18,0.0007353015244007111,0.16750717163085938,-9.731709480285645
1.7294973088651676e+18,0.0013131797313690186,0.2053043097257614,-9.717061996459961
1.7294973088741678e+18,0.09387189894914627,0.1312083899974823,-9.701080322265625
1.729497308883168e+18,0.035811010748147964,0.14220745861530304,-9.773706436157227
1.7294973088891681e+18,0.08655436336994171,0.20578861236572266,-9.789320945739746
1.7294973088981683e+18,0.09109580516815186,0.15654492378234863,-9.652573585510254
1.7294973089071685e+18,0.03113546408712864,0.2243148535490036,-9.821577072143555
1.7294973089161687e+18,-0.027535393834114075,0.17768259346485138,-9.699197769165039
1.7294973089221688e+18,-0.03980260342359543,0.19692693650722504,-9.741657257080078
1.729497308931169e+18,-0.01529661938548088,0.0818248838186264,-9.766059875488281
1.7294973089401692e+18,0.00045870430767536163,0.08708108216524124,-9.808566093444824
1.7294973089491694e+18,0.02253168635070324,0.18181940913200378,-9.742443084716797
1.7294973089551695e+18,-0.03094082698225975,0.18278726935386658,-9.695558547973633
1.7294973089641697e+18,0.04046608880162239,0.18884260952472687,-9.742695808410645
1.72949730897317e+18,0.04707516357302666,0.15750446915626526,-9.766600608825684
1.72949730898217e+18,0.015003195963799953,0.20586436986923218,-9.786824226379395
1.7294973089911703e+18,-0.02345481887459755,0.12615825235843658,-9.843941688537598
1.7294973090001705e+18,0.0647280216217041,0.106366366147995,-9.810514450073242
1.7294973090091707e+18,0.07853487133979797,0.12456915527582169,-9.825270652770996
1.729497309018171e+18,0.0016694758087396622,0.041943058371543884,-9.755560874938965
1.729497309024171e+18,0.02764124609529972,0.09483585506677628,-9.872947692871094
1.7294973090331712e+18,0.16312119364738464,0.051336973905563354,-9.843674659729004
1.7294973090421714e+18,-0.055777281522750854,0.08288121968507767,-9.83215045928955
1.7294973090511716e+18,0.02407093346118927,0.04450984299182892,-9.804479598999023
1.7294973090601718e+18,0.0037279408425092697,0.1534908413887024,-9.844271659851074
1.729497309069172e+18,0.08411633223295212,0.09243519604206085,-9.785162925720215
1.7294973090781722e+18,-0.012914497405290604,0.031327709555625916,-9.801065444946289
1.7294973090841723e+18,0.03060106188058853,0.02262815833091736,-9.74709415435791
1.7294973090931725e+18,0.052401550114154816,0.10342167317867279,-9.758072853088379
1.7294973091021727e+18,0.003103477880358696,0.22305715084075928,-9.753975868225098
1.7294973091111729e+18,0.042481765151023865,0.12294535338878632,-9.757349014282227
1.729497309120173e+18,0.026310142129659653,0.12476523220539093,-9.739606857299805
1.7294973091291732e+18,0.12449754774570465,0.10605640709400177,-9.825379371643066
1.7294973091351734e+18,0.011347503401339054,0.12359893321990967,-9.749780654907227
1.7294973091441736e+18,0.06901410222053528,0.16059142351150513,-9.777836799621582
1.7294973091531738e+18,0.001989031210541725,0.07583468407392502,-9.912617683410645
1.729497309162174e+18,0.07128611952066422,0.11805933713912964,-9.794840812683105
1.7294973091711741e+18,-0.013621939346194267,0.20692363381385803,-9.797944068908691
1.7294973091801743e+18,-0.005339950323104858,0.12539830803871155,-9.837477684020996
1.7294973091891745e+18,0.027044277638196945,0.12965330481529236,-9.770468711853027
1.7294973091951747e+18,-0.06575112044811249,0.1401182860136032,-9.76336669921875
1.7294973092041748e+18,0.03492417186498642,0.24032223224639893,-9.793148040771484
1.729497309213175e+18,0.024909745901823044,0.19783642888069153,-9.687518119812012
1.7294973092221752e+18,-0.044404536485672,0.03295595943927765,-9.806702613830566
1.7294973092281754e+18,-0.005948087200522423,0.15434065461158752,-9.851341247558594
1.7294973092371756e+18,0.10467614233493805,0.0342189222574234,-9.858613967895508
1.7294973092461757e+18,-0.011347806081175804,0.11551076918840408,-9.739392280578613
1.729497309252176e+18,0.017099056392908096,0.14799614250659943,-9.766528129577637
1.729497309261176e+18,0.06930438429117203,0.053530093282461166,-9.830496788024902
1.7294973092701763e+18,0.005079040303826332,0.14575012028217316,-9.808484077453613
1.7294973092791764e+18,-0.0003438657149672508,0.12783308327198029,-9.787221908569336
