timestamp,gyro_x,gyro_y,gyro_z
1.7294972975099254e+18,0.0008033271878957748,-0.0009933123365044594,-0.0006867765914648771
1.7294972975189256e+18,-0.0005197041318751872,-0.0005601874436251819,-0.0010086403926834464
1.7294972975249257e+18,-0.0024317495990544558,0.0026980815455317497,-0.00046225462574511766
1.729497297533926e+18,-0.0015982636250555515,-0.001203776802867651,-0.0008395151235163212
1.729497297542926e+18,0.0010945429094135761,-0.0001647407334530726,0.0003790748887695372
1.7294972975489262e+18,-0.0007705093594267964,-0.00011019437806680799,-0.00041382224299013615
1.7294972975579264e+18,0.0025205430574715137,0.0006106813088990748,-0.0001523721730336547
1.7294972975639265e+18,0.0028128500562161207,0.0010378389852121472,-0.0011174083920195699
1.7294972975729267e+18,-0.0006888123461976647,0.001141222077421844,-0.0026155454106628895
1.729497297581927e+18,-0.003335163928568363,-0.0008794374880380929,4.1807739762589335e-05
1.729497297590927e+18,0.00057534797815606,-0.00014010159065946937,0.00048042318667285144
1.7294972975969272e+18,0.0023915052879601717,-0.0010128928115591407,0.004250114317983389
1.7294972976059274e+18,0.001458986196666956,-4.5352317101787776e-05,-0.00029498923686333
1.7294972976119276e+18,-0.002523115836083889,0.000657571479678154,-0.0014909362653270364
1.7294972976209277e+18,0.0006893477402627468,0.0004332856915425509,-0.00030722649535164237
1.729497297629928e+18,0.00018498442659620196,0.0007918985793367028,0.0009000713471323252
1.729497297635928e+18,0.0015138350427150726,0.0015500524314120412,-4.296576662454754e-06
1.7294972976449283e+18,-0.0012112928088754416,0.0015298912767320871,0.002571257995441556
1.7294972976539284e+18,-5.416627391241491e-05,0.002222830895334482,0.001036539557389915
1.7294972976629286e+18,0.004810867365449667,-0.0019752015359699726,-0.0027716662734746933
1.7294972976719288e+18,-0.00013302768638823181,-0.003664738731458783,-0.002178745809942484
1.729497297683929e+18,0.0009602069621905684,0.0007189552416093647,0.0013303393498063087
1.7294972976899292e+18,-0.001161367166787386,-0.0009725334821268916,0.0007352959364652634
1.7294972976989294e+18,-0.001641290495172143,-0.003438027109950781,-0.0006651594885624945
1.7294972977079296e+18,-0.0008531040512025356,0.001127114868722856,0.00011918388918275014
1.7294972977139297e+18,0.0018692523008212447,0.002095493022352457,0.00025076509336940944
1.72949729772293e+18,-0.002038986887782812,0.003623218508437276,0.0015344111016020179
1.72949729773193e+18,0.001984118716791272,-0.0010706159519031644,-0.0003635183675214648
1.7294972977379302e+18,-0.0007431752746924758,0.0007877105963416398,0.0004896174650639296
1.7294972977469304e+18,-0.0010139575460925698,-0.00041958680958487093,-0.0003993955615442246
1.7294972977559306e+18,-0.0022572113666683435,-0.00038594097713939846,0.0017620023572817445
1.7294972977619308e+18,0.0011584485182538629,0.0003602320794016123,0.0019085939275100827
1.729497297770931e+18,-3.016129630850628e-05,-0.004170122090727091,0.00023187602346297354
1.729497297776931e+18,0.0007357330759987235,0.0013777845306321979,-0.001410414814017713
1.7294972977859313e+18,-0.001988073345273733,-0.0007526923436671495,-0.00023431160661857575
1.7294972977949315e+18,-0.000803695060312748,-9.841070277616382e-05,0.0006180853815749288
1.7294972978009316e+18,0.0018577397568151355,0.001105855917558074,0.002927882131189108
1.7294972978099318e+18,0.0009151236154139042,0.0012939756270498037,-0.0013441205956041813
1.729497297818932e+18,0.0009035666007548571,-0.0008760777418501675,0.0010445351945236325
1.7294972978279322e+18,0.0027912415098398924,-0.000760470109526068,-0.0014206815976649523
1.7294972978339323e+18,-0.0009880241705104709,-0.001326298457570374,0.00036646705120801926
1.7294972978429325e+18,0.0003484780609142035,-0.0007704863674007356,0.001904890057630837
1.7294972978519327e+18,-2.528311961214058e-05,-0.00010659623512765393,-0.0005325215170159936
1.7294972978579328e+18,0.001173074939288199,0.0002738800540100783,0.0016000594478100538
1.729497297866933e+18,-0.0010850724065676332,-0.0015202771173790097,0.0019598922226577997
1.729497297872933e+18,-0.00015124413766898215,-0.00011198862921446562,-0.0027954059187322855
1.7294972978819333e+18,-0.0016666119918227196,0.0009715718915686011,0.0001275084214285016
1.7294972978909335e+18,-2.933766518253833e-05,0.0009475550032220781,-0.0006320204702205956
1.7294972978999337e+18,-0.0026618533302098513,-0.0006050927913747728,-0.00072995584923774
1.7294972979059338e+18,-0.0031839124858379364,0.00036652651033364236,0.0004363386251498014
1.729497297914934e+18,-0.0034199184738099575,8.604665345046669e-05,-0.0009067425853572786
1.7294972979239342e+18,0.0001724072644719854,-0.000309635914163664,-0.0036886518355458975
1.7294972979299343e+18,-0.0014527932507917285,-0.0009714658372104168,-0.0008033718913793564
1.7294972979389345e+18,-0.0009798886021599174,0.0027858158573508263,-0.0008343198569491506
1.7294972979449347e+18,-0.0008751630666665733,0.0014952736673876643,-0.000761921051889658
1.7294972979539348e+18,-0.00010723678860813379,0.0033273641020059586,0.000984401092864573
1.729497297962935e+18,-0.00036369782174006104,0.00020013819448649883,-0.002206851728260517
1.7294972979719352e+18,-0.0007184181595221162,-0.0022608775179833174,0.0004121440870221704
1.7294972979809354e+18,0.00048502619029022753,0.00040957637247629464,-0.0008260193862952292
1.7294972979899356e+18,0.0005997075932100415,0.0016451788833364844,0.001371898571960628
1.7294972979989358e+18,0.0022512858267873526,-0.000703974801581353,-0.0013907899847254157
1.729497298004936e+18,0.0013128824066370726,0.0024285095278173685,-0.0007150035235099494
1.729497298013936e+18,-0.0023415274918079376,0.0003569909022189677,-0.0020082539413124323
1.7294972980229363e+18,-0.0010028388351202011,0.0011008151341229677,0.0019904873333871365
1.7294972980319365e+18,-0.0006243099924176931,0.0015413830988109112,0.0001867143000708893
1.7294972980379366e+18,-0.003146867733448744,0.0003346027806401253,-0.0007159959641285241
1.7294972980469368e+18,0.0009481807355768979,0.00016867724480107427,-0.0010873859282582998
1.729497298052937e+18,8.338621410075575e-05,0.00010929386189673096,-0.001578336232341826
1.7294972980619372e+18,0.00122416066005826,0.0006524206255562603,0.0003306947182863951
1.7294972980709373e+18,-0.0010633753845468163,0.0013652321649715304,-0.001823189901188016
1.7294972980769375e+18,0.002538492903113365,0.0004330120573285967,-0.006594992708414793
1.7294972980859377e+18,0.0013057211181148887,-0.0019878821913152933,0.001368727651424706
1.7294972980949379e+18,0.0019063986837863922,-0.0006715950439684093,0.0006442884914577007
1.729497298100938e+18,-0.001975255785509944,-0.00188817095477134,-0.0008849508594721556
1.7294972981099382e+18,0.0002470382023602724,-0.0008758894982747734,0.00012556470755953342
1.7294972981159383e+18,-0.0001358912413707003,0.0008053731871768832,-2.4445007511531003e-05
1.7294972981249385e+18,0.0009363628923892975,-3.612315413192846e-05,-0.00046238061622716486
1.7294972981309386e+18,-0.00033132988028228283,0.000950633198954165,-0.0028265160508453846
1.7294972981399388e+18,0.0007562935934402049,0.0022339087445288897,-6.8043933424633e-05
1.729497298148939e+18,9.27814980968833e-05,0.000268602161668241,0.0034283099230378866
1.7294972981549391e+18,-0.0007876410381868482,0.0013359825825318694,0.00047936633927747607
1.7294972981639393e+18,0.0009988906094804406,0.0032413078006356955,-0.0015789418248459697
1.7294972981699395e+18,0.00019755461835302413,0.0026167177129536867,-0.00031943595968186855
1.7294972981819397e+18,-0.00021350699535105377,-0.0007423394126817584,-0.0002805658441502601
1.7294972981879398e+18,0.002096407115459442,-0.001153472694568336,-0.004308920819312334
1.72949729819694e+18,-0.0017333357827737927,-0.00047607760643586516,0.0009663651580922306
1.7294972982059402e+18,0.0014235409907996655,-0.0019440797623246908,0.0009131811093539
1.7294972982119404e+18,0.0013868954265490174,0.0009736510692164302,-0.0007178290979936719
1.7294972982209405e+18,-0.0005081138806417584,0.000134907168103382,-0.0007356797577813268
1.7294972982299407e+18,-0.0012256870977580547,-0.002082216087728739,-0.002366668079048395
1.729497298238941e+18,-0.0015732580795884132,-0.001092826947569847,0.0010320344008505344
1.729497298247941e+18,-0.0010875549633055925,-0.002080351347103715,-0.0014243866316974163
1.7294972982539412e+18,-0.00132830033544451,0.0016360068693757057,0.0006406783359125257
1.7294972982629414e+18,0.0006819726550020278,0.004430475644767284,0.0010579329682514071
1.7294972982719416e+18,0.0029395902529358864,0.0037948698736727238,-0.0020923581905663013
1.7294972982779418e+18,0.0025163679383695126,-0.001536528579890728,0.0015188255347311497
1.729497298283942e+18,-0.00038489646976813674,0.0027864500880241394,-0.0010499201016500592
1.729497298292942e+18,0.0003362882707733661,0.0013364123879000545,-0.002985062776133418
1.7294972983019423e+18,5.638581933453679e-05,-0.0010247249156236649,-0.0014305812073871493
1.7294972983109425e+18,-0.00048456311924383044,0.0006472716922871768,-0.000852116325404495
1.7294972983169426e+18,0.0016307153273373842,-0.0026541545521467924,0.0018257360206916928
1.7294972983259428e+18,0.0013025985099375248,-0.001796190976165235,0.0007897137547843158
1.729497298334943e+18,-0.0009120340691879392,0.002961635822430253,0.0012586176162585616
1.7294972983439432e+18,-0.0025469386018812656,0.0010440837359055877,-0.002682959195226431
1.7294972983529434e+18,0.007231723517179489,-0.005086279008537531,0.0031623011454939842
1.7294972983589435e+18,0.04135109484195709,-0.019305944442749023,-6.928884977241978e-05
1.7294972983679437e+18,0.09340116381645203,-0.043158601969480515,0.0008692634874023497
1.7294972983769439e+18,0.141757994890213,-0.06183702498674393,0.0019822227768599987
1.729497298382944e+18,0.15707381069660187,-0.07052014768123627,0.000867611903231591
1.7294972983919442e+18,0.15732403099536896,-0.07395687699317932,0.00042752939043566585
1.7294972983979443e+18,0.14440569281578064,-0.07445784658193588,-0.0010040669003501534
1.7294972984069445e+18,0.11650543659925461,-0.06961636990308762,-0.002510344609618187
1.7294972984159447e+18,0.09396837651729584,-0.06093261390924454,-0.002268263604491949
1.7294972984219448e+18,0.08998187631368637,-0.05886290222406387,0.0019875788129866123
1.729497298430945e+18,0.10090383887290955,-0.05898936092853546,-0.0016845673089846969
1.7294972984399452e+18,0.11553513258695602,-0.06568848341703415,0.002204424235969782
1.7294972984459453e+18,0.13212330639362335,-0.0631757527589798,0.0013020557817071676
1.7294972984549455e+18,0.13413271307945251,-0.06564949452877045,0.0006794337532483041
1.7294972984639457e+18,0.12226349860429764,-0.06190881505608559,-0.0017889527371153235
1.7294972984699459e+18,0.1095285639166832,-0.05824039876461029,0.0017819139175117016
1.729497298478946e+18,0.08105531334877014,-0.05316931754350662,0.0006385772139765322
1.7294972984879462e+18,0.05923342704772949,-0.04532063379883766,0.0010586765129119158
1.7294972984939464e+18,0.05284016951918602,-0.03896563872694969,0.0017278569284826517
1.7294972985029466e+18,0.05271777883172035,-0.039027538150548935,0.0016521422658115625
1.7294972985119468e+18,0.05774810165166855,-0.03597203642129898,-0.0008455172646790743
1.729497298517947e+18,0.061378803104162216,-0.03414110839366913,-0.0030801272951066494
1.729497298526947e+18,0.0595766082406044,-0.033936139196157455,-0.000842754147015512
1.7294972985359473e+18,0.05038980394601822,-0.0219569131731987,0.001227284548804164
1.7294972985419474e+18,0.03513855114579201,-0.022557076066732407,0.0019480700138956308
1.7294972985509476e+18,0.015334074385464191,-0.017450712621212006,-0.0021367736626416445
1.7294972985569477e+18,0.0030323697719722986,-0.013897252269089222,-0.0018727871356531978
1.729497298565948e+18,-0.006155448034405708,-0.009799170307815075,-0.0010292073711752892
1.729497298571948e+18,-0.011290455237030983,-0.005915271583944559,-0.0004169175517745316
1.7294972985809482e+18,-0.008482052944600582,-0.0015643560327589512,-0.003008788451552391
1.7294972985899484e+18,-0.0027432169299572706,0.0021297684870660305,-0.0008209068910218775
1.7294972985959485e+18,-0.002092205686494708,0.0017985418671742082,-0.0006640774081461132
1.7294972986049487e+18,-0.00690495315939188,0.006563225295394659,0.00039342010859400034
1.7294972986109489e+18,-0.011086758226156235,0.00846141017973423,-0.0018451532814651728
1.729497298619949e+18,-0.024654872715473175,0.012532580643892288,0.0008348990231752396
1.7294972986289492e+18,-0.03459085896611214,0.017699003219604492,0.0013716950779780746
1.7294972986349494e+18,-0.0409214124083519,0.018935946747660637,-0.00014501166879199445
1.7294972986439496e+18,-0.048102863132953644,0.022674648091197014,-0.0007280998979695141
1.7294972986499497e+18,-0.04658886790275574,0.02556515857577324,-0.00039365788688883185
1.72949729865895e+18,-0.04481809213757515,0.026866387575864792,0.0014997131656855345
1.72949729866795e+18,-0.03766249865293503,0.026731349527835846,-0.002759744646027684
1.7294972986739502e+18,-0.042346321046352386,0.024309933185577393,-0.0016874272841960192
1.7294972986829504e+18,-0.04283951595425606,0.026990598067641258,0.0020524179562926292
1.7294972986919506e+18,-0.051562435925006866,0.022606782615184784,-0.0031766798347234726
1.7294972987009508e+18,-0.055567070841789246,0.026238955557346344,-0.00020005650003440678
1.729497298709951e+18,-0.0619017593562603,0.028664110228419304,0.002818424953147769
1.729497298715951e+18,-0.05553644895553589,0.02832786925137043,-0.0008960401173681021
1.7294972987249513e+18,-0.05316849797964096,0.029694855213165283,0.0006164454971440136
1.7294972987309514e+18,-0.05038861185312271,0.030309055000543594,-0.0009781355038285255
1.7294972987399516e+18,-0.051359955221414566,0.03209955245256424,0.000324717111652717
1.7294972987489518e+18,-0.05311523750424385,0.03233036398887634,0.001135984668508172
1.729497298754952e+18,-0.05349597707390785,0.03231009840965271,-0.003642810508608818
1.729497298763952e+18,-0.05193159729242325,0.030521893873810768,-0.00031291262712329626
1.7294972987729523e+18,-0.05491231754422188,0.026920046657323837,0.00010115250188391656
1.7294972987789524e+18,-0.052105825394392014,0.0276681799441576,0.00030746785341762006
1.7294972987879526e+18,-0.050643011927604675,0.029869530349969864,0.0005126922042109072
1.7294972987969528e+18,-0.04730409011244774,0.028838569298386574,-0.0024868256878107786
1.729497298805953e+18,-0.044339872896671295,0.028243068605661392,0.0004963224055245519
1.7294972988119532e+18,-0.04406425356864929,0.030268017202615738,-0.0022613948676735163
1.7294972988209533e+18,-0.04054056853055954,0.028772888705134392,0.001453222706913948
1.7294972988269535e+18,-0.04531072825193405,0.02451898157596588,-0.0002224895142717287
1.7294972988359537e+18,-0.0424509160220623,0.027116933837532997,0.0005442919209599495
1.7294972988449539e+18,-0.04329809173941612,0.026111934334039688,0.00033004977740347385
1.729497298850954e+18,-0.042972419410943985,0.020670607686042786,-0.0012522598262876272
1.7294972988599542e+18,-0.04083007574081421,0.02428598888218403,-0.0004013822181150317
1.7294972988689544e+18,-0.03365173190832138,0.02499249204993248,0.0037441730964928865
1.7294972988749545e+18,-0.035587579011917114,0.025601016357541084,0.0014049654128029943
1.7294972988839547e+18,-0.03321194276213646,0.025145631283521652,-0.0004121759266126901
1.729497298892955e+18,-0.03398441523313522,0.02374340407550335,-0.002849327865988016
1.729497298898955e+18,-0.0354451984167099,0.02437206357717514,-0.0002641058526933193
1.7294972989079552e+18,-0.03520793840289116,0.022746620699763298,-0.0011919746175408363
1.7294972989169554e+18,-0.03536973521113396,0.018908316269516945,0.0006528079975396395
1.7294972989229555e+18,-0.031757041811943054,0.016050253063440323,-0.0003157648316118866
1.7294972989319557e+18,-0.03343280777335167,0.014828267507255077,-7.302660378627479e-05
1.729497298940956e+18,-0.027133528143167496,0.017264114692807198,-0.00147594406735152
1.729497298949956e+18,-0.027051186189055443,0.014705212786793709,0.0003337689850013703
1.7294972989559562e+18,-0.028358332812786102,0.01606990210711956,0.002406367799267173
1.7294972989679565e+18,-0.029421815648674965,0.017112866044044495,0.0008258480229415
1.7294972989739566e+18,-0.02949291653931141,0.014553075656294823,0.00017865833069663495
1.7294972989829568e+18,-0.025013992562890053,0.015044236555695534,0.0007501775398850441
1.729497298988957e+18,-0.029800739139318466,0.011059995740652084,-0.0013197100488469005
1.729497298997957e+18,-0.026963816955685616,0.010515585541725159,-0.001308699487708509
1.7294972990069573e+18,-0.026067905128002167,0.008667247369885445,-0.00286920927464962
1.7294972990129574e+18,-0.02650514245033264,0.013244443573057652,0.0009111668914556503
1.7294972990219576e+18,-0.02289130724966526,0.011374866589903831,0.0012562493793666363
1.7294972990309578e+18,-0.025680383667349815,0.013083063997328281,-0.0001355836575385183
1.729497299036958e+18,-0.024953464046120644,0.014000091701745987,0.002255657920613885
1.7294972990459581e+18,-0.0236195120960474,0.009105581790208817,0.0025142242666333914
1.7294972990519583e+18,-0.02395724318921566,0.009626648388803005,-0.0021304034162312746
1.7294972990609585e+18,-0.024374257773160934,0.010014726780354977,0.0019894312135875225
1.7294972990699587e+18,-0.020802732557058334,0.009151097387075424,-0.002312880475074053
1.7294972990759588e+18,-0.02189214527606964,0.008968323469161987,-0.0006824239389970899
1.729497299084959e+18,-0.024144915863871574,0.013300116173923016,0.0008431801106780767
1.729497299090959e+18,-0.025415921583771706,0.008706441149115562,0.0007406630320474505
1.7294972990999593e+18,-0.02289886772632599,0.01396187860518694,-0.0027847900055348873
1.7294972991089595e+18,-0.02404891327023506,0.006883075460791588,-0.0020556687377393246
1.7294972991149596e+18,-0.022246286273002625,0.007648523896932602,-0.000975446542724967
1.7294972991239598e+18,-0.02444886416196823,0.009878820739686489,0.002058749319985509
1.72949729912996e+18,-0.020296214148402214,0.00829370692372322,-0.001808959525078535
1.7294972991389601e+18,-0.019747037440538406,0.008066251873970032,0.002472380641847849
1.7294972991449603e+18,-0.019351107999682426,0.009356260299682617,-0.0012396360980346799
1.7294972991539604e+18,-0.020518336445093155,0.011291283182799816,0.0010207958985120058
1.7294972991629606e+18,-0.020002400502562523,0.0091280248016119,-0.00048514007357880473
1.7294972991719608e+18,-0.019260019063949585,0.011230488307774067,-0.0019807922653853893
1.729497299177961e+18,-0.021523727104067802,0.009639882482588291,-0.0002559206332080066
1.7294972991869612e+18,-0.023135190829634666,0.008254777640104294,-3.581956843845546e-05
1.7294972991929613e+18,-0.023816246539354324,0.008719517849385738,0.0006924289627932012
1.7294972992019615e+18,-0.021221285685896873,0.00910740066319704,-0.0020738299936056137
1.7294972992109617e+18,-0.019187670201063156,0.00920430850237608,-0.0023613658268004656
1.7294972992199619e+18,-0.014919247478246689,0.014614671468734741,0.0006406785687431693
1.729497299225962e+18,-0.014373641461133957,0.012752711772918701,-0.0006284749833866954
1.7294972992349622e+18,-0.016154691576957703,0.012648048810660839,4.3833424570038915e-05
1.7294972992439624e+18,-0.017025193199515343,0.008605921640992165,-0.001375888823531568
1.7294972992499625e+18,-0.01802113838493824,0.008734019473195076,-0.0006095037097111344
1.7294972992649628e+18,-0.020629361271858215,0.006374469492584467,-0.0013369681546464562
1.729497299273963e+18,-0.016341188922524452,0.006773462053388357,0.002275481354445219
1.7294972992799631e+18,-0.016284562647342682,0.008635316044092178,0.0008568781777285039
1.7294972992889633e+18,-0.011902166530489922,0.009369897656142712,-0.00088838383089751
1.7294972992949635e+18,-0.012786367908120155,0.012371844612061977,-0.00023672147653996944
1.7294972993039636e+18,-0.011600542813539505,0.010103143751621246,0.0006668989080935717
1.7294972993129638e+18,-0.014541955664753914,0.003148178569972515,-0.0022944386582821608
1.729497299318964e+18,-0.01537654735147953,0.003987982869148254,3.867392661049962e-05
1.7294972993279642e+18,-0.02297665737569332,0.004456913564354181,-0.00017856492195278406
1.7294972993369644e+18,-0.020752042531967163,0.0038867599796503782,-0.0003152326971758157
1.7294972993429645e+18,-0.017152465879917145,0.0061856042593717575,-0.0005482879350893199
1.7294972993519647e+18,-0.015887994319200516,0.004655053839087486,-0.0007838180754333735
1.7294972993579648e+18,-0.015503608621656895,0.006945718079805374,0.0019926491659134626
1.729497299366965e+18,-0.013430830091238022,0.004375011660158634,0.0010398958111181855
1.7294972993759652e+18,-0.012830693274736404,0.007789629511535168,2.2412510588765144e-05
1.7294972993849654e+18,-0.015314369462430477,0.004750324413180351,-0.001797068165615201
1.7294972993909655e+18,-0.016030944883823395,0.0027190176770091057,0.00038466136902570724
1.7294972993999657e+18,-0.015670407563447952,0.0037763931322842836,-0.0014628424542024732
1.7294972994059658e+18,-0.013128054328262806,0.002637104131281376,0.0034925697837024927
1.729497299414966e+18,-0.01417645625770092,0.0014379422646015882,-0.002481262432411313
1.7294972994239662e+18,-0.010684478096663952,0.003575400449335575,-0.002134794369339943
1.7294972994299663e+18,-0.009052149020135403,0.003912501037120819,0.0025664926506578922
1.7294972994389665e+18,-0.010377766564488411,0.008516242727637291,-0.0005968261975795031
1.7294972994449667e+18,-0.012458644807338715,0.006627215072512627,0.0006995429866947234
1.7294972994539668e+18,-0.011959018185734749,0.011914985254406929,-0.0017592457588762045
1.729497299462967e+18,-0.012545360252261162,0.006169701926410198,-0.0015348729211837053
1.7294972994719672e+18,-0.011748140677809715,0.008272802457213402,0.0009292050963267684
1.7294972994779674e+18,-0.010571785271167755,0.006230551283806562,-0.0024966481141746044
1.7294972994869676e+18,-0.009466992691159248,0.00403662258759141,-0.0026308298110961914
1.7294972994959677e+18,-0.005232886411249638,0.004070199094712734,0.0020059016533195972
1.729497299504968e+18,-0.007719586603343487,0.003966826945543289,0.0004280567227397114
1.729497299513968e+18,-0.007466854527592659,0.004298250190913677,-0.0009453363018110394
1.7294972995199683e+18,-0.009091208688914776,0.0057677337899804115,0.0011589066125452518
1.7294972995289684e+18,-0.006831265054643154,0.006454904563724995,-0.0027251553256064653
1.7294972995349686e+18,-0.01230878196656704,0.008682486601173878,4.4015905587002635e-05
1.7294972995439688e+18,-0.009237187914550304,0.007940402254462242,-0.002181859454140067
1.729497299552969e+18,-0.010406828485429287,0.005639367271214724,-0.001961146481335163
1.729497299558969e+18,-0.00875742919743061,0.0017533404752612114,-0.0010203397832810879
1.7294972995679693e+18,-0.011337686330080032,0.0048067886382341385,-0.0007619730895385146
1.7294972995769695e+18,-0.0062430137768387794,0.001677931286394596,-0.0015930673107504845
1.7294972995829696e+18,-0.007012233138084412,0.005150838755071163,-0.004227695520967245
1.7294972995919698e+18,-0.00652338145300746,0.005084112286567688,-0.0004848228127229959
1.72949729959797e+18,-0.00495820352807641,0.006340319756418467,0.0009965687058866024
1.72949729960697e+18,-0.005919885355979204,0.003231789218261838,0.0011176023399457335
1.7294972996159703e+18,-0.008097180165350437,0.003961545880883932,-0.0010418881429359317
1.7294972996309706e+18,-0.007848016917705536,0.0005696164444088936,-0.0007773945108056068
1.729497299642971e+18,-0.008363429456949234,0.0031475599389523268,0.0008242740295827389
1.729497299648971e+18,-0.008636273443698883,0.0009649312123656273,-0.0020563139114528894
1.7294972996579712e+18,-0.007408224046230316,0.0017131196800619364,-0.001362455077469349
1.7294972996669714e+18,-0.007719091605395079,0.0007429093820974231,-0.004235684871673584
1.7294972996729715e+18,-0.01032227836549282,0.0015620328485965729,0.0008177845156751573
1.7294972996819717e+18,-0.008657416328787804,0.0008344347006641328,0.00021325531997717917
1.729497299690972e+18,-0.010527146980166435,-3.371294587850571e-05,-0.001318306545726955
1.729497299699972e+18,-0.009530389681458473,-0.001650534220971167,-0.0005085645825602114
1.7294972997089723e+18,-0.009404453448951244,0.00028675247449427843,0.00023849346325732768
1.7294972997149724e+18,-0.006894183810800314,-0.0006619340274482965,-0.0014378943014889956
1.7294972997239726e+18,-0.0032072095200419426,-0.002375470008701086,-0.00039684842340648174
1.7294972997299727e+18,-0.005623161792755127,0.0020435990300029516,-0.00249003735370934
1.729497299738973e+18,-0.004131586290895939,0.00014444629778154194,-0.0025384121108800173
1.729497299747973e+18,-0.005396323278546333,0.001629459555260837,-0.00147479388397187
1.7294972997539732e+18,-0.004548387601971626,-0.000535271130502224,-0.002164734760299325
1.7294972997629734e+18,-0.006297438405454159,0.0014224350452423096,-0.0018252115696668625
1.7294972997689736e+18,-0.006646562833338976,0.0030370671302080154,-0.0011354186572134495
1.7294972997779738e+18,-0.006085360422730446,0.0012334331404417753,-0.00011243022163398564
1.729497299786974e+18,-0.009093773551285267,0.0006062524626031518,0.000681004486978054
1.729497299792974e+18,-0.00447987113147974,0.00286624557338655,0.0006482084281742573
1.7294972998019743e+18,-0.004908101167529821,0.0025329631753265858,0.0006595183513127267
1.7294972998079744e+18,-0.0032658851705491543,0.0024404036812484264,0.0008254576241597533
1.7294972998169746e+18,-0.001674805535003543,0.0042559425346553326,3.853258385788649e-05
1.7294972998259748e+18,-1.3187527656555176e-06,0.001721392385661602,0.0010809458326548338
1.729497299831975e+18,-0.0021956171840429306,0.0002924783620983362,0.0015466674230992794
1.729497299840975e+18,-0.005659023299813271,0.003680016379803419,0.0013832884142175317
1.7294972998469752e+18,-0.005704108625650406,0.005476897582411766,-0.000666826730594039
1.7294972998559754e+18,-0.004508251324295998,0.001584313460625708,-0.0006596121820621192
1.7294972998649756e+18,-0.0010268994374200702,0.00110720400698483,0.003954549785703421
1.7294972998709757e+18,0.0018460045102983713,0.0029385965317487717,0.00030538340797647834
1.729497299879976e+18,-7.92109640315175e-05,0.0008948086178861558,-5.564562161453068e-05
1.7294972998889761e+18,-0.0005139030981808901,0.0005236252909526229,0.0015421216376125813
1.7294972998979763e+18,-0.006776425987482071,0.0005044428398832679,-0.002653367118909955
1.7294972999039764e+18,-0.0041535585187375546,0.0003884025209117681,0.003115121740847826
1.7294972999129766e+18,-0.004579429514706135,-0.0020335777662694454,-0.00198395480401814
1.7294972999219768e+18,-0.004751055035740137,0.0006803602445870638,-0.0011930054752156138
1.729497299927977e+18,-0.0029164485167711973,0.0038123298436403275,-0.0020351684652268887
1.7294972999369772e+18,-0.0032626523170620203,0.0022992915473878384,0.0009450438665226102
1.7294972999429773e+18,-0.002515689702704549,0.002313297940418124,-0.0026512560434639454
1.7294972999519775e+18,-0.0036720596253871918,0.003482749219983816,0.001330946572124958
1.7294972999609777e+18,-0.0032668414060026407,0.005953378509730101,0.0063843028619885445
1.7294972999669778e+18,0.0007306147599592805,0.012194275856018066,0.009486773982644081
1.729497299975978e+18,0.005798439960926771,0.0187175702303648,0.008732209913432598
1.7294972999849782e+18,0.009045707993209362,0.022346027195453644,0.006293438840657473
1.7294972999939784e+18,0.010443287901580334,0.027116850018501282,0.00965731032192707
1.7294972999999785e+18,0.01275995559990406,0.02588328719139099,0.007229316513985395
1.7294973000089787e+18,0.010776867158710957,0.027119498699903488,0.007465897127985954
1.729497300017979e+18,0.010745084844529629,0.024643301963806152,0.0073340171948075294
1.729497300023979e+18,0.008897042833268642,0.024571791291236877,0.009640263393521309
1.7294973000329792e+18,0.012186344712972641,0.026144905015826225,0.005581587553024292
1.7294973000419794e+18,0.010137594304978848,0.027561426162719727,0.007356205023825169
1.7294973000509796e+18,0.01622484065592289,0.03048291988670826,0.010610570199787617
1.7294973000569797e+18,0.013941518031060696,0.027591755613684654,0.010606344789266586
1.72949730006598e+18,0.010867421515285969,0.026038723066449165,0.0071869948878884315
1.72949730007198e+18,0.01574677601456642,0.022900177165865898,0.005564194172620773
1.7294973000809802e+18,0.014019818045198917,0.021033812314271927,0.007089619524776936
1.7294973000899804e+18,0.010424201376736164,0.020559312775731087,0.006622116081416607
1.7294973000959805e+18,0.01238090731203556,0.01927989162504673,0.007333782035857439
1.7294973001049807e+18,0.008878483437001705,0.014978413470089436,0.005929592996835709
1.729497300113981e+18,0.009659888222813606,0.0169125534594059,0.005452690180391073
1.729497300119981e+18,0.010133816860616207,0.017791496589779854,0.00863723922520876
1.7294973001289812e+18,0.00784334260970354,0.01551967766135931,0.004943429492413998
1.7294973001379814e+18,0.007090912200510502,0.01214550156146288,0.008326767943799496
1.7294973001469816e+18,0.006916281767189503,0.007139276713132858,0.00568363256752491
1.7294973001529818e+18,0.0035006410907953978,0.009489599615335464,0.006602394860237837
1.729497300161982e+18,0.0014927922748029232,0.0037266055587679148,0.0054482147097587585
1.7294973001709821e+18,0.0007147653959691525,0.004593342542648315,0.008200818672776222
1.7294973001769823e+18,-7.763180474285036e-05,0.0019124634563922882,0.0076402281410992146
1.7294973001859825e+18,0.0011536889942362905,0.0008661868050694466,0.007561277598142624
1.7294973001949827e+18,0.005176912993192673,0.0038651202339679003,0.0065259127877652645
1.7294973002009828e+18,0.003785592969506979,-1.5435944078490138e-05,0.004542663227766752
1.729497300209983e+18,0.005816217046231031,0.001248770859092474,0.008682187646627426
1.7294973002189832e+18,0.005481287371367216,-0.0030744103714823723,0.007535714656114578
1.7294973002279834e+18,0.0028962697833776474,-0.0045396070927381516,0.008953580632805824
1.7294973002339835e+18,0.0006124762585386634,-0.007312203291803598,0.00883886031806469
1.7294973002429837e+18,-1.3078213669359684e-05,-0.00820064079016447,0.004143768921494484
1.7294973002489838e+18,0.002740551019087434,-0.010898671112954617,0.005150395445525646
1.729497300257984e+18,0.004047548398375511,-0.010491575114428997,0.008585049770772457
1.7294973002669842e+18,0.004442073404788971,-0.013029647059738636,0.009614530019462109
1.7294973002729843e+18,0.0033953688107430935,-0.011072774417698383,0.008696562610566616
1.7294973002819845e+18,0.002137704286724329,-0.013854400254786015,0.009435147047042847
1.7294973002909847e+18,-0.00042166514322161674,-0.01377661619335413,0.005891165230423212
1.729497300299985e+18,-0.00607852591201663,-0.014298024587333202,0.007570185698568821
1.729497300308985e+18,-0.004964045248925686,-0.013719625771045685,0.009720059111714363
1.7294973003179853e+18,-0.0025073185097426176,-0.0165854599326849,0.008065847679972649
1.7294973003239854e+18,-0.0013033562572672963,-0.01819392666220665,0.008454540744423866
1.7294973003329856e+18,-0.0026779882609844208,-0.018417026847600937,0.004532295279204845
1.7294973003419858e+18,-0.0008339036721736193,-0.020986847579479218,0.00699209701269865
1.729497300350986e+18,-0.003311768639832735,-0.016719819977879524,0.006960665341466665
1.729497300356986e+18,-0.0019023690838366747,-0.018479440361261368,0.006984492298215628
1.7294973003659863e+18,-0.00764681538566947,-0.01335922535508871,0.007256132084876299
1.7294973003749865e+18,-0.003804577747359872,-0.013850823044776917,0.006845384370535612
1.7294973003809866e+18,-0.006629711948335171,-0.013075817376375198,0.006660059094429016
1.7294973003899868e+18,-0.00026740203611552715,-0.01447589322924614,0.0076947868801653385
1.729497300398987e+18,0.001953501719981432,-0.015545814298093319,0.008046002127230167
1.7294973004079872e+18,0.0014802685473114252,-0.01664506457746029,0.008442604914307594
1.7294973004169874e+18,0.0032615193631500006,-0.01685073785483837,0.007901624776422977
1.7294973004229875e+18,0.0010086270049214363,-0.017829518765211105,0.0071073961444199085
1.7294973004319877e+18,0.004726426210254431,-0.01347020547837019,0.007964457385241985
1.729497300440988e+18,-0.00020737433806061745,-0.012125242501497269,0.008753076195716858
1.729497300446988e+18,0.00044611620251089334,-0.01609380915760994,0.005128240678459406
1.7294973004559882e+18,0.0006522477488033473,-0.010790524072945118,0.004909962881356478
1.7294973004649884e+18,0.0008447325089946389,-0.01192517764866352,0.008662368170917034
1.7294973004739886e+18,0.0036879070103168488,-0.010683693923056126,0.006722761783748865
1.7294973004829888e+18,0.003392102662473917,-0.011761344969272614,0.006426106207072735
1.729497300491989e+18,0.0017667324282228947,-0.0119902603328228,0.005963054019957781
1.729497300497989e+18,0.005247958470135927,-0.010064911097288132,0.0067624254152178764
1.7294973005069893e+18,0.003208671696484089,-0.010564177297055721,0.004431420471519232
1.7294973005159895e+18,0.003154618199914694,-0.011534261517226696,0.0031789252534508705
1.7294973005219896e+18,0.004201039671897888,-0.007531863171607256,0.00510836485773325
1.7294973005309898e+18,0.004950210452079773,-0.009867285378277302,0.004117289092391729
1.72949730053999e+18,0.0018018237315118313,-0.007636863272637129,0.0059399232268333435
1.7294973005489902e+18,0.001412542536854744,-0.007310143206268549,0.004820929374545813
1.7294973005579904e+18,0.004813735373318195,-0.0073714652098715305,0.006028956733644009
1.7294973005639905e+18,0.003425405826419592,-0.0069580296985805035,0.003268370870500803
1.7294973005729907e+18,0.0040575177408754826,-0.007672430481761694,0.001607013400644064
1.729497300581991e+18,0.006657005753368139,-0.007912801578640938,0.0036090973298996687
1.729497300590991e+18,0.0027396371588110924,-0.004899429157376289,0.002120240358635783
1.7294973005999913e+18,0.0062728929333388805,-0.006573724560439587,0.005074125248938799
1.7294973006059914e+18,0.006979614961892366,-0.0020331458654254675,0.00617905193939805
1.7294973006179917e+18,0.006977394223213196,-0.004501760005950928,0.004330940544605255
1.7294973006239918e+18,0.005786908324807882,-0.004290145821869373,0.004161343444138765
1.729497300632992e+18,0.006274330895394087,-0.0018002204596996307,0.002243718132376671
1.7294973006389921e+18,0.006565778981894255,-0.006080161314457655,0.005520658101886511
1.7294973006479923e+18,0.00725767994299531,-0.0039046588353812695,0.002647212939336896
1.7294973006569925e+18,0.008032970130443573,-0.003765866393223405,0.0027634454891085625
1.7294973006629926e+18,0.007096506655216217,-0.0024057833943516016,0.0040901461616158485
1.7294973006719928e+18,0.008543064817786217,-0.0017363476799800992,0.004093864466995001
1.729497300680993e+18,0.005966954864561558,-0.0031216454226523638,0.003908054903149605
1.7294973006869932e+18,0.007284766528755426,-0.0015329872258007526,-0.0001163361594080925
1.7294973006959933e+18,0.007419596426188946,-0.006641492247581482,0.0007555757183581591
1.7294973007049935e+18,0.005759814754128456,-0.007829857058823109,0.0035457322373986244
1.7294973007139937e+18,0.006032564677298069,-0.004945860709995031,0.0011135446839034557
1.7294973007199939e+18,0.006816685665398836,-0.004153373185545206,0.004868153017014265
1.729497300728994e+18,0.004465346224606037,-0.0005037047667428851,0.004561212845146656
1.7294973007379942e+18,0.008128710091114044,-0.002000069245696068,0.003823494538664818
1.7294973007439944e+18,0.006187552120536566,0.002816566498950124,0.002867424627766013
1.7294973007529946e+18,0.008263474330306053,0.00024916045367717743,-0.0011688217055052519
1.7294973007619948e+18,0.007614144589751959,-0.0018805847503244877,0.0020492682233452797
1.729497300767995e+18,0.00609828345477581,-0.0017778828041628003,0.0011633693939074874
1.729497300776995e+18,0.009746568277478218,-0.005584580823779106,0.00020023994147777557
1.7294973007829952e+18,0.012812514789402485,-0.005059264600276947,0.002757951384410262
1.7294973007919954e+18,0.01149622444063425,-0.007334829308092594,0.005950629711151123
1.7294973008009956e+18,0.010420276783406734,-0.0077395448461174965,0.002825152827426791
1.7294973008099958e+18,0.012366184033453465,-0.004786500707268715,0.001449975767172873
1.729497300815996e+18,0.01100147608667612,-0.005467728246003389,-0.0005136339459568262
1.729497300824996e+18,0.008362852968275547,-0.006888910662382841,0.0045617613941431046
1.7294973008339963e+18,0.005842589773237705,-0.003409897442907095,0.006782916374504566
1.7294973008429965e+18,0.011311608366668224,-0.0052994247525930405,-0.0019164090044796467
1.7294973008489966e+18,0.008336013182997704,-0.005035975482314825,0.0010063395602628589
1.7294973008579968e+18,0.0060220626182854176,-0.003976002801209688,0.002028073649853468
1.729497300866997e+18,0.009579862467944622,-0.0032762237824499607,0.0009015563409775496
1.729497300872997e+18,0.0069481320679187775,-0.00247471546754241,0.0006721548270434141
1.7294973008819973e+18,0.008011246100068092,-0.0023515664506703615,0.005098646506667137
1.7294973008909975e+18,0.012663645669817924,-0.004273287020623684,0.0029227780178189278
1.7294973008999977e+18,0.010689846239984035,-0.005022567696869373,0.0024628816172480583
1.7294973009059978e+18,0.00965871475636959,-0.006252525839954615,0.00020194996614009142
1.729497300914998e+18,0.009511267766356468,-0.007797259371727705,0.004676003474742174
1.7294973009239982e+18,0.00948884803801775,-0.0076853204518556595,0.0011372370645403862
1.7294973009299983e+18,0.008188951760530472,-0.007638444192707539,0.0028293055947870016
1.7294973009389985e+18,0.006719645578414202,-0.004666610155254602,-0.0005609666695818305
1.7294973009479987e+18,0.004295871127396822,-0.0006058779545128345,0.00022484129294753075
1.7294973009539988e+18,0.009757362306118011,-0.0037999548949301243,0.0011557040270417929
1.729497300962999e+18,0.007869414053857327,-0.004259082023054361,-0.0024155243299901485
1.7294973009689992e+18,0.010124936699867249,-0.0031447019428014755,0.0018335123313590884
1.7294973009779994e+18,0.012440275400876999,-0.004353060852736235,0.0011271199909970164
1.7294973009869996e+18,0.00574552221223712,-0.005492483265697956,0.003147645154967904
1.7294973009929997e+18,0.009140746667981148,-0.00522579113021493,0.0012317122891545296
1.729497301002e+18,0.003727144096046686,-0.005604787729680538,-0.0004631888587027788
1.729497301008e+18,0.006044706329703331,-0.005268667824566364,0.0016748419729992747
1.7294973010170002e+18,0.0010031401179730892,-0.005963601171970367,0.0018669057171791792
1.7294973010260004e+18,0.007811271585524082,-0.005523459520190954,8.977681864053011e-05
1.7294973010320005e+18,0.009073249995708466,-0.005208596587181091,0.0034746816381812096
1.7294973010410007e+18,0.008180991746485233,-0.006423627957701683,-0.0021098279394209385
1.729497301050001e+18,0.010210628621280193,-0.003062950912863016,0.0032800771296024323
1.729497301056001e+18,0.008370819501578808,-0.0023023744579404593,0.002090838737785816
1.7294973010650012e+18,0.006576851010322571,-0.00471379142254591,-0.0009806848829612136
1.7294973010710013e+18,0.00744117796421051,-0.0027007742319256067,0.0008998245466500521
1.7294973010800015e+18,0.009160724468529224,-0.004321195185184479,0.0026878209318965673
1.7294973010890017e+18,0.011147226206958294,-0.004959989804774523,0.005474711302667856
1.7294973010950019e+18,0.00764892902225256,-0.00486708665266633,0.00175352836959064
1.729497301104002e+18,0.013019592501223087,-0.0036677054595202208,0.0009261435479857028
1.7294973011130022e+18,0.014142587780952454,-0.005022685043513775,0.0026938444934785366
1.7294973011220024e+18,0.011561074294149876,-0.006247465033084154,0.0012358734384179115
1.7294973011310026e+18,0.011651217937469482,-0.008596855215728283,0.0022710724733769894
1.7294973011370028e+18,0.015279380604624748,-0.010110669769346714,-0.0018249276326969266
1.729497301146003e+18,0.01523116510361433,-0.006280352361500263,0.0001079179928638041
1.7294973011550031e+18,0.012707090005278587,-0.006242362782359123,0.000644316547550261
1.7294973011610033e+18,0.011597027070820332,-0.007441084831953049,0.0004908142145723104
1.7294973011700035e+18,0.015538522973656654,-0.007634362205862999,0.0006569897523149848
1.7294973011790036e+18,0.013330294750630856,-0.008310070261359215,2.930755726993084e-06
1.7294973011850038e+18,0.016205228865146637,-0.009630030952394009,0.00034520745975896716
1.729497301194004e+18,0.01341984048485756,-0.007956930436193943,0.001444089924916625
1.7294973012030042e+18,0.0113008301705122,-0.0070653329603374004,0.002137733157724142
1.7294973012090043e+18,0.013896091841161251,-0.008689261972904205,-0.0004632899654097855
1.7294973012180045e+18,0.010151684284210205,-0.008822969160974026,-0.00036624219501391053
1.7294973012240046e+18,0.012305404990911484,-0.008356017991900444,-0.00011562107829377055
1.7294973012330048e+18,0.013092627748847008,-0.009023413062095642,0.0019566621631383896
1.729497301242005e+18,0.011275590397417545,-0.009127099066972733,-0.0004554443876259029
1.7294973012510052e+18,0.014760475605726242,-0.006322924047708511,-0.00017476483481004834
1.7294973012600054e+18,0.014095520600676537,-0.008073820732533932,0.0034026452340185642
1.7294973012660055e+18,0.012827142141759396,-0.007819732651114464,0.002936745760962367
1.7294973012750057e+18,0.009514454752206802,-0.005413560196757317,0.0009787606541067362
1.7294973012810058e+18,0.01175436470657587,-0.0059448606334626675,0.00027554528787732124
1.729497301290006e+18,0.011145047843456268,-0.008115286007523537,0.0005256957374513149
1.7294973012990062e+18,0.01225243415683508,-0.006998385768383741,-0.00042434147326275706
1.7294973013050063e+18,0.014302746392786503,-0.009024634957313538,3.8767902879044414e-05
1.7294973013140065e+18,0.013326453045010567,-0.008239177986979485,0.0019973551388829947
1.7294973013230067e+18,0.01632574200630188,-0.004274016711860895,0.0010542747331783175
1.7294973013290068e+18,0.01224690955132246,-0.004908798262476921,-0.0010080008069053292
1.729497301338007e+18,0.013453634455800056,-0.004979761783033609,-0.0005276193842291832
1.7294973013470072e+18,0.01098500844091177,-0.0014982111752033234,-0.0006640838109888136
1.7294973013560074e+18,0.013466130010783672,-0.004236909560859203,-0.0024271407164633274
1.7294973013620076e+18,0.011720214039087296,-0.0026288852095603943,-0.0009714404586702585
1.7294973013710077e+18,0.011467517353594303,-0.006273270584642887,-0.00027548286016099155
1.729497301380008e+18,0.01066194660961628,-0.005913553759455681,-2.1032901713624597e-05
1.7294973013890081e+18,0.012638856656849384,-0.006666114553809166,-0.0003095834399573505
1.7294973013950083e+18,0.011262895539402962,-0.006864635273814201,0.0020886955317109823
1.7294973014040084e+18,0.01216067187488079,-0.0023196106776595116,-0.0021221041679382324
1.7294973014130086e+18,0.009542922489345074,-0.0032778698951005936,-0.0009657412301748991
1.7294973014190088e+18,0.005950666032731533,-0.0020359246991574764,-0.002403682330623269
1.729497301428009e+18,0.0035277451388537884,-0.0031028699595481157,0.0013211689656600356
1.7294973014370092e+18,0.0024497155100107193,-0.004506805911660194,0.0012362059205770493
1.7294973014460093e+18,0.006593433208763599,-0.006002252921462059,-0.0004445428494364023
1.7294973014520095e+18,0.008003405295312405,-0.008217539638280869,0.0009216278558596969
1.7294973014610097e+18,0.007707900367677212,-0.0013727275654673576,-0.0009256019257009029
1.7294973014700099e+18,0.008833927102386951,-0.0055468459613621235,-0.0010402386542409658
1.72949730147901e+18,0.00882921926677227,-0.0048522199504077435,0.0005173444515094161
1.7294973014880102e+18,0.005572475492954254,-0.0013287704205140471,0.0002628577349241823
1.7294973014940104e+18,0.0024451210629194975,-0.0027880333364009857,0.0001684212766122073
1.7294973015030106e+18,0.004832484293729067,-0.0013785967603325844,0.0003251824527978897
1.7294973015120108e+18,0.0026094450149685144,-0.003954762127250433,-0.0009507864597253501
1.729497301518011e+18,0.004956149496138096,-0.004850348923355341,0.00043123221257701516
1.729497301527011e+18,0.007116878870874643,-0.00514300586655736,-0.0007759260479360819
1.7294973015360113e+18,0.007505782879889011,-0.004886080045253038,0.00018055499822366983
1.7294973015420114e+18,0.007559506222605705,-0.004759773146361113,0.0004355749115347862
1.7294973015510116e+18,0.006853939034044743,-0.00327849667519331,-0.0009694849140942097
1.7294973015570117e+18,0.004387960769236088,-0.0048283603973686695,0.0007232519565150142
1.729497301566012e+18,0.003000464290380478,-0.004451347514986992,-0.00015891835209913552
1.729497301575012e+18,0.0009443023009225726,-0.0040084077045321465,-0.0008219031151384115
1.7294973015810122e+18,0.0024266978725790977,-0.0062189181335270405,0.0006569228717125952
1.7294973015900124e+18,0.0034511908888816833,-0.0056296708062291145,0.0019499585032463074
1.7294973015960125e+18,0.0035006627440452576,-0.002426574472337961,0.0007768518407829106
1.7294973016050127e+18,0.007477242033928633,-0.0038895257748663425,0.0024546608328819275
1.729497301614013e+18,0.0070709725841879845,-0.0068666269071400166,0.0006141515332274139
1.729497301620013e+18,0.007400094997137785,-0.005105022341012955,-0.0008158167474903166
1.7294973016290132e+18,0.006231739651411772,-0.006884889677166939,0.0026535941287875175
1.7294973016380134e+18,0.003927920013666153,-0.006519525311887264,-0.00014008850848767906
1.7294973016440136e+18,0.0028878466691821814,-0.0048238602466881275,-0.0003892513632308692
1.7294973016530138e+18,0.006077462341636419,-0.00684631522744894,0.000486454286146909
1.729497301662014e+18,0.003549121553078294,-0.003611267078667879,0.0008885907591320574
1.729497301668014e+18,0.00569376302883029,-0.0023756492882966995,0.0001280933356611058
1.7294973016770143e+18,0.003986060619354248,-0.002331880386918783,-9.15734563022852e-05
1.7294973016860145e+18,0.006655998062342405,-0.002671469934284687,-0.00034501031041145325
1.7294973016920146e+18,0.010162658989429474,-0.0037866546772420406,0.0018049300415441394
1.7294973017010148e+18,0.007427112199366093,-0.008379936218261719,-0.0032852604053914547
1.729497301710015e+18,0.012711086310446262,-0.0065110353752970695,-0.00045558216515928507
1.729497301716015e+18,0.010632172226905823,-0.0030216043815016747,-0.0010304116876795888
1.7294973017250153e+18,0.006162785459309816,-0.004249580204486847,0.0015643921215087175
1.7294973017370156e+18,0.003988703712821007,-0.007028776686638594,-0.0020306056831032038
1.7294973017430157e+18,0.009809888899326324,-0.006589108146727085,-0.00234598689712584
1.729497301752016e+18,0.006462881341576576,-0.0061721643432974815,0.0014995010569691658
1.729497301761016e+18,0.010165764018893242,-0.004891582299023867,0.0006914532277733088
1.7294973017700163e+18,0.009335951879620552,-0.004960807040333748,-0.002812380203977227
1.7294973017760164e+18,0.006673015188425779,-0.0038848421536386013,-0.00021871003264095634
1.7294973017850166e+18,0.011052909307181835,-0.004354869946837425,0.0006065285415388644
1.7294973017940168e+18,0.010277899913489819,-0.003170217853039503,0.00022116588661447167
1.729497301800017e+18,0.01172225084155798,-0.005319961812347174,-0.001229098648764193
1.729497301809017e+18,0.00795749668031931,-0.007470283191651106,-0.0011866675922647119
1.7294973018180173e+18,0.007109492551535368,-0.008629830554127693,0.0030047500040382147
1.7294973018240174e+18,0.006072008516639471,-0.006528466008603573,8.816565969027579e-05
1.7294973018330176e+18,0.002580513944849372,-0.0059868465177714825,-0.0004935664474032819
1.7294973018390177e+18,0.004477208945900202,-0.007739477325230837,0.0013749984791502357
1.729497301848018e+18,-0.0007874597795307636,-0.006093730218708515,-0.0007086173864081502
1.729497301854018e+18,0.003699664492160082,-0.006494779139757156,-0.00048052091733552516
1.7294973018630182e+18,0.005576238036155701,-0.007900262251496315,-0.0023657134734094143
1.7294973018720184e+18,0.006117257755249739,-0.00495976023375988,-0.002505926415324211
1.7294973018810186e+18,0.005584915168583393,-0.004923684522509575,0.0035227155312895775
1.7294973018870188e+18,0.0048902458511292934,-0.001556091709062457,-0.002179894130676985
1.729497301896019e+18,0.0018133549019694328,-0.0005476591177284718,-0.0024578499142080545
1.7294973019050191e+18,0.0009863937739282846,-0.003804656909778714,0.0005703804781660438
1.7294973019140193e+18,0.0023845466785132885,-0.0058401767164468765,0.0004046817484777421
1.7294973019230195e+18,0.001986799295991659,-0.002823765156790614,-0.00042531086364760995
1.7294973019290196e+18,0.003994635306298733,-0.005748413037508726,-0.0024630206171423197
1.7294973019380198e+18,0.005823025479912758,-0.004304417874664068,-0.002030892763286829
1.72949730194702e+18,0.010418244637548923,-0.000769197940826416,-0.0004896914470009506
1.7294973019530202e+18,0.008168063126504421,-0.004335359670221806,-0.0014077296946197748
1.7294973019620204e+18,0.00496415002271533,-0.004739806987345219,-0.0010631757322698832
1.7294973019680205e+18,0.005192975047975779,-0.003895242465659976,-0.0018340990645810962
1.7294973019770207e+18,0.004940359853208065,-0.004922807216644287,-0.0004877448081970215
1.7294973019830208e+18,0.003129362128674984,-0.007562427781522274,-1.2532604159787297e-05
1.729497301992021e+18,0.0024564580526202917,-0.0025587212294340134,0.0007484813686460257
1.7294973020010212e+18,0.0053189401514828205,-0.0020125145092606544,-0.0033372556790709496
1.7294973020070213e+18,0.007489308714866638,-0.0022361460141837597,0.0005752110155299306
1.7294973020160215e+18,0.008314656093716621,-0.00173621263820678,0.00025830965023487806
1.7294973020250217e+18,0.011923207901418209,-0.0012415078235790133,-0.0017183511517941952
1.729497302034022e+18,0.006274838000535965,-0.0022407984361052513,0.0008527730824425817
1.729497302040022e+18,0.009395046159625053,-0.00502387760207057,-0.0005355118773877621
1.7294973020490222e+18,0.004104116000235081,-0.002821411471813917,0.0011314101284369826
1.7294973020580224e+18,0.005358841735869646,-0.004748054314404726,0.0011611648369580507
1.7294973020670226e+18,0.00680394796654582,-0.0052348957397043705,-0.0004891534917987883
1.7294973020730227e+18,0.0060654859989881516,-0.005844186060130596,0.0014404923422262073
1.729497302082023e+18,0.00866423174738884,-0.006446110084652901,0.003565360326319933
1.729497302091023e+18,0.008871925063431263,-0.0036782901734113693,0.0007943976088427007
1.7294973020970232e+18,0.0076920934952795506,-0.006637249141931534,-0.00032861242652870715
1.7294973021060234e+18,0.01056394912302494,-0.00515728211030364,-0.0003462225431576371
1.7294973021150236e+18,0.002724585821852088,-0.0016846404178068042,-0.0013089746935293078
1.7294973021210237e+18,0.006307047791779041,-0.003354540327563882,-0.0004368555382825434
1.729497302130024e+18,0.006088577210903168,-0.002885733498260379,0.0006934612174518406
1.729497302136024e+18,0.005988758057355881,-0.002112270100042224,-0.0009145840303972363
1.7294973021450243e+18,0.0060061560943722725,-0.0029467653948813677,-0.001645474461838603
1.7294973021540244e+18,0.006784598808735609,-0.005713580176234245,-0.0006439198041334748
1.7294973021630246e+18,0.005550520494580269,-0.0032157846726477146,0.0005883731646463275
1.7294973021690248e+18,0.005242126993834972,-0.0034768078476190567,-0.0018032900989055634
1.729497302178025e+18,0.006460928358137608,-0.0008941917913034558,0.0021688269916921854
1.7294973021870252e+18,0.007153796032071114,-0.001333107822574675,-0.00059255346423015
1.7294973021930253e+18,0.005225169472396374,0.002469288185238838,0.0005653466214425862
1.7294973022020255e+18,0.0033595820423215628,0.0028381729498505592,-0.002424018457531929
1.7294973022080256e+18,0.005376241635531187,0.0016576491761952639,0.0009572536218911409
1.7294973022170258e+18,0.0029316539876163006,-0.0002537616528570652,-0.004984915256500244
1.729497302226026e+18,0.006231799256056547,-0.00025647968868725,-0.002253863727673888
1.729497302232026e+18,0.002700657583773136,0.0014445723500102758,0.0006950902752578259
1.7294973022410263e+18,0.006262314505875111,-0.0027324105612933636,-0.0020530703477561474
1.7294973022500265e+18,0.0041998946107923985,-0.0003316992660984397,-0.00048125506145879626
1.7294973022560266e+18,0.004418391268700361,-0.0033318784553557634,0.000982991186901927
1.7294973022650268e+18,0.0024646061938256025,-0.0010280536953359842,-0.001734224846586585
1.729497302274027e+18,-0.00027917977422475815,-0.0003352100611664355,-0.0013518000487238169
1.7294973022800271e+18,0.0021873568184673786,0.0021493087988346815,0.001245506340637803
1.7294973022890273e+18,-0.0015035963151603937,-0.0014412461314350367,0.000663290498778224
1.7294973022980275e+18,0.00023919087834656239,-0.002026072470471263,-0.0008423265535384417
1.7294973023070277e+18,0.004355838056653738,-0.0005765806417912245,-0.002237725304439664
1.7294973023130278e+18,0.005058897193521261,-0.004293015226721764,0.002434214809909463
1.729497302322028e+18,0.006619720719754696,-0.0044133467599749565,0.0017390435095876455
1.7294973023280282e+18,0.004278721287846565,-0.004749644547700882,-0.0016696725506335497
1.7294973023370284e+18,0.00017709506209939718,-0.0021740449592471123,-0.0011729397810995579
1.7294973023460285e+18,-0.0005870984750799835,-0.00047893624287098646,-0.0030122774187475443
1.7294973023520287e+18,-0.0024009840562939644,0.003388396231457591,-0.00037355179665610194
1.7294973023610289e+18,-0.00017223050235770643,6.368162576109171e-05,-0.0022390759550035
1.729497302370029e+18,0.002622823463752866,0.001234231749549508,-0.00043009192449972034
1.7294973023760292e+18,0.0015244539827108383,0.0015352057525888085,0.0005680816248059273
1.7294973023850294e+18,0.0035515499766916037,-0.0017279577441513538,0.002869399031624198
1.7294973023940296e+18,-0.0033728820271790028,-0.0018595355795696378,0.0007922024233266711
1.7294973024000297e+18,0.0004185906145721674,-0.0029294639825820923,-0.0029546781443059444
1.72949730240903e+18,-0.0010394476121291518,0.00034996774047613144,0.0005398227949626744
1.72949730241803e+18,-0.0024307933636009693,0.00031906235381029546,0.0005365555989556015
1.7294973024240302e+18,0.0001988417934626341,-0.0014823244418948889,-0.0007639143150299788
1.7294973024330304e+18,-0.0011418045032769442,0.0013640567194670439,-0.0023794390726834536
1.7294973024390305e+18,0.0010615098290145397,0.0018190591363236308,-0.0016065393574535847
1.7294973024480307e+18,-0.0006335067446343601,0.0007687249453738332,-0.0011084731668233871
1.729497302457031e+18,0.0004465063102543354,0.0014186843764036894,-0.0018142126500606537
1.729497302463031e+18,-0.002567895455285907,-0.0019272200297564268,0.000812960381153971
1.7294973024720312e+18,-0.002750896383076906,-0.001057239482179284,-0.0014608507044613361
1.7294973024810314e+18,-0.0006244820542633533,0.002244605915620923,0.0025982025545090437
1.7294973024870316e+18,-0.0006656780606135726,0.002810554811730981,-0.0005274374270811677
1.7294973024960317e+18,-0.00028168613789603114,0.002817364875227213,-0.0017401999793946743
1.729497302502032e+18,-0.0004463773802854121,0.006346976850181818,-4.5980559661984444e-05
1.729497302511032e+18,-0.003949269652366638,0.004210823215544224,0.0012265939731150866
1.7294973025200323e+18,6.997107993811369e-05,4.5712804421782494e-05,-0.004214183427393436
1.7294973025290324e+18,0.0003623530501499772,0.0012726429849863052,-0.0019018081948161125
1.7294973025350326e+18,0.0003847793850582093,-0.0014843062963336706,-0.0017300094477832317
1.7294973025440328e+18,0.002733350032940507,0.0008949515759013593,-0.001773602212779224
1.729497302553033e+18,0.002866234164685011,0.0018458582926541567,-0.00036754546454176307
1.7294973025620332e+18,-0.0002472200430929661,0.002463669516146183,2.0139035768806934e-05
1.7294973025710333e+18,0.0012527165235951543,0.006238938774913549,-0.0004894654848612845
1.7294973025770335e+18,-0.002748178318142891,0.0033964677713811398,-0.0012699863873422146
1.7294973025860337e+18,-0.00038540741661563516,0.0032262799795717,-0.0018497479613870382
1.7294973025950339e+18,9.317474905401468e-05,0.003751857206225395,0.0003462182357907295
1.729497302601034e+18,0.004762765485793352,0.0039257630705833435,-0.0011099077528342605
1.7294973026100342e+18,0.0044781239703297615,-0.0008296137675642967,0.0005035367794334888
1.7294973026190344e+18,0.002473234198987484,0.003000026335939765,-0.0030277513433247805
1.7294973026250345e+18,0.005569411441683769,0.001229321351274848,-0.002265745773911476
1.7294973026340347e+18,0.0031757359392941,0.00332831684499979,-0.00419762684032321
1.729497302643035e+18,0.005249880254268646,0.0033547384664416313,-0.0006261031376197934
1.729497302649035e+18,0.005067330319434404,0.0030864987056702375,-0.002641283208504319
1.7294973026580352e+18,0.0021831784397363663,0.00348757766187191,0.0009293440962210298
1.7294973026670354e+18,0.005003105849027634,0.00334533816203475,-0.0022453786805272102
1.7294973026730355e+18,0.003969002515077591,0.0029117586091160774,-0.002081930171698332
1.7294973026820357e+18,0.0048461854457855225,0.0023666280321776867,-0.0023664613254368305
1.7294973026880358e+18,0.004390964284539223,0.0025604553520679474,-0.0017569022020325065
1.729497302697036e+18,0.0036007207818329334,0.004066158551722765,0.0003201536601409316
1.7294973027060362e+18,0.0031925179064273834,0.004095310810953379,-0.0018741177627816796
1.7294973027120364e+18,0.0026159780099987984,0.0034994748421013355,0.00024371431209146976
1.7294973027210365e+18,0.005043052136898041,-0.0008239527232944965,-0.0007852152921259403
1.7294973027300367e+18,0.003621557727456093,-0.0010919194901362062,-0.003213954158127308
1.7294973027360369e+18,-0.0007047387771308422,-0.00062108866404742,0.0009258820209652185
1.729497302745037e+18,0.0020688045769929886,0.0023669330403208733,-0.0017932502087205648
1.7294973027510372e+18,0.0005759145133197308,0.0027687405236065388,-0.001652362523600459
1.7294973027630374e+18,-0.000994169618934393,0.0029733157716691494,0.0004818292800337076
1.7294973027720376e+18,-0.002753037726506591,0.0012039740104228258,0.0003103194758296013
1.7294973027810378e+18,-0.0035518272779881954,0.0011775395832955837,-0.002115717390552163
1.729497302787038e+18,0.0004481110954657197,0.0005866996943950653,-0.0006783666904084384
1.7294973027960381e+18,0.0010171867907047272,0.0034101468045264482,-0.0009954769629985094
1.7294973028050383e+18,-0.0024055088870227337,0.0018817167729139328,-0.0013579342048615217
1.7294973028110385e+18,-0.004147524945437908,0.0017674013506621122,-0.002473801374435425
1.7294973028200387e+18,-0.006882540415972471,0.0014623866882175207,-0.0007483446970582008
1.7294973028290388e+18,-0.009484410285949707,0.0018553094705566764,0.00013170542661100626
1.729497302835039e+18,-0.009471328929066658,0.0011647987412288785,-0.003978576045483351
1.7294973028440392e+18,-0.010707997716963291,-0.00037845992483198643,0.0019968857523053885
1.7294973028560394e+18,-0.005576055496931076,0.0022996608167886734,-0.0023223967291414738
1.7294973028620396e+18,-0.006710929796099663,0.0023346650414168835,-0.0034610284492373466
1.7294973028710397e+18,-0.004533357918262482,0.0037584577221423388,-0.002779116155579686
1.7294973028770399e+18,-0.0058561223559081554,0.004759529139846563,-0.002447802107781172
1.72949730288604e+18,-0.0064796763472259045,0.005274901166558266,-0.002315189689397812
1.7294973028950403e+18,-0.007609149441123009,0.005166515242308378,5.915248766541481e-05
1.7294973029010404e+18,-0.005387365818023682,0.005707259755581617,0.001311636995524168
1.7294973029100406e+18,-0.00445764884352684,0.0030128401704132557,-0.0013093235902488232
1.7294973029190408e+18,-0.0035385400988161564,0.0026812865398824215,-0.0037926752120256424
1.729497302928041e+18,0.0028573027811944485,0.004912517964839935,-0.0016530980356037617
1.729497302934041e+18,-0.0024375664070248604,0.007017262279987335,-0.0016178248915821314
1.7294973029430413e+18,-0.001342108123935759,0.0054381610825657845,-0.00024518813006579876
1.7294973029520415e+18,-0.0018860609270632267,0.0029528827872127295,-0.001745005021803081
1.7294973029610417e+18,-0.004163568839430809,0.008041875436902046,-0.000296106532914564
1.7294973029670418e+18,-0.00023046042770147324,0.0030239776242524385,0.00011718529276549816
1.729497302976042e+18,-0.0047151013277471066,0.006041000597178936,0.001168794697150588
1.7294973029850422e+18,-0.0050325775519013405,0.005363603588193655,-9.601784404367208e-05
1.7294973029940424e+18,-0.0043364232406020164,0.0028353699017316103,8.352333679795265e-06
1.7294973030000425e+18,-0.0021307424176484346,0.006460760720074177,0.001599509734660387
1.7294973030090427e+18,7.241382263600826e-06,0.0011308901011943817,-0.0038071332965046167
1.729497303018043e+18,0.00016101871733553708,0.005030915141105652,-0.00016249268082901835
1.729497303024043e+18,-0.00291476771235466,0.005201841704547405,0.0012957837898284197
1.7294973030330432e+18,-0.00494593707844615,0.007729630917310715,-0.0022144175600260496
1.7294973030420434e+18,-0.0039562685415148735,0.00668731052428484,-0.0006086209905333817
1.7294973030480435e+18,-0.0016162728425115347,0.0032791963312774897,-0.00037690214230678976
1.7294973030570437e+18,-0.0035247490741312504,0.0014829416759312153,-0.0007930811261758208
1.7294973030630438e+18,-0.0014458871446549892,-0.0011528737377375364,0.00020714080892503262
1.729497303072044e+18,-0.0003077728906646371,0.0007456365274265409,0.0010110894218087196
1.7294973030810442e+18,-0.0009148372337222099,-0.003386581549420953,-0.0009296468342654407
1.7294973030870444e+18,-0.004404966253787279,0.003839527489617467,-0.002325852867215872
1.7294973030960445e+18,-0.005047853570431471,0.0026931376196444035,-0.0033016991801559925
1.7294973031050447e+18,-0.007476169150322676,0.0042082201689481735,-0.0016203209524974227
1.7294973031110449e+18,-0.007237739861011505,0.0038407989777624607,-0.001925167627632618
1.729497303120045e+18,-0.006322568282485008,0.0011563212610781193,-0.0012115436838939786
1.7294973031290452e+18,-0.006935920100659132,0.0016055384185165167,-0.0013548319693654776
1.7294973031380454e+18,-0.006046101450920105,0.0018060158472508192,-0.0010657330276444554
1.7294973031440456e+18,-0.006647464819252491,0.0026014121249318123,-0.0014258937444537878
1.7294973031530458e+18,-0.0029441691003739834,0.004392562434077263,-0.0033160883467644453
1.729497303162046e+18,-0.004931293893605471,0.004954368807375431,-0.001533848000690341
1.729497303168046e+18,-0.005437392741441727,0.007439134642481804,0.0011967015452682972
1.7294973031770463e+18,-0.004410043358802795,0.005570840090513229,-0.004545798525214195
1.7294973031890465e+18,-0.008773845620453358,0.004488199949264526,0.00010893808212131262
1.7294973031980467e+18,-0.010624739341437817,0.005713136401027441,0.002421210054308176
1.7294973032040468e+18,-0.00607328163459897,0.00387817295268178,-3.78716504201293e-05
1.729497303213047e+18,-0.0051710717380046844,0.003546199994161725,0.002112328540533781
1.7294973032220472e+18,-0.006578246131539345,0.0049334075301885605,0.0012209813576191664
1.7294973032310474e+18,-0.003471780102699995,0.005537466146051884,-0.0007349587976932526
1.7294973032370476e+18,-0.0035689445212483406,0.0035119650419801474,-0.0020152099896222353
1.7294973032460477e+18,-0.0029957913793623447,0.003998962696641684,-0.003034050576388836
1.729497303255048e+18,-0.0071381269954144955,0.002704115118831396,-0.002138418611139059
1.729497303264048e+18,-0.007950580678880215,-0.0001528364373371005,-3.7670833989977837e-05
1.7294973032700483e+18,-0.009498333558440208,0.0013483739458024502,-0.00029168324545025826
1.7294973032790484e+18,-0.006954972166568041,-0.002082760678604245,-0.0037148548290133476
1.7294973032880486e+18,-0.006722158752381802,0.0013195548672229052,-0.004183186683803797
1.7294973032940488e+18,-0.004305009730160236,-0.0015665036626160145,-0.0009136699372902513
1.729497303303049e+18,-0.006901963613927364,0.0037242115940898657,-0.0024940953589975834
1.7294973033120492e+18,-0.004889448173344135,0.004864515736699104,-0.0028437371365725994
1.7294973033180493e+18,-0.010681328363716602,0.0022382282186299562,-0.0009189755655825138
1.7294973033270495e+18,-0.010384942404925823,-0.0005561179714277387,-0.0020850072614848614
1.7294973033330496e+18,-0.009149141609668732,0.0026170164346694946,-0.0012256543850526214
1.7294973033420498e+18,-0.006906630005687475,-0.0012834687950089574,-0.0017563849687576294
1.72949730335105e+18,-0.0026246830821037292,0.0005584191530942917,-0.003325047669932246
1.7294973033600502e+18,-0.002299618674442172,0.0021016853861510754,-0.00024353561457246542
1.7294973033660503e+18,-0.0015766448341310024,0.0013175351778045297,-0.0013222639681771398
1.7294973033750505e+18,-0.003972305916249752,0.0007785059278830886,-0.0018059788271784782
1.7294973033840507e+18,-0.005369820166379213,-0.0013380881864577532,-0.0038617094978690147
1.729497303396051e+18,-0.0073918625712394714,0.002037197584286332,-0.002784912008792162
1.7294973034050511e+18,-0.009409352205693722,0.0035478011704981327,-0.0022932696156203747
1.7294973034140513e+18,-0.006268884055316448,0.000977496150881052,-0.004019642248749733
1.7294973034230515e+18,-0.006447373889386654,0.00018559861928224564,-0.0035671365913003683
1.7294973034290516e+18,-0.006952894851565361,-2.5338493287563324e-05,-0.0012613758444786072
1.7294973034380518e+18,-0.006128653883934021,0.0040556881576776505,-0.0007859054021537304
1.729497303447052e+18,-0.005435648839920759,0.003282833145931363,-0.003258851356804371
1.7294973034530522e+18,-0.007382232695817947,0.004236222710460424,-0.00187446060590446
1.7294973034620524e+18,-0.005556186661124229,0.005658908747136593,-0.004846855532377958
1.7294973034710525e+18,-0.009668836370110512,0.004444683436304331,-0.0016783940372988582
1.7294973034770527e+18,-0.012610717676579952,0.004026789218187332,-0.0035748821683228016
1.7294973034860529e+18,-0.00986389722675085,-0.0004804832860827446,-0.0009289415902458131
1.729497303495053e+18,-0.006760334130376577,0.0019841459579765797,-0.0013985102996230125
1.7294973035010532e+18,-0.004893944598734379,0.003066068282350898,-0.003854894544929266
1.7294973035100534e+18,-0.003781631588935852,0.0022306665778160095,-0.0024268231354653835
1.7294973035190536e+18,-0.0038478730712085962,0.004966546781361103,-0.0004088886780664325
1.7294973035280538e+18,-0.0037681260146200657,0.0049541303887963295,0.0011431770399212837
1.729497303534054e+18,-0.004365439526736736,0.004133228212594986,-0.0006636889302171767
1.729497303543054e+18,-0.006490255240350962,0.003943810239434242,-0.0009132343693636358
1.7294973035520543e+18,-0.006924518384039402,0.0026464927941560745,-0.0017280814936384559
1.7294973035610545e+18,-0.007543387822806835,-0.000248428201302886,-0.0045570265501737595
1.7294973035670546e+18,-0.007798202335834503,0.004387539345771074,0.0009225012036040425
1.7294973035760548e+18,-0.0025315231177955866,0.003121409099549055,-0.002044389257207513
1.729497303585055e+18,-0.0021798270754516125,0.0021984060294926167,-0.001407062285579741
1.729497303591055e+18,-0.00195415411144495,0.004598685540258884,-0.0017463521799072623
1.7294973036000553e+18,0.002832325641065836,0.005202982109040022,-0.0017360203200951219
1.7294973036090555e+18,-0.003907621372491121,0.0051352158188819885,-0.0007299972930923104
1.7294973036150556e+18,-0.0022601059172302485,0.002582625951617956,-0.004843288101255894
1.7294973036240558e+18,-0.00858373288065195,0.0032872192095965147,-0.0023117545060813427
1.729497303633056e+18,-0.006604485679417849,0.003389843041077256,0.0009135219734162092
1.7294973036420562e+18,-0.004536081105470657,0.004452316090464592,-0.0016950793797150254
1.7294973036510564e+18,0.0003042669268324971,-0.0005111175123602152,-0.0008135975804179907
1.7294973036600566e+18,0.001075013424269855,0.0021296199411153793,-0.0029093942139297724
1.7294973036660567e+18,0.00030511815566569567,0.00018605287186801434,-0.0006843701703473926
1.729497303675057e+18,-1.1539494153112173e-05,0.005834031850099564,-0.002196338027715683
1.729497303681057e+18,-0.0033426592126488686,0.004228197503834963,-0.003423993941396475
1.7294973036900572e+18,-0.0021430226042866707,0.003097360488027334,-0.002081115497276187
1.7294973036990574e+18,-0.0036350986920297146,0.0038019015919417143,-0.001460365834645927
1.7294973037080576e+18,0.0016070017591118813,0.002493277657777071,-0.001431667129509151
1.7294973037140577e+18,-9.24975611269474e-05,0.00026319618336856365,-0.0031346771866083145
1.729497303723058e+18,-0.0035185320302844048,0.004706749692559242,-0.00365903927013278
1.729497303732058e+18,0.0008503152057528496,0.001488916459493339,-0.001661654096096754
1.7294973037380582e+18,-0.004557583015412092,0.0033571806270629168,-0.0017800972564145923
1.7294973037470584e+18,-0.005133661441504955,0.007409234531223774,-0.0027665365487337112
1.7294973037560586e+18,-0.005692009814083576,0.006015232298523188,-0.0018754033371806145
1.7294973037620588e+18,-0.002519657602533698,0.010001280345022678,-0.0011289536487311125
1.729497303771059e+18,-0.002763343509286642,0.006755231413990259,-0.0012646877439692616
1.7294973037800591e+18,-0.0006764741847291589,0.0070866188034415245,0.0005048501770943403
1.7294973037890593e+18,-0.0033002712298184633,0.004209897015243769,-0.0005093389190733433
1.7294973037950595e+18,-0.002014832803979516,0.005259797442704439,-0.0022583932150155306
1.7294973038040596e+18,-0.007618406787514687,0.006799804978072643,-0.002797243185341358
1.7294973038130598e+18,-0.006952654104679823,0.005088842008262873,-0.0025603268295526505
1.72949730382206e+18,-0.007604607380926609,0.006358165759593248,-0.0012014323147013783
1.7294973038310602e+18,-0.0034338932018727064,0.005222149658948183,-0.00270316400565207
1.7294973038400604e+18,-0.0015221862122416496,0.0074576386250555515,-0.003111352678388357
1.7294973038490606e+18,-0.00571856927126646,0.007935023866593838,-0.0019787834025919437
1.7294973038550607e+18,-0.0008980599232017994,0.007337154354900122,0.0009961881441995502
1.729497303864061e+18,-0.005059882998466492,0.007361253723502159,-0.0012537318980321288
1.729497303873061e+18,-0.004389618523418903,0.005585709121078253,-0.0024330439046025276
1.7294973038820613e+18,-0.0029402077198028564,0.005076428409665823,-0.003287623869255185
1.7294973038880614e+18,-0.004791073501110077,-0.00013479311019182205,-0.0008109959890134633
1.7294973038970616e+18,-0.001092077698558569,0.0026061213575303555,-0.0016187344444915652
1.7294973039060618e+18,-0.0012383502908051014,0.0038536100182682276,-0.0016368404030799866
1.729497303912062e+18,-0.004386703483760357,0.007271529175341129,-0.0004980824305675924
1.7294973039210621e+18,-0.0021386502776294947,0.005803685635328293,-0.0008945809677243233
1.7294973039270623e+18,-0.00252489629201591,0.00874789897352457,-0.001100356224924326
1.7294973039360625e+18,-0.0031565437093377113,0.004897063598036766,-0.0014319554902613163
1.7294973039450627e+18,-0.004980834666639566,0.004899077583104372,-0.0017237614374607801
1.7294973039540628e+18,-0.004756464622914791,0.0062548392452299595,-0.0011080377735197544
1.729497303963063e+18,0.0001896824687719345,0.00483261002227664,0.0017979787662625313
1.7294973039690632e+18,-0.00375598156824708,0.002511473372578621,0.00018121849279850721
1.7294973039780634e+18,-0.0007936370093375444,-0.0012071097735315561,-0.0007178176892921329
1.7294973039870636e+18,-0.0012219881173223257,0.0033263126388192177,-0.0020473641343414783
1.7294973039960637e+18,-0.0004936404875479639,0.00356933381408453,-0.0002652531838975847
1.729497304002064e+18,0.0029850841965526342,0.00505197886377573,-0.000483144773170352
1.729497304011064e+18,-0.0021078665740787983,0.002035328187048435,-0.0002493577776476741
1.7294973040230643e+18,1.9846425857394934e-05,0.0010778747964650393,-0.001259602839127183
1.7294973040290644e+18,-0.002011534757912159,-0.002120709978044033,-0.00151609699241817
1.7294973040380646e+18,0.0014041938120499253,-0.00199741474352777,-0.0013039270415902138
1.7294973040440648e+18,-0.0006561744958162308,0.0009916004491969943,-0.0015623439103364944
1.729497304053065e+18,0.0013542135711759329,0.0023546135053038597,0.0009991785045713186
1.7294973040620652e+18,-0.0001895153254736215,0.004914692137390375,-0.0027750907465815544
1.7294973040680653e+18,0.0019313441589474678,-0.0004505020333454013,-0.00138238281942904
1.7294973040770655e+18,-0.003859381191432476,-0.0007666613673791289,-0.001873321132734418
1.7294973040830656e+18,-0.003555223112925887,-0.00014372781151905656,-0.0011843646643683314
1.7294973040920658e+18,-0.0022396771237254143,-0.0020977421663701534,0.0002552990918047726
1.729497304101066e+18,-0.003239887533709407,0.0023021199740469456,-0.0008882050169631839
1.7294973041100662e+18,0.0010114313336089253,0.004439102485775948,-0.0032949678134173155
1.7294973041160663e+18,0.0036948767956346273,0.0023614957462996244,0.0003260541125200689
1.7294973041250665e+18,-0.0016375710256397724,0.00528141763061285,0.0009216179023496807
1.7294973041340667e+18,-0.0023824344389140606,0.002316882135346532,-0.0009720989037305117
1.729497304143067e+18,-0.004762229509651661,0.0041854288429021835,0.001072871731594205
1.729497304149067e+18,-0.008762468583881855,0.00679008848965168,-0.002074591815471649
1.7294973041580672e+18,-0.007886616513133049,0.004189131315797567,-0.0015888422494754195
1.7294973041670674e+18,-0.008860825560986996,-0.00030848337337374687,-0.00025393275427632034
1.7294973041730675e+18,-0.00402055075392127,0.005124567076563835,-0.0005670806276611984
1.7294973041820677e+18,-0.0013968837447464466,0.0037385548930615187,0.0027969756629318
1.729497304191068e+18,-9.423948358744383e-05,0.0024387985467910767,-0.0019201032118871808
1.729497304200068e+18,-0.0020405887626111507,0.004772313870489597,0.0004912112490274012
1.7294973042060682e+18,-0.003996255807578564,0.005701862741261721,0.002140704309567809
1.7294973042150684e+18,-0.0072229341603815556,0.005886707454919815,0.0009999729227274656
1.7294973042210685e+18,-0.00856444239616394,0.0028755231760442257,-0.003770848736166954
1.7294973042300687e+18,-0.012666608206927776,0.00286491634324193,0.00030989362858235836
1.7294973042360689e+18,-0.014214355498552322,0.0037323031574487686,-0.0016605897108092904
1.729497304245069e+18,-0.008227778598666191,0.002888276008889079,-0.0001408038951922208
1.7294973042540692e+18,-0.006057350430637598,0.005510177928954363,-0.0015616416931152344
1.7294973042630694e+18,-0.004385071806609631,0.0056679039262235165,0.00022704371076542884
1.7294973042690696e+18,-0.004007262177765369,0.00832089502364397,-0.0026261957827955484
1.7294973042780698e+18,-0.0029498841613531113,0.006450887769460678,0.00258600409142673
1.72949730428707e+18,-0.008798398077487946,0.004601084627211094,-0.0012968131341040134
1.72949730429307e+18,-0.008316343650221825,0.004212119150906801,0.001698542502708733
1.7294973043020703e+18,-0.009695572778582573,0.005263806786388159,-0.0005793396849185228
1.7294973043080704e+18,-0.008221210911870003,0.0032756326254457235,0.0014151001814752817
1.7294973043170706e+18,-0.003803989849984646,0.004882533568888903,-0.0005403979448601604
1.7294973043260708e+18,-0.0031410041265189648,0.006984717678278685,-0.0003164559602737427
1.729497304335071e+18,-0.001380228903144598,0.005503842607140541,0.0022408331278711557
1.7294973043440712e+18,-0.004624706227332354,0.007706239353865385,0.0013373097172006965
1.7294973043530714e+18,-0.0048712799325585365,0.006837876513600349,-0.003187641268596053
1.7294973043620716e+18,-0.009723066352307796,0.0058636791072785854,-0.004384264349937439
1.7294973043710717e+18,-0.007784645073115826,0.006650284864008427,-0.001511292182840407
1.729497304380072e+18,-0.005502170883119106,0.0032613780349493027,-0.0017556983511894941
1.7294973043890721e+18,0.001048469915986061,0.004466027952730656,6.195359310368076e-05
1.7294973043950723e+18,-0.000442784046754241,0.004368817899376154,0.000926383538171649
1.7294973044040724e+18,0.003125131828710437,0.005116216838359833,0.00016063314978964627
1.7294973044100726e+18,0.0015820248518139124,0.006048709154129028,0.0013546082191169262
1.7294973044190728e+18,-0.002615461591631174,0.005905356723815203,-0.00037115137092769146
1.729497304428073e+18,-0.003998800180852413,0.007775218226015568,-0.0012816127855330706
1.7294973044370732e+18,-0.007441990077495575,0.009035893715918064,0.0020151191856712103
1.7294973044460733e+18,-0.0016741149593144655,0.007556448224931955,0.001005930476821959
1.7294973044520735e+18,-0.001362742856144905,0.008943411521613598,-0.0013088590931147337
1.7294973044610737e+18,0.0012030270881950855,0.00460783950984478,-0.0002618918661028147
1.7294973044700739e+18,0.0024571227841079235,0.007276865188032389,0.0008221695316024125
1.729497304479074e+18,0.0012861423892900348,0.00575482239946723,-0.0012180308112874627
1.7294973044850742e+18,0.0010034199804067612,0.0054651107639074326,-0.0005313141155056655
1.7294973044940744e+18,-0.005041416734457016,0.0032307994551956654,-0.0025321405846625566
1.7294973045030746e+18,-0.004464630503207445,0.004783133044838905,0.000611464842222631
1.7294973045120748e+18,-0.007933204993605614,0.00627319747582078,0.0009138468303717673
1.729497304518075e+18,-0.0033675169106572866,0.005965846590697765,-0.000728340120986104
1.729497304527075e+18,-0.0019991095177829266,0.008710176683962345,-0.002153371460735798
1.7294973045360753e+18,0.002809169702231884,0.006989476270973682,0.0009703172254376113
1.7294973045450755e+18,0.0013655622024089098,0.0041548386216163635,-0.0006486792699433863
1.7294973045570757e+18,-0.0004156945797149092,0.0008912316989153624,0.002265720162540674
1.729497304569076e+18,-0.0049467142671346664,0.00011327432002872229,-0.00011292372801108286
1.7294973045780762e+18,-0.002466747770085931,0.0027541755698621273,0.0007818808080628514
1.7294973045870764e+18,0.0006116303848102689,0.0022430773824453354,0.001876001595519483
1.7294973045960765e+18,-0.0008950629271566868,0.004950542002916336,0.0021544601768255234
1.7294973046050767e+18,0.007375109940767288,0.0018065631156787276,-0.00044219891424290836
1.729497304614077e+18,0.004157851915806532,0.0016362343449145555,0.002139271004125476
1.729497304620077e+18,0.0015191443962976336,0.00011908239684998989,-0.00014897334040142596
1.7294973046290772e+18,0.0023363204672932625,-0.001176155055873096,-0.0011248491937294602
1.7294973046380774e+18,-0.0007549670990556479,-0.0020120644476264715,0.0003000011492986232
1.7294973046470776e+18,-0.0014080192195251584,9.690044680610299e-05,-0.0017571215284988284
1.7294973046560778e+18,0.0026779640465974808,-0.0018416234524920583,-0.000543721835128963
1.729497304665078e+18,0.0010300858411937952,0.0019964894745498896,0.0003562179917935282
1.7294973046740782e+18,0.0013921947684139013,0.0005035237991251051,-0.0005181065062060952
1.7294973046800783e+18,0.006368300877511501,7.871363777667284e-05,-0.0013046938693150878
1.7294973046890785e+18,0.004093126859515905,-0.0004082742379978299,-0.0019003550987690687
1.7294973046980787e+18,0.0010252706706523895,-0.0006980423349887133,-0.0018011026550084352
1.729497304707079e+18,-0.0024227953981608152,-0.0012099071172997355,9.056447015609592e-05
1.729497304716079e+18,-0.003134481143206358,-0.0007519818609580398,-0.0010916766477748752
1.7294973047250793e+18,-0.0033156361896544695,0.002865964313969016,8.311831334140152e-05
1.7294973047340795e+18,-0.0009567873785272241,-0.0018070426303893328,-0.0028200913220643997
1.7294973047430797e+18,-0.0006157085881568491,0.0021006944589316845,0.00024580018362030387
1.7294973047490798e+18,-0.003442009910941124,0.0029391839634627104,0.0030202462803572416
1.72949730475808e+18,-0.0016851546242833138,0.0021314930636435747,-0.00020696959109045565
1.7294973047670802e+18,0.0009073004475794733,0.00218952470459044,-0.0018660761415958405
1.7294973047760804e+18,0.0019718538969755173,0.0026010414585471153,-0.0002498491376172751
1.7294973047820805e+18,0.0004121769452467561,0.004010772332549095,0.0015777784865349531
1.7294973047910807e+18,-0.0006936258869245648,0.00015084934420883656,-0.0019345227628946304
1.729497304800081e+18,-0.0013064718805253506,0.0011619669385254383,0.002283375011757016
1.729497304809081e+18,-0.00025118733174167573,0.0016967288684099913,-0.0009548550588078797
1.7294973048150812e+18,0.00043884283513762057,-0.0003666782286018133,0.0006181810167618096
1.7294973048240814e+18,0.0019981577061116695,0.0020127599127590656,-0.0005807805573567748
1.7294973048330816e+18,0.0019177275244146585,0.0043148137629032135,-0.0011296726297587156
1.7294973048420818e+18,-0.0007413998246192932,0.0014632493257522583,0.0013662164565175772
1.729497304851082e+18,-0.0006187339313328266,0.003097010310739279,0.0012584251817315817
1.7294973048600822e+18,0.0011134896194562316,0.0027762125246226788,0.0003565488150343299
1.7294973048690824e+18,-0.0007549240835942328,0.003087942022830248,-0.0012387479655444622
1.7294973048750825e+18,-0.0009024654282256961,-0.0008606425835750997,0.0035629135090857744
1.7294973048840827e+18,-0.0004663716536015272,-0.0019885145593434572,0.0031770439818501472
1.729497304893083e+18,-0.000486686680233106,-0.0029901782982051373,5.277019226923585e-06
1.729497304899083e+18,-0.00161461322568357,-0.0019471598789095879,0.0007097860216163099
1.7294973049080832e+18,-0.0015696389600634575,-0.0016103253001347184,0.0004126694402657449
1.7294973049170834e+18,-0.004636051598936319,0.003091351594775915,-0.0003154560108669102
1.7294973049230835e+18,-0.002771231811493635,0.0029790156986564398,-0.0038102823309600353
1.7294973049320837e+18,-0.004781471565365791,0.0028870634268969297,-0.0019115847535431385
1.729497304941084e+18,-0.0015024119056761265,0.0018422596622258425,0.00041912455344572663
1.729497304950084e+18,-0.002699516946449876,0.0009468970820307732,0.0016509292181581259
1.7294973049560842e+18,-0.0025696763768792152,0.0002996618568431586,0.0007054120069369674
1.7294973049650844e+18,-0.0006827568868175149,-3.207041299901903e-05,-0.0006359857507050037
1.7294973049710845e+18,-0.0017851896118372679,-0.0004434660077095032,-0.0017661773599684238
1.7294973049800847e+18,-0.002229520585387945,-9.461696026846766e-05,-0.0018039386486634612
1.729497304989085e+18,-0.001838963944464922,0.0032140694092959166,0.0011824792018160224
1.729497304995085e+18,-0.007495331112295389,0.0017449839506298304,0.0016722427681088448
1.7294973050070853e+18,-0.008314223028719425,0.0005835131742060184,-0.0015948464861139655
1.7294973050130854e+18,-0.007572450675070286,-0.0009040298173204064,-0.00045151106314733624
1.7294973050220856e+18,-0.008523022755980492,-0.00047109200386330485,-0.00033492111833766103
1.7294973050310858e+18,-0.004870663397014141,-0.004512983839958906,0.0021801081020385027
1.729497305037086e+18,0.0004545147530734539,-0.0016040215268731117,0.0007699354900978506
1.7294973050460861e+18,0.0017529220785945654,0.0011553444201126695,0.003297950606793165
1.7294973050550863e+18,-0.0020126374438405037,0.00419877702370286,-0.000720275507774204
1.7294973050640865e+18,-0.0034234761260449886,0.005307147279381752,-0.00019245200383011252
1.7294973050730867e+18,-0.0026352438144385815,0.004000747110694647,-0.0009055022383108735
1.7294973050790868e+18,-0.008038712665438652,0.0029714261181652546,0.0031430143862962723
1.729497305088087e+18,-0.003595273941755295,0.001689594006165862,-0.0006494533736258745
1.7294973050970872e+18,-0.0008560233982279897,-0.0001080325455404818,0.004673673305660486
1.7294973051060874e+18,0.004282630048692226,-0.002234984654933214,-0.001977045787498355
1.7294973051120876e+18,0.004138235468417406,-0.0005873719346709549,-7.780082523822784e-05
1.7294973051210877e+18,0.003331621177494526,-0.0015093189431354403,-0.002486271783709526
1.729497305130088e+18,0.0011225142516195774,-0.00425225542858243,0.00013657734962180257
1.729497305136088e+18,-0.0008667989168316126,-0.0023206863552331924,0.0008836735505610704
1.7294973051450883e+18,-0.0021790768951177597,-0.00261239567771554,-0.0015881747240200639
1.7294973051540884e+18,-0.00027240434428676963,-0.0028317829128354788,-0.0010250764898955822
1.7294973051600886e+18,-0.0004461518838070333,-0.00411785114556551,-0.0011671835090965033
1.7294973051690888e+18,0.0025568134151399136,-0.003138998057693243,-0.0008918183157220483
1.729497305175089e+18,0.0008308473043143749,-0.0031766307074576616,0.00014274122077040374
1.729497305184089e+18,0.0014040307141840458,0.00029692845419049263,0.0012646436225622892
1.7294973051930893e+18,0.0031918243039399385,-0.0023336054291576147,-0.005068435799330473
1.7294973052020895e+18,0.0018640621565282345,-0.0018630861304700375,0.00040747204911895096
1.7294973052110897e+18,0.003927025478333235,-0.005792244337499142,-0.0005756390746682882
1.7294973052200899e+18,0.0024845064617693424,-0.007005117833614349,-0.0008036469807848334
1.72949730522909e+18,-0.2639298737049103,0.39093083143234253,0.00037085521034896374
1.7294973052350902e+18,-0.576042115688324,0.8420857787132263,0.007296260446310043
1.7294973052440904e+18,-1.0909308195114136,1.5730071067810059,0.009037431329488754
1.7294973052530906e+18,-1.7414499521255493,2.1933088302612305,0.02017166092991829
1.7294973052590907e+18,-2.1863887310028076,2.4274051189422607,0.02434612065553665
1.729497305268091e+18,-2.6926708221435547,2.5186665058135986,0.03155166283249855
1.729497305277091e+18,-2.9232542514801025,2.365593910217285,0.046460412442684174
1.7294973052830912e+18,-2.9382355213165283,2.2317075729370117,0.04924331605434418
1.7294973052920914e+18,-2.800100088119507,2.0890069007873535,0.06238749995827675
1.7294973052980915e+18,-2.6781933307647705,2.0701611042022705,0.0647943913936615
1.7294973053070917e+18,-2.574157953262329,2.168473720550537,0.07301018387079239
1.729497305316092e+18,-2.592219352722168,2.3095483779907227,0.08071403950452805
1.729497305325092e+18,-2.723283290863037,2.410432815551758,0.09250468015670776
1.7294973053340923e+18,-2.8376691341400146,2.369396448135376,0.09896516799926758
1.7294973053400924e+18,-2.8591628074645996,2.277472972869873,0.10328945517539978
1.7294973053490926e+18,-2.7558352947235107,2.073016405105591,0.1120985597372055
1.7294973053580928e+18,-2.514542579650879,1.8591972589492798,0.11747592687606812
1.729497305364093e+18,-2.32590651512146,1.7472835779190063,0.12353729456663132
1.729497305373093e+18,-2.0523738861083984,1.6313550472259521,0.12637203931808472
1.7294973053790932e+18,-1.926364541053772,1.5849519968032837,0.12828347086906433
1.7294973053880934e+18,-1.818387746810913,1.5360759496688843,0.13418687880039215
1.7294973053970936e+18,-1.7766112089157104,1.4645302295684814,0.13459640741348267
1.7294973054060938e+18,-1.746084451675415,1.356825590133667,0.1378382295370102
1.729497305415094e+18,-1.645615577697754,1.2002499103546143,0.140633687376976
1.7294973054240942e+18,-1.4707080125808716,1.0347135066986084,0.14128026366233826
1.7294973054300943e+18,-1.322409749031067,0.932098388671875,0.14070767164230347
1.7294973054390945e+18,-1.0851976871490479,0.7989591360092163,0.1414482146501541
1.7294973054480947e+18,-0.8895224332809448,0.7001858949661255,0.13856877386569977
1.729497305457095e+18,-0.7696692943572998,0.6226419806480408,0.14349333941936493
1.729497305463095e+18,-0.7304395437240601,0.5756088495254517,0.1383928805589676
1.7294973054720952e+18,-0.6909999251365662,0.4938766658306122,0.1406778246164322
1.7294973054780954e+18,-0.6627100110054016,0.4323047995567322,0.13750901818275452
1.7294973054870956e+18,-0.5892294645309448,0.3332597315311432,0.138155996799469
1.7294973054960957e+18,-0.4697246253490448,0.23468126356601715,0.13287004828453064
1.729497305505096e+18,-0.31929445266723633,0.14654013514518738,0.13405589759349823
1.729497305511096e+18,-0.22477151453495026,0.10070116072893143,0.13120780885219574
1.7294973055200963e+18,-0.11073742061853409,0.045280154794454575,0.1290157586336136
1.7294973055260964e+18,-0.06759605556726456,0.010045976378023624,0.12686775624752045
1.7294973055350966e+18,-0.0344754122197628,-0.03429940715432167,0.12545469403266907
1.7294973055440968e+18,-0.021738983690738678,-0.07966288179159164,0.12027770280838013
1.729497305553097e+18,-0.0011903514387086034,-0.1315397024154663,0.12019121646881104
1.729497305559097e+18,0.025389743968844414,-0.16175861656665802,0.11636058241128922
1.7294973055680973e+18,0.08948483318090439,-0.2045038938522339,0.11466170847415924
1.7294973055770975e+18,0.1677975356578827,-0.24495379626750946,0.1109311506152153
1.7294973055860977e+18,0.2390027940273285,-0.27203187346458435,0.10661790519952774
1.7294973055950979e+18,0.2831366956233978,-0.2978087365627289,0.10281926393508911
1.729497305604098e+18,0.2972564697265625,-0.3164162337779999,0.09901843965053558
1.7294973056130982e+18,0.2891412377357483,-0.334505170583725,0.0978892371058464
1.7294973056220984e+18,0.27876099944114685,-0.3528234660625458,0.09456101804971695
1.7294973056310986e+18,0.2788548171520233,-0.3645643889904022,0.08649123460054398
1.7294973056400988e+18,0.30490294098854065,-0.3747345209121704,0.0848311334848404
1.729497305649099e+18,0.3384883403778076,-0.3849122226238251,0.08316535502672195
1.7294973056580992e+18,0.3746766448020935,-0.38737359642982483,0.07858894020318985
1.7294973056670994e+18,0.3928166329860687,-0.3966168165206909,0.07629163563251495
1.7294973056730995e+18,0.39320042729377747,-0.39888423681259155,0.07122872024774551
1.7294973056820997e+18,0.3841301202774048,-0.4050741195678711,0.06401057541370392
1.7294973056911e+18,0.3634362518787384,-0.4047529399394989,0.06210435926914215
1.7294973057001e+18,0.348001629114151,-0.4054069221019745,0.05732567980885506
1.7294973057091003e+18,0.34092140197753906,-0.39244478940963745,0.0568135604262352
1.7294973057151004e+18,0.34223490953445435,-0.38522806763648987,0.052975255995988846
1.7294973057241006e+18,0.3411199748516083,-0.3742057979106903,0.046411432325839996
1.7294973057331008e+18,0.3426404595375061,-0.36243489384651184,0.04158109426498413
1.729497305745101e+18,0.32429230213165283,-0.3436387777328491,0.038318753242492676
1.7294973057541012e+18,0.30941498279571533,-0.3341567814350128,0.034002166241407394
1.7294973057631014e+18,0.29138877987861633,-0.32952141761779785,0.0301688052713871
1.7294973057721016e+18,0.28451797366142273,-0.32558128237724304,0.028440114110708237
1.7294973057781018e+18,0.28164443373680115,-0.32336267828941345,0.022382477298378944
1.729497305787102e+18,0.28573501110076904,-0.3218035399913788,0.016049327328801155
1.7294973057961021e+18,0.2876521944999695,-0.31519728899002075,0.014011258259415627
1.7294973058051023e+18,0.2900213897228241,-0.3090345859527588,0.013362106867134571
1.7294973058141025e+18,0.2892324924468994,-0.3048495650291443,0.0064438446424901485
1.7294973058231027e+18,0.2847048342227936,-0.2974618375301361,0.0013599619269371033
1.729497305832103e+18,0.2833150327205658,-0.30066922307014465,-0.0029747947119176388
1.729497305838103e+18,0.2768784165382385,-0.2983857989311218,-0.002933236537501216
1.7294973058471032e+18,0.2767305374145508,-0.30064254999160767,-0.008443644270300865
1.7294973058561034e+18,0.27379533648490906,-0.2955484390258789,-0.01360363233834505
1.7294973058621036e+18,0.27341267466545105,-0.29180267453193665,-0.014047586359083652
1.7294973058711037e+18,0.27869874238967896,-0.2859075367450714,-0.018406514078378677
1.729497305880104e+18,0.2803242802619934,-0.28827276825904846,-0.0238255113363266
1.729497305886104e+18,0.28097695112228394,-0.2945774793624878,-0.02756430022418499
1.7294973058951043e+18,0.2911907434463501,-0.30005258321762085,-0.030286341905593872
1.7294973059041044e+18,0.29772883653640747,-0.30500903725624084,-0.03722764924168587
1.7294973059101046e+18,0.30183812975883484,-0.31006312370300293,-0.038904160261154175
1.7294973059191048e+18,0.30383411049842834,-0.3106047213077545,-0.044371940195560455
1.729497305928105e+18,0.301906943321228,-0.30978479981422424,-0.04829468950629234
1.7294973059371052e+18,0.29739776253700256,-0.30367815494537354,-0.051493655890226364
1.7294973059431053e+18,0.293743759393692,-0.3020176291465759,-0.055329300463199615
1.7294973059521055e+18,0.2876569926738739,-0.30164945125579834,-0.055652812123298645
1.7294973059611057e+18,0.2928009331226349,-0.30518049001693726,-0.06000750511884689
1.7294973059671058e+18,0.29720643162727356,-0.3102259635925293,-0.06438571959733963
1.729497305976106e+18,0.30788731575012207,-0.3189036548137665,-0.06695831567049026
1.7294973059851062e+18,0.31716156005859375,-0.3247678279876709,-0.07161194831132889
1.7294973059941064e+18,0.32200777530670166,-0.32652512192726135,-0.07446319609880447
1.7294973060001065e+18,0.31841638684272766,-0.3260343670845032,-0.08060013502836227
1.7294973060091067e+18,0.3114648461341858,-0.32349109649658203,-0.08074913173913956
1.7294973060151068e+18,0.30678755044937134,-0.32101690769195557,-0.08573298156261444
1.729497306027107e+18,0.29250773787498474,-0.31097808480262756,-0.08915144205093384
1.7294973060391073e+18,0.29787951707839966,-0.31064939498901367,-0.09215454012155533
1.7294973060481075e+18,0.30462202429771423,-0.3145102858543396,-0.09465712308883667
1.7294973060571077e+18,0.31639501452445984,-0.3288005590438843,-0.10403799265623093
1.7294973060631078e+18,0.32407692074775696,-0.3307076096534729,-0.10386986285448074
1.729497306072108e+18,0.32480376958847046,-0.33763644099235535,-0.10606395453214645
1.7294973060781082e+18,0.3228563070297241,-0.3340304493904114,-0.10895493626594543
1.7294973060871084e+18,0.3069654107093811,-0.3251204490661621,-0.10991397500038147
1.7294973060961085e+18,0.29273590445518494,-0.31251728534698486,-0.11572576314210892
1.7294973061021087e+18,0.2833041250705719,-0.310024231672287,-0.11729072779417038
1.7294973061111089e+18,0.28097227215766907,-0.3088327944278717,-0.11917833983898163
1.729497306120109e+18,0.2926872968673706,-0.31667467951774597,-0.12128384411334991
1.7294973061261092e+18,0.300575315952301,-0.32533591985702515,-0.12483329325914383
1.7294973061351094e+18,0.3190484642982483,-0.32894518971443176,-0.12919768691062927
1.7294973061441096e+18,0.3196096420288086,-0.33767572045326233,-0.1289558857679367
1.7294973061501097e+18,0.32071390748023987,-0.33284321427345276,-0.1312256008386612
1.72949730615911e+18,0.30044490098953247,-0.3270249366760254,-0.1347471922636032
1.72949730616511e+18,0.28599950671195984,-0.3185545802116394,-0.1359335035085678
1.7294973061741102e+18,0.2691752314567566,-0.31119784712791443,-0.13677248358726501
1.7294973061801103e+18,0.2655618190765381,-0.3062337040901184,-0.1385830044746399
1.7294973061891105e+18,0.2661462128162384,-0.3122299611568451,-0.1422153115272522
1.7294973061981107e+18,0.2798044681549072,-0.316755473613739,-0.1461372673511505
1.7294973062041108e+18,0.28550806641578674,-0.32170408964157104,-0.14586083590984344
1.729497306213111e+18,0.2906624674797058,-0.32173213362693787,-0.15025006234645844
1.7294973062221112e+18,0.28704121708869934,-0.32700154185295105,-0.1510336548089981
1.7294973062281114e+18,0.281579852104187,-0.3246671259403229,-0.14951969683170319
1.7294973062371116e+18,0.2751569151878357,-0.32092687487602234,-0.15348762273788452
1.7294973062431117e+18,0.26914745569229126,-0.32212749123573303,-0.15383578836917877
1.729497306252112e+18,0.2636559307575226,-0.32072535157203674,-0.15796487033367157
1.729497306261112e+18,0.26718878746032715,-0.3160749077796936,-0.15623146295547485
1.7294973062671122e+18,0.2694203555583954,-0.31080254912376404,-0.16019104421138763
1.7294973062761124e+18,0.27270543575286865,-0.307799756526947,-0.15834356844425201
1.7294973062881126e+18,0.26197266578674316,-0.3037877082824707,-0.16434526443481445
1.7294973062971128e+18,0.25292184948921204,-0.29984450340270996,-0.1632249504327774
1.729497306303113e+18,0.24729111790657043,-0.2978968024253845,-0.16240982711315155
1.7294973063121132e+18,0.2467086911201477,-0.3020337224006653,-0.16830791532993317
1.7294973063211133e+18,0.24960756301879883,-0.30625027418136597,-0.16473664343357086
1.7294973063301135e+18,0.25518742203712463,-0.30272045731544495,-0.17012202739715576
1.7294973063361137e+18,0.26298269629478455,-0.2996405363082886,-0.1684555858373642
1.7294973063451139e+18,0.2591041922569275,-0.297554075717926,-0.16666750609874725
1.729497306351114e+18,0.25111570954322815,-0.29106858372688293,-0.16782589256763458
1.7294973063601142e+18,0.2380068004131317,-0.2843985855579376,-0.16852939128875732
1.7294973063661143e+18,0.23185057938098907,-0.2812849283218384,-0.16857697069644928
1.7294973063751145e+18,0.22562362253665924,-0.279307097196579,-0.17055726051330566
1.7294973063841147e+18,0.22705097496509552,-0.2863975763320923,-0.17023403942584991
1.7294973063901148e+18,0.2313656210899353,-0.28823304176330566,-0.17137497663497925
1.729497306402115e+18,0.2420274019241333,-0.29191702604293823,-0.16960112750530243
1.7294973064111153e+18,0.24288500845432281,-0.2859156131744385,-0.1702832132577896
1.7294973064171154e+18,0.23597760498523712,-0.28097930550575256,-0.16977325081825256
1.7294973064261156e+18,0.22383958101272583,-0.26912999153137207,-0.171395942568779
1.7294973064351158e+18,0.21224679052829742,-0.26432058215141296,-0.16835017502307892
1.729497306441116e+18,0.20985272526741028,-0.26457223296165466,-0.1696922928094864
1.729497306450116e+18,0.212419331073761,-0.2681504189968109,-0.16801556944847107
1.7294973064591163e+18,0.21495294570922852,-0.2755937874317169,-0.16856218874454498
1.7294973064681165e+18,0.21836939454078674,-0.27689769864082336,-0.163564532995224
1.7294973064741166e+18,0.2223382443189621,-0.27893397212028503,-0.17070519924163818
1.7294973064831168e+18,0.22557352483272552,-0.2781151533126831,-0.1635657399892807
1.729497306492117e+18,0.21875959634780884,-0.27107536792755127,-0.16293662786483765
1.729497306498117e+18,0.21274179220199585,-0.26695364713668823,-0.1630203276872635
1.7294973065101174e+18,0.20216765999794006,-0.26338544487953186,-0.1640440672636032
1.7294973065191176e+18,0.19659973680973053,-0.26481425762176514,-0.16058625280857086
1.729497306534118e+18,0.18889403343200684,-0.26076656579971313,-0.15938514471054077
1.729497306540118e+18,0.19130180776119232,-0.2589181661605835,-0.15769076347351074
1.7294973065491182e+18,0.1900920271873474,-0.25874942541122437,-0.1566370576620102
1.7294973065611185e+18,0.19964389503002167,-0.2556282877922058,-0.15506768226623535
1.7294973065701187e+18,0.202595517039299,-0.2563384771347046,-0.1540728211402893
1.7294973065761188e+18,0.19954785704612732,-0.2585669755935669,-0.1561056673526764
1.729497306585119e+18,0.20247520506381989,-0.25649693608283997,-0.1521482616662979
1.7294973065941192e+18,0.20360250771045685,-0.24925118684768677,-0.15004926919937134
1.7294973066001193e+18,0.19676044583320618,-0.2508896291255951,-0.15181291103363037
1.7294973066091195e+18,0.1886724978685379,-0.24567058682441711,-0.14903922379016876
1.7294973066181197e+18,0.18147970736026764,-0.23937760293483734,-0.14504939317703247
1.7294973066271199e+18,0.182073175907135,-0.24079634249210358,-0.1434209793806076
1.72949730663612e+18,0.18426139652729034,-0.24014481902122498,-0.14011451601982117
1.7294973066421202e+18,0.1861633062362671,-0.2395755499601364,-0.1399248093366623
1.7294973066511204e+18,0.1941775232553482,-0.23462899029254913,-0.13620683550834656
1.7294973066601206e+18,0.1944996416568756,-0.2337702512741089,-0.13926061987876892
1.7294973066661207e+18,0.19041626155376434,-0.23577241599559784,-0.1361568719148636
1.729497306675121e+18,0.18727144598960876,-0.23693102598190308,-0.13129614293575287
1.729497306681121e+18,0.1840842217206955,-0.23574216663837433,-0.1278943419456482
1.7294973066901212e+18,0.18186986446380615,-0.23769015073776245,-0.13187351822853088
1.7294973066991214e+18,0.18331730365753174,-0.24080654978752136,-0.1277962028980255
1.7294973067081216e+18,0.19122378528118134,-0.24053089320659637,-0.12471736967563629
1.7294973067171218e+18,0.20026251673698425,-0.2371915727853775,-0.12085534632205963
1.729497306723122e+18,0.20560891926288605,-0.2383953034877777,-0.12085729837417603
1.729497306732122e+18,0.21256160736083984,-0.23515985906124115,-0.11795064806938171
1.7294973067381222e+18,0.21702487766742706,-0.23960182070732117,-0.11866801977157593
1.7294973067531226e+18,0.2162771224975586,-0.2320740967988968,-0.11097689718008041
1.7294973067591227e+18,0.21052013337612152,-0.2324478030204773,-0.11160684376955032
1.729497306768123e+18,0.20627211034297943,-0.23052610456943512,-0.10826282203197479
1.729497306777123e+18,0.19828194379806519,-0.22096489369869232,-0.10550999641418457
1.7294973067861233e+18,0.19699248671531677,-0.22408126294612885,-0.09993254393339157
1.7294973067951235e+18,0.20056721568107605,-0.2253553718328476,-0.10067228227853775
1.7294973068041236e+18,0.20312049984931946,-0.22894804179668427,-0.09816689044237137
1.7294973068131238e+18,0.2015664279460907,-0.22642771899700165,-0.09569614380598068
1.729497306819124e+18,0.2013334035873413,-0.2291364073753357,-0.0936681479215622
1.7294973068281242e+18,0.19465452432632446,-0.22184506058692932,-0.08942144364118576
1.7294973068371244e+18,0.18334151804447174,-0.21581220626831055,-0.09305782616138458
1.7294973068461245e+18,0.16920188069343567,-0.21138060092926025,-0.08571220189332962
1.7294973068551247e+18,0.16124585270881653,-0.20435822010040283,-0.08406060934066772
1.7294973068611249e+18,0.16261838376522064,-0.20656827092170715,-0.0815536305308342
1.729497306870125e+18,0.16655473411083221,-0.20743489265441895,-0.07664532959461212
1.7294973068791252e+18,0.17752674221992493,-0.20760159194469452,-0.07252329587936401
1.7294973068881254e+18,0.18511193990707397,-0.20532019436359406,-0.07197432965040207
1.7294973068941256e+18,0.18713954091072083,-0.19892100989818573,-0.06540527194738388
1.7294973069031258e+18,0.17891794443130493,-0.19400349259376526,-0.06458296626806259
1.729497306912126e+18,0.16830293834209442,-0.19060303270816803,-0.06535859405994415
1.7294973069211261e+18,0.15358510613441467,-0.18666571378707886,-0.06030767410993576
1.7294973069301263e+18,0.14509442448616028,-0.184499591588974,-0.06201464310288429
1.7294973069361265e+18,0.141530379652977,-0.18007972836494446,-0.05933349207043648
1.7294973069451267e+18,0.14595547318458557,-0.17771421372890472,-0.051863860338926315
1.7294973069541268e+18,0.1541154384613037,-0.16765442490577698,-0.049814775586128235
1.729497306963127e+18,0.16118232905864716,-0.16545750200748444,-0.05129935219883919
1.7294973069691272e+18,0.16203375160694122,-0.1598665863275528,-0.04597589373588562
1.7294973069781274e+18,0.16468709707260132,-0.1555211842060089,-0.04574103653430939
1.7294973069871276e+18,0.15542349219322205,-0.15224750339984894,-0.041725561022758484
1.7294973069931277e+18,0.1505637913942337,-0.15569563210010529,-0.04013444110751152
1.729497307002128e+18,0.13991762697696686,-0.15661583840847015,-0.037253446877002716
1.729497307011128e+18,0.13088664412498474,-0.15366876125335693,-0.03418942913413048
1.7294973070171282e+18,0.13264359533786774,-0.15131205320358276,-0.030947312712669373
1.7294973070261284e+18,0.13356243073940277,-0.14535020291805267,-0.03130704164505005
1.7294973070321285e+18,0.1356450766324997,-0.14113575220108032,-0.030261307954788208
1.7294973070411287e+18,0.14581763744354248,-0.13868488371372223,-0.02450314350426197
1.729497307050129e+18,0.1533871442079544,-0.13218960165977478,-0.020028727129101753
1.729497307056129e+18,0.1496821492910385,-0.13501746952533722,-0.017290204763412476
1.7294973070681293e+18,0.14049316942691803,-0.13956770300865173,-0.016948450356721878
1.7294973070801295e+18,0.1228007897734642,-0.14545661211013794,-0.013763464987277985
1.7294973070891297e+18,0.11560362577438354,-0.1470329314470291,-0.010579298250377178
1.72949730709813e+18,0.11078721284866333,-0.14549016952514648,-0.011952526867389679
1.72949730710413e+18,0.11803600192070007,-0.1385757029056549,-0.0065228985622525215
1.7294973071131302e+18,0.12799397110939026,-0.1302306056022644,-0.0024710563011467457
1.7294973071221304e+18,0.13405388593673706,-0.12548905611038208,-0.001356777036562562
1.7294973071311306e+18,0.1359989494085312,-0.12416800111532211,0.0019785361364483833
1.7294973071371308e+18,0.13164953887462616,-0.12613289058208466,0.004115912597626448
1.729497307146131e+18,0.12867869436740875,-0.1258360743522644,0.004133016336709261
1.7294973071551311e+18,0.12085239589214325,-0.12647606432437897,0.008527847938239574
1.7294973071641313e+18,0.11970268189907074,-0.1304270327091217,0.011407437734305859
1.7294973071731315e+18,0.11900967359542847,-0.12246447056531906,0.013689511455595493
1.7294973071821317e+18,0.12262577563524246,-0.11559291183948517,0.015343884006142616
1.729497307191132e+18,0.12634310126304626,-0.1077587679028511,0.016050828620791435
1.729497307200132e+18,0.127672016620636,-0.1031295508146286,0.019509917125105858
1.7294973072061322e+18,0.1289953738451004,-0.09804907441139221,0.021705787628889084
1.7294973072181325e+18,0.12371592223644257,-0.10003864765167236,0.023657070472836494
1.7294973072271327e+18,0.11713005602359772,-0.09941992908716202,0.02430024743080139
1.7294973072331328e+18,0.11624722927808762,-0.0978301465511322,0.027856308966875076
1.729497307242133e+18,0.11261745542287827,-0.10118184238672256,0.027599213644862175
1.7294973072511332e+18,0.11006547510623932,-0.09890145063400269,0.03239620104432106
1.7294973072601334e+18,0.11349056661128998,-0.09661531448364258,0.033580195158720016
1.7294973072661335e+18,0.11108416318893433,-0.09476585686206818,0.03198551759123802
1.7294973072751337e+18,0.11708138138055801,-0.08978709578514099,0.0347270704805851
1.7294973072811338e+18,0.11980406194925308,-0.08612705022096634,0.037825290113687515
1.729497307290134e+18,0.11737476289272308,-0.07941597700119019,0.038373805582523346
1.7294973072991342e+18,0.11888375133275986,-0.07732008397579193,0.03888726979494095
1.7294973073051343e+18,0.11579383164644241,-0.07490646094083786,0.0443078838288784
1.7294973073141345e+18,0.11272165924310684,-0.07511208206415176,0.044159721583127975
1.7294973073231347e+18,0.11363879591226578,-0.07472766935825348,0.048253320157527924
1.729497307332135e+18,0.11482203006744385,-0.0766322910785675,0.04799176752567291
1.729497307338135e+18,0.1149066761136055,-0.07208732515573502,0.04815635085105896
1.7294973073471352e+18,0.11381173133850098,-0.07128927111625671,0.05069248750805855
1.7294973073561354e+18,0.11389736086130142,-0.062448471784591675,0.05316433310508728
1.7294973073621356e+18,0.11371836066246033,-0.05833997577428818,0.05338399112224579
1.7294973073711357e+18,0.11590231955051422,-0.053984079509973526,0.05353158339858055
1.729497307380136e+18,0.11667922139167786,-0.05510994419455528,0.05339496582746506
1.729497307386136e+18,0.11784886568784714,-0.05036794766783714,0.05625493824481964
1.7294973073951363e+18,0.11901787668466568,-0.05256206542253494,0.05834028869867325
1.7294973074101366e+18,0.11696122586727142,-0.050890352576971054,0.05962776765227318
1.7294973074161367e+18,0.11165539920330048,-0.051010988652706146,0.06223651394248009
1.729497307425137e+18,0.10628727078437805,-0.04503177851438522,0.06190192699432373
1.729497307434137e+18,0.10443510860204697,-0.04459802433848381,0.0628376454114914
1.7294973074431373e+18,0.10729299485683441,-0.04228147119283676,0.06374592334032059
1.7294973074521375e+18,0.10844456404447556,-0.04225777089595795,0.061993636190891266
1.7294973074581376e+18,0.10912752896547318,-0.04270350933074951,0.06501299887895584
1.7294973074671378e+18,0.10784733295440674,-0.03871619328856468,0.0674201101064682
1.729497307476138e+18,0.1087762713432312,-0.03497499227523804,0.06774883717298508
1.729497307482138e+18,0.10881596803665161,-0.034226518124341965,0.06951849907636642
1.7294973074911383e+18,0.1064360961318016,-0.03309404477477074,0.06979089975357056
1.7294973075001385e+18,0.10598672181367874,-0.031588245183229446,0.07092002779245377
1.7294973075061386e+18,0.1035824865102768,-0.032912477850914,0.06940897554159164
1.7294973075151388e+18,0.10530111193656921,-0.027263259515166283,0.07086216658353806
1.729497307524139e+18,0.10728494822978973,-0.023473044857382774,0.07190176099538803
1.7294973075331392e+18,0.10666260123252869,-0.017757941037416458,0.07006897777318954
1.7294973075391393e+18,0.1072302907705307,-0.023432716727256775,0.07144088298082352
1.7294973075481395e+18,0.10313458740711212,-0.018941625952720642,0.07492171972990036
1.7294973075571397e+18,0.10005909204483032,-0.01954420655965805,0.07697909325361252
1.72949730756614e+18,0.10062679648399353,-0.018407929688692093,0.07531865686178207
1.72949730757214e+18,0.09822279959917068,-0.01592324674129486,0.07818008959293365
1.7294973075811402e+18,0.10085804015398026,-0.015685582533478737,0.07554158568382263
1.7294973075871404e+18,0.1053437888622284,-0.009605126455426216,0.07553325593471527
1.7294973075961405e+18,0.10580717772245407,-0.007112567778676748,0.0726773738861084
1.7294973076051407e+18,0.10207996517419815,-0.0056644631549716,0.07642202079296112
1.729497307614141e+18,0.09947476536035538,-0.007557686883956194,0.07483253628015518
1.729497307623141e+18,0.09592419862747192,-0.007125564385205507,0.07761544734239578
1.7294973076291412e+18,0.09446017444133759,-0.004153355024755001,0.07664350420236588
1.7294973076381414e+18,0.09658248722553253,0.0024506645277142525,0.07541676610708237
1.7294973076471416e+18,0.0957217663526535,0.007158078718930483,0.07681107521057129
1.7294973076561418e+18,0.10495217889547348,0.008569610305130482,0.07619635760784149
1.729497307665142e+18,0.1055591031908989,0.008862122893333435,0.07560183852910995
1.7294973076711421e+18,0.10571402311325073,0.010709130205214024,0.07746776193380356
1.7294973076801423e+18,0.1076822578907013,0.010722367092967033,0.07759074866771698
1.7294973076861425e+18,0.1031443402171135,0.005953597836196423,0.07592213898897171
1.7294973076951427e+18,0.10045235604047775,0.005590399261564016,0.07815860211849213
1.7294973077041428e+18,0.096530981361866,0.005895050708204508,0.07706301659345627
1.729497307713143e+18,0.09275298565626144,0.006425166502594948,0.07411505281925201
1.7294973077191432e+18,0.09246409684419632,0.0097652617841959,0.0751756951212883
1.7294973077281434e+18,0.09414932131767273,0.013636179268360138,0.07792619615793228
1.7294973077371436e+18,0.10168483108282089,0.015226501040160656,0.07471597194671631
1.7294973077461437e+18,0.10041417181491852,0.01353980042040348,0.0761563703417778
1.729497307752144e+18,0.10123015195131302,0.014394034631550312,0.07505754381418228
1.729497307761144e+18,0.09876340627670288,0.014057791791856289,0.07386034727096558
1.7294973077701443e+18,0.09310979396104813,0.012688401155173779,0.07381446659564972
1.7294973077761444e+18,0.09611944854259491,0.011924175545573235,0.07721307128667831
1.7294973077851446e+18,0.09217709302902222,0.01681685261428356,0.07460905611515045
1.7294973077941448e+18,0.0898648202419281,0.01708454079926014,0.07458189129829407
1.729497307800145e+18,0.08570647984743118,0.018802402541041374,0.07556678354740143
1.729497307809145e+18,0.08977114409208298,0.01889733597636223,0.07111961394548416
1.7294973078181453e+18,0.09460706263780594,0.02064882405102253,0.07162637263536453
1.7294973078241454e+18,0.09324592351913452,0.017188817262649536,0.07188675552606583
1.7294973078331456e+18,0.09771062433719635,0.020174717530608177,0.07015536725521088
1.7294973078421458e+18,0.09866277873516083,0.02090851217508316,0.07053116708993912
1.729497307851146e+18,0.09243933856487274,0.02091197855770588,0.06880906969308853
1.729497307857146e+18,0.08555389940738678,0.02075488306581974,0.0676349624991417
1.7294973078661463e+18,0.08385008573532104,0.024408312514424324,0.06791219115257263
1.7294973078751465e+18,0.08272713422775269,0.030117815360426903,0.0714794471859932
1.7294973078811466e+18,0.08551580458879471,0.03183574974536896,0.06844212859869003
1.7294973078901468e+18,0.09530861675739288,0.03804542124271393,0.06611594557762146
1.729497307896147e+18,0.09489697962999344,0.03814563900232315,0.06702997535467148
1.7294973079051471e+18,0.10076326131820679,0.035042256116867065,0.06710334867238998
1.7294973079141473e+18,0.10097349435091019,0.03270658850669861,0.06494982540607452
1.7294973079231475e+18,0.09372910112142563,0.030648045241832733,0.06507053226232529
1.7294973079291476e+18,0.08891277760267258,0.030291881412267685,0.06141901761293411
1.7294973079381478e+18,0.08128479868173599,0.0316629558801651,0.06319890916347504
1.729497307947148e+18,0.07972405105829239,0.03709961473941803,0.06084374710917473
1.7294973079561482e+18,0.08081001788377762,0.031365688890218735,0.05916283652186394
1.7294973079651484e+18,0.08538380265235901,0.034619323909282684,0.05766727775335312
1.7294973079741486e+18,0.09008318185806274,0.03574615344405174,0.056909605860710144
1.7294973079801487e+18,0.09632152318954468,0.04019927233457565,0.06292811036109924
1.729497307989149e+18,0.09571052342653275,0.03898334130644798,0.05733102560043335
1.729497307998149e+18,0.09417673945426941,0.04078415036201477,0.0556827113032341
1.7294973080041492e+18,0.0901661291718483,0.04717449098825455,0.055645715445280075
1.7294973080131494e+18,0.08440740406513214,0.04370469972491264,0.05636575445532799
1.7294973080221496e+18,0.07962910085916519,0.04429032653570175,0.05236535891890526
1.7294973080281498e+18,0.07883919030427933,0.04560977220535278,0.053688935935497284
1.72949730803715e+18,0.08635072410106659,0.04388207197189331,0.05198681727051735
1.7294973080461501e+18,0.08606958389282227,0.04521884024143219,0.05125422403216362
1.7294973080551503e+18,0.09006141871213913,0.04778370261192322,0.04939558357000351
1.7294973080611505e+18,0.09089227020740509,0.049819640815258026,0.05285373330116272
1.7294973080701507e+18,0.08799097687005997,0.052176255732774734,0.04869075119495392
1.7294973080791508e+18,0.07937423884868622,0.052879154682159424,0.045473091304302216
1.729497308085151e+18,0.0799010619521141,0.052166588604450226,0.04967881366610527
1.7294973080941512e+18,0.07336464524269104,0.04874907806515694,0.04817221686244011
1.7294973081001513e+18,0.0737755298614502,0.04925976321101189,0.04832099378108978
1.7294973081091515e+18,0.07903190702199936,0.05259378254413605,0.04336680844426155
1.7294973081181517e+18,0.08544328063726425,0.05871575325727463,0.04605517536401749
1.7294973081241518e+18,0.08670803159475327,0.06122976541519165,0.04135086387395859
1.729497308133152e+18,0.08980100601911545,0.06234292685985565,0.040029123425483704
1.7294973081421522e+18,0.0882810726761818,0.06523676216602325,0.038763824850320816
1.7294973081511524e+18,0.08395253121852875,0.063908651471138,0.03628838434815407
1.7294973081571525e+18,0.08436477184295654,0.06327933073043823,0.03940935432910919
1.7294973081661527e+18,0.08195484429597855,0.06721062958240509,0.03954199329018593
1.729497308175153e+18,0.08394797891378403,0.061540666967630386,0.03550584241747856
1.729497308181153e+18,0.08286625891923904,0.06601475179195404,0.034137193113565445
1.7294973081901532e+18,0.08172409236431122,0.0664486289024353,0.03255293890833855
1.7294973082021535e+18,0.08430414646863937,0.06753923743963242,0.03197984769940376
1.7294973082111537e+18,0.07937534898519516,0.061988987028598785,0.03063744679093361
1.7294973082201539e+18,0.07953613251447678,0.06277059763669968,0.030772801488637924
1.729497308229154e+18,0.07705668359994888,0.06480288505554199,0.029941823333501816
1.7294973082381542e+18,0.07558156549930573,0.06347473710775375,0.03125888481736183
1.7294973082471544e+18,0.07544226944446564,0.06364918500185013,0.026075454428792
1.7294973082531546e+18,0.07370372861623764,0.0650968924164772,0.02846323698759079
1.7294973082621548e+18,0.07110898941755295,0.05969802662730217,0.02549566514790058
1.729497308271155e+18,0.0697474330663681,0.059661056846380234,0.024617524817585945
1.729497308277155e+18,0.06979130953550339,0.059478823095560074,0.021466292440891266
1.7294973082861553e+18,0.07039903104305267,0.058685027062892914,0.027990072965621948
1.7294973082951555e+18,0.06759904325008392,0.057718679308891296,0.021364685148000717
1.7294973083041556e+18,0.06931009888648987,0.05513269826769829,0.021351302042603493
1.7294973083101558e+18,0.06659026443958282,0.052934493869543076,0.021057210862636566
1.729497308319156e+18,0.0664670541882515,0.04879021644592285,0.02059069648385048
1.7294973083281562e+18,0.06576821953058243,0.04414936900138855,0.012672686018049717
1.7294973083341563e+18,0.06146182864904404,0.0425681546330452,0.016678065061569214
1.7294973083431565e+18,0.06024608388543129,0.041443049907684326,0.012890726327896118
1.7294973083521567e+18,0.05826602503657341,0.03962210193276405,0.015273147262632847
1.7294973083611569e+18,0.054598066955804825,0.0385102704167366,0.01283557154238224
1.729497308367157e+18,0.047513555735349655,0.03425677493214607,0.012792183086276054
1.7294973083761572e+18,0.05043359100818634,0.034402646124362946,0.011627805419266224
1.7294973083851574e+18,0.04317997023463249,0.031718213111162186,0.009222294203937054
1.7294973083911575e+18,0.04500250518321991,0.030306467786431313,0.011612987145781517
1.7294973084001577e+18,0.046103302389383316,0.028993483632802963,0.012081269174814224
1.729497308409158e+18,0.04271135851740837,0.0228786151856184,0.007260406389832497
1.729497308418158e+18,0.03788946196436882,0.020462526008486748,0.005697731859982014
1.7294973084271583e+18,0.036547575145959854,0.024200931191444397,0.0063905189745128155
1.7294973084331584e+18,0.03265174478292465,0.019005168229341507,0.0062378994189202785
1.7294973084421586e+18,0.032405853271484375,-0.011739032343029976,0.005779767408967018
1.7294973084481587e+18,0.032838769257068634,-0.230545312166214,0.005887315608561039
1.729497308457159e+18,0.032022688537836075,-0.6763590574264526,0.008999276906251907
1.729497308466159e+18,0.16875030100345612,-1.1239585876464844,0.008236863650381565
1.7294973084721592e+18,0.44665756821632385,-1.3594244718551636,0.005698732100427151
1.7294973084811594e+18,0.933426022529602,-1.534318447113037,0.009243552573025227
1.7294973084901596e+18,1.3826375007629395,-1.5231256484985352,0.009108438156545162
1.7294973084961597e+18,1.5786014795303345,-1.4472765922546387,0.012663670815527439
1.72949730850516e+18,1.6383661031723022,-1.3358608484268188,0.016039203852415085
1.72949730851416e+18,1.5006533861160278,-1.2675224542617798,0.019079415127635002
1.7294973085231603e+18,1.2728443145751953,-1.3100664615631104,0.02402551844716072
1.7294973085291604e+18,1.1442737579345703,-1.369571566581726,0.02213665284216404
1.7294973085381606e+18,1.087644338607788,-1.4725427627563477,0.02419576607644558
1.7294973085471608e+18,1.187031626701355,-1.5171985626220703,0.028292391449213028
1.729497308553161e+18,1.2927008867263794,-1.5040842294692993,0.02799440175294876
1.7294973085621612e+18,1.4397672414779663,-1.4199415445327759,0.033437181264162064
1.7294973085681613e+18,1.4674174785614014,-1.337447166442871,0.030055522918701172
1.7294973085771615e+18,1.382059931755066,-1.2044950723648071,0.037400953471660614
1.7294973085861617e+18,1.1700856685638428,-1.0984631776809692,0.035408712923526764
1.7294973085951619e+18,0.932280957698822,-1.029616117477417,0.03779279440641403
1.729497308607162e+18,0.7243207693099976,-0.9879080057144165,0.03851957991719246
1.7294973086161623e+18,0.6990377306938171,-0.9555770754814148,0.04083253815770149
1.7294973086251625e+18,0.7413946390151978,-0.8986555337905884,0.04318809509277344
1.7294973086311626e+18,0.7735142707824707,-0.8457071185112,0.040655896067619324
1.7294973086401628e+18,0.762319028377533,-0.7415618300437927,0.041496388614177704
1.729497308649163e+18,0.659290611743927,-0.6299575567245483,0.04205794259905815
1.7294973086551631e+18,0.5541924238204956,-0.5633281469345093,0.040839169174432755
1.7294973086641633e+18,0.37717196345329285,-0.47926124930381775,0.03996359929442406
1.7294973086731635e+18,0.2280007153749466,-0.4172804355621338,0.04243652895092964
1.7294973086821637e+18,0.15813888609409332,-0.37450045347213745,0.04137759283185005
1.7294973086881638e+18,0.14930613338947296,-0.34265395998954773,0.040470171719789505
1.729497308697164e+18,0.1664876490831375,-0.2893477976322174,0.041941750794649124
1.7294973087061642e+18,0.17514488101005554,-0.23073385655879974,0.039949122816324234
1.7294973087121644e+18,0.17099043726921082,-0.19039762020111084,0.04185349494218826
1.7294973087211645e+18,0.0959315150976181,-0.12941600382328033,0.04269587993621826
1.7294973087301647e+18,-0.008317201398313046,-0.07375669479370117,0.038560930639505386
1.729497308739165e+18,-0.11816233396530151,-0.029491737484931946,0.03772517666220665
1.729497308745165e+18,-0.17246267199516296,-0.0008120383135974407,0.03801994025707245
1.7294973087541652e+18,-0.2083919197320938,0.04052633047103882,0.03934413939714432
1.7294973087631654e+18,-0.2048082798719406,0.07744313776493073,0.03780166804790497
1.7294973087721656e+18,-0.17604359984397888,0.10455185920000076,0.03899995610117912
1.7294973087811658e+18,-0.1646428108215332,0.13119938969612122,0.033720195293426514
1.729497308790166e+18,-0.18494196236133575,0.14876173436641693,0.03754156082868576
