timestamp,gyro_x,gyro_y,gyro_z
1.721571473043445e+18,0.00011630747030721977,9.997373854275793e-05,-0.0013328265631571412
1.7215714730524452e+18,0.0016336790286004543,-0.0009798078099265695,-0.000212710743653588
1.7215714730584453e+18,0.002340442268177867,-0.0003972147242166102,-0.0003269821172580123
1.7215714730644454e+18,0.0014588147168979049,8.770708518568426e-05,-0.0013617346994578838
1.7215714730704456e+18,-0.0006751162000000477,-0.0007163502741605043,0.0020044215489178896
1.7215714730764457e+18,0.00015272990276571363,-0.001101153320632875,0.0002466570003889501
1.7215714730824458e+18,0.002748478204011917,0.001221031998284161,0.0011692787520587444
1.721571473088446e+18,0.0008025310235098004,0.002170105231925845,0.0001973617763724178
1.721571473094446e+18,-0.001171387848444283,-0.00044191215420141816,-0.0018962724134325981
1.7215714730974461e+18,0.000256260420428589,-0.0009284956031478941,-0.0021633123978972435
1.7215714731034463e+18,0.0007380213355645537,0.0005904026329517365,-0.0015065993648022413
1.7215714731094464e+18,0.0005306479870341718,-0.0022339222487062216,0.002131547313183546
1.7215714731124465e+18,0.0001588729937793687,0.0017055601347237825,0.001514736912213266
1.7215714731184466e+18,0.0034707074519246817,-0.0016240617260336876,3.0098237402853556e-05
1.7215714731274468e+18,0.0007222266285680234,0.0002042133710347116,-0.0020735880825668573
1.7215714731304468e+18,0.00042437881347723305,0.001358786947093904,0.0006772027118131518
1.721571473136447e+18,0.0021346609573811293,-0.0004888677503913641,-0.0005563982995226979
1.7215714731454472e+18,0.0037279969546943903,4.14614005421754e-05,-0.0022110017016530037
1.7215714731484472e+18,0.00016276323003694415,-0.0001555547642055899,0.0005728320684283972
1.7215714731574474e+18,-0.002142533427104354,0.0006445084000006318,0.0011287543457001448
1.7215714731634476e+18,-0.000280428008409217,-0.005531024187803268,0.00043386014294810593
1.7215714731694477e+18,-0.000887487200088799,-0.0015724478289484978,-0.0037536541931331158
1.7215714731754478e+18,-0.0012499717995524406,0.001114727114327252,-0.001208508969284594
1.721571473181448e+18,0.0017426136182621121,0.00027325889095664024,0.0007786810747347772
1.721571473187448e+18,-0.001270751003175974,0.00047958779032342136,-0.000227257507503964
1.7215714731934482e+18,-0.000734820612706244,0.0028510973788797855,0.0023999118711799383
1.7215714732024484e+18,0.0002409314038231969,0.0008118874975480139,0.0004503361415117979
1.7215714732084485e+18,-0.001912910956889391,-0.0027400946710258722,0.00025402792380191386
1.7215714732144486e+18,0.0020765422377735376,0.002650272101163864,-0.0031323512084782124
1.7215714732204488e+18,0.0008230123203247786,-0.00014518044190481305,0.0030281899962574244
1.721571473226449e+18,0.0008895360515452921,-0.00099652458447963,0.0005550267524085939
1.721571473232449e+18,-0.000984676880761981,0.00044895734754391015,-0.002228435128927231
1.7215714732384492e+18,0.003057951806113124,0.0011303662322461605,0.0034773300867527723
1.7215714732474493e+18,-0.001364744151942432,0.0023548128083348274,-0.002204159740358591
1.7215714732534495e+18,5.063098797108978e-05,-4.227753743180074e-05,-0.002514318795874715
1.7215714732594496e+18,-0.0007377638830803335,-0.0023320699110627174,0.00191633147187531
1.7215714732654497e+18,-0.0024427904281765223,-0.0013763353927060962,0.0009072278044186532
1.7215714732714499e+18,0.0024638595059514046,0.0009970348328351974,-0.0007649109466001391
1.72157147328045e+18,0.0021938749123364687,-0.0007239277474582195,0.0019029768882319331
1.7215714732864502e+18,-0.0009264604886993766,-0.0012444190215319395,-0.003140202956274152
1.7215714732924503e+18,-0.0005301321507431567,-0.0005255385767668486,0.00043828992056660354
1.7215714732984504e+18,0.0006369765033014119,0.0032001773361116648,-0.0004850593104492873
1.7215714733014505e+18,0.0007537851925007999,-0.0023517890367656946,0.003346697660163045
1.7215714733074506e+18,0.0009049943182617426,-0.00032163935247808695,-0.0013492105063050985
1.7215714733134508e+18,-0.0010816234862431884,-0.000693847774527967,0.002019750652834773
1.721571473319451e+18,-0.002336992649361491,0.0020528286695480347,0.0026568148750811815
1.721571473325451e+18,-0.00010813313565449789,-0.004236722830682993,4.490658102440648e-05
1.7215714733314511e+18,-0.003963177558034658,-0.001665289979428053,0.0018064387841150165
1.7215714733374513e+18,-0.0008244370110332966,-5.299947952153161e-05,0.0013888959074392915
1.7215714733404513e+18,-0.0016401573084294796,0.001395976054482162,0.0005367494304664433
1.7215714733464515e+18,-0.0010680198902264237,-0.0016035543521866202,-0.0016277661779895425
1.7215714733524516e+18,-0.002060871571302414,-0.0010342014720663428,-0.003228262532502413
1.7215714733584517e+18,-0.001091540209017694,-0.0031687086448073387,0.00019060280465055257
1.7215714733644518e+18,-0.0016137061174958944,0.0005569579661823809,-0.00034587850677780807
1.721571473367452e+18,-0.001135223894380033,9.350226173410192e-05,-0.0011754248989745975
1.721571473373452e+18,0.0018557766452431679,-0.00024290700093843043,0.00302810943685472
1.7215714733794522e+18,0.0007118520443327725,-0.0019223953131586313,0.000315290002617985
1.7215714733854523e+18,-0.0009206003160215914,-0.0032211358193308115,0.001414587488397956
1.7215714733914524e+18,-8.641579188406467e-05,-0.0004218846734147519,-0.0005878389929421246
1.7215714733974525e+18,-0.0005175590049475431,0.00028545729583129287,0.00256582023575902
1.7215714734034527e+18,-0.0028267453890293837,-0.0001302437885897234,-0.001237155287526548
1.7215714734094528e+18,0.0017431395826861262,0.0016603342955932021,-0.0005921467090956867
1.721571473415453e+18,0.0007868326501920819,-0.0014842876698821783,-0.0025417401921004057
1.721571473421453e+18,-0.001307943370193243,-0.0013028712710365653,0.002303403802216053
1.721571473424453e+18,-0.0008410540176555514,-0.0005228277295827866,0.00022647048172075301
1.7215714734304532e+18,-0.0002211605169577524,0.0010721819708123803,0.0013003313215449452
1.7215714734364534e+18,-4.937011544825509e-05,0.0013919746270403266,-0.0017087041633203626
1.7215714734394534e+18,-0.0024044651072472334,-0.0017455096822232008,0.0008277137530967593
1.7215714734454536e+18,0.0014279619790613651,0.0014923373237252235,-4.4394753786036745e-05
1.7215714734514537e+18,0.0005950926570221782,-0.0014678006991744041,-0.00014751234266441315
1.7215714734574538e+18,0.0017269991803914309,-0.0005212152609601617,0.00144875212572515
1.721571473463454e+18,-5.1703267672564834e-05,-0.0024200868792831898,0.0003466156485956162
1.721571473469454e+18,-0.0004969053552486002,-0.0005452680052258074,0.0011569836642593145
1.7215714734724541e+18,-0.0023524777498096228,0.0013393951812759042,3.4368404158158228e-06
1.7215714734784543e+18,0.0007742455927655101,-0.000800394278485328,0.0008400135557167232
1.7215714734844544e+18,-0.002230457728728652,0.002856817562133074,0.0007701684953644872
1.7215714734904545e+18,-0.0010502022923901677,-0.0015552103286609054,-0.0009636157192289829
1.7215714734964547e+18,0.001336210872977972,-0.0009745531133376062,0.0026261107996106148
1.7215714735024548e+18,-0.00016158864309545606,0.00012891009100712836,0.0046544382348656654
1.7215714735054548e+18,-0.00017701994511298835,0.0018570018000900745,-0.0008080374100245535
1.721571473511455e+18,-0.0005369524005800486,-0.0012579947942867875,-0.0034314740914851427
1.721571473517455e+18,0.0027227376122027636,0.0019483153009787202,-0.0009411185747012496
1.7215714735234552e+18,-0.0012868785997852683,0.0008335604215972126,-0.001435134094208479
1.7215714735294554e+18,-0.0014135329984128475,-0.0027434846851974726,-0.0005438948282971978
1.7215714735354555e+18,0.0018695988692343235,0.0011879095109179616,-0.002284978749230504
1.7215714735414556e+18,-0.0008186455816030502,0.0018804577412083745,0.0019522667862474918
1.7215714735474557e+18,0.000364551815437153,-0.00037120922934263945,-0.0020077270455658436
1.7215714735534559e+18,-0.0029001091606914997,-0.0011285515502095222,0.002162002259865403
1.721571473559456e+18,-0.003163808723911643,-0.0017572937067598104,0.00018174562137573957
1.721571473562456e+18,0.0028351552318781614,-0.0005282668862491846,-0.0008437217329628766
1.7215714735684562e+18,-0.0011687723454087973,-2.0329800463514403e-05,-0.0014371635625138879
1.7215714735744563e+18,-0.00035913637839257717,0.0010778665309771895,-0.00011061840632464737
1.7215714735804564e+18,0.0006796247907914221,0.0008113055373542011,0.0023316512815654278
1.7215714735864566e+18,0.00018813431961461902,-0.00043484088382683694,-0.0017105159349739552
1.7215714735894566e+18,-0.0013726315228268504,-0.0013364296173676848,-0.0014060678659006953
1.7215714735954568e+18,-0.000869830371811986,-0.0008037480874918401,0.002717459574341774
1.721571473601457e+18,0.0012144683860242367,3.312829358037561e-05,0.0008140930440276861
1.721571473607457e+18,0.00041979464003816247,-0.0018188096582889557,-0.0002736628521233797
1.7215714736134572e+18,0.0003654955653473735,0.0026372468564659357,0.0006162897916510701
1.7215714736194573e+18,-0.0017971794586628675,0.001205412670969963,-0.0011513123754411936
1.7215714736224573e+18,0.004086326342076063,0.0021975527051836252,-0.000948953500483185
1.7215714736284575e+18,0.0003572182322386652,-0.0017221384914591908,0.0012879946734756231
1.7215714736344576e+18,0.00358246685937047,0.0002593241515569389,0.0017609081696718931
1.7215714736404577e+18,-0.0017757363384589553,-0.002507374156266451,0.0006343292770907283
1.7215714736434578e+18,-0.0058298311196267605,-0.0030385900754481554,0.003020001808181405
1.721571473649458e+18,-0.0023179156705737114,-0.0008472194895148277,0.00022821703169029206
1.721571473655458e+18,-0.0003438386193010956,0.0010047737741842866,-9.27097353269346e-05
1.721571473658458e+18,0.002360538812354207,-0.00018856534734368324,-0.001051147817634046
1.7215714736644582e+18,0.0028377356939017773,-0.001959119690582156,-0.0007691696519032121
1.7215714736734584e+18,-0.0022511843126267195,-0.0020730681717395782,0.0001763984764693305
1.7215714736794586e+18,-0.0004786518984474242,0.0017932797782123089,-0.0017838702769950032
1.7215714736854587e+18,-0.0011135190725326538,-0.0008017782238312066,0.001432707766070962
1.7215714736914588e+18,-0.0015123963821679354,-0.0010009099496528506,0.0032195555977523327
1.721571473697459e+18,0.002163822064176202,0.0022686063311994076,6.920328360138228e-06
1.721571473703459e+18,-0.0016141185769811273,-0.0019515524618327618,0.00046841418952681124
1.7215714737094592e+18,-0.0018852270441129804,0.002186728408560157,0.00021702256344724447
1.7215714737154593e+18,-0.0009489146177656949,-5.242390398052521e-05,-0.002261706627905369
1.7215714737184594e+18,0.0010941370856016874,-0.000884084147401154,-0.0029544809367507696
1.7215714737244595e+18,-0.0011005871929228306,-0.0003252771857660264,0.002584930742159486
1.7215714737304596e+18,-0.0009812685893848538,-9.045807382790372e-05,0.0009084515040740371
1.7215714737334597e+18,-4.203813659842126e-05,0.002511810977011919,0.0005590000655502081
1.7215714737394598e+18,-0.001778680831193924,0.0009183455840684474,0.0005214146804064512
1.72157147374546e+18,0.001105263247154653,0.00019445139332674444,0.0030392147600650787
1.72157147374846e+18,-0.0009504063636995852,-0.0004258137778379023,-0.0010813911212608218
1.7215714737544602e+18,0.0014968033647164702,0.0020103035494685173,0.0035544196143746376
1.7215714737604603e+18,-0.0023917651269584894,-0.0008120070560835302,-0.0006314548081718385
1.7215714737664604e+18,-0.0005300748161971569,0.00037361454451456666,0.0004183092969469726
1.7215714737724605e+18,0.003290641587227583,-0.0011114362860098481,-0.0036425048019737005
1.7215714737784607e+18,0.0020363545045256615,-4.4061624066671357e-05,-0.0010408221278339624
1.7215714737844608e+18,1.5181836943156668e-06,0.0018257705960422754,-0.0016121674561873078
1.721571473790461e+18,-0.00039185723289847374,0.00012856886314693838,0.0017749650869518518
1.721571473796461e+18,0.0003093018021900207,-0.001455081976018846,-0.002425792161375284
1.721571473799461e+18,0.002879352541640401,0.002396402880549431,0.0023444630205631256
1.7215714738054612e+18,-0.0008984212181530893,0.002061781706288457,-0.0014149188064038754
1.7215714738114614e+18,-0.002539142733439803,-0.000595788296777755,-0.0014838648494333029
1.7215714738174615e+18,-0.0010695869568735361,-0.0002563373709563166,0.0010110153816640377
1.7215714738204616e+18,-0.0014742198400199413,-0.0013489435659721494,-0.0006913253455422819
1.7215714738264617e+18,-0.003002256853505969,-0.0006674902979284525,-0.00014981857384555042
1.7215714738294618e+18,4.91568171128165e-05,-0.0024548876099288464,-0.0004348686197772622
1.721571473838462e+18,0.0006474683177657425,-0.0018708595307543874,-0.0021511067170649767
1.721571473841462e+18,-0.002567691495642066,-0.0014865838456898928,-0.0010488057741895318
1.7215714738474621e+18,0.00021547013602685183,-0.00034594335011206567,-0.0017582617001608014
1.7215714738534623e+18,0.00014877576904837042,0.0027611495461314917,-0.0027885015588253736
1.7215714738594624e+18,0.0009115180000662804,0.0001548155560158193,0.0013878782046958804
1.7215714738654625e+18,0.0008827997953630984,0.00015024401363916695,0.0007048809784464538
1.7215714738714627e+18,-0.00016202418191824108,-0.0002247463125968352,0.0007044937810860574
1.7215714738774628e+18,0.0005589565262198448,0.0003337977104820311,-0.0008936611120589077
1.721571473883463e+18,-0.0014612041413784027,0.0032433411106467247,-0.0018550846725702286
1.721571473889463e+18,-0.0009852328803390265,0.0017787718679755926,0.0028985266108065844
1.721571473892463e+18,-0.0016831370303407311,0.001059067784808576,0.002452573971822858
1.7215714738984632e+18,-4.436454037204385e-05,-0.0007280821446329355,0.002028415212407708
1.7215714739044634e+18,0.0003123783098999411,-0.0003607546095736325,-0.0009184067603200674
1.7215714739104635e+18,0.0031891101971268654,0.0026189470663666725,-0.002128106541931629
1.7215714739164636e+18,-0.002568927127867937,0.00023868767311796546,0.0011781086213886738
1.7215714739194637e+18,-0.0017535868100821972,0.001123611000366509,0.0006852369988337159
1.7215714739254638e+18,0.002224159426987171,0.00028781540459021926,-6.771606422262266e-05
1.721571473931464e+18,0.00016611802857369184,0.0006067850044928491,0.002508103847503662
1.721571473937464e+18,-0.000654384377412498,0.0019027473172172904,0.0018077968852594495
1.7215714739434642e+18,-0.0012334157945588231,-0.0011686384677886963,-0.0010553902247920632
1.7215714739494643e+18,0.0016124526737257838,-0.00039327843114733696,-0.0007892554858699441
1.7215714739554644e+18,0.0022251647897064686,0.0007282289443537593,0.0012992119882255793
1.7215714739614646e+18,0.0008033306803554296,0.0013051501009613276,-0.00037435951526276767
1.7215714739644646e+18,0.0022155053447932005,-0.00045185157796368003,0.0013384366175159812
1.7215714739704648e+18,0.0009428569464944303,-0.002139695454388857,0.002012442797422409
1.721571473976465e+18,-0.0025897305458784103,-0.0006400865386240184,0.0004976145573891699
1.721571473982465e+18,0.0019533787854015827,-0.00024767586728557944,-0.00011925739818252623
1.7215714739884652e+18,0.0011125762248411775,-0.0007707109325565398,0.0027072506491094828
1.7215714739944653e+18,-0.00037511283881030977,-0.0004531838931143284,-0.0009654741152189672
1.7215714739974653e+18,-0.00022082972282078117,0.0009046055492945015,0.001727432943880558
1.7215714740034655e+18,-0.0009274972253479064,-0.0010407250374555588,0.00036072032526135445
1.7215714740094656e+18,0.004620589781552553,-0.001334690605290234,-9.960536408470944e-05
1.7215714740154657e+18,-1.5092186004039831e-05,-0.00039844930870458484,0.0004158226365689188
1.7215714740214659e+18,0.0010397374862805009,-0.002130798762664199,-0.0027964843902736902
1.721571474024466e+18,0.00043379119597375393,-0.000302187108900398,0.0018509123474359512
1.721571474030466e+18,-0.0007364729535765946,0.0011454187333583832,-0.0014092120109125972
1.7215714740364662e+18,-0.00019251748744864017,0.0008373690070584416,-3.031764026673045e-05
1.7215714740424663e+18,-0.0008830447332002223,0.002414326649159193,0.0007315825787372887
1.7215714740484664e+18,-0.0021626423113048077,-0.0003540678590070456,-0.0031605297699570656
1.7215714740544666e+18,-0.0013864851789548993,-0.0009835421806201339,-0.0008550769416615367
1.7215714740604667e+18,0.00020751576812472194,0.0012214394519105554,-0.00123264966532588
1.7215714740664668e+18,-0.0017608191119506955,-0.0003501781611703336,-0.0004648757167160511
1.721571474069467e+18,-0.0012868314515799284,-0.0002494415093678981,0.0018881272990256548
1.721571474075467e+18,0.0030594479758292437,0.0004194395150989294,-0.0009134493302553892
1.7215714740814671e+18,-0.001077443128451705,0.0012802585260942578,0.003357598092406988
1.7215714740874673e+18,-0.0005911784246563911,-0.00031181174563243985,-1.1988017831754405e-05
1.7215714740934674e+18,0.0015389214968308806,0.0013177822111174464,0.0013993642060086131
1.7215714740994675e+18,0.0007898610201664269,0.0008334364974871278,-0.0036162682808935642
1.7215714741024676e+18,-0.0004920315113849938,0.0016225454164668918,0.0029150662012398243
1.7215714741084677e+18,-0.001320101204328239,-0.001270166365429759,-0.002104385755956173
1.7215714741144678e+18,0.0015950206434354186,0.0005599064752459526,0.003702647751197219
1.721571474120468e+18,0.0008657067664898932,-0.0015845285961404443,0.0005868464941158891
1.721571474123468e+18,0.0007167821750044823,0.0015703670214861631,0.0007688985206186771
1.7215714741294682e+18,0.000478744157589972,0.0027015532832592726,0.003388907527551055
1.7215714741354683e+18,0.002182961907237768,-0.00039329170249402523,0.001282127806916833
1.7215714741414684e+18,0.0007576356292702258,0.0004317071579862386,0.0016940386267378926
1.7215714741474685e+18,0.0004679326375480741,-0.0005112148937769234,-0.002156125381588936
1.7215714741534687e+18,0.0017684553749859333,-0.00045408192090690136,0.0014020369853824377
1.7215714741594688e+18,-0.001375562627799809,-0.0032959040254354477,0.00017760743503458798
1.721571474165469e+18,-0.001515599200502038,-0.0010957765625789762,-0.0003689196310006082
1.721571474171469e+18,-0.00043824565364047885,-0.0016443689819425344,0.0009605044033378363
1.7215714741774692e+18,-0.0004843256319873035,-0.0005004058475606143,-0.002124708378687501
1.7215714741834693e+18,-0.0018705817637965083,0.002212594263255596,0.0020175762474536896
1.7215714741894694e+18,0.00044556264765560627,-5.038298695581034e-05,-0.0011519152903929353
1.7215714741954696e+18,-0.0011676171561703086,-0.0014776741154491901,0.0023843736853450537
1.7215714742014697e+18,0.0027041772846132517,0.0010238292161375284,0.002371715847402811
1.7215714742074698e+18,-0.0011097048409283161,-0.0004469492705538869,0.0012052019592374563
1.72157147421347e+18,-0.0005249686073511839,-0.0008052695193327963,-0.0007495013996958733
1.72157147421647e+18,-0.001681003370322287,0.0039003321435302496,-0.002340947277843952
1.7215714742224701e+18,-0.0023234370164573193,-0.003471754491329193,-0.0034735905937850475
1.7215714742284703e+18,-0.00039832881884649396,-0.00038346819928847253,-0.0022372982930392027
1.7215714742344704e+18,0.001156123005785048,-0.001848523155786097,-0.0016216263175010681
1.7215714742404705e+18,0.002808641642332077,-0.0011158837005496025,-0.0021364211570471525
1.7215714742464707e+18,0.004006738308817148,0.0006723247352056205,0.0010421290062367916
1.7215714742524708e+18,-0.0004360002058092505,0.000489815603941679,-0.0005354133318178356
1.721571474258471e+18,0.00027424300787970424,0.00047741466551087797,-0.001909442711621523
1.721571474261471e+18,0.0016529125859960914,0.001278519630432129,-0.00055948446970433
1.721571474267471e+18,0.0006887049530632794,-0.0007936766487546265,-0.001927044941112399
1.7215714742764713e+18,-0.0003983564965892583,-0.0010856728767976165,0.0005089212208986282
1.7215714742794714e+18,-0.0018672398291528225,-0.0030930633656680584,-0.0006505431374534965
1.7215714742854715e+18,0.0015119400341063738,-0.0008587156189605594,0.002308926545083523
1.7215714742914716e+18,-0.0005513764335773885,-0.00045204165508039296,0.001542255049571395
1.7215714743004718e+18,0.0005130427307449281,0.0016457759775221348,-1.6323851014021784e-05
1.721571474306472e+18,0.0042687226086854935,0.00020005401165690273,0.004589456133544445
1.721571474312472e+18,-0.0003870122309308499,0.001106077223084867,-0.0001214907388202846
1.7215714743184722e+18,0.0017011413583531976,0.0016178535297513008,0.0024470991920679808
1.7215714743244723e+18,-0.0006023881724104285,0.003393246792256832,0.0018108421936631203
1.7215714743304724e+18,-0.00011364018428139389,-0.0019487548852339387,-0.0009662262164056301
1.7215714743364726e+18,-0.0035375680308789015,-0.0029179013799875975,0.001255988609045744
1.7215714743394726e+18,-0.0016848186496645212,-0.000534584338311106,-0.003816742915660143
1.7215714743454728e+18,-0.00048151513328775764,-0.00033305046963505447,0.002784652868285775
1.721571474351473e+18,0.004041978158056736,0.0014689686940982938,0.0001649366895435378
1.721571474357473e+18,0.0004751216038130224,-0.00020527142623905092,-0.0005968334735371172
1.7215714743634732e+18,-0.001433612429536879,-0.0001119783119065687,0.0016174224438145757
1.7215714743694733e+18,-0.0018359585665166378,-0.0015986253274604678,0.002761116484180093
1.7215714743784735e+18,-0.0027934592217206955,0.0009723062394186854,-0.0014887242577970028
1.7215714743844736e+18,0.002301652915775776,0.0015391329070553184,0.0014066292205825448
1.7215714743904737e+18,0.001282692770473659,0.0007120861555449665,0.0007420828333124518
1.7215714743964739e+18,-0.003017656272277236,0.0017966405721381307,0.0014435877092182636
1.721571474402474e+18,0.0012454589596018195,4.9836620746646076e-05,-0.0014856316847726703
1.721571474408474e+18,-0.0010675614466890693,0.0002589322975836694,-0.00227017211727798
1.7215714744144742e+18,-0.0011824091197922826,-0.002013307297602296,-0.0009826329769566655
1.7215714744234744e+18,0.001844168291427195,-0.00038430807762779295,-0.0010392569238319993
1.7215714744294746e+18,0.002665265230461955,0.0012219188502058387,0.0027120327576994896
1.7215714744354747e+18,0.0009217544575221837,3.994622966274619e-05,0.0030417712405323982
1.7215714744414748e+18,0.0015832852805033326,0.0010272590443491936,0.002772176405414939
1.721571474450475e+18,-0.0012169268447905779,0.0005006144638173282,-3.272367030149326e-05
1.7215714744564751e+18,0.0017923483392223716,-0.00027559054433368146,0.001169071183539927
1.7215714744624753e+18,0.0026760795153677464,0.0002715828886721283,0.00044389558024704456
1.7215714744684754e+18,-0.002123318612575531,-0.0016812857938930392,-0.0018541020108386874
1.7215714744744755e+18,-0.0004910886636935174,-0.0023296589497476816,-0.00048131414223462343
1.7215714744804756e+18,0.0010178998345509171,0.0017181389266625047,0.0002847531286533922
1.7215714744864758e+18,9.215337195200846e-05,0.004424272570759058,-0.0007868784014135599
1.721571474492476e+18,-0.002427601022645831,0.004003096371889114,-0.0018006993923336267
1.721571474498476e+18,0.00014660757733508945,0.0036663401406258345,-0.0032922206446528435
1.721571474501476e+18,0.0006387645262293518,0.00015276616613846272,0.0005857739015482366
1.7215714745074762e+18,0.0022342042066156864,-0.0021034181118011475,0.0005985117168165743
1.7215714745134764e+18,0.0006168793770484626,-0.0007021276978775859,2.130574830516707e-05
1.7215714745194765e+18,-0.0011419551447033882,-0.000919450307264924,0.001002428587526083
1.7215714745224765e+18,0.001910340622998774,-0.0009768373565748334,-0.0032713443506509066
1.7215714745284767e+18,-0.0016078301705420017,-0.0032233395613729954,-0.0020029658917337656
1.7215714745344768e+18,0.0037323033902794123,0.0012449241476133466,0.0007186910952441394
1.721571474540477e+18,-0.0025906399823725224,0.0012927617644891143,-0.001902863965369761
1.721571474546477e+18,-0.0023478269577026367,-0.00200828374363482,0.0031359647400677204
1.7215714745524772e+18,0.0008142737788148224,0.0005164980539120734,-0.001421495107933879
1.7215714745584773e+18,0.0030004309955984354,0.0004249144985806197,-0.0028433753177523613
1.7215714745644774e+18,0.00011930080654565245,-0.00035247934283688664,-0.0012185797095298767
1.7215714745704776e+18,-0.0005757237668149173,-0.001116538536734879,-1.2934985534229781e-05
1.7215714745764777e+18,0.0001727863127598539,0.0008087970782071352,-0.0015689294086769223
1.7215714745794778e+18,0.0016548510175198317,0.0016855599824339151,-0.0007711277576163411
1.721571474585478e+18,-1.1648526196950115e-05,-0.00025257881497964263,-0.0005520427948795259
1.721571474591478e+18,0.002775989705696702,-0.0015067054191604257,-0.0026876579504460096
1.7215714745974781e+18,0.00037106708623468876,-0.0016422184417024255,-0.0019001694163307548
1.7215714746034783e+18,-0.0008772266446612775,-0.0025499388575553894,-0.00011581612488953397
1.7215714746094784e+18,-2.940048580057919e-05,0.0020303225610405207,0.0015095301205292344
1.7215714746154785e+18,0.0006101526669226587,-0.0007814418058842421,0.003295446280390024
1.7215714746214787e+18,0.0002653027477208525,0.0027581029571592808,-0.0011633175890892744
1.7215714746244787e+18,-0.00341911893337965,0.0008195451810024679,0.00033114117104560137
1.721571474633479e+18,-0.0014429041184484959,-0.0016891611739993095,-0.0015301619423553348
1.721571474636479e+18,-0.0007140149245969951,-0.0014862711541354656,-0.0008630953961983323
1.7215714746454792e+18,-0.002981086727231741,-0.00033529638312757015,0.001151341712102294
1.7215714746484792e+18,4.8483085265615955e-05,0.0008454175549559295,-0.0006993807619437575
1.7215714746544794e+18,-6.671855226159096e-05,-0.00019268429605290294,-0.00018891203217208385
1.7215714746604795e+18,-0.0025776384864002466,0.0008689389796927571,0.0003679716610349715
1.7215714746664796e+18,-0.002020997693762183,0.0006613517180085182,-0.00044562845141626894
1.7215714746724797e+18,-0.00013194949133321643,0.0006352005293592811,0.0008486876613460481
1.72157147467848e+18,0.0018284167163074017,0.001696819788776338,-0.0012380648404359818
1.72157147468448e+18,-0.0010827165096998215,-0.0011828080751001835,0.003199205733835697
1.72157147469048e+18,-0.0005443281261250377,-0.0013872551498934627,0.00015018587873782963
1.7215714746934802e+18,0.0012347656302154064,-0.0014084152644500136,-0.0017427270067855716
1.7215714746994803e+18,0.00045645804493688047,-0.003380715847015381,-0.000610262097325176
1.7215714747054804e+18,-0.004157416056841612,-0.012669587507843971,0.0013172996696084738
1.7215714747114806e+18,-0.0022834250703454018,-0.03150389343500137,-0.00254751555621624
1.7215714747174807e+18,-0.00413026288151741,-0.04646868631243706,-0.00463041802868247
1.7215714747234808e+18,-0.005371590610593557,-0.0632108822464943,-0.004993571899831295
1.721571474729481e+18,-0.00672121299430728,-0.07590987533330917,-0.00521584739908576
1.721571474735481e+18,-0.007813522592186928,-0.08251667767763138,-0.007591528818011284
1.7215714747414812e+18,-0.00845404714345932,-0.08652865141630173,-0.005700551904737949
1.7215714747474813e+18,-0.006604242138564587,-0.08563341200351715,-0.005811478942632675
1.7215714747534815e+18,-0.008133439347147942,-0.07970016449689865,-0.006772191729396582
1.7215714747594816e+18,-0.008387752808630466,-0.0744461938738823,-0.009798409417271614
1.7215714747684818e+18,-0.003949228674173355,-0.07077459990978241,-0.013002078980207443
1.721571474774482e+18,-0.006580359768122435,-0.07244791835546494,-0.013548655435442924
1.721571474780482e+18,-0.004677649587392807,-0.0690474659204483,-0.01430696900933981
1.7215714747864822e+18,-0.005617236252874136,-0.07329945266246796,-0.011275089345872402
1.7215714747924823e+18,-0.008566772565245628,-0.07692179828882217,-0.013893584720790386
1.7215714747984824e+18,-0.0060164970345795155,-0.0811375230550766,-0.016000183299183846
1.7215714748014825e+18,-0.008429543115198612,-0.07745641469955444,-0.015484007075428963
1.7215714748074826e+18,-0.007635780610144138,-0.07509145885705948,-0.015071084722876549
1.7215714748134828e+18,-0.008739530108869076,-0.0726097971200943,-0.020682062953710556
1.721571474819483e+18,-0.006471360567957163,-0.06888064742088318,-0.017342843115329742
1.721571474822483e+18,-0.010833022184669971,-0.06707725673913956,-0.019097065553069115
1.721571474828483e+18,-0.00833925511687994,-0.060694240033626556,-0.019205352291464806
1.7215714748314831e+18,-0.005055604036897421,-0.059825122356414795,-0.019644588232040405
1.7215714748374833e+18,-0.0046024504117667675,-0.05487997829914093,-0.020608019083738327
1.7215714748434834e+18,-0.0028650211170315742,-0.05401082709431648,-0.024980297312140465
1.7215714748464835e+18,-0.005672377999871969,-0.048712827265262604,-0.021943841129541397
1.7215714748524836e+18,-0.002604641718789935,-0.048257824033498764,-0.026710817590355873
1.7215714748584837e+18,-0.0032181718852370977,-0.04665832221508026,-0.023819884285330772
1.7215714748644838e+18,-0.0031806551851332188,-0.04306238889694214,-0.025614861398935318
1.721571474870484e+18,-0.006455396767705679,-0.043905410915613174,-0.02745339646935463
1.721571474876484e+18,-0.007258873898535967,-0.04362887889146805,-0.02633785270154476
1.7215714748824842e+18,-0.0063080755062401295,-0.04245961457490921,-0.029183857142925262
1.7215714748884844e+18,-0.005722144152969122,-0.036831021308898926,-0.030420806258916855
1.7215714748944845e+18,-0.004340444225817919,-0.033011168241500854,-0.030380068346858025
1.7215714749004846e+18,-0.003411570331081748,-0.0309443399310112,-0.030589759349822998
1.7215714749064847e+18,-0.0024639307521283627,-0.024027016013860703,-0.028499791398644447
1.7215714749124849e+18,-0.002239055000245571,-0.01978236623108387,-0.03390025347471237
1.721571474918485e+18,-0.0032085487619042397,-0.01594158262014389,-0.03203027322888374
1.721571474924485e+18,-0.004556838423013687,-0.016816742718219757,-0.0327039435505867
1.7215714749304852e+18,-0.0016984505346044898,-0.014957277104258537,-0.03108023852109909
1.7215714749334853e+18,-0.002817293629050255,-0.017021799460053444,-0.03364807367324829
1.7215714749394854e+18,-0.003852895926684141,-0.014287352561950684,-0.036668676882982254
1.7215714749454856e+18,-0.0037891657557338476,-0.017011422663927078,-0.032185282558202744
1.7215714749514857e+18,-0.0031725678127259016,-0.015481706708669662,-0.03621255233883858
1.7215714749574858e+18,-0.0007674575317651033,-0.011204364709556103,-0.036365609616041183
1.721571474960486e+18,-0.0026465614791959524,-0.013232670724391937,-0.03494312986731529
1.721571474966486e+18,-0.0044319480657577515,-0.008775044232606888,-0.035875990986824036
1.7215714749724861e+18,-0.002376181771978736,-0.005132260266691446,-0.03617636114358902
1.7215714749784863e+18,-0.004183715209364891,0.00021066959016025066,-0.03482144698500633
1.7215714749844864e+18,-0.0010529704159125686,-0.0007142667891457677,-0.03836267068982124
1.7215714749904865e+18,-0.0035086986608803272,0.002593737095594406,-0.040863100439310074
1.7215714749964867e+18,-0.002517480868846178,0.001330020953901112,-0.03906168416142464
1.7215714750024868e+18,-0.0003031864180229604,0.0031309956684708595,-0.04008111357688904
1.721571475008487e+18,0.003309474792331457,0.0037735002115368843,-0.038320865482091904
1.721571475014487e+18,0.0010536309564486146,0.0020709449891000986,-0.038488905876874924
1.7215714750204872e+18,0.0019320802530273795,0.0006342313135974109,-0.04025149345397949
1.7215714750234872e+18,-0.0013182875700294971,0.0010836380533874035,-0.03910825774073601
1.7215714750294874e+18,-0.001968763303011656,0.002308725845068693,-0.03967779874801636
1.7215714750354875e+18,-0.001186855137348175,0.0037112641148269176,-0.043003786355257034
1.7215714750414876e+18,-0.004479181952774525,0.0026222418528050184,-0.04015892371535301
1.7215714750474877e+18,-0.0037842905148863792,0.00642750458791852,-0.04327636584639549
1.7215714750534879e+18,-0.0021618762984871864,0.011010991409420967,-0.042172882705926895
1.721571475056488e+18,-0.002143310848623514,0.007125816307961941,-0.04246821627020836
1.721571475062488e+18,0.0018368307501077652,0.00733906589448452,-0.04047723859548569
1.7215714750654881e+18,0.0003534320858307183,0.010545482859015465,-0.0416707806289196
1.7215714750714883e+18,0.005242333747446537,0.009974204935133457,-0.041182029992341995
1.7215714750774884e+18,0.002964707789942622,0.00703062117099762,-0.040296249091625214
1.7215714750834885e+18,0.003705462906509638,0.007695099804550409,-0.04214266687631607
1.7215714750894886e+18,-0.001490345224738121,0.008519928902387619,-0.04261524975299835
1.7215714750954888e+18,-0.0011994143715128303,0.011528297327458858,-0.041605833917856216
1.721571475101489e+18,-0.003808164969086647,0.00990749429911375,-0.044693153351545334
1.721571475107489e+18,-0.0023937420919537544,0.009537811391055584,-0.043727945536375046
1.7215714751134892e+18,-0.0020782893989235163,0.011001594364643097,-0.043192438781261444
1.7215714751194893e+18,-0.002709542401134968,0.009500406682491302,-0.044797446578741074
1.7215714751254894e+18,-0.003475442063063383,0.012105748988687992,-0.04327864572405815
1.7215714751314895e+18,-0.0016232061898335814,0.01058189570903778,-0.0446239672601223
1.7215714751374897e+18,-0.0010165409184992313,0.01128990389406681,-0.043611906468868256
1.7215714751434898e+18,8.853210601955652e-05,0.010077266953885555,-0.041718486696481705
1.72157147514949e+18,-0.0004046928370371461,0.013853920623660088,-0.04493529722094536
1.72157147515549e+18,-0.000523962895385921,0.012179906480014324,-0.04308256506919861
1.7215714751614902e+18,0.0010445872321724892,0.011086815968155861,-0.04630820080637932
1.7215714751674903e+18,0.0007391417166218162,0.007825499400496483,-0.043973907828330994
1.7215714751734904e+18,0.002035940531641245,0.008344580419361591,-0.04320434108376503
1.7215714751764905e+18,-0.0012581604532897472,0.00943544041365385,-0.04298701137304306
1.7215714751824906e+18,-0.0002767164260149002,0.009990310296416283,-0.04308304190635681
1.7215714751884908e+18,-0.004299664869904518,0.007270462810993195,-0.04182472452521324
1.721571475194491e+18,-0.005286065395921469,0.012588296085596085,-0.03982540965080261
1.721571475200491e+18,-0.00059465691447258,0.011707872152328491,-0.04381879046559334
1.7215714752064911e+18,-0.0014924505958333611,0.011925263330340385,-0.04337628185749054
1.7215714752124913e+18,-0.0032017012126743793,0.01053590327501297,-0.043506473302841187
1.7215714752184914e+18,0.00044685101602226496,0.010969636961817741,-0.040321797132492065
1.7215714752214915e+18,-0.0019576973281800747,0.009421379305422306,-0.042094603180885315
1.7215714752274916e+18,-0.0016136165941134095,0.013426491059362888,-0.0431809276342392
1.7215714752334917e+18,-0.0016692245844751596,0.008038235828280449,-0.04454587399959564
1.7215714752394918e+18,-0.0006452675443142653,0.007101399824023247,-0.04400048032402992
1.721571475245492e+18,-0.00018321286188438535,0.006664179731160402,-0.042310625314712524
1.721571475251492e+18,0.0022828083019703627,0.007699456065893173,-0.042210884392261505
1.7215714752574922e+18,-0.002646492561325431,0.007077810820192099,-0.04149629548192024
1.7215714752634924e+18,-0.0021257756743580103,0.011026251129806042,-0.041602496057748795
1.7215714752694925e+18,-0.0005029431777074933,0.009492944926023483,-0.04271617531776428
1.7215714752754926e+18,-0.0019834714476019144,0.010046487674117088,-0.04285704344511032
1.7215714752814927e+18,-0.0001854787115007639,0.008337557315826416,-0.04046834632754326
1.7215714752874929e+18,-0.003377053886651993,0.011317013762891293,-0.04256119579076767
1.721571475293493e+18,-0.0021537961438298225,0.008945509791374207,-0.03806473687291145
1.721571475299493e+18,-0.0022914670407772064,0.009668856859207153,-0.04106644541025162
1.7215714753054932e+18,-0.001286263926886022,0.009061865508556366,-0.038857243955135345
1.7215714753114934e+18,-0.0004713434027507901,0.008251011371612549,-0.0383242592215538
1.7215714753174935e+18,0.001488744281232357,0.006269225850701332,-0.04383654147386551
1.7215714753234936e+18,-0.0014854613691568375,0.008067183196544647,-0.040707312524318695
1.7215714753294938e+18,0.0003688058350235224,0.010279379785060883,-0.03854179009795189
1.7215714753324938e+18,-0.0029553270433098078,0.010397592559456825,-0.038599900901317596
1.721571475338494e+18,-0.003965894691646099,0.008503371849656105,-0.039080556482076645
1.721571475344494e+18,-0.0016400576569139957,0.005598227493464947,-0.03909295052289963
1.7215714753474941e+18,-0.003214255440980196,0.008334226906299591,-0.03952133655548096
1.7215714753534943e+18,-0.0006741955876350403,0.007124678231775761,-0.03821312263607979
1.7215714753594944e+18,7.293245289474726e-05,0.00699062692001462,-0.03905516862869263
1.7215714753654945e+18,-0.004034457728266716,0.006916367448866367,-0.037384141236543655
1.7215714753714947e+18,-0.0019703139550983906,0.005766746588051319,-0.037733327597379684
1.7215714753744947e+18,0.0013664390426129103,0.0025830736849457026,-0.0325956717133522
1.7215714753804948e+18,-0.002697208197787404,0.005726785399019718,-0.0352371484041214
1.721571475383495e+18,-0.0031169746071100235,0.007955534383654594,-0.035660140216350555
1.721571475389495e+18,-0.0024065510369837284,0.008545361459255219,-0.03653546795248985
1.7215714753954952e+18,-0.0041593629866838455,0.0054244683124125,-0.035403985530138016
1.7215714754014953e+18,-0.0003801541752181947,0.006041893269866705,-0.03547648712992668
1.7215714754074954e+18,0.0003684780385810882,0.010156059637665749,-0.03464984521269798
1.7215714754134956e+18,0.0015587701927870512,0.004894391633570194,-0.03485163673758507
1.7215714754194957e+18,9.813561337068677e-05,0.0062482114881277084,-0.036411989480257034
1.7215714754254958e+18,0.0034737237729132175,0.0058976588770747185,-0.0357389897108078
1.721571475431496e+18,-0.0012545008212327957,0.007800796069204807,-0.03676614165306091
1.721571475437496e+18,-0.002844596980139613,0.006961044389754534,-0.035454604774713516
1.7215714754434962e+18,-0.0023739757016301155,0.006860317662358284,-0.03704257681965828
1.7215714754494963e+18,0.00021393317729234695,0.009829940274357796,-0.03761570155620575
1.7215714754554964e+18,-0.0029970731120556593,0.009148781187832355,-0.0326010100543499
1.7215714754614966e+18,0.0017350681591778994,0.0035232703667134047,-0.031770408153533936
1.7215714754674967e+18,0.001039150170981884,0.008750387467443943,-0.0360802598297596
1.7215714754734968e+18,-0.0007107720011845231,0.004270652309060097,-0.03572399169206619
1.721571475476497e+18,0.00106320739723742,0.00386511767283082,-0.03458283841609955
1.721571475482497e+18,0.0009197096806019545,0.006844240706413984,-0.035197414457798004
1.7215714754884972e+18,0.002561646979302168,0.005852319300174713,-0.03632061183452606
1.7215714754914972e+18,-0.004316300619393587,0.00513275433331728,-0.03540767356753349
1.7215714754974973e+18,-0.001563703641295433,0.006708398461341858,-0.03743058443069458
1.7215714755034975e+18,-0.0015660570934414864,0.004862899426370859,-0.033273208886384964
1.7215714755094976e+18,-0.002823435701429844,0.004295892547816038,-0.03361935541033745
1.7215714755124977e+18,-0.0013997243950143456,0.006153487134724855,-0.03552761673927307
1.7215714755184978e+18,-0.003820597194135189,0.0009749340824782848,-0.034499745815992355
1.721571475524498e+18,7.781945168972015e-05,0.004795493092387915,-0.033498216420412064
1.721571475530498e+18,-0.0027270466089248657,0.006659235805273056,-0.03197986260056496
1.7215714755364982e+18,-0.001809059176594019,0.008083727210760117,-0.029668668285012245
1.7215714755424983e+18,-0.00012518878793343902,0.0059428466483950615,-0.03370533511042595
1.7215714755484984e+18,0.0017771401908248663,0.003920327872037888,-0.03274733945727348
1.7215714755544986e+18,-0.003194351214915514,0.006678514648228884,-0.03414278104901314
1.7215714755604987e+18,-0.0004675337695516646,0.005845729261636734,-0.029731564223766327
1.7215714755664988e+18,-0.0027185489889234304,0.004083374515175819,-0.029790664091706276
1.721571475572499e+18,-0.0004359325976110995,0.003596259979531169,-0.032333310693502426
1.721571475578499e+18,-0.0015115842688828707,0.0067927115596830845,-0.03247390314936638
1.7215714755844992e+18,2.2855703718960285e-05,0.005001726560294628,-0.031540729105472565
1.7215714755904993e+18,0.0017737658927217126,0.0036081138532608747,-0.028770659118890762
1.7215714755964995e+18,0.002198324538767338,0.0076761492528021336,-0.032555341720581055
1.7215714756024996e+18,0.000951528490986675,0.004847912583500147,-0.028192540630698204
1.7215714756084997e+18,0.003468095790594816,0.004852692596614361,-0.030638430267572403
1.7215714756144998e+18,0.002205715049058199,0.0036174021661281586,-0.031149791553616524
1.7215714756205e+18,7.477006874978542e-06,0.003455142956227064,-0.032210573554039
1.7215714756235e+18,-0.0023291248362511396,0.002389781177043915,-0.02877061441540718
1.7215714756295002e+18,-0.0013417992740869522,0.003437499050050974,-0.030844710767269135
1.7215714756355003e+18,-0.0008462765254080296,0.006300276145339012,-0.02757900580763817
1.7215714756415004e+18,-0.002984308870509267,0.0009992793202400208,-0.02855519764125347
1.7215714756475005e+18,0.0011330359848216176,0.004502595867961645,-0.029739897698163986
1.7215714756505006e+18,-0.0036327543202787638,0.004227679222822189,-0.029120951890945435
1.7215714756565007e+18,-4.782842006534338e-05,0.0046730246394872665,-0.031834088265895844
1.7215714756625009e+18,-4.358380101621151e-05,0.009077640250325203,-0.02922774665057659
1.721571475668501e+18,0.002431774977594614,0.007642254699021578,-0.031102854758501053
1.721571475674501e+18,0.0038814691361039877,0.006173564586788416,-0.027572887018322945
1.7215714756805012e+18,0.0011890297755599022,0.0026817447505891323,-0.02995641902089119
1.7215714756865014e+18,0.0005767593975178897,0.005395193118602037,-0.028400415554642677
1.7215714756925015e+18,-0.0003909607185050845,0.006221233867108822,-0.02735416404902935
1.7215714756985016e+18,-0.0034795370884239674,0.0029123828280717134,-0.028117431327700615
1.7215714757045018e+18,0.0008851289749145508,0.002885227557271719,-0.029021842405200005
1.721571475710502e+18,0.0010467757238075137,0.005259841680526733,-0.02536693587899208
1.721571475716502e+18,0.0026010125875473022,0.0065003689378499985,-0.0253293476998806
1.7215714757225021e+18,-0.0007713823579251766,0.0046281833201646805,-0.028071900829672813
1.7215714757285023e+18,0.0007646391168236732,0.00679166242480278,-0.0265146903693676
1.7215714757315023e+18,0.0015883351443335414,0.0065001677721738815,-0.02846897952258587
1.7215714757375025e+18,-0.0010686904424801469,0.004434661008417606,-0.0278316717594862
1.7215714757435026e+18,-0.0009246852714568377,0.0052833533845841885,-0.023521218448877335
1.7215714757495027e+18,-0.002462957752868533,0.004644995089620352,-0.02609761618077755
1.7215714757555028e+18,-0.0028080737683922052,0.0044783661141991615,-0.028167199343442917
1.721571475758503e+18,-0.004031728021800518,0.0013064481317996979,-0.025161681696772575
1.721571475764503e+18,0.00010721315629780293,0.00425294553861022,-0.02449185401201248
1.7215714757705032e+18,-0.0007138032815419137,0.003508513793349266,-0.026885293424129486
1.7215714757765033e+18,-0.002137931529432535,0.0033301543444395065,-0.02689410001039505
1.7215714757825034e+18,-0.0012146824738010764,-5.7221390306949615e-05,-0.025499247014522552
1.7215714757885036e+18,-3.136628947686404e-05,0.004986296873539686,-0.026781320571899414
1.7215714757945037e+18,-0.0004356086428742856,-0.0003420817665755749,-0.024547599256038666
1.7215714758005038e+18,-0.0002897943777497858,0.005055573768913746,-0.023629195988178253
1.721571475806504e+18,-6.36512486380525e-05,0.004365851171314716,-0.02409624308347702
1.721571475812504e+18,-0.0018072298262268305,0.0026130888145416975,-0.027953805401921272
1.7215714758185042e+18,0.0008096577366814017,0.0036547835916280746,-0.026041336357593536
1.7215714758215043e+18,0.0005131082143634558,0.004610179923474789,-0.0249597430229187
1.7215714758275044e+18,-0.0003384072333574295,0.007777914870530367,-0.025382228195667267
1.7215714758335045e+18,-0.0009959188755601645,0.002135062124580145,-0.023899253457784653
1.7215714758395046e+18,-0.001987287076190114,0.007272492628544569,-0.022745737805962563
1.7215714758455048e+18,0.00020673073595389724,0.005360129289329052,-0.02300676703453064
1.7215714758485048e+18,0.00010315736290067434,0.006535063497722149,-0.02496582642197609
1.721571475857505e+18,0.0006285096169449389,0.0034709270112216473,-0.023947473615407944
1.721571475860505e+18,0.0020548731554299593,0.005524294916540384,-0.022982923313975334
1.7215714758665052e+18,-0.0001834382419474423,0.00538838654756546,-0.024435868486762047
1.7215714758725053e+18,-0.000492782040964812,0.0012210119748488069,-0.024522127583622932
1.7215714758785055e+18,0.00015463816816918552,0.004742796532809734,-0.025081191211938858
1.7215714758875057e+18,-0.0033266532700508833,0.0018514159601181746,-0.021732330322265625
1.7215714758905057e+18,0.0009547318331897259,0.004160132259130478,-0.022075925022363663
1.7215714758965059e+18,-0.003145170398056507,0.0040430231019854546,-0.02247927524149418
1.721571475902506e+18,-0.003033057088032365,0.00461592199280858,-0.02373335510492325
1.721571475908506e+18,0.00029080582316964865,0.005871267057955265,-0.02086752839386463
1.7215714759145062e+18,-0.0003983997739851475,0.0038437992334365845,-0.021426904946565628
1.7215714759175063e+18,-0.0031416905112564564,0.006456517614424229,-0.023353343829512596
1.7215714759235064e+18,-0.0006576431915163994,0.003250415436923504,-0.023536039516329765
1.7215714759295066e+18,0.0010610917815938592,0.0009467585477977991,-0.019785627722740173
1.7215714759325066e+18,-0.0006775686051696539,0.003060992807149887,-0.02194332145154476
1.7215714759385068e+18,0.00044501491356641054,0.0032826424576342106,-0.023142719641327858
1.721571475944507e+18,0.0002542128204368055,0.002796339802443981,-0.02560454234480858
1.721571475950507e+18,8.917468949221075e-05,0.003142351284623146,-0.020905110985040665
1.721571475953507e+18,0.0024299039505422115,0.004557041916996241,-0.01915885880589485
1.7215714759595072e+18,-0.001769140362739563,0.004841061308979988,-0.021678665652871132
1.7215714759655073e+18,-0.00017534114886075258,0.0034021588508039713,-0.025270141661167145
1.7215714759655073e+18,-0.00017534114886075258,0.0034021588508039713,-0.025270141661167145
1.7215714759715075e+18,-0.0014982293359935284,0.004372958559542894,-0.02310784161090851
1.7215714759775076e+18,-0.0014139036647975445,0.0012491659726947546,-0.02230294980108738
1.7215714759835077e+18,-0.0016424554632976651,0.0025914404541254044,-0.02365088276565075
1.7215714759895078e+18,-0.001185547444038093,0.004058093763887882,-0.022448334842920303
1.721571475995508e+18,-0.00022168728173710406,0.0034680161625146866,-0.02143392339348793
1.721571476001508e+18,0.0032883277162909508,0.001390740042552352,-0.022436877712607384
1.7215714760075082e+18,0.0011921341065317392,0.003060555085539818,-0.021594638004899025
1.7215714760135084e+18,0.00023567036259919405,0.0019723749719560146,-0.022334769368171692
1.7215714760195085e+18,-0.0011516065569594502,-0.0004884268855676055,-0.021139586344361305
1.7215714760255086e+18,-0.0009100246243178844,0.0031773410737514496,-0.018569108098745346
1.7215714760315087e+18,-8.020459790714085e-05,0.0023711344692856073,-0.02036014012992382
1.7215714760375089e+18,-0.0028406644705682993,0.002912808209657669,-0.019905274733901024
1.721571476043509e+18,-0.0015389194013550878,0.0021992118563503027,-0.020825589075684547
1.721571476049509e+18,-3.800936974585056e-05,0.003571001812815666,-0.019845858216285706
1.7215714760525092e+18,0.0003793423529714346,0.0034493417479097843,-0.01820959895849228
1.7215714760585093e+18,0.0010844845091924071,0.003978698048740625,-0.02132185734808445
1.7215714760615094e+18,0.0006579142063856125,0.0015636730240657926,-0.02061760425567627
1.7215714760675095e+18,0.0006973547860980034,0.004250114783644676,-0.01825767569243908
1.7215714760735096e+18,-0.0007341214222833514,7.982226088643074e-05,-0.021483391523361206
1.7215714760795098e+18,-0.0014709713868796825,0.0004237918183207512,-0.024366863071918488
1.72157147608551e+18,-0.00200932496227324,0.004194088280200958,-0.019956350326538086
1.72157147609151e+18,-0.0003995353472419083,-0.0008191626984626055,-0.021123766899108887
1.7215714760975101e+18,-0.0020598298870027065,0.004030791576951742,-0.01763407699763775
1.7215714761035103e+18,-0.001973256701603532,0.004850086756050587,-0.02156907692551613
1.7215714761095104e+18,0.0018500720616430044,0.004666469059884548,-0.01757688820362091
1.7215714761155105e+18,0.00028175071929581463,0.00448830658569932,-0.019653959199786186
1.7215714761215107e+18,0.0027260761708021164,0.0019746311008930206,-0.019352100789546967
1.7215714761275108e+18,0.0033406857401132584,0.003456219332292676,-0.020586200058460236
1.721571476133511e+18,0.0034514740109443665,0.003074971493333578,-0.017479976639151573
1.721571476139511e+18,0.0030700494535267353,0.0037872972898185253,-0.020962145179510117
1.7215714761455112e+18,0.0028291132766753435,0.0037836742121726274,-0.02205110900104046
1.7215714761515113e+18,0.0021140980534255505,0.0009365917067043483,-0.018577104434370995
1.7215714761575114e+18,-0.0030554700642824173,-0.0013989901635795832,-0.01947317086160183
1.7215714761635116e+18,-0.003064817516133189,0.0025044467765837908,-0.019259367138147354
1.7215714761695117e+18,-0.0006934124976396561,0.0001221273560076952,-0.019308822229504585
1.7215714761725117e+18,0.0006465391488745809,0.0036066872999072075,-0.02057497948408127
1.721571476178512e+18,0.0003979235189035535,0.004305603448301554,-0.01588165946304798
1.721571476184512e+18,-0.002865738235414028,0.0019009928219020367,-0.018604228273034096
1.721571476190512e+18,-0.0004910264979116619,0.0018396874656900764,-0.019897134974598885
1.7215714761965123e+18,-0.0018652493599802256,0.0033281573560088873,-0.01885695941746235
1.7215714762025124e+18,0.00014309893595054746,0.005154355429112911,-0.0172366164624691
1.7215714762085125e+18,-0.001846082042902708,0.0014835167676210403,-0.017030389979481697
1.7215714762115126e+18,-0.0011504546273499727,0.0009394717635586858,-0.017403583973646164
1.7215714762175127e+18,1.2918317224830389e-05,0.0002346675901208073,-0.01577914133667946
1.7215714762235128e+18,-0.00010233760986011475,-0.0008665709174238145,-0.01549387164413929
1.721571476226513e+18,0.0007253047660924494,-0.0011352372821420431,-0.016814665868878365
1.721571476232513e+18,8.041714318096638e-05,-0.0015596358571201563,-0.013410123065114021
1.7215714762385132e+18,0.000675631279591471,0.0020167455077171326,-0.015118580311536789
1.7215714762445133e+18,-0.0006941076135262847,0.001953965285792947,-0.015881076455116272
1.7215714762505134e+18,-0.001270010252483189,0.004574345424771309,-0.016457214951515198
1.7215714762565135e+18,-0.0016111729200929403,0.0031889358069747686,-0.018785884603857994
1.7215714762655137e+18,-0.002309301169589162,0.0033005946315824986,-0.017133120447397232
1.7215714762715139e+18,-0.00041285232873633504,0.004023381974548101,-0.018374567851424217
1.721571476277514e+18,-0.00010172737529501319,0.0033566257916390896,-0.01519740279763937
1.721571476283514e+18,-0.00015169510152190924,0.004029860254377127,-0.017871296033263206
1.7215714762895142e+18,-0.001896121189929545,0.005368044599890709,-0.016568398103117943
1.7215714762955144e+18,-0.0012415791861712933,0.0037765540182590485,-0.015312199480831623
1.7215714763045146e+18,8.891129255061969e-05,0.00246655335649848,-0.01617087796330452
1.7215714763105147e+18,0.001184154418297112,0.003939648624509573,-0.01717079058289528
1.7215714763165148e+18,-0.0001248074695467949,0.0014575357781723142,-0.015336278825998306
1.721571476322515e+18,-0.0028947917744517326,0.002411800902336836,-0.014692556113004684
1.721571476328515e+18,-0.0013222949346527457,-0.001294347457587719,-0.019416460767388344
1.7215714763345152e+18,-0.0025735567323863506,0.000199231319129467,-0.01702181063592434
1.7215714763405153e+18,-0.002087733242660761,0.000830263365060091,-0.016733266413211823
1.7215714763465155e+18,-0.001893419772386551,0.0024027072358876467,-0.0174478217959404
1.7215714763495155e+18,-0.0034082031343132257,0.0036043007858097553,-0.020486801862716675
1.7215714763555156e+18,0.0002066351007670164,0.003187112044543028,-0.017429471015930176
1.7215714763645158e+18,-0.002104419283568859,-0.0007675306405872107,-0.0191449373960495
1.721571476370516e+18,0.002257350366562605,0.00289645092561841,-0.020323971286416054
1.721571476376516e+18,0.0033838553354144096,0.003377353772521019,-0.018139904364943504
1.7215714763825162e+18,0.0031255404464900494,0.0036074856761842966,-0.017010129988193512
1.7215714763885164e+18,0.001828232896514237,3.50596965290606e-05,-0.01738334819674492
1.7215714763945165e+18,0.0008310988778248429,-0.0024452079087495804,-0.020067254081368446
1.7215714764005166e+18,-0.0016358650755137205,-0.000557083054445684,-0.02058528922498226
1.7215714764065167e+18,-0.0006192500004544854,-0.001702745445072651,-0.020330030471086502
1.7215714764125169e+18,-0.002887103008106351,-9.527111978968605e-05,-0.018057581037282944
1.721571476418517e+18,-0.0009015977848321199,0.0016912557184696198,-0.019529851153492928
1.7215714764275172e+18,-0.0010428651003167033,0.0006620152853429317,-0.019366754218935966
1.7215714764335173e+18,-0.001655742758885026,0.002825486706569791,-0.02105836197733879
1.7215714764395174e+18,-0.0020811762660741806,0.004806683398783207,-0.021485980600118637
1.7215714764455176e+18,-0.003108392236754298,0.003848476568236947,-0.021512111648917198
1.7215714764515177e+18,-0.003039013361558318,0.0022137423511594534,-0.019626619294285774
1.7215714764575178e+18,-2.3801323550287634e-05,0.0021713615860790014,-0.022037701681256294
1.721571476463518e+18,0.00010007069795392454,-6.79712975397706e-05,-0.01907569169998169
1.721571476469518e+18,-0.00032807455863803625,0.002738960785791278,-0.02050798013806343
1.7215714764725181e+18,-0.0005730554694309831,0.0015304203843697906,-0.023168623447418213
1.7215714764785183e+18,-0.0015091138193383813,-0.001976099330931902,-0.02436266466975212
1.7215714764875185e+18,-0.00011554226512089372,0.001097290776669979,-0.021790074184536934
1.7215714764935186e+18,0.0008034782949835062,0.0009472023812122643,-0.021522989496588707
1.7215714764965187e+18,-0.005634999368339777,-0.0016026005614548922,-0.021726032719016075
1.7215714765025188e+18,-0.0007228550966829062,0.006448781117796898,-0.020762016996741295
1.721571476508519e+18,-0.0009268656140193343,0.005142095498740673,-0.02453036606311798
1.721571476511519e+18,-0.0001021150965243578,0.00631695194169879,-0.023114310577511787
1.721571476517519e+18,-0.000996782211586833,0.004374316427856684,-0.02119297720491886
1.7215714765235192e+18,-0.0006790278712287545,0.0010683382861316204,-0.019310107454657555
1.7215714765295194e+18,-0.00046387765905819833,0.0022255333606153727,-0.022850779816508293
1.7215714765355195e+18,0.000576137681491673,0.0013697814429178834,-0.023448381572961807
1.7215714765415196e+18,-0.0010715002426877618,9.04696062207222e-05,-0.023773258551955223
1.7215714765475197e+18,-0.0018077499698847532,0.003969311714172363,-0.021556925028562546
1.7215714765535199e+18,0.000266608374658972,0.0028554447926580906,-0.022122152149677277
1.72157147655952e+18,0.0028606888372451067,0.0008953241631388664,-0.02367132343351841
1.7215714765655201e+18,0.0008600350120104849,0.0014270046958699822,-0.023807372897863388
1.7215714765715203e+18,0.0022955769672989845,0.004843880422413349,-0.025087015703320503
1.7215714765775204e+18,0.0029773879796266556,0.0038833734579384327,-0.020756756886839867
1.7215714765835205e+18,-0.0022586772684007883,0.001974719110876322,-0.021153712645173073
1.7215714765895206e+18,0.00151052325963974,-0.0006569044198840857,-0.021264461800456047
1.7215714765955208e+18,0.0004966604756191373,0.0019444144563749433,-0.022758368402719498
1.721571476601521e+18,-0.0028615989722311497,0.00048075965605676174,-0.020119547843933105
1.721571476607521e+18,-0.002502146875485778,-0.002865305170416832,-0.022739548236131668
1.7215714766135212e+18,0.0022392957471311092,0.00044979614904150367,-0.021494435146450996
1.7215714766195213e+18,-0.001472206087782979,0.0016086818650364876,-0.019013119861483574
1.7215714766255214e+18,0.0003778244717977941,0.0004047043330501765,-0.017788011580705643
1.7215714766315215e+18,-0.00039933843072503805,-0.0005722024943679571,-0.022788986563682556
1.7215714766375217e+18,0.0022590155713260174,0.0011291929986327887,-0.021112699061632156
1.7215714766435218e+18,0.0011225248454138637,0.004965783096849918,-0.02190598100423813
1.721571476649522e+18,0.0020967451855540276,0.003112800419330597,-0.020342232659459114
1.721571476655522e+18,0.0031540142372250557,0.002043807180598378,-0.02041584439575672
1.7215714766615222e+18,-0.0012938508298248053,0.002490414772182703,-0.018405979499220848
1.7215714766675223e+18,0.002325000474229455,-0.0004277649859432131,-0.019449474290013313
1.7215714766735224e+18,-0.0022704252041876316,-0.0006850123172625899,-0.023127781227231026
1.7215714766795226e+18,-0.003017937298864126,-0.00038836486055515707,-0.01956247352063656
1.7215714766855227e+18,-0.0005156330298632383,0.0020010897424072027,-0.021302979439496994
1.7215714766915228e+18,-0.002876784186810255,0.0014259277377277613,-0.021976852789521217
1.721571476697523e+18,-0.001522806822322309,0.0025343243032693863,-0.016976026818156242
1.7215714767065231e+18,-0.0007010744884610176,0.0016764274332672358,-0.01912335865199566
1.7215714767125233e+18,0.0007526722620241344,-0.0023278172593563795,-0.02354379929602146
1.7215714767185234e+18,0.0028360430151224136,0.0019165868870913982,-0.01997337117791176
1.7215714767245235e+18,0.002051952760666609,-0.0006285941926762462,-0.01935923844575882
1.7215714767305236e+18,2.858100924640894e-05,8.548281039111316e-05,-0.019131507724523544
1.7215714767365238e+18,-9.405467426404357e-05,-0.0011168934870511293,-0.01946977712213993
1.721571476742524e+18,-0.0023253308609128,-0.0020542587153613567,-0.01414547860622406
1.721571476748524e+18,-0.0020641041919589043,0.0005191501113586128,-0.017182253301143646
1.721571476751524e+18,-0.002018602564930916,-0.0006365071749314666,-0.014525942504405975
1.7215714767575242e+18,-0.0005485364235937595,0.003743142122402787,-0.0166191216558218
1.7215714767635244e+18,-4.0972838178277016e-05,0.0020758926402777433,-0.014627346768975258
1.7215714767665244e+18,0.00016190996393561363,3.258674405515194e-05,-0.01735280454158783
1.7215714767725245e+18,0.0007438809261657298,0.003301295218989253,-0.01664825715124607
1.7215714767785247e+18,0.0005649885861203074,0.005093011073768139,-0.0170120969414711
1.7215714767845248e+18,-0.0004478119080886245,0.004140378907322884,-0.016146350651979446
1.721571476790525e+18,0.000442790100350976,0.0009202280198223889,-0.019181909039616585
1.721571476796525e+18,0.002328884322196245,0.0013850139221176505,-0.018320733681321144
1.7215714768025252e+18,0.001970084384083748,-0.001456919126212597,-0.01582951657474041
1.7215714768085253e+18,0.0030220665503293276,-5.8269884902983904e-05,-0.01814943738281727
1.7215714768145254e+18,0.0010998103534802794,0.0012991352705284953,-0.014377014711499214
1.7215714768205256e+18,-0.000591457705013454,-0.002132797846570611,-0.018367664888501167
1.7215714768265257e+18,0.00042139581637457013,0.0033087919000536203,-0.018999241292476654
1.7215714768325258e+18,-3.015331458300352e-05,-0.00032022595405578613,-0.01533232070505619
1.721571476838526e+18,0.0005002513062208891,0.0036742177326232195,-0.017975501716136932
1.721571476844526e+18,7.65956356190145e-05,0.0033136210404336452,-0.017581846565008163
1.7215714768505262e+18,0.00032424673554487526,0.0021583260968327522,-0.013778401538729668
1.7215714768535263e+18,0.0020507145673036575,0.002106649801135063,-0.016303151845932007
1.7215714768595264e+18,-0.0033192343544214964,0.0006614633020944893,-0.01658620499074459
1.7215714768655265e+18,-0.0014402088709175587,0.0009121493203565478,-0.017756424844264984
1.7215714768715267e+18,0.00015980855096131563,0.0006732286419719458,-0.014404911547899246
1.7215714768745267e+18,-0.001990911550819874,-0.00045915908413007855,-0.01386034581810236
1.7215714768805268e+18,4.931108560413122e-05,-0.0007462563808076084,-0.016387004405260086
1.721571476886527e+18,-0.0022008956875652075,0.000587725080549717,-0.01413044985383749
1.7215714768955272e+18,0.0015234115999192,0.0018589395331218839,-0.015932977199554443
1.7215714769015273e+18,-0.0005326507380232215,0.002571558579802513,-0.016099300235509872
1.7215714769075274e+18,-0.00036477926187217236,0.001252282178029418,-0.01431029848754406
1.7215714769135276e+18,-0.0011717297602444887,0.0019947753753513098,-0.018162112683057785
1.7215714769195277e+18,-0.0004731962690129876,0.0029186331667006016,-0.01444605365395546
1.7215714769255278e+18,0.0012264298275113106,0.0020223078317940235,-0.015837160870432854
1.721571476931528e+18,-0.0006740766693837941,0.0025955874007195234,-0.014936910010874271
1.721571476937528e+18,-2.421680255793035e-05,-0.00024465739261358976,-0.013330343179404736
1.7215714769435282e+18,0.0006910720840096474,0.002995596034452319,-0.011802246794104576
1.7215714769465283e+18,-0.0033057541586458683,0.0013839525636285543,-0.014468890614807606
1.7215714769525284e+18,9.241545922122896e-05,0.002818130888044834,-0.01313808374106884
1.7215714769585285e+18,-0.0007266784668900073,0.001487384783104062,-0.012814853340387344
1.7215714769645286e+18,0.0018700468353927135,0.003966743126511574,-0.01637270301580429
1.7215714769705288e+18,0.00022664341668132693,0.0006643589003942907,-0.01861324906349182
1.721571476976529e+18,-0.0002817055501509458,0.001514812232926488,-0.016535967588424683
1.721571476979529e+18,0.0010200949618592858,-0.0003353882348164916,-0.012828165665268898
1.721571476985529e+18,-0.0019558253698050976,8.316599996760488e-05,-0.017744211480021477
1.7215714769915292e+18,0.00109643314499408,0.0008297740132547915,-0.012145498767495155
1.7215714769975293e+18,-0.0007156220963224769,0.00035161146661266685,-0.014905859716236591
1.7215714770095296e+18,-0.0015453239902853966,-0.0011303918436169624,-0.014835532754659653
1.7215714770155297e+18,0.002833583625033498,0.0015712142921984196,-0.01456703245639801
1.7215714770215299e+18,0.00027187622617930174,0.002670188434422016,-0.013261005282402039
1.72157147702753e+18,0.0003096646105404943,0.0028245802968740463,-0.014856244437396526
1.72157147703353e+18,0.0004186168953310698,0.0026285648345947266,-0.014849833212792873
1.7215714770395302e+18,-0.0011226787464693189,0.0019066906534135342,-0.015791144222021103
1.7215714770455304e+18,0.002294675912708044,0.0014055590145289898,-0.011540571227669716
1.7215714770485304e+18,0.0013290542410686612,0.0019566738046705723,-0.010970271192491055
1.7215714770545306e+18,0.0029679485596716404,0.004152241162955761,-0.01558908261358738
1.7215714770605307e+18,8.24162270873785e-07,0.0032228934578597546,-0.014864131808280945
1.7215714770665308e+18,-0.0013176103821024299,0.0031835585832595825,-0.013916716910898685
1.721571477072531e+18,0.00032206601463258266,0.000789012701716274,-0.012522554025053978
1.721571477078531e+18,-0.004497947171330452,0.0014191255904734135,-0.013224801979959011
1.7215714770815311e+18,0.0005704164505004883,0.0011481819674372673,-0.012651258148252964
1.7215714770875313e+18,-0.0069905733689665794,0.0016502083744853735,-0.014408816583454609
1.7215714770935314e+18,0.0021908499766141176,-0.0004361812607385218,-0.013601144775748253
1.7215714770995315e+18,-0.003016120521351695,0.0012626878451555967,-0.013083663769066334
1.7215714771055316e+18,-0.0031071994453668594,-0.0015594897558912635,-0.011788930743932724
1.7215714771085317e+18,-0.002456728834658861,-0.002577885752543807,-0.016310691833496094
1.7215714771145318e+18,0.0023185177706182003,-0.0032306259963661432,-0.013202449306845665
1.721571477120532e+18,-0.0012026478070765734,0.0018249268177896738,-0.011767661198973656
1.721571477126532e+18,0.0021048400085419416,-0.0002812216989696026,-0.01205334160476923
1.7215714771325322e+18,0.0019626058638095856,0.0027496106922626495,-0.01107979379594326
1.7215714771385324e+18,0.0024578662123531103,0.0005164218600839376,-0.01141849160194397
1.7215714771445325e+18,0.0018121664179489017,-0.002151133958250284,-0.009296784177422523
1.7215714771505326e+18,0.0018504970939829946,0.0025881100445985794,-0.011936304159462452
1.7215714771565327e+18,-0.001807270455174148,0.0012973315315321088,-0.010495037771761417
1.7215714771625329e+18,-0.000504768337123096,-0.0016373898833990097,-0.008312730118632317
1.721571477168533e+18,-0.0005825285334140062,-0.0012426048051565886,-0.013994371518492699
1.721571477174533e+18,-0.0018411792116239667,0.0008738629403524101,-0.011378402821719646
1.7215714771805332e+18,-0.0011013657785952091,0.00010975997429341078,-0.008934274315834045
1.7215714771865334e+18,-0.0005673921550624073,0.0014088000170886517,-0.008914093486964703
1.7215714771925335e+18,0.0010438676690682769,-0.0005896013462916017,-0.009145626798272133
1.7215714771985336e+18,-0.0003192797885276377,-0.0003814644296653569,-0.009026973508298397
1.7215714772045338e+18,-0.001696273684501648,0.0013187297154217958,-0.005723733454942703
1.7215714772075338e+18,0.002930047921836376,0.0018199114128947258,-0.008940921165049076
1.721571477213534e+18,0.0005963612347841263,0.0011310398112982512,-0.009767613373696804
1.721571477219534e+18,0.0004756783018819988,0.0006816040840931237,-0.00830923207104206
1.7215714772285343e+18,-0.0017175136599689722,-0.0019361968152225018,-0.008945592679083347
1.7215714772345344e+18,-0.0014762820210307837,-0.0013919747434556484,-0.00844328198581934
1.7215714772405345e+18,0.0006673777243122458,0.0020902282558381557,-0.005065005738288164
1.7215714772465347e+18,-0.0003782971471082419,-0.00010160844249185175,-0.004390638321638107
1.7215714772495347e+18,0.001231082365848124,-0.000465413904748857,-0.004298781976103783
1.721571477258535e+18,-3.976353764301166e-05,0.004819807130843401,-0.00820308830589056
1.721571477264535e+18,0.0004250863566994667,0.0013808958465233445,-0.0037744250148534775
1.721571477267535e+18,0.0024015626404434443,0.003224089276045561,-0.0031402138993144035
1.7215714772735352e+18,-0.0014518677489832044,0.002454564906656742,-0.0025079043116420507
1.7215714772825354e+18,-0.0012736816424876451,0.0033220783807337284,0.0005112846847623587
1.7215714772855355e+18,0.00021603284403681755,-0.0023925991263240576,-0.003962377551943064
1.7215714772945357e+18,0.000672762980684638,-0.0007739256834611297,-0.002388156019151211
1.7215714772975357e+18,-0.0020676027052104473,-0.0012359225656837225,-0.0032518762163817883
1.7215714773035359e+18,-0.0019123065285384655,-0.0002296654274687171,-0.003631498198956251
1.721571477309536e+18,-0.002928557340055704,0.003435690887272358,-0.0015639221528545022
1.7215714773155361e+18,-0.0044064768590033054,0.0016224404098466039,-0.0009818378603085876
1.7215714773245363e+18,0.0007547645946033299,0.004597076214849949,0.0006711158785037696
1.7215714773305364e+18,-0.0023126525338739157,0.00415057223290205,-0.0024765224661678076
1.7215714773365366e+18,0.0013259539846330881,0.0037161181680858135,-0.004132511559873819
1.7215714773425367e+18,0.002904255408793688,0.001347768004052341,-0.00040346686728298664
1.7215714773485368e+18,-0.0033727907575666904,-0.0014492749469354749,-0.0007674811640754342
1.721571477354537e+18,0.0009488606592640281,-0.0025402659084647894,-0.0007153593469411135
1.721571477360537e+18,0.0013482363428920507,-0.0019665288273245096,-0.00020532810594886541
1.7215714773665372e+18,-0.0015322427498176694,0.002044009044766426,-0.0007984868716448545
1.7215714773725373e+18,0.00021687177650164813,-0.0005522354040294886,0.0020448346622288227
1.7215714773785375e+18,-0.0007693260558880866,-0.0007282004225999117,0.0036286492832005024
1.7215714773845376e+18,0.0012113109696656466,0.002980983816087246,0.006600314751267433
1.7215714773905377e+18,0.00015413470100611448,0.0031469445675611496,0.0030949520878493786
1.7215714773965379e+18,0.005593476817011833,0.002190920291468501,0.004883555229753256
1.721571477402538e+18,0.0002179404255002737,-0.0005012507317587733,0.0046472931280732155
1.721571477408538e+18,0.001269261003471911,0.0016158954240381718,0.005478855222463608
1.7215714774145382e+18,-0.00029589305631816387,0.0020169420167803764,0.005428067408502102
1.7215714774205384e+18,0.0029616067185997963,0.00042665720684453845,0.004506728146225214
1.7215714774265385e+18,-0.000503128336276859,0.0007088039419613779,0.007635657675564289
1.7215714774325386e+18,0.0017299619503319263,0.0017671480309218168,0.0025671168696135283
1.7215714774385388e+18,-0.0001248148619197309,0.0014924458228051662,0.005371078848838806
1.721571477444539e+18,0.0038569404277950525,0.0003749449970200658,0.009942924603819847
1.721571477450539e+18,0.0010049465345218778,0.0013169884914532304,0.007856301963329315
1.7215714774595392e+18,0.0009049710351973772,-0.00029852899024263024,0.007609705440700054
1.7215714774655393e+18,0.004913635551929474,-3.934977576136589e-05,0.007792353630065918
1.7215714774715395e+18,0.0012104943161830306,0.0020044008269906044,0.01095120795071125
1.7215714774775396e+18,-0.002868731040507555,0.004440464079380035,0.010039209388196468
1.7215714774895398e+18,-0.0010899046901613474,0.002949422225356102,0.010450621135532856
1.72157147749554e+18,3.3860203984659165e-05,0.0030485051684081554,0.010088891722261906
1.72157147750154e+18,0.0007395462598651648,0.0028103201184421778,0.011553176678717136
1.7215714775075402e+18,0.0011708186939358711,-0.0007305697654373944,0.01007611583918333
1.7215714775135404e+18,0.000700082688126713,0.00019631162285804749,0.01047415193170309
1.7215714775195405e+18,0.0008412091992795467,-0.00032240396831184626,0.010870635509490967
1.7215714775255406e+18,-0.00250329845584929,-0.0020047458820044994,0.013194231316447258
1.7215714775315407e+18,-0.0019390071975067258,-0.0019044324290007353,0.012247268110513687
1.7215714775375409e+18,-0.002359003759920597,-0.0018969904631376266,0.014233384281396866
1.721571477543541e+18,-0.0010801361640915275,-0.0005754263256676495,0.011445616371929646
1.721571477549541e+18,0.0012694118777289987,0.002746596233919263,0.008950691670179367
1.7215714775555412e+18,0.00026200732099823654,-0.0005271498230285943,0.012130321003496647
1.7215714775615414e+18,0.001098924782127142,0.0014035714557394385,0.011888665147125721
1.7215714775675415e+18,0.0014708067756146193,-0.0010116745252162218,0.013269859366118908
1.7215714775825418e+18,-0.0033415816724300385,-0.0017991887871176004,0.01182972639799118
1.721571477588542e+18,0.00010535927140153944,0.0007065931567922235,0.01242358423769474
1.721571477594542e+18,0.0022208031732589006,0.002394371898844838,0.012449129484593868
1.7215714776005422e+18,-0.0006930584204383194,-0.0018244588281959295,0.009695538319647312
1.7215714776065423e+18,0.0016730808420106769,-0.0009022162994369864,0.01395309530198574
1.7215714776125425e+18,0.0007422390626743436,0.0021911412477493286,0.011554122902452946
1.7215714776185426e+18,0.0017156845424324274,0.0025070826523005962,0.009561453014612198
1.7215714776245427e+18,0.000710362393874675,0.000167029385920614,0.011997978202998638
1.7215714776305428e+18,-0.0009015924879349768,0.00038470246363431215,0.01341266930103302
1.721571477636543e+18,-0.0024659745395183563,-0.0018758487422019243,0.016182949766516685
1.721571477642543e+18,-0.0016477552708238363,-0.002548409625887871,0.009707890450954437
1.7215714776485432e+18,-0.00226329592987895,-0.0005131771322339773,0.014778194949030876
1.7215714776545434e+18,-0.0003883233293890953,-0.0009903558529913425,0.013224286958575249
1.7215714776605435e+18,-0.0002818385255523026,0.001881974283605814,0.012754867784678936
1.7215714776665436e+18,4.220678238198161e-05,0.001185449305921793,0.014052159152925014
1.7215714776665436e+18,4.220678238198161e-05,0.001185449305921793,0.014052159152925014
1.7215714776725437e+18,0.002761553507298231,0.0033134601544588804,0.012871374376118183
1.721571477678544e+18,0.003475653938949108,0.0006133568240329623,0.014873373322188854
1.721571477684544e+18,0.003940608352422714,0.004942442290484905,0.010684601031243801
1.721571477690544e+18,-0.0020142418798059225,-0.000685089617036283,0.013623075559735298
1.7215714776965443e+18,-0.0025286725722253323,-0.0010290069039911032,0.011092443019151688
1.7215714777025444e+18,-0.0015004388988018036,-0.0005899998941458762,0.017719604074954987
1.7215714777085445e+18,-0.004525485914200544,0.0017329823458567262,0.013768086209893227
1.7215714777145446e+18,-0.001458877930417657,0.002157816430553794,0.015390628948807716
1.7215714777205448e+18,0.00046786898747086525,-0.0012178346514701843,0.012348875403404236
1.721571477726545e+18,0.0010268993210047483,0.0005245379870757461,0.009650054387748241
1.721571477732545e+18,-0.0011954791843891144,-0.0020803262013942003,0.015966100618243217
1.7215714777385452e+18,0.0030810520984232426,-0.00021711899898946285,0.014021840877830982
1.7215714777445453e+18,0.0036227176897227764,0.002873810473829508,0.010696599259972572
1.7215714777505454e+18,0.0013755097752436996,0.0037761845160275698,0.01475299708545208
1.7215714777625457e+18,-0.001969593344256282,0.0032281032763421535,0.011222932487726212
1.7215714777685458e+18,7.285649189725518e-05,-0.0008457774529233575,0.011762354522943497
1.7215714777685458e+18,7.285649189725518e-05,-0.0008457774529233575,0.011762354522943497
1.721571477774546e+18,-0.005689014680683613,-0.001232176087796688,0.013517678715288639
1.721571477780546e+18,-0.0024135634303092957,-0.0018279121723026037,0.014356490224599838
1.7215714777865462e+18,0.0030631013214588165,0.001241851830855012,0.010766799561679363
1.7215714777925463e+18,-0.00062145123956725,-0.00018707942217588425,0.013289365917444229
1.7215714778015465e+18,0.002068790839985013,-0.0023893427569419146,0.012737523764371872
1.7215714778075466e+18,0.0028201367240399122,0.0016095536993816495,0.011844315566122532
1.7215714778135468e+18,-2.6966910809278488e-05,-0.00120776635594666,0.010262509807944298
1.721571477819547e+18,-0.001214362564496696,0.000856054131872952,0.009115800261497498
1.721571477825547e+18,0.004253021441400051,-0.0002742233918979764,0.010307461954653263
1.7215714778315471e+18,-0.0005919080576859415,0.0028396891430020332,0.013563290238380432
1.7215714778375473e+18,0.0004615334328263998,0.002453405410051346,0.013530494645237923
1.7215714778435474e+18,0.0014634174294769764,-5.394499748945236e-05,0.010836679488420486
1.7215714778495475e+18,-0.0017187166959047318,0.0033484839368611574,0.013338888064026833
1.7215714778555476e+18,0.0003141026245430112,-0.0041392892599105835,0.01298708189278841
1.7215714778615478e+18,0.0028400435112416744,0.003153408644720912,0.011874103918671608
1.721571477867548e+18,0.0031442386098206043,-0.00111097889021039,0.011771402321755886
1.721571477873548e+18,-0.0004903407534584403,-0.0004960732185281813,0.008953063748776913
1.7215714778795482e+18,0.0015979467425495386,0.0010454654693603516,0.011151888407766819
1.7215714778945485e+18,-0.0003644843236543238,0.0021957149729132652,0.007816431112587452
1.7215714779005486e+18,-0.00047725660260766745,0.0032490284647792578,0.0089850639924407
1.7215714779065487e+18,-0.0001985881244763732,-0.00013106351252645254,0.011577455326914787
1.7215714779095488e+18,-0.0004764455952681601,-0.0026828632690012455,0.01046872790902853
1.7215714779125489e+18,-0.002992193913087249,-0.0019412755500525236,0.010178916156291962
1.721571477915549e+18,-0.001790552050806582,0.0010931160068139434,0.010792825371026993
1.721571477924549e+18,0.0024968653451651335,0.0014537586830556393,0.010359812527894974
1.7215714779305492e+18,0.0015936845447868109,-0.0004988883156329393,0.007962753064930439
1.7215714779335493e+18,0.0014466913416981697,0.0031715366058051586,0.009687135927379131
1.7215714779395494e+18,0.0008801481453701854,0.0010045359376817942,0.011908927001059055
1.7215714779455496e+18,0.0007326542981900275,0.0010189323220402002,0.012483065947890282
1.7215714779515497e+18,-0.0013757601846009493,-0.0007058066548779607,0.0053352005779743195
1.7215714779575498e+18,-0.0013492375146597624,-0.0011225040070712566,0.008332185447216034
1.72157147796355e+18,-0.0016657391097396612,-0.00044750040979124606,0.01110863033682108
1.72157147796955e+18,-0.0005575355025939643,0.0007211807533167303,0.007946754805743694
1.7215714779755502e+18,-0.0012654650490731,0.001040868228301406,0.012249416671693325
1.7215714779785503e+18,-0.0011402888922020793,0.0022146333940327168,0.009285668842494488
1.7215714779845504e+18,-0.00028011371614411473,0.0047742524184286594,0.008874836377799511
1.7215714779875505e+18,0.0030751540325582027,0.001215736847370863,0.01042894460260868
1.7215714779935506e+18,0.0015224270755425096,0.00011461402755230665,0.010786602273583412
1.7215714779995507e+18,0.0012688585557043552,0.002777957823127508,0.00800402369350195
1.7215714780055508e+18,0.002429952612146735,-0.0036202226765453815,0.012546089477837086
1.721571478011551e+18,-0.0008877239306457341,0.0016276005189865828,0.011506827548146248
1.721571478017551e+18,-0.0028239618986845016,0.0017331585986539721,0.005570343695580959
1.7215714780235512e+18,-0.0018622432835400105,2.8959388146176934e-05,0.009992954321205616
1.7215714780295514e+18,0.00034874421544373035,0.002504843520000577,0.007329079322516918
1.7215714780355515e+18,-0.0010797545546665788,0.00010634960199240595,0.007951157167553902
1.7215714780415516e+18,-0.0036488668993115425,0.0009209550335071981,0.011083301156759262
1.7215714780475517e+18,-0.00028058525640517473,0.0032007666304707527,0.007716625463217497
1.721571478056552e+18,0.0020428700372576714,0.0006053047254681587,0.00887675303965807
1.721571478062552e+18,0.0023791135754436255,-0.0002720229094848037,0.007873673923313618
1.7215714780685522e+18,0.0003659131471067667,-0.0014113790821284056,0.007776554208248854
1.7215714780745523e+18,-0.0027968445792794228,0.0013772917445749044,0.0024103503674268723
1.7215714780805524e+18,0.0002966719039250165,-2.4562934413552284e-05,0.0049501024186611176
1.7215714780865526e+18,0.0003339666873216629,0.0001532090245746076,0.004361969418823719
1.7215714780925527e+18,-0.002266874071210623,-0.0008448419393971562,0.003336952067911625
1.7215714780985528e+18,-0.00029643275775015354,0.0008474128553643823,0.001689742784947157
1.721571478104553e+18,-0.00046395999379456043,0.002529943361878395,0.003924120217561722
1.721571478110553e+18,0.0007790477247908711,-0.0013697603717446327,0.0017849081195890903
1.7215714781165532e+18,0.0008859331137500703,-0.0007634541252627969,0.002201155526563525
1.7215714781225533e+18,0.0012951306998729706,0.0015751877799630165,0.0002323110238648951
1.7215714781285535e+18,-0.0005200396990403533,-5.519936894415878e-05,-0.0016838465817272663
1.7215714781315535e+18,0.0018847022438421845,-0.000602569489274174,-0.0028090770356357098
1.7215714781375537e+18,0.0002965394814964384,0.00038392626447603106,-0.0027039225678890944
1.7215714781435538e+18,0.002305110450834036,-0.0029228280764073133,-0.0034569583367556334
1.721571478149554e+18,3.762391861528158e-05,-0.0009549111127853394,-0.0059513188898563385
1.721571478152554e+18,0.0016140231164172292,0.00044278003042563796,-0.0023127596359699965
1.721571478158554e+18,-0.0005485772853717208,0.001601149793714285,-0.00714712031185627
1.7215714781615542e+18,-0.0019775494001805782,0.00015576847363263369,-0.006150519009679556
1.7215714781675543e+18,0.001105972332879901,0.003107931697741151,-0.010431922040879726
1.7215714781735544e+18,-0.0011285052169114351,0.002649009693413973,-0.010470676235854626
1.7215714781795546e+18,-0.0006799286347813904,0.0006579613545909524,-0.012732366099953651
1.7215714781855547e+18,-0.0017399173229932785,0.0028029840905219316,-0.013977470807731152
1.7215714781915548e+18,0.0014798210468143225,0.0027179396711289883,-0.01470277365297079
1.721571478197555e+18,0.0005957846296951175,-0.0008077520178630948,-0.016315093263983727
1.721571478203555e+18,0.0011002611136063933,-0.00291000516153872,-0.019010361284017563
1.7215714782125553e+18,0.003825975814834237,-0.000957611424382776,-0.020251207053661346
1.7215714782155553e+18,-0.0019944587256759405,-0.0013918379554525018,-0.020849671214818954
1.7215714782245555e+18,0.002243302296847105,-0.0012948818039149046,-0.02536146342754364
1.7215714782305556e+18,-0.0016466485103592277,-9.205949027091265e-05,-0.02436685375869274
1.7215714782365558e+18,-0.0014961687847971916,0.0016125767724588513,-0.027756469324231148
1.721571478242556e+18,-0.0007220968254841864,0.0022076533641666174,-0.02930319868028164
1.721571478248556e+18,0.00042428995948284864,-0.0013915258459746838,-0.031722649931907654
1.7215714782545562e+18,-0.0028062942437827587,-0.000690372777171433,-0.03258465230464935
1.7215714782605563e+18,-0.0010309995850548148,0.0002768247795756906,-0.03315926715731621
1.7215714782665564e+18,-0.0050643556751310825,-0.0019377968274056911,-0.036275457590818405
1.7215714782725565e+18,-0.0012712015304714441,-0.001532474416308105,-0.03501279279589653
1.7215714782785567e+18,-0.0010390414390712976,-0.005426853429526091,-0.039620522409677505
1.7215714782845568e+18,-0.0017998138209804893,-0.0006206980324350297,-0.040563326328992844
1.721571478290557e+18,0.0011750201229006052,-0.0010223989374935627,-0.0397469624876976
1.721571478296557e+18,0.0013292930088937283,2.8781883884221315e-05,-0.04209337383508682
1.7215714783025572e+18,0.0005279314937070012,-9.353586938232183e-05,-0.04264392703771591
1.7215714783055572e+18,-0.0011823531240224838,0.001808209577575326,-0.04038061574101448
1.7215714783115574e+18,0.0024496340192854404,0.001369793084450066,-0.04439181834459305
1.7215714783175575e+18,0.0016399839660152793,0.004883265122771263,-0.0458257682621479
1.7215714783235576e+18,-0.0037421509623527527,-0.0006998177850618958,-0.04649725556373596
1.7215714783295578e+18,-0.0020466665737330914,0.002059107180684805,-0.046019162982702255
1.721571478335558e+18,-0.001635122112929821,-0.0003741082618944347,-0.0479222908616066
1.721571478341558e+18,3.405206371098757e-05,-0.0006674958858639002,-0.05112514644861221
1.7215714783475581e+18,0.0006805859156884253,-0.006322764791548252,-0.04833149537444115
1.7215714783535583e+18,0.0015373837668448687,-0.00044860667549073696,-0.050838544964790344
1.7215714783595584e+18,0.006406988948583603,-0.002619880950078368,-0.05104142054915428
1.7215714783655585e+18,0.00438725994899869,-0.0034707849845290184,-0.05309136211872101
1.7215714783715587e+18,0.005510422866791487,0.0012644872767850757,-0.05098864436149597
1.7215714783775588e+18,0.002688426524400711,0.0017334332223981619,-0.05267786234617233
1.721571478383559e+18,0.001713504083454609,0.0024553025141358376,-0.055575720965862274
1.721571478389559e+18,-0.0022267475724220276,0.0009047589264810085,-0.05647847056388855
1.7215714783955592e+18,-0.003524121129885316,0.00027005886659026146,-0.05278494954109192
1.7215714783985592e+18,-0.002574013778939843,0.004372847732156515,-0.053657058626413345
1.7215714784045594e+18,-0.002435221103951335,0.003535130526870489,-0.05504785105586052
1.7215714784105595e+18,-0.002705985913053155,-0.0015704103279858828,-0.055628128349781036
1.7215714784165596e+18,-7.682968862354755e-05,0.002247635740786791,-0.05567276477813721
1.7215714784225597e+18,-0.001613590749911964,-0.0009401917923241854,-0.053887251764535904
1.72157147842856e+18,0.0014484800631180406,-0.004449847619980574,-0.05361001938581467
1.72157147843156e+18,0.0024177259765565395,0.0007392517291009426,-0.05391416698694229
1.72157147843756e+18,0.003104583825916052,-0.005320604424923658,-0.05891827493906021
1.7215714784435602e+18,0.0022403530310839415,-0.00013583007967099547,-0.057237088680267334
1.7215714784495603e+18,0.00013000145554542542,0.00045356410555541515,-0.05670193210244179
1.7215714784555604e+18,-0.0005015507340431213,0.0006684160325676203,-0.055032942444086075
1.7215714784615606e+18,-0.0027948764618486166,0.0009434686508029699,-0.05813596397638321
1.7215714784675607e+18,-0.004184974357485771,0.003984020557254553,-0.059081632643938065
1.7215714784735608e+18,-0.005601828917860985,-0.0008898323867470026,-0.05745353177189827
1.721571478482561e+18,-0.0012546241050586104,0.00045771209988743067,-0.054055068641901016
1.7215714784885612e+18,0.0007350061787292361,-0.00041260127909481525,-0.05807052552700043
1.7215714784945613e+18,-0.0004233993822708726,0.001893425825983286,-0.05697539448738098
1.7215714785005614e+18,0.0007708290359005332,-0.001621727366000414,-0.05725299194455147
1.7215714785065615e+18,0.00418696878477931,-0.0017663610633462667,-0.05678623914718628
1.7215714785125617e+18,0.005794054828584194,0.0009061613236553967,-0.05763280764222145
1.7215714785155617e+18,0.0018693965394049883,0.000541151559446007,-0.056986913084983826
1.7215714785215619e+18,0.002002305816859007,-0.0017947554588317871,-0.056620266288518906
1.721571478530562e+18,-0.004040967673063278,0.002700242679566145,-0.054820187389850616
1.721571478533562e+18,-0.002806628355756402,0.0031168763525784016,-0.05326466262340546
1.7215714785395622e+18,-0.004629285540431738,0.0017195910913869739,-0.05337323248386383
1.7215714785455624e+18,-0.006364477798342705,0.002199611160904169,-0.0555698499083519
1.7215714785515625e+18,-0.005407547578215599,0.0033562753815203905,-0.052649762481451035
1.7215714785575626e+18,-0.0015656278701499104,0.0008875863277353346,-0.05520283058285713
1.7215714785605627e+18,0.0014370398130267859,0.0007470592390745878,-0.05350404977798462
1.7215714785665628e+18,0.0008074912475422025,-0.001377725973725319,-0.05271703004837036
1.721571478569563e+18,0.00187744724098593,-0.0019146529957652092,-0.055989570915699005
1.721571478575563e+18,0.005502781365066767,0.0011373524321243167,-0.055566493421792984
1.7215714785815631e+18,0.002990488428622484,0.0004396431613713503,-0.05244439095258713
1.7215714785875633e+18,0.0036362498067319393,-0.0003286339924670756,-0.05246535316109657
1.7215714785935634e+18,0.0023268277291208506,0.0013509356649592519,-0.05340179428458214
1.7215714785995635e+18,-0.0010372765827924013,0.0016683191061019897,-0.04915963113307953
1.7215714786055636e+18,-0.0027050753124058247,0.001980849541723728,-0.05314216390252113
1.7215714786115638e+18,-0.0036233672872185707,0.0024268273264169693,-0.05146317556500435
1.721571478617564e+18,-0.003731430508196354,-0.0004966416163370013,-0.052668049931526184
1.721571478623564e+18,-0.004960179328918457,-0.00030779230291955173,-0.05442676693201065
1.7215714786295642e+18,-0.0017940516117960215,-0.004288706928491592,-0.04843001440167427
1.7215714786355643e+18,-0.0003946737851947546,0.0005257690791040659,-0.04919306933879852
1.7215714786415644e+18,0.00485566258430481,0.0003022899036295712,-0.04915504902601242
1.7215714786475645e+18,0.001454908400774002,0.0006300816894508898,-0.04888923093676567
1.7215714786535647e+18,0.004927121102809906,1.0111252777278423e-06,-0.04656039923429489
1.7215714786595648e+18,0.004020594991743565,0.0005244285566732287,-0.04989299550652504
1.721571478665565e+18,0.0029592798091471195,0.002475438406690955,-0.046140071004629135
1.7215714786775652e+18,-0.0014628637582063675,-0.0010293573141098022,-0.042632438242435455
1.7215714786835653e+18,-0.002656790195032954,8.870189776644111e-05,-0.04538436979055405
1.7215714786865654e+18,-0.0010626051807776093,-0.0014978244435042143,-0.042577456682920456
1.7215714786925655e+18,-0.006243288982659578,-0.0024927721824496984,-0.04347960650920868
1.7215714786985656e+18,-0.0021215882152318954,0.001623877207748592,-0.04282689467072487
1.7215714787045658e+18,-0.003622664837166667,-0.0010910436976701021,-0.04239577800035477
1.721571478710566e+18,-0.001213778043165803,-0.000553883786778897,-0.038537949323654175
1.721571478716566e+18,0.001955789979547262,-0.000550999422557652,-0.03875480592250824
1.7215714787225661e+18,0.0029393848963081837,-0.0006635112804360688,-0.038332510739564896
1.7215714787285663e+18,0.004208764061331749,-0.0026866598054766655,-0.03969131037592888
1.7215714787345664e+18,0.005737438797950745,0.003757064463570714,-0.039139844477176666
1.7215714787405665e+18,0.0036576869897544384,-0.0012782369740307331,-0.038579098880290985
1.7215714787555668e+18,-0.005210463888943195,0.0006699331570416689,-0.03621705621480942
1.721571478761567e+18,-0.0029910937882959843,0.0020528361201286316,-0.035176876932382584
1.721571478767567e+18,-0.004330079536885023,-0.0013085419777780771,-0.03306771442294121
1.7215714787735672e+18,-0.0024034958332777023,-0.000471833860501647,-0.03135434910655022
1.7215714787795674e+18,-0.002134687267243862,-0.0017477577785030007,-0.031601112335920334
1.7215714787855675e+18,-0.0013357966672629118,-0.002708791522309184,-0.030616121366620064
1.7215714787915676e+18,0.0023595700040459633,-0.0013582943938672543,-0.02994576469063759
1.7215714787975677e+18,0.00041621620766818523,-0.0009107942460104823,-0.028530629351735115
1.7215714788035679e+18,0.00027287472039461136,-0.00017864166875369847,-0.028338201344013214
1.721571478809568e+18,0.0017867152346298099,0.0032399683259427547,-0.027114082127809525
1.7215714788155681e+18,-0.0032410193234682083,0.0003163630608469248,-0.028261082246899605
1.7215714788215683e+18,-0.0001124400005210191,0.0018759409431368113,-0.026383575052022934
1.7215714788275684e+18,0.0009836778044700623,0.0029080105014145374,-0.023097600787878036
1.7215714788305684e+18,0.0017994914669543505,-0.00011042668484151363,-0.027191834524273872
1.7215714788365686e+18,-0.0007422093767672777,-0.0007864150102250278,-0.021100888028740883
1.7215714788425687e+18,0.0003783979918807745,-0.0010988990543410182,-0.02533174306154251
1.7215714788485688e+18,0.0005578981945291162,-0.0003545027575455606,-0.02210988476872444
1.721571478854569e+18,-0.0001273532398045063,-0.005105404183268547,-0.02191668562591076
1.721571478860569e+18,-0.0011342663783580065,0.0016679095569998026,-0.020642738789319992
1.7215714788665692e+18,-0.00031820847652852535,-6.806317833252251e-05,-0.022587738931179047
1.7215714788725693e+18,-0.00011158827692270279,0.002961634425446391,-0.016795329749584198
1.7215714788785695e+18,-0.004315654747188091,0.0005831733578816056,-0.02078329212963581
1.7215714788845696e+18,-0.001180438557639718,0.002576841739937663,-0.019693229347467422
1.7215714788905697e+18,0.0011984343873336911,-0.002044837921857834,-0.019728321582078934
1.7215714788965699e+18,-0.00022255847579799592,0.00167965074069798,-0.017789598554372787
1.72157147890257e+18,0.0009996779263019562,-0.0018707027193158865,-0.015433425083756447
1.72157147890857e+18,-6.358092650771141e-05,-0.0027084280736744404,-0.015126770362257957
1.7215714789145702e+18,0.0006109797395765781,-0.0007239730912260711,-0.01628389023244381
1.7215714789175703e+18,-0.0010447674430906773,-0.0028989389538764954,-0.015494436956942081
1.7215714789235704e+18,-0.0005113903898745775,-0.001250235945917666,-0.013309845700860023
1.7215714789295706e+18,-0.000611436553299427,0.00028803484747186303,-0.01596420630812645
1.7215714789355707e+18,-0.0026008794084191322,0.002817728789523244,-0.010431532748043537
1.721571478944571e+18,-0.0003129326505586505,0.00639378372579813,-0.013020562939345837
1.721571478950571e+18,-0.004990513436496258,0.004263877868652344,-0.014684285037219524
1.7215714789565711e+18,0.0009309015003964305,0.0015161421615630388,-0.01201116293668747
1.7215714789685714e+18,0.002047743881121278,0.000225502357352525,-0.011113853193819523
1.7215714789775716e+18,0.0013123955577611923,-0.000782456889282912,-0.009957837872207165
1.7215714789805716e+18,0.0006932358955964446,-0.002758665941655636,-0.011045131832361221
1.7215714789835717e+18,0.0005322211654856801,-0.0018421385902911425,-0.008607745170593262
1.7215714789865718e+18,0.0009219529456458986,-0.0019843641202896833,-0.013228786177933216
1.721571478992572e+18,-0.002002542372792959,-0.0027464511804282665,-0.009219229221343994
1.721571478998572e+18,-0.002438393421471119,-0.0014015865745022893,-0.013824568130075932
1.7215714790045722e+18,-0.0010575568303465843,-0.0006402170401997864,-0.010926324874162674
1.7215714790195725e+18,-0.0008168942295014858,0.001103339483961463,-0.010091546922922134
1.7215714790315727e+18,0.0007955161272548139,0.002842700807377696,-0.008602892979979515
1.7215714790375729e+18,0.00026870553847402334,-0.0004904239904135466,-0.011097955517470837
1.721571479043573e+18,-0.0005456071812659502,0.0028351922519505024,-0.009657966904342175
1.721571479046573e+18,-0.0026428899727761745,-0.0005207655485719442,-0.0088108591735363
1.7215714790525732e+18,0.0011657819850370288,0.001632837811484933,-0.011985762044787407
1.7215714790585733e+18,-0.0015324559062719345,-0.002713998779654503,-0.012018859386444092
1.7215714790645734e+18,0.0027940955478698015,-0.001690609147772193,-0.011395363137125969
1.7215714790705736e+18,-0.0013872971758246422,0.0002039958635577932,-0.01164389867335558
1.7215714790765737e+18,0.000492171267978847,0.0011558581609278917,-0.012339726090431213
1.7215714790825738e+18,-0.000187413563253358,0.0003951691323891282,-0.013489474542438984
1.721571479088574e+18,-0.0004915120080113411,0.00339872925542295,-0.011260250583291054
1.721571479094574e+18,0.00035693164682015777,0.004895046353340149,-0.012796268798410892
1.7215714791005742e+18,-0.00016506332030985504,0.00030155887361615896,-0.011393051594495773
1.7215714791065743e+18,-0.0003583641955628991,0.0021057548001408577,-0.012982513755559921
1.7215714791185746e+18,-0.0017469975864514709,0.00013147643767297268,-0.014135019853711128
1.7215714791245747e+18,-0.0007771616219542921,-0.001960338559001684,-0.012299754656851292
1.7215714791305748e+18,-0.00377893028780818,6.281957030296326e-05,-0.01320089865475893
1.721571479136575e+18,0.0016318797133862972,-0.0006615264574065804,-0.013617509976029396
1.721571479142575e+18,-0.0009685333934612572,-0.000607467838563025,-0.017217230051755905
1.7215714791485752e+18,-0.0003765298752114177,-0.0032183420844376087,-0.01420164480805397
1.7215714791545754e+18,0.0005764513625763357,-0.00047255813842639327,-0.015540394932031631
1.7215714791575754e+18,-0.0011856735218316317,0.0006535048596560955,-0.016961541026830673
1.7215714791635756e+18,-0.00023031036835163832,0.00016417668666690588,-0.01945088990032673
1.7215714791695757e+18,-0.001165323774330318,-0.0007159039960242808,-0.016058122739195824
1.7215714791755758e+18,-0.00041501596570014954,0.003664863295853138,-0.018081028014421463
1.721571479181576e+18,-0.002237103646621108,0.00022173987235873938,-0.01748836413025856
1.721571479187576e+18,-0.003020203672349453,-0.0016343554016202688,-0.018814045935869217
1.721571479190576e+18,-0.0015262933447957039,0.001555159455165267,-0.019656265154480934
1.7215714791965763e+18,-0.0024248966947197914,0.00031176471384242177,-0.020795833319425583
1.7215714792025764e+18,-0.0002833650796674192,-0.00027542468160390854,-0.021407678723335266
1.7215714792085765e+18,0.0013896944001317024,-0.0014921627007424831,-0.018393276259303093
1.7215714792145766e+18,0.0002277202147524804,-0.000570467789657414,-0.01642707735300064
1.7215714792205768e+18,0.0026595438830554485,-0.0008300102199427783,-0.020956402644515038
1.721571479226577e+18,0.00192084233276546,-0.0007968010613694787,-0.019506577402353287
1.721571479232577e+18,0.0005495429504662752,0.0024320813827216625,-0.015959499403834343
1.7215714792385772e+18,0.001242027967236936,-0.000266767485300079,-0.019300077110528946
1.7215714792445773e+18,0.0004256682004779577,0.0036375524941831827,-0.021094786003232002
1.7215714792505774e+18,0.0005708473036065698,-0.002344632288441062,-0.01976158283650875
1.7215714792565775e+18,-0.001621659961529076,0.0017807469703257084,-0.023741044104099274
1.7215714792625777e+18,-0.0028152859304100275,-0.00017356369062326849,-0.02365594357252121
1.7215714792685778e+18,-0.003335254732519388,-0.0013283146545290947,-0.021423950791358948
1.721571479274578e+18,-0.0005756222526542842,0.000930827809497714,-0.01952173188328743
1.721571479280578e+18,0.0013630909379571676,-0.00214857654646039,-0.02461056597530842
1.7215714792865782e+18,0.0019715572707355022,-0.0005108274635858834,-0.02433452382683754
1.7215714792895782e+18,0.0026623765006661415,0.0021411196794360876,-0.02244401164352894
1.7215714792955784e+18,-0.00012340350076556206,-0.0011159798596054316,-0.02330123633146286
1.7215714793015785e+18,-0.0014199079014360905,-0.00012195308227092028,-0.021869806572794914
1.7215714793075786e+18,0.0010762863093987107,-0.0003772297641262412,-0.022460423409938812
1.7215714793135788e+18,-0.0002349142450839281,0.002357000485062599,-0.019718438386917114
1.721571479319579e+18,-0.0031268084421753883,0.0013235216028988361,-0.021944532170891762
1.721571479325579e+18,-0.003007641527801752,0.0019494611769914627,-0.02253423072397709
1.7215714793315791e+18,5.968613550066948e-06,0.0002514994703233242,-0.02164093405008316
1.7215714793375793e+18,-0.0027779117226600647,-0.0006603412330150604,-0.020811108872294426
1.7215714793435794e+18,-0.000461786228697747,0.0028724567964673042,-0.023981716483831406
1.7215714793495795e+18,-0.0029609398916363716,0.0015814075013622642,-0.024894284084439278
1.7215714793555796e+18,0.0023448923602700233,-0.001424326910637319,-0.021527212113142014
1.7215714793615798e+18,0.0006156011950224638,-0.0013469118857756257,-0.02030009962618351
1.72157147936758e+18,0.004964920692145824,0.003257935866713524,-0.02157234027981758
1.72157147937358e+18,0.003907463513314724,-0.0017840906511992216,-0.024431735277175903
1.7215714793795802e+18,0.0037060603499412537,-0.0012937495484948158,-0.01994135044515133
1.7215714793855803e+18,-0.0017229929799214005,-6.072737232898362e-05,-0.0204998180270195
1.7215714793915804e+18,-0.0014003217220306396,-0.00298480037599802,-0.02132517658174038
1.7215714793975805e+18,-0.00327126937918365,-0.00021825762814842165,-0.017449229955673218
1.7215714794035807e+18,-0.0018843187717720866,0.0015867709880694747,-0.021096834912896156
1.7215714794095808e+18,-0.003756017191335559,0.0004490684950724244,-0.01996053010225296
1.721571479415581e+18,0.00015920912846922874,0.002016885904595256,-0.02190428413450718
1.721571479421581e+18,-0.0013383651385083795,0.0011765159433707595,-0.017497291788458824
1.7215714794275812e+18,0.0007034766604192555,0.004075398202985525,-0.017305299639701843
1.7215714794335813e+18,0.003792024916037917,0.002432365668937564,-0.018526874482631683
1.7215714794395814e+18,0.00233907881192863,-0.002763130469247699,-0.018831824883818626
1.7215714794515817e+18,1.2154225260019302e-05,0.00011346128303557634,-0.018564550206065178
1.7215714794575818e+18,0.002323969267308712,-0.00025583666865713894,-0.01570647768676281
1.721571479463582e+18,0.004572854842990637,-0.002427757950499654,-0.017250658944249153
1.721571479469582e+18,0.019663972780108452,-6.873125676065683e-05,-0.019185276702046394
1.7215714794755822e+18,0.03856156766414642,0.0028589540161192417,-0.014355376362800598
1.7215714794815823e+18,0.058459341526031494,0.0005525475135073066,-0.014898136258125305
1.7215714794875825e+18,0.08196515589952469,0.004823746625334024,-0.0167793408036232
1.7215714794935826e+18,0.10202356427907944,0.013066884130239487,-0.012264400720596313
1.7215714794995827e+18,0.11883102357387543,0.0191620085388422,-0.014394900761544704
1.7215714795055828e+18,0.12591125071048737,0.026665586978197098,-0.014697827398777008
1.721571479511583e+18,0.13470254838466644,0.03586675599217415,-0.014868322759866714
1.721571479517583e+18,0.14404404163360596,0.04323109984397888,-0.013242419809103012
1.7215714795235832e+18,0.15227290987968445,0.04488929361104965,-0.015667352825403214
1.7215714795295834e+18,0.16190744936466217,0.0484229177236557,-0.012167309410870075
1.7215714795355835e+18,0.17698223888874054,0.04372334107756615,-0.014538440853357315
1.7215714795475837e+18,0.2155006378889084,0.047248952090740204,-0.011595708318054676
1.7215714795535839e+18,0.22771935164928436,0.05412229150533676,-0.01055879332125187
1.721571479559584e+18,0.24101711809635162,0.06741118431091309,-0.012521226890385151
1.7215714795655841e+18,0.24196529388427734,0.08356931805610657,-0.011415473185479641
1.7215714795715843e+18,0.242023766040802,0.09624689072370529,-0.012942098081111908
1.7215714795775844e+18,0.2440742403268814,0.10874732583761215,-0.01132427528500557
1.7215714795835845e+18,0.2432287633419037,0.11495477706193924,-0.012525501661002636
1.7215714795895846e+18,0.24512888491153717,0.11789733171463013,-0.010551025159657001
1.7215714795955848e+18,0.24803316593170166,0.1155771017074585,-0.010480952449142933
1.721571479601585e+18,0.24695998430252075,0.11081650108098984,-0.009679091162979603
1.721571479607585e+18,0.24638447165489197,0.10774652659893036,-0.011898957192897797
1.7215714796135852e+18,0.250047892332077,0.10356923192739487,-0.011293604038655758
1.7215714796195853e+18,0.25534212589263916,0.11425315588712692,-0.01234389003366232
1.7215714796255854e+18,0.2597833275794983,0.12377340346574783,-0.010078483261168003
1.7215714796345856e+18,0.2669769823551178,0.14193876087665558,-0.0087497653439641
1.7215714796405857e+18,0.2792454659938812,0.1592099368572235,-0.009102091193199158
1.7215714796465859e+18,0.28518006205558777,0.16255219280719757,-0.009019088931381702
1.721571479652586e+18,0.29597607254981995,0.16872824728488922,-0.008605867624282837
1.721571479658586e+18,0.30095574259757996,0.16883763670921326,-0.011618070304393768
1.7215714796645862e+18,0.29631438851356506,0.16519160568714142,-0.005714042112231255
1.7215714796705864e+18,0.2921515703201294,0.1590995043516159,-0.010911850258708
1.7215714796765865e+18,0.27606165409088135,0.1522735208272934,-0.009431607089936733
1.7215714796825866e+18,0.26725971698760986,0.1501026600599289,-0.008020885288715363
1.7215714796885868e+18,0.2508373558521271,0.14422880113124847,-0.008565885946154594
1.721571479694587e+18,0.238839790225029,0.1432284265756607,-0.010769435204565525
1.721571479700587e+18,0.2337639480829239,0.14707300066947937,-0.006905749440193176
1.7215714797065871e+18,0.23259907960891724,0.1459740400314331,-0.009971714578568935
1.7215714797095872e+18,0.23198959231376648,0.1453300267457962,-0.010116520337760448
1.7215714797155873e+18,0.2309388369321823,0.14841122925281525,-0.005882942117750645
1.7215714797215875e+18,0.2315068542957306,0.14636200666427612,-0.008940452709794044
1.7215714797275876e+18,0.23082824051380157,0.142511248588562,-0.007537398487329483
1.7215714797335877e+18,0.22249284386634827,0.13675425946712494,-0.009350555948913097
1.7215714797395878e+18,0.2096995711326599,0.13220128417015076,-0.005660658702254295
1.721571479745588e+18,0.20128095149993896,0.12537583708763123,-0.008244410157203674
1.721571479751588e+18,0.17786560952663422,0.11732462048530579,-0.005647892132401466
1.7215714797575882e+18,0.16722315549850464,0.10968642681837082,-0.010355761274695396
1.7215714797635884e+18,0.15164780616760254,0.10809782892465591,-0.007246095687150955
1.7215714797695885e+18,0.14680232107639313,0.1059921458363533,-0.0068946946412324905
1.7215714797755886e+18,0.14047712087631226,0.10555916279554367,-0.006834003143012524
1.7215714797815887e+18,0.13802523910999298,0.1037561297416687,-0.008205459453165531
1.7215714797875889e+18,0.13509012758731842,0.10466812551021576,-0.005499999970197678
1.721571479790589e+18,0.13701532781124115,0.10331272333860397,-0.0036499619018286467
1.721571479796589e+18,0.13092349469661713,0.10068241506814957,-0.0042908089235424995
1.7215714798025892e+18,0.12321450561285019,0.09521527588367462,-0.008622107096016407
1.7215714798085893e+18,0.11661526560783386,0.09531770646572113,-0.00343490531668067
1.7215714798145894e+18,0.1034712865948677,0.08992025256156921,-0.003858836367726326
1.7215714798145894e+18,0.1034712865948677,0.08992025256156921,-0.003858836367726326
1.7215714798205896e+18,0.09375873953104019,0.08464210480451584,-0.005153421312570572
1.7215714798265897e+18,0.08267458528280258,0.07796686142683029,-0.006251303479075432
1.7215714798325898e+18,0.07512691617012024,0.07423298805952072,-0.00567245576530695
1.72157147984459e+18,0.06148773059248924,0.06483194231987,-0.001527765765786171
1.7215714798505902e+18,0.061675067991018295,0.06472748517990112,-0.0057022664695978165
1.7215714798565903e+18,0.055556461215019226,0.06259696930646896,-0.0006737406365573406
1.7215714798625905e+18,0.056178294122219086,0.058088380843400955,-0.004601724445819855
1.7215714798685906e+18,0.055776093155145645,0.05777936801314354,-0.002405226696282625
1.7215714798745907e+18,0.050268616527318954,0.054583340883255005,-0.0036529921926558018
1.7215714798805908e+18,0.048603594303131104,0.0523432157933712,-0.0030882610008120537
1.721571479886591e+18,0.042844004929065704,0.04702889174222946,-0.004520691465586424
1.721571479889591e+18,0.03567180037498474,0.04582308232784271,-0.001518740551546216
1.7215714798955912e+18,0.032544173300266266,0.042634911835193634,-0.00022669672034680843
1.7215714799015913e+18,0.026858318597078323,0.0373087041079998,-0.0009180614724755287
1.7215714799075914e+18,0.0243118517100811,0.035453859716653824,7.725809700787067e-05
1.7215714799135916e+18,0.023524049669504166,0.03382297605276108,-0.00025115697644650936
1.7215714799195917e+18,0.021326832473278046,0.031692009419202805,-0.0006300020613707602
1.7215714799225917e+18,0.019513053819537163,0.029885184019804,-0.0037333008367568254
1.721571479928592e+18,0.012159083038568497,0.02626095898449421,-0.0010730738285928965
1.721571479934592e+18,0.005526564083993435,0.025181736797094345,-0.0008192373206838965
1.721571479940592e+18,-0.005371664185076952,0.023774590343236923,0.0024261896032840014
1.7215714799465923e+18,-0.019000904634594917,0.024210749194025993,-0.0011151093058288097
1.7215714799525924e+18,-0.0385788157582283,0.021696237847208977,0.0009539836901240051
1.7215714799585925e+18,-0.058387577533721924,0.015687095001339912,-0.0008236572612076998
1.7215714799645926e+18,-0.07705984264612198,0.016207994893193245,0.001825808547437191
1.7215714799705928e+18,-0.0988256111741066,0.006050111725926399,-0.000557000981643796
1.721571479976593e+18,-0.12202561646699905,-0.007375519722700119,0.004394855350255966
1.721571479982593e+18,-0.14426922798156738,-0.016698071733117104,0.003039322793483734
1.7215714799885932e+18,-0.17040322721004486,-0.03757747262716293,0.0035412884317338467
1.7215714799945933e+18,-0.20256492495536804,-0.05938803404569626,0.004666829481720924
1.7215714800005934e+18,-0.23160643875598907,-0.08205615729093552,0.0036074116360396147
1.7215714800065935e+18,-0.263986736536026,-0.1015949621796608,0.006803244352340698
1.7215714800125937e+18,-0.2944115102291107,-0.1136174276471138,0.0038575311191380024
1.7215714800185938e+18,-0.32459917664527893,-0.12249834835529327,0.004087104927748442
1.721571480024594e+18,-0.3453948497772217,-0.12731537222862244,0.0037245990242809057
1.721571480027594e+18,-0.3517827093601227,-0.12476719915866852,0.006900664418935776
1.721571480033594e+18,-0.36538195610046387,-0.12728682160377502,0.00878572091460228
1.7215714800395942e+18,-0.3718121647834778,-0.13488531112670898,0.005122707691043615
1.7215714800455944e+18,-0.37377166748046875,-0.14333011209964752,0.004500691778957844
1.7215714800605947e+18,-0.3723362386226654,-0.18504734337329865,0.007623798679560423
1.7215714800665948e+18,-0.3691543638706207,-0.20332783460617065,0.00785105861723423
1.721571480072595e+18,-0.3633686900138855,-0.2194945067167282,0.008694072254002094
1.721571480078595e+18,-0.3617419898509979,-0.2257823497056961,0.008978161960840225
1.7215714800845952e+18,-0.359216570854187,-0.23149405419826508,0.004199518356472254
1.7215714800905953e+18,-0.35439929366111755,-0.2242901623249054,0.009219346567988396
1.7215714800965955e+18,-0.34782665967941284,-0.22098854184150696,0.010151238180696964
1.7215714801055956e+18,-0.32772645354270935,-0.20675483345985413,0.00886732991784811
1.7215714801085957e+18,-0.32514265179634094,-0.20302815735340118,0.01088691409677267
1.721571480117596e+18,-0.3039669394493103,-0.19648803770542145,0.009176167659461498
1.721571480123596e+18,-0.2901878356933594,-0.19349759817123413,0.011742666363716125
1.721571480126596e+18,-0.2802859842777252,-0.19332484900951385,0.011216205544769764
1.7215714801415964e+18,-0.2513880431652069,-0.190943643450737,0.01626012846827507
1.7215714801475965e+18,-0.24395032227039337,-0.18879631161689758,0.01307324692606926
1.7215714801535967e+18,-0.23398500680923462,-0.18233776092529297,0.013256048783659935
1.7215714801565967e+18,-0.2338220328092575,-0.17527227103710175,0.012900139205157757
1.7215714801625969e+18,-0.2204011082649231,-0.17207226157188416,0.012659939005970955
1.721571480168597e+18,-0.21215829253196716,-0.15870171785354614,0.0142217967659235
1.721571480174597e+18,-0.2001156359910965,-0.1490936130285263,0.012852869927883148
1.7215714801805972e+18,-0.1866137534379959,-0.14431796967983246,0.020413726568222046
1.7215714801865974e+18,-0.1702744960784912,-0.13470005989074707,0.015566726215183735
1.7215714801895974e+18,-0.1661118119955063,-0.13082361221313477,0.013438981026411057
1.7215714802045978e+18,-0.13919152319431305,-0.11669363081455231,0.01954764500260353
1.721571480210598e+18,-0.12895214557647705,-0.113245889544487,0.013517159968614578
1.721571480216598e+18,-0.12414027005434036,-0.11103824526071548,0.01699858531355858
1.7215714802285983e+18,-0.11199808865785599,-0.09907986223697662,0.017050726339221
1.7215714802345984e+18,-0.10279160737991333,-0.09119851142168045,0.01771256886422634
1.7215714802405985e+18,-0.09424396604299545,-0.0871567353606224,0.017008107155561447
1.7215714802465987e+18,-0.08593840152025223,-0.07728167623281479,0.021116066724061966
1.7215714802525988e+18,-0.07705920189619064,-0.07257778942584991,0.016983194276690483
1.721571480258599e+18,-0.07017429172992706,-0.06765204668045044,0.019623899832367897
1.721571480264599e+18,-0.06637652963399887,-0.059847477823495865,0.022212019190192223
1.7215714802705992e+18,-0.06052224338054657,-0.0580725371837616,0.02073335461318493
1.7215714802765993e+18,-0.05673760548233986,-0.05115842819213867,0.021335873752832413
1.7215714802825994e+18,-0.054084375500679016,-0.05425642058253288,0.021788325160741806
1.7215714802885996e+18,-0.051159996539354324,-0.0642315000295639,0.018856139853596687
1.7215714802945997e+18,-0.04490057751536369,-0.07041363418102264,0.019282419234514236
1.7215714803005998e+18,-0.044507917016744614,-0.08281615376472473,0.02224104292690754
1.7215714803066e+18,-0.035854704678058624,-0.11060845106840134,0.02188480645418167
1.7215714803126e+18,-0.02720746397972107,-0.14439046382904053,0.02315692789852619
1.7215714803186002e+18,-0.027472764253616333,-0.17456015944480896,0.02207029052078724
1.7215714803246003e+18,-0.023661300539970398,-0.20715929567813873,0.021508023142814636
1.7215714803306004e+18,-0.017914950847625732,-0.23682716488838196,0.02569969743490219
1.7215714803336005e+18,-0.01782604679465294,-0.2501569390296936,0.022865209728479385
1.7215714803396006e+18,-0.0198409091681242,-0.26916494965553284,0.02664295583963394
1.7215714803456008e+18,-0.014566753059625626,-0.2818717360496521,0.023699527606368065
1.721571480351601e+18,-0.013989079743623734,-0.29408276081085205,0.024612892419099808
1.7215714803666012e+18,-0.013481915928423405,-0.3139019012451172,0.02432755008339882
1.7215714803726013e+18,-0.008506890386343002,-0.3258240818977356,0.026162415742874146
1.7215714803816015e+18,-0.007632766384631395,-0.34790748357772827,0.023664768785238266
1.7215714803876017e+18,-0.0057359603233635426,-0.3687540888786316,0.025828160345554352
1.7215714803936018e+18,-0.006230184808373451,-0.39472779631614685,0.0275339987128973
1.721571480399602e+18,-0.0014263002667576075,-0.42364850640296936,0.02398628555238247
1.721571480405602e+18,0.002579011023044586,-0.44907069206237793,0.028314923867583275
1.7215714804116022e+18,0.002569415606558323,-0.4619520604610443,0.025324977934360504
1.7215714804176023e+18,0.0011564200976863503,-0.4657239019870758,0.027696622535586357
1.7215714804326026e+18,0.0009412493091076612,-0.4512961804866791,0.030281148850917816
1.7215714804386028e+18,-0.0010826864745467901,-0.43392160534858704,0.029047463089227676
1.721571480444603e+18,-0.00024133786791935563,-0.42015722393989563,0.030835207551717758
1.721571480450603e+18,-0.0024207087699323893,-0.41165891289711,0.027805589139461517
1.7215714804566031e+18,-0.0006771361222490668,-0.4111519753932953,0.028980057686567307
1.7215714804626033e+18,-0.002490330021828413,-0.4126617908477783,0.02815796062350273
1.7215714804686034e+18,-5.8441306464374065e-05,-0.4181009829044342,0.0314369834959507
1.7215714804776036e+18,0.004537250846624374,-0.4201493263244629,0.028971608728170395
1.7215714804836037e+18,0.005128246266394854,-0.4181715250015259,0.032013606280088425
1.7215714804896038e+18,0.0050094760954380035,-0.4090658128261566,0.028853481635451317
1.721571480495604e+18,0.00410779844969511,-0.3949142396450043,0.030924063175916672
1.721571480501604e+18,0.0009760649409145117,-0.37513208389282227,0.028754238039255142
1.7215714805076042e+18,-0.0008090839255601168,-0.3552253246307373,0.029694939032197
1.7215714805166044e+18,-0.0005840590456500649,-0.3296973705291748,0.031416431069374084
1.7215714805226045e+18,-0.0007931077852845192,-0.3120865821838379,0.029206063598394394
1.7215714805286047e+18,-0.001499429577961564,-0.2991392910480499,0.0324869379401207
1.721571480540605e+18,0.0022818695288151503,-0.2776334881782532,0.0306738018989563
1.721571480546605e+18,0.0021152053959667683,-0.2695929706096649,0.03356237709522247
1.7215714805526052e+18,0.008562831208109856,-0.25660648941993713,0.028999267145991325
1.7215714805586053e+18,0.003157735336571932,-0.2346663773059845,0.031110338866710663
1.7215714805676055e+18,-0.0014300073962658644,-0.1935063749551773,0.030805595219135284
1.7215714805736056e+18,-0.0011102794669568539,-0.16643981635570526,0.0308917798101902
1.7215714805796058e+18,-0.0010466448729857802,-0.1399797648191452,0.028336720541119576
1.721571480585606e+18,-0.00029467418789863586,-0.12066639959812164,0.032837413251399994
1.721571480591606e+18,-0.00315823033452034,-0.10427100956439972,0.029492074623703957
1.7215714806036063e+18,-0.003443304216489196,-0.08526081591844559,0.03184584900736809
1.7215714806096064e+18,0.0014865724369883537,-0.077187180519104,0.033187925815582275
1.7215714806186066e+18,0.002928938250988722,-0.07148715853691101,0.03120599500834942
1.7215714806246067e+18,0.0025905149523168802,-0.053535304963588715,0.029887540265917778
1.7215714806306068e+18,-0.0008095989469438791,-0.031306348741054535,0.0321895070374012
1.721571480636607e+18,0.0018816427327692509,-0.009214137680828571,0.03215595334768295
1.721571480642607e+18,-0.003130362369120121,0.01484672725200653,0.03246152773499489
1.7215714806486072e+18,0.0013693501241505146,0.03527790307998657,0.02990339696407318
1.7215714806546074e+18,-0.0002927843015640974,0.050912030041217804,0.031862519681453705
1.7215714806606075e+18,-0.004301481414586306,0.06206773594021797,0.02792580984532833
1.7215714806726077e+18,-0.0026721758767962456,0.0666767880320549,0.02783840149641037
1.721571480678608e+18,-0.004279517102986574,0.06451377272605896,0.028397155925631523
1.721571480684608e+18,-0.004670391324907541,0.06435597687959671,0.028859736397862434
1.721571480690608e+18,0.0003251491580158472,0.06457986682653427,0.02678665705025196
1.7215714806966083e+18,-0.0030868458561599255,0.06823459267616272,0.027562184259295464
1.7215714807056084e+18,-0.0039142705500125885,0.08044393360614777,0.027569934725761414
1.7215714807086085e+18,-0.0055313920602202415,0.08945196866989136,0.0269527155905962
1.7215714807146086e+18,-0.007408428005874157,0.10804722458124161,0.027361294254660606
1.7215714807206088e+18,-0.006377758923918009,0.12332811951637268,0.030051635578274727
1.721571480726609e+18,-0.0036981580778956413,0.13554523885250092,0.027574585750699043
1.721571480732609e+18,-0.006994104944169521,0.14756116271018982,0.02855375036597252
1.7215714807386092e+18,-0.00802350603044033,0.1537221074104309,0.027228308841586113
1.7215714807446093e+18,-0.0031239870004355907,0.14859159290790558,0.025642316788434982
1.7215714807506094e+18,-0.006038803141564131,0.14607517421245575,0.02748998999595642
1.7215714807566095e+18,-0.004285033792257309,0.1351514458656311,0.022796859964728355
1.7215714807626097e+18,-0.00395412789657712,0.1337730884552002,0.025424236431717873
1.7215714807686098e+18,-0.0038044005632400513,0.12748590111732483,0.023841597139835358
1.72157148077461e+18,-0.006871887948364019,0.12944157421588898,0.023835575208067894
1.72157148078061e+18,-0.005092293489724398,0.12573854625225067,0.022838521748781204
1.7215714807866102e+18,-0.0031797941774129868,0.12510022521018982,0.02432270720601082
1.7215714807896102e+18,-0.006044290028512478,0.12913432717323303,0.020573368296027184
1.7215714807956104e+18,-0.006634968798607588,0.13128669559955597,0.023289738222956657
1.7215714808016105e+18,-0.0057133580558001995,0.13088248670101166,0.02303200215101242
1.7215714808076106e+18,-0.004166566766798496,0.12874841690063477,0.024780884385108948
1.7215714808136108e+18,-0.004508674144744873,0.13075082004070282,0.020269669592380524
1.721571480819611e+18,-0.005240724887698889,0.11916780471801758,0.022191356867551804
1.721571480825611e+18,-0.006215123925358057,0.11576805263757706,0.02107086591422558
1.7215714808316111e+18,-0.005481618922203779,0.11014674603939056,0.01900411583483219
1.7215714808376113e+18,-0.0013933542650192976,0.10227198153734207,0.018389392644166946
1.7215714808466115e+18,-0.005476748570799828,0.09509268403053284,0.019482534378767014
1.7215714808496115e+18,-0.0019372502574697137,0.09606556594371796,0.018496695905923843
1.7215714808556116e+18,-0.0015581620391458273,0.09120820462703705,0.019676359370350838
1.7215714808616118e+18,-0.0028756153769791126,0.09277278929948807,0.01817198656499386
1.721571480867612e+18,-0.0026272591203451157,0.08734309673309326,0.019371023401618004
1.721571480873612e+18,-0.006553379353135824,0.08568408340215683,0.017315099015831947
1.721571480876612e+18,-0.007612797897309065,0.0853700265288353,0.017476197332143784
1.7215714808826122e+18,-0.004561388865113258,0.07848092913627625,0.01872449740767479
1.7215714808886124e+18,-0.00607845326885581,0.07518520951271057,0.01691385731101036
1.7215714808946125e+18,-0.005161850247532129,0.07390730082988739,0.017072781920433044
1.7215714809006126e+18,-0.006773186847567558,0.06712938845157623,0.018358763307332993
1.7215714809036127e+18,-0.004821444861590862,0.06933631002902985,0.016475021839141846
1.7215714809096128e+18,-0.0031140828505158424,0.06413084268569946,0.016637539491057396
1.721571480915613e+18,-0.0044304258190095425,0.061515334993600845,0.016071226447820663
1.721571480918613e+18,-0.0030212970450520515,0.06146108731627464,0.016495507210493088
1.721571480924613e+18,-0.003460184670984745,0.0592995323240757,0.013976553454995155
1.7215714809306132e+18,-0.0043022288009524345,0.060204651206731796,0.015003139153122902
1.7215714809366134e+18,-0.005686566699296236,0.05825496092438698,0.015449563972651958
1.7215714809426135e+18,-0.003301309421658516,0.05676727741956711,0.015181651338934898
1.7215714809486136e+18,-0.006073706783354282,0.05177008733153343,0.01564200408756733
1.7215714809546138e+18,-0.0033188576344400644,0.0523662194609642,0.015638655051589012
1.721571480960614e+18,-0.004678674042224884,0.058770615607500076,0.016141025349497795
1.721571480966614e+18,-0.0016099622007459402,0.06685042381286621,0.013502474874258041
1.7215714809726141e+18,-0.0024356311187148094,0.0781550407409668,0.013639693148434162
1.7215714809786143e+18,-0.0011251324322074652,0.08742330968379974,0.011985225602984428
1.7215714809846144e+18,-0.0013504971284419298,0.09129548817873001,0.01277958694845438
1.7215714809906145e+18,0.0004499125061556697,0.09363129734992981,0.015581260435283184
1.7215714809966147e+18,-0.0011576229007914662,0.09521946310997009,0.012252960354089737
1.7215714810026148e+18,0.00019030494149774313,0.09070471674203873,0.012517042458057404
1.721571481008615e+18,0.001906435121782124,0.08790943771600723,0.015995584428310394
1.721571481017615e+18,0.00016074790619313717,0.08378318697214127,0.014494337141513824
1.7215714810206152e+18,-0.0032631580252200365,0.08555638790130615,0.011033158749341965
1.7215714810266153e+18,-0.0037909899838268757,0.08238407969474792,0.01213808637112379
1.7215714810326154e+18,-0.004101928323507309,0.07738654315471649,0.01197999157011509
1.7215714810386156e+18,-2.072565257549286e-05,0.07870325446128845,0.010258980095386505
1.7215714810446157e+18,-0.0029447823762893677,0.08093363046646118,0.010604535229504108
1.7215714810506158e+18,-0.0017694801790639758,0.08377296477556229,0.013118576258420944
1.721571481056616e+18,-0.002467913320288062,0.08892574161291122,0.010897074826061726
1.721571481062616e+18,-0.00026001804508268833,0.0984981432557106,0.010780775919556618
1.7215714810686162e+18,-0.0003525508800521493,0.10710082948207855,0.011709504760801792
1.7215714810746163e+18,-0.0007051472784951329,0.11406198143959045,0.010651037096977234
1.7215714810806164e+18,-0.0002621404710225761,0.1209971234202385,0.0069943382404744625
