timestamp,accel_x,accel_y,accel_z
1.721572042458755e+18,-0.017497122287750244,0.013709809631109238,-9.872705459594727
1.7215720424647552e+18,-0.008050268515944481,0.0024272347800433636,-9.819341659545898
1.7215720424737554e+18,-0.06912923604249954,0.0009314730996266007,-9.870100021362305
1.7215720424797555e+18,0.05948765203356743,0.00721181184053421,-9.76618766784668
1.7215720424857556e+18,-0.04697657749056816,0.0939369648694992,-9.77733325958252
1.7215720424917558e+18,0.007300103548914194,0.04632788896560669,-9.811823844909668
1.721572042500756e+18,0.010733240284025669,-0.007642033975571394,-9.827974319458008
1.721572042506756e+18,-0.05951008200645447,0.02917637676000595,-9.824872970581055
1.7215720425157563e+18,-0.0169655941426754,0.0021640441846102476,-9.793144226074219
1.7215720425217564e+18,0.01362393144518137,-0.07145910710096359,-9.743043899536133
1.7215720425277565e+18,-0.016614880412817,0.06892373412847519,-9.758381843566895
1.7215720425367567e+18,0.10261346399784088,0.011555839329957962,-9.74153995513916
1.7215720425427569e+18,0.0725499764084816,0.007715452928096056,-9.815112113952637
1.721572042548757e+18,0.027504339814186096,0.002102975035086274,-9.800479888916016
1.7215720425577572e+18,-0.028685949742794037,-0.007787778507918119,-9.90568733215332
1.7215720425637573e+18,-0.003606011625379324,0.01097802072763443,-9.836018562316895
1.7215720425727575e+18,0.021987492218613625,0.011705189943313599,-9.88370132446289
1.7215720425787576e+18,0.030295277014374733,0.03860613331198692,-9.82117748260498
1.7215720425847578e+18,0.022167323157191277,-0.028071805834770203,-9.843361854553223
1.721572042590758e+18,-0.04386512562632561,-0.0540185309946537,-9.865608215332031
1.721572042599758e+18,0.00017053814372047782,0.01513713225722313,-9.795851707458496
1.7215720426057582e+18,-0.005630410276353359,0.027367696166038513,-9.708975791931152
1.7215720426117583e+18,-0.02809079922735691,0.0043348814360797405,-9.748762130737305
1.7215720426177585e+18,-0.03883398324251175,-0.0070042964071035385,-9.829690933227539
1.7215720426237586e+18,-0.0012999029131606221,-0.014719123020768166,-9.780463218688965
1.7215720426297587e+18,0.05087827518582344,-0.05671919882297516,-9.78955364227295
1.7215720426357588e+18,-0.027933605015277863,-0.06602241843938828,-9.80038833618164
1.721572042641759e+18,0.037062134593725204,0.0045141237787902355,-9.799829483032227
1.721572042647759e+18,0.023387985303997993,-0.04723237082362175,-9.838247299194336
1.7215720426507592e+18,-0.04264330118894577,0.0016751047223806381,-9.818133354187012
1.7215720426567593e+18,-0.0008791080326773226,0.08103405684232712,-9.788694381713867
1.7215720426627594e+18,-0.04192453995347023,-0.04496707767248154,-9.78170394897461
1.7215720426687596e+18,0.026285674422979355,0.03804070129990578,-9.868013381958008
1.7215720426747597e+18,-0.09597604721784592,-0.050242647528648376,-9.77487564086914
1.7215720426807598e+18,0.006846904754638672,-0.014439735561609268,-9.77113151550293
1.72157204268676e+18,-0.0441996231675148,-0.04974865913391113,-9.807730674743652
1.72157204269276e+18,-0.0022085634991526604,0.026488831266760826,-9.78488540649414
1.7215720426957601e+18,-0.019523749127984047,0.049379169940948486,-9.87331485748291
1.7215720427017603e+18,0.030191009864211082,-0.03181660175323486,-9.886914253234863
1.7215720427077604e+18,0.015156437642872334,0.0018356515793129802,-9.692404747009277
1.7215720427137605e+18,0.06642454117536545,0.01095159724354744,-9.79776382446289
1.7215720427197606e+18,-0.03175990656018257,0.008321596309542656,-9.808646202087402
1.7215720427257608e+18,-0.04628656432032585,-0.04124954715371132,-9.848576545715332
1.721572042731761e+18,-0.014612666331231594,0.012526458129286766,-9.772777557373047
1.721572042737761e+18,-0.05124157667160034,-0.0017542294226586819,-9.752059936523438
1.7215720427437612e+18,-0.07301472127437592,-0.03546867519617081,-9.802178382873535
1.7215720427497613e+18,-0.01595195196568966,0.013550504110753536,-9.780953407287598
1.7215720427557614e+18,-0.016944944858551025,-0.006538863759487867,-9.879395484924316
1.7215720427587615e+18,-0.058612555265426636,0.013586513698101044,-9.792746543884277
1.7215720427647616e+18,-0.009194185957312584,0.03164913132786751,-9.81432819366455
1.7215720427707617e+18,0.03845147043466568,0.027387313544750214,-9.821188926696777
1.7215720427737618e+18,0.037056997418403625,0.057366274297237396,-9.78069019317627
1.721572042779762e+18,0.03600011020898819,-0.03515887260437012,-9.781310081481934
1.721572042785762e+18,-0.004345862660557032,0.018935535103082657,-9.859743118286133
1.7215720427917622e+18,0.03133128583431244,-0.01925257220864296,-9.850622177124023
1.7215720427977623e+18,0.024948833510279655,-0.049533113837242126,-9.774406433105469
1.7215720428007624e+18,-0.03472581505775452,-0.057201553136110306,-9.776996612548828
1.7215720428067625e+18,-0.006771499756723642,-0.05846279114484787,-9.828596115112305
1.7215720428127626e+18,-0.03292910009622574,0.07559721916913986,-9.74519157409668
1.7215720428157627e+18,-0.04472830146551132,-0.062344808131456375,-9.806361198425293
1.7215720428217628e+18,0.01684962958097458,0.0002025948342634365,-9.818710327148438
1.721572042827763e+18,-0.014773164875805378,-0.06930312514305115,-9.839366912841797
1.721572042833763e+18,0.015274434350430965,0.01962186023592949,-9.837428092956543
1.7215720428397632e+18,0.024300402030348778,-0.07355030626058578,-9.821730613708496
1.7215720428457633e+18,-0.006204573437571526,-0.00043033729889430106,-9.76550579071045
1.7215720428517635e+18,-0.03524214029312134,-0.018427157774567604,-9.771930694580078
1.7215720428577636e+18,-0.04512828588485718,0.003585032420232892,-9.841238975524902
1.7215720428637637e+18,-0.08132956176996231,-0.04331258684396744,-9.786046981811523
1.7215720428697638e+18,-0.017596250399947166,0.008021851070225239,-9.8639497756958
1.721572042875764e+18,-0.04176350310444832,0.09784188121557236,-9.840052604675293
1.721572042881764e+18,0.008916565217077732,-0.03909805417060852,-9.809089660644531
1.7215720428877642e+18,0.007378704380244017,0.032432619482278824,-9.771879196166992
1.7215720428937644e+18,0.05201369896531105,-0.04875047504901886,-9.772668838500977
1.7215720428997645e+18,-0.05677689611911774,0.025528941303491592,-9.831714630126953
1.7215720429057646e+18,0.028072934597730637,0.0116646783426404,-9.76951789855957
1.7215720429117647e+18,0.06020679697394371,0.09124752134084702,-9.865389823913574
1.7215720429177649e+18,0.0806027427315712,-0.0172367375344038,-9.814248085021973
1.721572042923765e+18,-0.015834564343094826,-0.027273235842585564,-9.873008728027344
1.721572042929765e+18,-0.03163902834057808,0.0019043385982513428,-9.816478729248047
1.7215720429327652e+18,-0.029605181887745857,0.039383627474308014,-9.777441024780273
1.7215720429387653e+18,0.008310196921229362,0.08848186582326889,-9.798656463623047
1.7215720429447654e+18,0.04157039150595665,-0.00509107019752264,-9.829370498657227
1.7215720429507656e+18,0.026206955313682556,-0.010917635634541512,-9.856955528259277
1.7215720429537656e+18,0.030833126977086067,-0.04056336358189583,-9.813158988952637
1.7215720429597658e+18,0.08796462416648865,0.06291656941175461,-9.835078239440918
1.721572042965766e+18,-0.04402416571974754,-0.060933668166399,-9.8641357421875
1.721572042971766e+18,-0.047432929277420044,-0.00878299493342638,-9.794309616088867
1.721572042974766e+18,-0.038067422807216644,-0.016543861478567123,-9.763955116271973
1.7215720429807662e+18,0.042864423245191574,0.11244022101163864,-9.886613845825195
1.7215720429867663e+18,-0.01067478209733963,-0.07975456863641739,-9.828511238098145
1.7215720429927665e+18,0.047315772622823715,0.021869901567697525,-9.742632865905762
1.7215720429987666e+18,-0.014425757341086864,0.04600593447685242,-9.840797424316406
1.7215720430077668e+18,-0.0802430734038353,0.027336494997143745,-9.814242362976074
1.721572043013767e+18,0.006413916125893593,-0.012182410806417465,-9.833351135253906
1.721572043019767e+18,0.0059288376942276955,0.043250616639852524,-9.761723518371582
1.721572043022767e+18,-0.007949652150273323,-0.004883866291493177,-9.922883033752441
1.7215720430287672e+18,-0.005256330594420433,0.06083991378545761,-9.83423137664795
1.7215720430347674e+18,-0.059409499168395996,0.041146233677864075,-9.855634689331055
1.7215720430407675e+18,0.03535411134362221,0.0018687283154577017,-9.745282173156738
1.7215720430467676e+18,0.057770051062107086,-0.08659408241510391,-9.862281799316406
1.7215720430497677e+18,-0.05142262578010559,-0.01186312921345234,-9.777257919311523
1.7215720430557678e+18,-0.004382952116429806,0.05590348690748215,-9.831440925598145
1.721572043058768e+18,0.03864898160099983,-0.036009471863508224,-9.821916580200195
1.721572043064768e+18,0.022704390808939934,-0.037059951573610306,-9.812501907348633
1.721572043070768e+18,-0.04551255330443382,-0.04946460947394371,-9.782514572143555
1.7215720430767683e+18,0.07799094915390015,-0.0042493692599236965,-9.870340347290039
1.7215720430797683e+18,0.012660285457968712,-0.04223472252488136,-9.8236722946167
1.7215720430857684e+18,-0.05104193463921547,-0.027247678488492966,-9.773606300354004
1.7215720430917686e+18,-0.015003418549895287,0.07614254206418991,-9.761662483215332
1.7215720430977687e+18,-0.04008881002664566,0.05442093312740326,-9.728785514831543
1.7215720431037688e+18,-0.0800793468952179,-0.01897970773279667,-9.81721305847168
1.721572043106769e+18,-0.03704901784658432,0.018102891743183136,-9.862710952758789
1.721572043112769e+18,-0.08789664506912231,-0.05501435697078705,-9.771272659301758
1.7215720431187692e+18,0.07454288005828857,-0.008012319914996624,-9.814098358154297
1.7215720431247693e+18,-0.023022934794425964,-0.030924325808882713,-9.862442970275879
1.7215720431307694e+18,0.06179846450686455,0.019274335354566574,-9.853458404541016
1.7215720431367695e+18,-0.09583336114883423,0.06744768470525742,-9.776288986206055
1.7215720431427697e+18,-0.02107807621359825,-0.005644750315696001,-9.860038757324219
1.7215720431487698e+18,-0.06482556462287903,-0.0024117818102240562,-9.886421203613281
1.72157204315477e+18,0.029981249943375587,0.03374987840652466,-9.819880485534668
1.72157204316077e+18,0.09221741557121277,0.02048516646027565,-9.797038078308105
1.7215720431667702e+18,-0.06710398197174072,0.006470919586718082,-9.781164169311523
1.7215720431697702e+18,-0.0841418132185936,0.014100722037255764,-9.883044242858887
1.7215720431757704e+18,0.10060865432024002,-0.08528846502304077,-9.808300971984863
1.7215720431787704e+18,0.03231228142976761,-0.0071176993660628796,-9.892945289611816
1.7215720431847706e+18,0.004383500199764967,0.03347964212298393,-9.830921173095703
1.7215720431907707e+18,0.047312311828136444,0.045440081506967545,-9.778932571411133
1.7215720431967708e+18,-0.029014041647315025,-0.04291064292192459,-9.880167007446289
1.721572043199771e+18,-0.05121488869190216,-0.013681386597454548,-9.79137134552002
1.721572043205771e+18,-0.0500166118144989,0.03972356393933296,-9.798623085021973
1.7215720432117711e+18,-0.05223672837018967,0.028129389509558678,-9.842314720153809
1.7215720432177713e+18,0.033553026616573334,-0.005766883958131075,-9.779096603393555
1.7215720432237714e+18,-0.043528709560632706,0.0464702844619751,-9.72335147857666
1.7215720432297715e+18,0.041428856551647186,-0.04581980034708977,-9.785316467285156
1.7215720432357716e+18,0.004174927249550819,-0.0037273785565048456,-9.741905212402344
1.7215720432417718e+18,0.07329640537500381,-0.03007573075592518,-9.867520332336426
1.721572043247772e+18,0.03192465007305145,-0.04823574423789978,-9.761127471923828
1.721572043253772e+18,-0.002676072297617793,-0.0566522441804409,-9.838926315307617
1.7215720432597722e+18,-0.044267475605010986,-0.03350471332669258,-9.804916381835938
1.7215720432657723e+18,0.008927560411393642,-0.029598673805594444,-9.809100151062012
1.7215720432717724e+18,0.11176078021526337,0.03040371835231781,-9.892539978027344
1.7215720432747725e+18,0.050663623958826065,0.017216015607118607,-9.814506530761719
1.7215720432807726e+18,-0.011789310723543167,0.02260635793209076,-9.766129493713379
1.7215720432867727e+18,-0.050207626074552536,0.012835509143769741,-9.843050003051758
1.7215720432927729e+18,-0.02745300903916359,0.04041150584816933,-9.860505104064941
1.721572043298773e+18,-0.08946441859006882,-0.038382597267627716,-9.720483779907227
1.721572043304773e+18,0.01042907778173685,0.019686290994286537,-9.802339553833008
1.7215720433107732e+18,0.009860875084996223,0.04334982857108116,-9.78657341003418
1.7215720433167734e+18,0.05476509407162666,-0.027317656204104424,-9.807762145996094
1.7215720433227735e+18,0.0064877974800765514,-0.0028759033884853125,-9.849550247192383
1.7215720433287736e+18,0.07198144495487213,-0.029107777401804924,-9.791297912597656
1.7215720433347738e+18,-0.03633284568786621,0.024820398539304733,-9.775029182434082
1.721572043340774e+18,0.0369260348379612,0.04759473726153374,-9.804159164428711
1.721572043346774e+18,-0.08606695383787155,-0.004580097272992134,-9.801108360290527
1.7215720433527741e+18,-0.03605612367391586,0.061021577566862106,-9.797918319702148
1.7215720433587743e+18,-0.07058693468570709,-0.030842358246445656,-9.83604907989502
1.7215720433617743e+18,0.02135668694972992,-0.01466134563088417,-9.756046295166016
1.7215720433677745e+18,0.019814932718873024,-0.012408094480633736,-9.86722183227539
1.7215720433737746e+18,-0.023292532190680504,0.08525227755308151,-9.703776359558105
1.7215720433797747e+18,-0.0375664122402668,-0.0018015187233686447,-9.774904251098633
1.7215720433857748e+18,0.015056976117193699,-0.045089371502399445,-9.864484786987305
1.721572043391775e+18,0.050473403185606,0.02145329676568508,-9.84229850769043
1.721572043394775e+18,0.00234131864272058,0.011972310021519661,-9.75155258178711
1.7215720434007752e+18,0.013246778398752213,-0.0030777796637266874,-9.844693183898926
1.7215720434067753e+18,0.00290927616879344,-0.007271204609423876,-9.825817108154297
1.7215720434097754e+18,-0.011066349223256111,-0.005435958970338106,-9.815248489379883
1.7215720434157755e+18,0.017604609951376915,0.051818203181028366,-9.740739822387695
1.7215720434217756e+18,0.0438358411192894,0.05254562571644783,-9.832231521606445
1.7215720434277757e+18,0.07868456840515137,-0.0010396388825029135,-9.841568946838379
1.7215720434337759e+18,0.0282887052744627,-0.0656609758734703,-9.819436073303223
1.721572043439776e+18,-0.0673682913184166,0.012300019152462482,-9.734904289245605
1.7215720434457761e+18,-0.005182389169931412,0.05259774625301361,-9.749521255493164
1.7215720434517763e+18,0.012987635098397732,0.02369730733335018,-9.831220626831055
1.7215720434577764e+18,0.017705494537949562,-0.07543168216943741,-9.773053169250488
1.7215720434637765e+18,0.00045998560381121933,0.029714906588196754,-9.799654006958008
1.7215720434697766e+18,-0.025447558611631393,-0.02654212899506092,-9.812705993652344
1.7215720434727767e+18,0.07365592569112778,0.01522782538086176,-9.782383918762207
1.7215720434787768e+18,0.06245797500014305,0.11169569939374924,-9.768516540527344
1.721572043484777e+18,-0.0011073597706854343,-0.008871379308402538,-9.804966926574707
1.721572043490777e+18,-0.008648928254842758,-0.010708218440413475,-9.799383163452148
1.7215720434967772e+18,0.01838386431336403,0.07869814336299896,-9.841607093811035
1.7215720435027773e+18,0.0009968156227841973,-0.0231362022459507,-9.814264297485352
1.7215720435087775e+18,0.0843210518360138,-0.01857934333384037,-9.80521011352539
1.7215720435147776e+18,0.02067233808338642,-0.012642652727663517,-9.820694923400879
1.7215720435207777e+18,0.03220008313655853,0.02356858178973198,-9.78950023651123
1.7215720435267779e+18,-0.013330347836017609,0.0019237945089116693,-9.80030345916748
1.721572043532778e+18,-0.032211095094680786,-0.008926421403884888,-9.792675971984863
1.721572043538778e+18,0.07279817014932632,-0.03666725382208824,-9.843759536743164
1.7215720435447782e+18,0.03805918246507645,0.081269770860672,-9.778144836425781
1.7215720435507784e+18,-0.02389458194375038,-0.06060945615172386,-9.878335952758789
1.7215720435567785e+18,0.034534964710474014,0.02378438599407673,-9.721110343933105
1.7215720435597786e+18,-0.03770255297422409,0.06794679909944534,-9.777270317077637
1.7215720435687788e+18,-0.026175813749432564,-0.0025565314572304487,-9.804675102233887
1.7215720435717788e+18,-0.09683864563703537,0.026228327304124832,-9.765364646911621
1.721572043577779e+18,0.00271751475520432,-0.017289742827415466,-9.858959197998047
1.721572043583779e+18,-0.09866571426391602,0.07153505086898804,-9.83166790008545
1.7215720435897792e+18,-0.06328423321247101,-0.02792891301214695,-9.793649673461914
1.7215720435957793e+18,-0.02010917291045189,-0.003020582254976034,-9.806797981262207
1.7215720436017795e+18,0.002212927443906665,-0.026298586279153824,-9.82565975189209
1.7215720436077796e+18,-0.014818479306995869,0.08472397923469543,-9.835997581481934
1.7215720436137797e+18,-0.01652577333152294,-0.029836034402251244,-9.870970726013184
1.7215720436197798e+18,0.014384711161255836,-0.05816008895635605,-9.803323745727539
1.72157204362578e+18,0.01496142242103815,-0.011805631220340729,-9.846319198608398
1.72157204363178e+18,-0.0964665487408638,-0.014516821131110191,-9.759185791015625
1.7215720436377802e+18,0.02112383395433426,-0.07696205377578735,-9.807045936584473
1.7215720436437804e+18,-0.057189106941223145,-0.025418942794203758,-9.83928394317627
1.7215720436467804e+18,0.006414392497390509,0.03203623369336128,-9.755170822143555
1.7215720436527805e+18,0.00980954896658659,-0.009247778914868832,-9.814334869384766
1.7215720436587807e+18,-0.018978631123900414,-0.06893015652894974,-9.773407936096191
1.7215720436647808e+18,-0.051678795367479324,-0.017121678218245506,-9.85179328918457
1.721572043670781e+18,-0.02716180682182312,0.014992875047028065,-9.81914234161377
1.721572043676781e+18,-0.012233216315507889,0.00722932256758213,-9.851221084594727
1.7215720436827812e+18,0.07527864724397659,0.010947569273412228,-9.770590782165527
1.7215720436887813e+18,-0.031034888699650764,-0.07846088707447052,-9.818120002746582
1.7215720436947814e+18,0.031881656497716904,0.002439742675051093,-9.88546085357666
1.7215720437007816e+18,-0.025686228647828102,-0.04935712367296219,-9.83528995513916
1.7215720437067817e+18,-0.07814867049455643,0.00219560693949461,-9.81533145904541
1.7215720437127818e+18,-0.012363837100565434,0.06776230782270432,-9.774148941040039
1.721572043718782e+18,0.014052212238311768,0.04433620348572731,-9.843371391296387
1.721572043724782e+18,-0.07391191273927689,0.08183983713388443,-9.879189491271973
1.7215720437307822e+18,-0.008436398580670357,0.05459846928715706,-9.758489608764648
1.7215720437337823e+18,0.009254835546016693,0.002906634472310543,-9.8139009475708
1.7215720437397824e+18,-0.041843514889478683,-0.04805833101272583,-9.736071586608887
1.7215720437457825e+18,0.011408493854105473,0.005152873229235411,-9.819424629211426
1.7215720437517827e+18,-0.05712158605456352,0.041545379906892776,-9.82801628112793
1.7215720437577828e+18,0.009826146066188812,0.051219575107097626,-9.767032623291016
1.721572043763783e+18,0.0907612293958664,-0.024857891723513603,-9.813247680664062
1.721572043769783e+18,0.11009123176336288,-0.017328394576907158,-9.708298683166504
1.7215720437757832e+18,0.11176420748233795,0.06367167830467224,-9.863336563110352
1.7215720437817833e+18,0.0031627912539988756,-0.0074613760225474834,-9.764857292175293
1.7215720437877834e+18,0.020261183381080627,-0.05499858781695366,-9.841134071350098
1.7215720437937836e+18,0.013318603858351707,-0.02446565218269825,-9.820801734924316
1.7215720437997837e+18,-0.005659491289407015,0.042083241045475006,-9.892617225646973
1.7215720438057838e+18,-0.02735997922718525,0.05796650052070618,-9.819278717041016
1.721572043811784e+18,0.009316593408584595,-0.014702284708619118,-9.798452377319336
1.721572043814784e+18,0.01839536800980568,0.006460868753492832,-9.782654762268066
1.7215720438237842e+18,0.08790688961744308,0.024550914764404297,-9.744163513183594
1.7215720438297843e+18,0.03963998332619667,-0.01630365289747715,-9.7863130569458
1.7215720438357844e+18,-0.01518806628882885,-0.04561123251914978,-9.764302253723145
1.7215720438387845e+18,-0.11464730650186539,-0.03784262016415596,-9.87562370300293
1.7215720438447846e+18,-0.02749672718346119,0.11588259786367416,-9.825467109680176
1.7215720438507848e+18,0.02523668482899666,0.07504677027463913,-9.814605712890625
1.7215720438537848e+18,0.0017964032012969255,0.016330640763044357,-9.831948280334473
1.721572043859785e+18,0.06286023557186127,0.11415918916463852,-9.814864158630371
1.721572043865785e+18,0.0604042112827301,0.029772503301501274,-9.737621307373047
1.7215720438717852e+18,-0.02547607012093067,-0.060373704880476,-9.834711074829102
1.7215720438777853e+18,0.013319713063538074,-0.05032538250088692,-9.875032424926758
1.7215720438837855e+18,0.02687758579850197,0.040871065109968185,-9.750561714172363
1.7215720438897856e+18,0.03615562990307808,0.012444763444364071,-9.817955017089844
1.7215720438957857e+18,0.09612017124891281,0.02178318426012993,-9.746703147888184
1.7215720439017859e+18,0.04101797193288803,-0.019151467829942703,-9.875897407531738
1.721572043907786e+18,0.03240388259291649,0.019199376925826073,-9.849628448486328
1.721572043913786e+18,0.057693906128406525,-0.0411435067653656,-9.81869888305664
1.7215720439197862e+18,-0.06562687456607819,0.0047333091497421265,-9.771716117858887
1.7215720439257864e+18,-0.006318331696093082,0.02602265775203705,-9.838210105895996
1.7215720439287864e+18,-0.041299108415842056,-0.021143188700079918,-9.895809173583984
1.7215720439347866e+18,0.0009159735054709017,-0.04405450075864792,-9.826391220092773
1.7215720439407867e+18,0.04609043523669243,0.04248937964439392,-9.89554214477539
1.7215720439467868e+18,0.04745966196060181,0.0392908900976181,-9.869636535644531
1.721572043952787e+18,-0.00946140382438898,-0.005053745582699776,-9.75972843170166
1.721572043958787e+18,0.09600973129272461,-0.06330998986959457,-9.807572364807129
1.7215720439647872e+18,0.0171726793050766,-0.02774813212454319,-9.81175708770752
1.7215720439707873e+18,0.008676349185407162,0.029598476365208626,-9.855242729187012
1.7215720439737874e+18,0.04883286729454994,-0.01307694986462593,-9.79226016998291
1.7215720439797875e+18,0.029556192457675934,-0.0017184128519147635,-9.7704496383667
1.7215720439887877e+18,0.022523771971464157,-0.026685278862714767,-9.78580093383789
1.7215720439917878e+18,-0.01326881255954504,-0.04641776904463768,-9.842806816101074
1.721572043997788e+18,0.005719452165067196,-0.046091046184301376,-9.88127326965332
1.721572044003788e+18,-0.02140035107731819,0.027797449380159378,-9.845803260803223
1.7215720440097882e+18,0.00813307799398899,0.053449902683496475,-9.740811347961426
1.7215720440157883e+18,0.09642022848129272,-0.011439238674938679,-9.843790054321289
1.7215720440217884e+18,-0.047328002750873566,-0.037206344306468964,-9.86102294921875
1.7215720440277885e+18,-0.007282853126525879,0.012757118791341782,-9.827159881591797
1.7215720440337887e+18,0.06422587484121323,-0.011119119822978973,-9.808646202087402
1.7215720440367887e+18,0.026234101504087448,0.05798456072807312,-9.774918556213379
1.7215720440427889e+18,-0.004803203511983156,-0.006139667704701424,-9.74516773223877
1.721572044048789e+18,-0.005827566143125296,0.001968719996511936,-9.74141788482666
1.721572044054789e+18,-0.020902426913380623,-0.001507702050730586,-9.817317008972168
1.7215720440607892e+18,-0.038655173033475876,0.02966137044131756,-9.815964698791504
1.7215720440667894e+18,0.04887552931904793,-0.0769830271601677,-9.738439559936523
1.7215720440727895e+18,-0.0006463837344199419,0.0065713380463421345,-9.730779647827148
1.7215720440787896e+18,0.0068429699167609215,0.05168437957763672,-9.789785385131836
1.7215720440847898e+18,-0.007404525298625231,-0.0586458295583725,-9.740077018737793
1.72157204409079e+18,0.0206723902374506,-0.01982346922159195,-9.822718620300293
1.72157204409379e+18,0.028181912377476692,0.008043094538152218,-9.831663131713867
1.72157204409979e+18,-0.018093515187501907,0.008093921467661858,-9.867465019226074
1.7215720441057902e+18,0.010825646109879017,-0.1156686544418335,-9.763562202453613
1.7215720441117903e+18,0.06192038953304291,0.07498674094676971,-9.831393241882324
1.7215720441177905e+18,0.009535118006169796,-0.09050749987363815,-9.816256523132324
1.7215720441267907e+18,0.012329325079917908,-0.0030483410228043795,-9.831084251403809
1.7215720441327908e+18,0.056597884744405746,-0.022016828879714012,-9.829489707946777
1.721572044138791e+18,0.024193061515688896,-0.010597387328743935,-9.84488582611084
1.721572044144791e+18,-0.030864305794239044,-0.01362280361354351,-9.825992584228516
1.7215720441507912e+18,-0.008709155023097992,0.016787679865956306,-9.785038948059082
1.7215720441567913e+18,0.012710409238934517,-0.03492261469364166,-9.868681907653809
1.7215720441597914e+18,-0.0002713959838729352,-0.08489435166120529,-9.816497802734375
1.7215720441657915e+18,-0.01089262031018734,0.06760720908641815,-9.736767768859863
1.7215720441717916e+18,-0.06977055221796036,-0.007306997664272785,-9.830864906311035
1.7215720441777917e+18,-0.014673808589577675,-0.0476439893245697,-9.802513122558594
1.7215720441837919e+18,-0.019919658079743385,-0.04510174319148064,-9.83546257019043
1.721572044189792e+18,-0.039883699268102646,0.0517011433839798,-9.764566421508789
1.7215720441957921e+18,-0.005753862205892801,-0.03934536129236221,-9.827890396118164
1.7215720442017923e+18,-0.0514705628156662,-0.0029999050311744213,-9.787005424499512
1.7215720442077924e+18,-0.0852208212018013,-0.07734474539756775,-9.798439979553223
1.7215720442137925e+18,-0.00674512330442667,-0.016785848885774612,-9.713790893554688
1.7215720442197926e+18,-0.015810301527380943,0.06150570139288902,-9.793047904968262
1.7215720442257928e+18,0.02688557654619217,0.002221256261691451,-9.838706970214844
1.7215720442287928e+18,0.026549680158495903,-0.0015532601391896605,-9.799139976501465
1.721572044234793e+18,0.008331035263836384,-0.012726210057735443,-9.78682804107666
1.721572044240793e+18,-0.038658689707517624,-0.0021879805717617273,-9.772441864013672
1.7215720442467932e+18,0.024125130847096443,-0.023044273257255554,-9.799932479858398
1.7215720442527933e+18,-0.03277197107672691,0.001161398133262992,-9.869930267333984
1.7215720442557934e+18,0.02361699938774109,0.04278646782040596,-9.777349472045898
1.7215720442617935e+18,0.002164010889828205,-0.04179142415523529,-9.822211265563965
1.7215720442677937e+18,-0.033789604902267456,0.05748471990227699,-9.77423095703125
1.7215720442737938e+18,-0.05156350135803223,0.06065826863050461,-9.862628936767578
1.7215720442767939e+18,-0.04536108672618866,-0.01560722105205059,-9.813390731811523
1.721572044282794e+18,0.04008110985159874,-0.006097774486988783,-9.836102485656738
1.721572044288794e+18,-0.08185340464115143,0.00885354820638895,-9.732312202453613
1.7215720442947942e+18,-0.06659584492444992,-0.06059651076793671,-9.767231941223145
1.7215720443007944e+18,0.0064462521113455296,-0.03216329216957092,-9.848174095153809
1.7215720443067945e+18,-0.02730717882514,-0.06747879832983017,-9.843535423278809
1.7215720443127946e+18,0.00713035324588418,-0.016407489776611328,-9.759324073791504
1.7215720443187948e+18,0.006977234501391649,-0.010814255103468895,-9.825888633728027
1.721572044324795e+18,-0.05444229021668434,0.022161437198519707,-9.836090087890625
1.721572044330795e+18,-0.05602319911122322,-0.0321325920522213,-9.791169166564941
1.721572044333795e+18,0.0016295755049213767,0.026325760409235954,-9.799880027770996
1.7215720443427953e+18,0.03939669206738472,-0.04959143325686455,-9.828943252563477
1.7215720443457953e+18,0.055658601224422455,0.03614293411374092,-9.81041145324707
1.7215720443517955e+18,0.010471629910171032,-0.030503150075674057,-9.810953140258789
1.7215720443577956e+18,0.0423838347196579,0.030773943290114403,-9.806796073913574
1.7215720443637957e+18,0.016175759956240654,0.02921976149082184,-9.782417297363281
1.7215720443697958e+18,0.019861385226249695,-0.05331781879067421,-9.813711166381836
1.721572044375796e+18,-0.0008217506110668182,-0.003726171562448144,-9.812430381774902
1.721572044381796e+18,0.0005193051183596253,-0.03670218959450722,-9.792022705078125
1.7215720443877962e+18,0.013822279870510101,-0.01638546586036682,-9.801448822021484
1.7215720443937964e+18,0.007772556506097317,-0.022192776203155518,-9.748422622680664
1.7215720443967964e+18,0.01428399607539177,-0.019726309925317764,-9.804071426391602
1.7215720444027965e+18,-0.10024746507406235,-0.041193488985300064,-9.833918571472168
1.7215720444087967e+18,-0.023421550169587135,-0.054272931069135666,-9.873429298400879
1.7215720444147968e+18,-0.02299036644399166,-0.08056813478469849,-9.805654525756836
1.721572044420797e+18,-0.03713362663984299,0.04972803220152855,-9.837984085083008
1.721572044426797e+18,0.07391226291656494,-0.011166183277964592,-9.785365104675293
1.721572044429797e+18,0.0034899611491709948,0.04101376608014107,-9.753556251525879
1.7215720444357972e+18,0.010193781927227974,0.009731792844831944,-9.830987930297852
1.7215720444387973e+18,0.021258557215332985,-0.030800126492977142,-9.7860107421875
1.7215720444447974e+18,0.01764601282775402,0.018631799146533012,-9.80712890625
1.7215720444507976e+18,-0.02040119469165802,-0.023226700723171234,-9.779135704040527
1.7215720444567977e+18,-0.004848130978643894,-0.10967940837144852,-9.796660423278809
1.7215720444627978e+18,-0.02742830663919449,-0.056988734751939774,-9.842540740966797
1.721572044465798e+18,0.01908697746694088,-0.03576527535915375,-9.727741241455078
1.721572044471798e+18,0.02344537526369095,-0.04668569937348366,-9.79797077178955
1.7215720444777981e+18,-0.027352729812264442,0.04718862473964691,-9.769763946533203
1.7215720444837983e+18,0.03686647489666939,-0.06525201350450516,-9.814035415649414
1.7215720444897984e+18,0.06482544541358948,0.026902876794338226,-9.844318389892578
1.7215720444957985e+18,0.07125337421894073,0.017910193651914597,-9.812767028808594
1.7215720445017987e+18,-0.003602835349738598,0.033458273857831955,-9.789397239685059
1.7215720445077988e+18,0.029213380068540573,0.01498467568308115,-9.809686660766602
1.721572044513799e+18,-0.00491513404995203,0.054739613085985184,-9.829671859741211
1.721572044516799e+18,0.00030427833553403616,-0.0011857949430122972,-9.815571784973145
1.721572044522799e+18,-0.034983035176992416,-0.01321104634553194,-9.768884658813477
1.7215720445317993e+18,-0.0880623385310173,-0.013820243999361992,-9.71703815460205
1.7215720445347994e+18,0.010288850404322147,-0.02613978087902069,-9.736716270446777
1.7215720445407995e+18,0.027824852615594864,-0.000802018097601831,-9.795769691467285
1.7215720445467996e+18,-0.01552113052457571,0.03685913607478142,-9.806075096130371
1.7215720445527997e+18,-0.056726496666669846,-0.05425136536359787,-9.8696870803833
1.7215720445588e+18,-0.03397759422659874,-0.030198240652680397,-9.81000804901123
1.7215720445648e+18,-0.023506442084908485,0.033756569027900696,-9.866511344909668
1.7215720445708e+18,-0.012283512391149998,-0.03691575676202774,-9.792767524719238
1.7215720445768003e+18,-0.052579447627067566,0.013445445336401463,-9.822123527526855
1.7215720445828004e+18,0.007672959007322788,0.027407696470618248,-9.805476188659668
1.7215720445888005e+18,0.03931171074509621,-0.02762211486697197,-9.863409042358398
1.7215720445948006e+18,-0.09669911861419678,0.08740518987178802,-9.772564888000488
1.7215720446008008e+18,-0.020932843908667564,0.018202809616923332,-9.781286239624023
1.721572044606801e+18,-0.045135606080293655,0.050556670874357224,-9.780467987060547
1.721572044612801e+18,-0.018512532114982605,-0.046902965754270554,-9.839639663696289
1.7215720446188012e+18,0.04245402291417122,-0.03420218080282211,-9.86449909210205
1.7215720446248013e+18,-0.02204534225165844,-0.0922408327460289,-9.788873672485352
1.7215720446308014e+18,0.037160251289606094,0.005926914047449827,-9.790558815002441
1.7215720446338015e+18,-0.026939019560813904,0.06388794630765915,-9.734720230102539
1.7215720446398016e+18,-0.012775523588061333,-0.04862971603870392,-9.796321868896484
1.7215720446458017e+18,0.010908661410212517,-0.03552522137761116,-9.780131340026855
1.7215720446518019e+18,-0.049331165850162506,0.02107447013258934,-9.777175903320312
1.721572044657802e+18,0.010548194870352745,-0.06485455483198166,-9.820343017578125
1.721572044663802e+18,-0.03768332675099373,0.023735294118523598,-9.843025207519531
1.7215720446668022e+18,0.002886541187763214,-0.035155124962329865,-9.808777809143066
1.7215720446728023e+18,-0.09004371613264084,0.050290025770664215,-9.850619316101074
1.7215720446788024e+18,0.05205831304192543,-0.03086804412305355,-9.812177658081055
1.7215720446848026e+18,0.0015548428054898977,-0.06622172892093658,-9.780024528503418
1.7215720446908027e+18,0.031067371368408203,-0.01287811528891325,-9.859169006347656
1.7215720446968028e+18,-0.007199959363788366,0.0854671373963356,-9.751633644104004
1.721572044702803e+18,-0.017007378861308098,-0.037231892347335815,-9.76784610748291
1.721572044708803e+18,-0.08076394349336624,-0.010132219642400742,-9.804381370544434
1.7215720447148032e+18,-0.02268146350979805,-0.01776418834924698,-9.81821060180664
1.7215720447208033e+18,0.040037523955106735,-0.04608430713415146,-9.80947208404541
1.7215720447268035e+18,0.007230804767459631,-0.03882221132516861,-9.778253555297852
1.7215720447328036e+18,0.0985860824584961,-0.01270992774516344,-9.733797073364258
1.7215720447358036e+18,0.05593735724687576,0.04988992214202881,-9.801862716674805
1.7215720447418038e+18,0.012443688698112965,0.04587632045149803,-9.778367042541504
1.721572044747804e+18,0.012129519134759903,0.008817313238978386,-9.887205123901367
1.721572044750804e+18,0.03407789394259453,-0.012465463019907475,-9.722650527954102
1.721572044756804e+18,0.06602227687835693,-0.056245386600494385,-9.85291862487793
1.7215720447628042e+18,0.028467033058404922,0.061569903045892715,-9.761300086975098
1.7215720447688044e+18,-0.006844972260296345,-0.028290709480643272,-9.771758079528809
1.7215720447718044e+18,-0.01834145002067089,-0.04407517611980438,-9.819259643554688
1.7215720447778045e+18,0.04093717038631439,-0.058412112295627594,-9.80509090423584
1.7215720447838047e+18,-0.04416486248373985,-0.046473849564790726,-9.825079917907715
1.7215720447898048e+18,-0.014417375437915325,0.10246332734823227,-9.790452003479004
1.721572044795805e+18,-0.002783107105642557,0.03529379516839981,-9.820464134216309
1.721572044801805e+18,-0.020830338820815086,-0.05642411485314369,-9.866190910339355
1.7215720448078052e+18,0.02095862850546837,0.02477261610329151,-9.788612365722656
1.7215720448138053e+18,-0.0414007268846035,0.06554801017045975,-9.899868965148926
1.7215720448198054e+18,0.019028421491384506,-0.037896063178777695,-9.778870582580566
1.7215720448258056e+18,0.015946216881275177,-0.01846577413380146,-9.764473915100098
1.7215720448318057e+18,0.045656345784664154,-0.05605854094028473,-9.849112510681152
1.7215720448348058e+18,0.07828032970428467,0.10274416208267212,-9.893943786621094
1.721572044840806e+18,-0.05901641398668289,0.0383407287299633,-9.825190544128418
1.721572044849806e+18,-0.03116290271282196,-0.08559476584196091,-9.865506172180176
1.7215720448528061e+18,0.051988471299409866,-0.036818381398916245,-9.881422996520996
1.7215720448588063e+18,0.05390971899032593,-0.0007567609427496791,-9.769341468811035
1.7215720448648064e+18,0.015554789453744888,0.040612444281578064,-9.82705307006836
1.7215720448708065e+18,0.0461263470351696,-0.009268563240766525,-9.732956886291504
1.7215720448768067e+18,0.02942596562206745,-0.031328242272138596,-9.770148277282715
1.7215720448828068e+18,0.04976086691021919,-0.05254112929105759,-9.781876564025879
1.721572044888807e+18,-0.0011092136846855283,-0.013179031200706959,-9.840205192565918
1.721572044894807e+18,-0.00577566446736455,0.011689648032188416,-9.766775131225586
1.7215720449008072e+18,0.032862674444913864,0.03821133077144623,-9.781954765319824
1.7215720449068073e+18,-0.0406641885638237,0.0318000428378582,-9.835025787353516
1.7215720449128074e+18,0.008523295633494854,0.008445126004517078,-9.795201301574707
1.7215720449188076e+18,0.010012025944888592,0.021183818578720093,-9.834158897399902
1.7215720449248077e+18,0.01953618973493576,0.03763171285390854,-9.813749313354492
1.7215720449308078e+18,0.0453513078391552,0.04416936635971069,-9.793376922607422
1.7215720449338079e+18,0.07495661079883575,0.02832229994237423,-9.792274475097656
1.721572044939808e+18,0.03052675910294056,0.012941557914018631,-9.778631210327148
1.7215720449458081e+18,0.04112224653363228,-0.021665329113602638,-9.780303001403809
1.7215720449518083e+18,0.05835840478539467,-0.06890377402305603,-9.83635425567627
1.7215720449578084e+18,0.07441116869449615,-0.017240706831216812,-9.826698303222656
1.7215720449638085e+18,-0.00723729794844985,-0.03394283726811409,-9.833944320678711
1.7215720449698086e+18,-0.004482022486627102,-0.0853143259882927,-9.783485412597656
1.7215720449758088e+18,0.014043119736015797,-0.004947208799421787,-9.786181449890137
1.721572044981809e+18,-0.08826574683189392,-0.07856462895870209,-9.75299072265625
1.721572044987809e+18,0.034255556762218475,0.012626919895410538,-9.762346267700195
1.7215720449938092e+18,0.08049671351909637,-0.009780733846127987,-9.834229469299316
1.7215720449998093e+18,-0.04496193677186966,0.016931938007473946,-9.779948234558105
1.7215720450058094e+18,-0.010836195200681686,0.024237852543592453,-9.795692443847656
1.7215720450118095e+18,-0.02222699485719204,0.07565081119537354,-9.801597595214844
1.7215720450148096e+18,0.008831635117530823,-0.022451424971222878,-9.822861671447754
1.7215720450208097e+18,0.0024940345901995897,-0.0319206528365612,-9.781471252441406
1.7215720450268099e+18,-0.016369644552469254,-0.08181855827569962,-9.832971572875977
1.72157204503281e+18,-0.014050503261387348,-0.032537855207920074,-9.85449504852295
1.72157204503881e+18,0.014898382127285004,-0.08196936547756195,-9.807029724121094
1.7215720450448102e+18,0.0553312823176384,0.035603687167167664,-9.847095489501953
1.7215720450508104e+18,-0.07600228488445282,-0.0101551478728652,-9.826777458190918
1.7215720450568105e+18,0.08267579227685928,0.015717826783657074,-9.802407264709473
1.7215720450628106e+18,-0.06642650067806244,-0.030753502622246742,-9.778568267822266
1.7215720450688108e+18,0.020718716084957123,-0.03283636271953583,-9.831243515014648
1.721572045074811e+18,0.05050225183367729,-0.0406385138630867,-9.789563179016113
1.721572045080811e+18,0.08899487555027008,-0.04449193552136421,-9.872633934020996
1.7215720450868111e+18,0.002514096675440669,0.030039871111512184,-9.739299774169922
1.7215720450928113e+18,-0.02410488948225975,-0.021083001047372818,-9.799440383911133
1.7215720450988114e+18,0.015784364193677902,0.05892699584364891,-9.849296569824219
1.7215720451048115e+18,0.08299416303634644,0.08290336281061172,-9.84248161315918
1.7215720451108116e+18,0.03817354142665863,-0.005525464192032814,-9.786381721496582
1.7215720451168118e+18,-0.012205640785396099,-0.01741686649620533,-9.806522369384766
1.721572045122812e+18,0.02313743159174919,0.09266336262226105,-9.863608360290527
1.721572045128812e+18,-0.0049539050087332726,-0.024327071383595467,-9.89118480682373
1.7215720451348122e+18,-0.09426320344209671,-0.013342086225748062,-9.755413055419922
1.7215720451408123e+18,0.04553700610995293,-0.024979550391435623,-9.794474601745605
1.7215720451468124e+18,0.04510986804962158,-0.026183029636740685,-9.847620964050293
1.7215720451528125e+18,0.04801594838500023,-0.010710013099014759,-9.821125984191895
1.7215720451558126e+18,-0.023077238351106644,-0.033027008175849915,-9.837002754211426
1.7215720451618127e+18,-0.03985239937901497,-0.019365744665265083,-9.77922248840332
1.7215720451678129e+18,0.031863220036029816,-0.007213527336716652,-9.79896354675293
1.721572045173813e+18,0.023104868829250336,0.026226967573165894,-9.811931610107422
1.721572045179813e+18,-0.06869740039110184,0.002411921275779605,-9.792105674743652
1.7215720451858132e+18,0.028828445822000504,0.03012499399483204,-9.832069396972656
1.7215720451918134e+18,0.061610251665115356,-0.060053709894418716,-9.711968421936035
1.7215720451978135e+18,-0.05206069350242615,0.03601453825831413,-9.836681365966797
1.7215720452038136e+18,0.035832226276397705,0.033210642635822296,-9.788864135742188
1.7215720452098138e+18,-0.04913436621427536,-0.008306766860187054,-9.727517127990723
1.721572045215814e+18,-0.00788307934999466,-0.011193512938916683,-9.81629467010498
1.721572045221814e+18,0.0789511576294899,-0.0861075147986412,-9.805485725402832
1.7215720452278141e+18,-0.01275655161589384,0.012304679490625858,-9.745264053344727
1.7215720452338143e+18,-0.009977662935853004,-0.05585049092769623,-9.793313026428223
1.7215720452398144e+18,-0.028326695784926414,0.005244261585175991,-9.753467559814453
1.7215720452428145e+18,0.0017841514199972153,0.0385286808013916,-9.75922679901123
1.7215720452488146e+18,0.0007437200983986259,0.017700694501399994,-9.779977798461914
1.7215720452548147e+18,-0.03469302877783775,-0.03788520023226738,-9.808089256286621
1.7215720452578148e+18,0.018484611064195633,-0.0224160049110651,-9.833414077758789
1.721572045263815e+18,-0.004068424459546804,-0.036391519010066986,-9.76535701751709
1.721572045269815e+18,-0.04858441278338432,0.010484347119927406,-9.737371444702148
1.7215720452758152e+18,0.005859728902578354,0.025416020303964615,-9.73641300201416
1.7215720452818153e+18,0.10214171558618546,0.07065866887569427,-9.732102394104004
1.7215720452878154e+18,0.04559693485498428,0.03992452099919319,-9.798398971557617
1.7215720452938156e+18,0.0388602577149868,0.02369956485927105,-9.839882850646973
1.7215720452998157e+18,0.00395622756332159,0.052048973739147186,-9.769458770751953
1.7215720453058158e+18,0.0747988298535347,-0.03778088837862015,-9.82412338256836
1.721572045311816e+18,-0.008635230362415314,-0.03122606687247753,-9.813220977783203
1.721572045317816e+18,-0.026062820106744766,-0.045437395572662354,-9.801077842712402
1.7215720453238162e+18,-0.030067218467593193,-0.03604159131646156,-9.831539154052734
1.7215720453298163e+18,0.08940684050321579,0.013718117028474808,-9.807881355285645
1.7215720453358164e+18,0.041417717933654785,0.10035540908575058,-9.773655891418457
1.7215720453418166e+18,0.010222637094557285,-0.02242252789437771,-9.837136268615723
1.7215720453478167e+18,0.01599653996527195,0.02045542187988758,-9.90166187286377
1.7215720453538168e+18,0.13246765732765198,-0.02804596722126007,-9.850506782531738
1.721572045359817e+18,0.07214061170816422,-0.014769336208701134,-9.828313827514648
1.721572045365817e+18,-0.058930762112140656,0.04289368912577629,-9.906539916992188
1.7215720453718172e+18,-0.03745045140385628,0.05693800747394562,-9.77991008758545
1.7215720453778173e+18,-0.06731941550970078,0.017212623730301857,-9.79369831085205
1.7215720453838175e+18,-0.08339589834213257,0.017787663266062737,-9.837274551391602
1.7215720453898176e+18,0.018480684608221054,-0.02889922261238098,-9.737096786499023
1.7215720453958177e+18,-0.033183503895998,-0.07419842481613159,-9.77911376953125
1.7215720454018179e+18,-0.0712713748216629,0.052620530128479004,-9.859953880310059
1.721572045407818e+18,0.009876593016088009,-0.007772528100758791,-9.811079025268555
1.721572045413818e+18,-0.011286141350865364,0.0420561321079731,-9.835155487060547
1.7215720454198182e+18,-0.019646648317575455,-0.02240651659667492,-9.790403366088867
1.7215720454258184e+18,0.05079192295670509,-0.017144208773970604,-9.794772148132324
1.7215720454318185e+18,0.03362157940864563,0.11939965933561325,-9.815949440002441
1.7215720454378186e+18,-0.08205722272396088,-0.013905242085456848,-9.731825828552246
1.7215720454408187e+18,-0.06897197663784027,-0.029068859294056892,-9.913658142089844
1.7215720454468188e+18,-0.05444081872701645,0.08659981936216354,-9.666027069091797
1.721572045452819e+18,-0.012774105183780193,0.0195555929094553,-9.8175048828125
1.721572045458819e+18,-0.04897378757596016,-0.04190649464726448,-9.737696647644043
1.7215720454648192e+18,-0.04847843945026398,0.048070549964904785,-9.814898490905762
1.7215720454708193e+18,-0.02570362202823162,0.046505823731422424,-9.876473426818848
1.7215720454768195e+18,-0.031017238274216652,-0.08983878046274185,-9.869400978088379
1.7215720454828196e+18,-0.007234342861920595,0.06938362121582031,-9.770751953125
1.7215720454888197e+18,0.0016865846700966358,-0.07847097516059875,-9.782666206359863
1.7215720454948198e+18,0.0027121189050376415,0.05641084909439087,-9.862382888793945
1.72157204550082e+18,0.061500053852796555,0.036766063421964645,-9.783673286437988
1.72157204550682e+18,0.011919647455215454,-0.0596780888736248,-9.772709846496582
1.7215720455128202e+18,-0.025441108271479607,0.0012238452909514308,-9.804719924926758
1.7215720455188204e+18,0.09518739581108093,0.01991588994860649,-9.810004234313965
1.7215720455248205e+18,0.01805540733039379,-0.01820642687380314,-9.82973861694336
1.7215720455308206e+18,0.04296829551458359,-0.01845533587038517,-9.816880226135254
1.7215720455368207e+18,-0.03216167911887169,0.0567953996360302,-9.772459983825684
1.7215720455398208e+18,0.07346434891223907,0.02094356156885624,-9.828452110290527
1.721572045545821e+18,0.05869027227163315,-0.06270832568407059,-9.728002548217773
1.721572045554821e+18,-0.007021745666861534,0.022111676633358,-9.822230339050293
1.7215720455578212e+18,-0.04285877197980881,0.019949257373809814,-9.83841609954834
1.7215720455668214e+18,-0.10431454330682755,-0.02217758633196354,-9.833537101745605
1.7215720455698214e+18,0.0001515263138571754,-0.08187317103147507,-9.772320747375488
1.7215720455788216e+18,0.0880277082324028,-0.07018617540597916,-9.837413787841797
1.7215720455818217e+18,0.05233398452401161,-0.008513352833688259,-9.847620010375977
1.7215720455878218e+18,0.009355508722364902,0.001679728040471673,-9.841078758239746
1.721572045593822e+18,0.09027650207281113,-0.03556152433156967,-9.814940452575684
1.721572045596822e+18,-0.030557461082935333,0.03557402268052101,-9.833203315734863
1.7215720456028221e+18,0.027685614302754402,0.06583350151777267,-9.838313102722168
1.7215720456088223e+18,0.0335809551179409,-0.007563950959593058,-9.786408424377441
1.7215720456148224e+18,0.03481784462928772,-0.04055924713611603,-9.814371109008789
1.7215720456208225e+18,-0.00682006124407053,0.042544640600681305,-9.857784271240234
1.7215720456268227e+18,0.06599979847669601,-0.003933979198336601,-9.835380554199219
1.7215720456328228e+18,0.052136413753032684,0.011671583168208599,-9.891942977905273
1.721572045638823e+18,0.0225500650703907,-0.016442306339740753,-9.72870922088623
1.721572045644823e+18,0.006764514837414026,-0.01357701700180769,-9.842952728271484
1.7215720456508232e+18,-0.01131838746368885,-0.00782864075154066,-9.771479606628418
1.7215720456568233e+18,-0.0032987287268042564,-0.009365865029394627,-9.848905563354492
1.7215720456628234e+18,0.008345129899680614,0.05120231583714485,-9.835248947143555
1.7215720456688236e+18,-0.04675044119358063,0.043114688247442245,-9.837162971496582
1.7215720456748237e+18,-0.05624828860163689,0.007281242869794369,-9.78788948059082
1.7215720456778237e+18,0.05497201159596443,0.020547572523355484,-9.83290958404541
1.7215720456838239e+18,-0.0024340106174349785,0.013395587913691998,-9.773971557617188
1.721572045689824e+18,0.039781197905540466,0.005183377303183079,-9.873826026916504
1.7215720456958241e+18,0.060581058263778687,-0.02931012399494648,-9.849359512329102
1.7215720457018243e+18,0.012954100966453552,-0.018930157646536827,-9.81984806060791
1.7215720457078244e+18,-0.044931236654520035,0.02612488344311714,-9.763313293457031
1.7215720457108244e+18,0.015901830047369003,-0.01367674395442009,-9.783586502075195
1.7215720457168246e+18,0.020812803879380226,0.020173024386167526,-9.796177864074707
1.7215720457198246e+18,0.04156239703297615,-0.023597370833158493,-9.841961860656738
1.7215720457258248e+18,-0.07368774712085724,0.025792229920625687,-9.789074897766113
1.721572045731825e+18,-0.02118101716041565,-0.03705010563135147,-9.782770156860352
1.721572045737825e+18,0.009921339340507984,0.07737650722265244,-9.85550594329834
1.7215720457438252e+18,0.07336601614952087,0.01697554625570774,-9.815491676330566
1.7215720457468252e+18,-0.09811761975288391,-0.004287525545805693,-9.8157958984375
1.7215720457528253e+18,0.041949257254600525,-0.08525758981704712,-9.856216430664062
1.7215720457558254e+18,-0.046057410538196564,-0.01950574293732643,-9.84402847290039
1.7215720457618255e+18,-0.02853413298726082,0.02563147246837616,-9.801114082336426
1.7215720457678257e+18,-0.015070769935846329,-0.06176164373755455,-9.876401901245117
1.7215720457738258e+18,0.05692112073302269,0.003843653481453657,-9.758164405822754
1.721572045779826e+18,0.021778792142868042,-0.0347914844751358,-9.711678504943848
1.721572045785826e+18,0.027048688381910324,-0.066971056163311,-9.799650192260742
1.7215720457918262e+18,-0.07230999320745468,-0.0493583157658577,-9.771417617797852
1.7215720457978263e+18,0.03866296634078026,-0.020131099969148636,-9.763339042663574
1.7215720458038264e+18,0.09346438944339752,0.014346183277666569,-9.797433853149414
1.7215720458098266e+18,0.03461042791604996,0.019901027902960777,-9.821062088012695
1.7215720458158267e+18,-0.015866486355662346,0.021255215629935265,-9.776711463928223
1.7215720458218268e+18,0.0877058357000351,0.019109992310404778,-9.874452590942383
1.721572045827827e+18,-0.019387438893318176,0.050235580652952194,-9.901296615600586
1.721572045833827e+18,0.009955451823771,0.029076142236590385,-9.910931587219238
1.7215720458398272e+18,-0.07035068422555923,0.05148695781826973,-9.872779846191406
1.7215720458458273e+18,-0.015576893463730812,-0.006694480311125517,-9.94604778289795
1.7215720458518275e+18,-0.05837336927652359,-0.04790483042597771,-9.850591659545898
1.7215720458578276e+18,0.013972845859825611,-0.028891155496239662,-9.943353652954102
1.7215720458638277e+18,0.06673279404640198,-0.06640809029340744,-9.817028045654297
1.7215720458698278e+18,-0.061104197055101395,0.05940036103129387,-9.899109840393066
1.721572045875828e+18,-0.011977626010775566,0.03806731477379799,-9.854196548461914
1.721572045881828e+18,-0.09954844415187836,0.1327282339334488,-9.88293743133545
1.7215720458878282e+18,-0.005055662244558334,0.005967205390334129,-9.886821746826172
1.7215720458908283e+18,-0.019648216664791107,0.08975609391927719,-9.851201057434082
1.7215720458998285e+18,-0.05705251544713974,-0.029637126252055168,-9.802520751953125
1.7215720459058286e+18,0.036542847752571106,-0.008239563554525375,-9.89802360534668
1.7215720459118287e+18,0.046458899974823,-0.057989880442619324,-9.835905075073242
1.7215720459178289e+18,-0.058620914816856384,0.028371091932058334,-9.863618850708008
1.721572045923829e+18,-0.03202499821782112,0.019739672541618347,-9.879233360290527
1.721572045926829e+18,0.060955628752708435,-0.007579441647976637,-9.872620582580566
1.7215720459328292e+18,0.04504683241248131,0.0384761281311512,-9.865378379821777
1.7215720459418294e+18,0.004074788186699152,0.03215375170111656,-9.912178993225098
1.7215720459448294e+18,0.003710757242515683,-0.013855784200131893,-9.904790878295898
1.7215720459508296e+18,-0.03061581775546074,0.013091553933918476,-9.77541446685791
1.7215720459568297e+18,-0.01811625435948372,0.031008737161755562,-9.823945999145508
1.7215720459598298e+18,-0.022148992866277695,0.012356774881482124,-9.845373153686523
1.72157204596583e+18,-0.029286935925483704,-0.020841805264353752,-9.888089179992676
1.72157204597183e+18,-0.019107069820165634,-0.0050115869380533695,-9.8253173828125
1.7215720459778301e+18,0.09715697914361954,-0.007620933465659618,-9.914168357849121
1.7215720459838303e+18,-0.002120514865964651,0.011447970755398273,-9.888026237487793
1.7215720459898304e+18,0.008470766246318817,0.019555628299713135,-9.909089088439941
1.7215720459928305e+18,-0.018534114584326744,0.006917009595781565,-9.92680835723877
1.7215720459988306e+18,0.008743801154196262,-0.005214638076722622,-9.859598159790039
1.7215720460078308e+18,0.03244331106543541,0.05842575058341026,-9.865981101989746
1.7215720460108308e+18,-0.006380943581461906,-0.028592241927981377,-9.93802261352539
1.721572046019831e+18,-0.007597723510116339,0.0015110516687855124,-9.935224533081055
1.721572046022831e+18,-0.042098406702280045,0.03428664430975914,-9.89067554473877
1.7215720460288312e+18,0.03286334499716759,0.09533080458641052,-9.952678680419922
1.7215720460348314e+18,0.03970085829496384,-0.03160437196493149,-9.82772159576416
1.7215720460408315e+18,-0.0102302897721529,-0.01615135371685028,-9.890425682067871
1.7215720460468316e+18,0.0007916513131931424,-0.026126403361558914,-9.875308990478516
1.7215720460528317e+18,-0.0450640432536602,-0.03850550949573517,-9.801854133605957
1.721572046058832e+18,-0.023160958662629128,0.006397146265953779,-9.888205528259277
1.721572046064832e+18,0.03258432447910309,-0.06169430911540985,-9.89788818359375
1.721572046070832e+18,0.030102873221039772,0.035393062978982925,-9.834846496582031
1.7215720460768323e+18,0.03277338296175003,-0.04736059904098511,-9.825316429138184
1.7215720460828324e+18,-0.04077250137925148,0.006355020217597485,-9.84469223022461
1.7215720460858324e+18,-0.08667268604040146,0.01297074742615223,-9.919698715209961
1.7215720460918326e+18,0.06091966852545738,-0.026937544345855713,-9.85598373413086
1.7215720460978327e+18,0.0018192955758422613,-0.01606457494199276,-9.875164031982422
1.7215720461038328e+18,-0.04516531899571419,0.00752752460539341,-9.88111686706543
1.721572046106833e+18,-0.011463643983006477,0.02558816969394684,-9.866336822509766
1.721572046112833e+18,-0.1002705842256546,-0.04830003157258034,-9.879280090332031
1.7215720461188332e+18,-0.01957623101770878,0.028720797970891,-9.853455543518066
1.7215720461248333e+18,-0.052876248955726624,-0.09192421287298203,-9.909268379211426
1.7215720461308334e+18,-0.05853990465402603,0.041228633373975754,-9.883929252624512
1.7215720461338335e+18,0.02133348025381565,0.005217315163463354,-9.881467819213867
1.7215720461398336e+18,0.06752733886241913,0.006690972484648228,-9.845108985900879
1.7215720461458337e+18,-0.006176616530865431,-0.011238806881010532,-9.903008460998535
1.7215720461518339e+18,-0.003810114460065961,0.008496425114572048,-9.881888389587402
1.721572046157834e+18,-0.07943737506866455,0.04727143049240112,-9.80911922454834
1.721572046163834e+18,-0.05739574879407883,-0.07461037486791611,-9.940621376037598
1.7215720461698342e+18,-0.01773458532989025,0.031054921448230743,-9.897542953491211
1.7215720461758344e+18,-0.04209781065583229,0.055756330490112305,-9.827346801757812
1.7215720461818345e+18,0.05126086249947548,0.062428779900074005,-9.864264488220215
1.7215720461878346e+18,0.016282087191939354,0.05987017601728439,-9.878772735595703
1.7215720461938348e+18,-0.08465312421321869,-0.051579903811216354,-9.887838363647461
1.7215720461968348e+18,-0.03092942200601101,0.047437094151973724,-9.88271427154541
1.721572046202835e+18,-0.018952129408717155,0.054783131927251816,-9.87963581085205
1.721572046208835e+18,0.08294599503278732,0.014613263309001923,-9.863075256347656
1.7215720462148352e+18,-0.011707263998687267,-0.016310153529047966,-9.897562026977539
1.7215720462208353e+18,-0.02888725884258747,0.019433187320828438,-9.911399841308594
1.7215720462238354e+18,0.09363652020692825,-0.006920515559613705,-9.91278076171875
1.7215720462298355e+18,-0.03957635164260864,0.08688599616289139,-9.866689682006836
1.7215720462358356e+18,0.10006868839263916,-0.07073462009429932,-9.925722122192383
1.7215720462418358e+18,-0.03891293331980705,-0.0356970839202404,-9.866593360900879
1.7215720462448358e+18,-0.013207553885877132,0.01993367075920105,-9.87812614440918
1.721572046250836e+18,0.06708106398582458,0.029668236151337624,-9.903603553771973
1.721572046256836e+18,0.007359661161899567,0.011979343369603157,-9.819611549377441
1.7215720462598362e+18,-0.010120595805346966,-0.03911503776907921,-9.886085510253906
1.7215720462658363e+18,-0.020517989993095398,0.012647142633795738,-9.833000183105469
1.7215720462718364e+18,-0.01684270240366459,-0.04499838873744011,-9.897876739501953
1.7215720462778365e+18,0.02688715048134327,-0.020852860063314438,-9.89205265045166
1.7215720462838367e+18,-0.040397077798843384,0.013119503855705261,-9.883320808410645
1.7215720462898368e+18,0.005513711832463741,0.006285976618528366,-9.879888534545898
1.721572046295837e+18,-0.05392089858651161,-0.014484756626188755,-9.892890930175781
1.721572046301837e+18,0.09720515459775925,-0.030338924378156662,-9.93466854095459
1.7215720463078372e+18,0.014834674075245857,0.009918893687427044,-9.906493186950684
1.7215720463138373e+18,-0.007448866497725248,0.04495242238044739,-9.838544845581055
1.7215720463198374e+18,0.004964050836861134,-0.0242453683167696,-9.970163345336914
1.7215720463258376e+18,-0.03474600985646248,0.003177021164447069,-9.835711479187012
1.7215720463318377e+18,-0.029600199311971664,-0.05538328364491463,-9.853757858276367
1.7215720463378378e+18,-0.00023215403780341148,0.03934825211763382,-9.820395469665527
1.721572046343838e+18,-0.01296684518456459,0.08423550426959991,-9.952361106872559
1.721572046349838e+18,-0.005039513111114502,0.06010693684220314,-9.861128807067871
1.7215720463558382e+18,-0.03173486143350601,-0.054789088666439056,-9.880453109741211
1.7215720463588383e+18,-0.012278636917471886,0.008255542255938053,-9.814576148986816
1.7215720463648384e+18,-0.07396533340215683,0.03346923366189003,-9.88353443145752
1.7215720463708385e+18,0.0006118090241216123,-0.011893452145159245,-9.81511116027832
1.7215720463768387e+18,-0.021854903548955917,-0.05596308037638664,-9.898303031921387
1.7215720463828388e+18,0.044981811195611954,0.06264420598745346,-9.946483612060547
1.721572046388839e+18,0.004428809508681297,-0.028035657480359077,-9.907687187194824
1.721572046394839e+18,-0.022852657362818718,0.08148423582315445,-9.913747787475586
1.7215720464008392e+18,0.11159677803516388,0.019954318180680275,-9.877768516540527
1.7215720464038392e+18,-0.020468177273869514,0.05349591001868248,-9.845463752746582
1.7215720464188396e+18,0.017980143427848816,-0.004726926796138287,-9.88959789276123
1.7215720464248397e+18,-0.04154862090945244,0.02637346461415291,-9.942846298217773
1.7215720464308398e+18,-0.06802688539028168,-0.012096820399165154,-9.862723350524902
1.72157204643684e+18,0.04766453802585602,0.04453938826918602,-9.873973846435547
1.72157204644284e+18,-0.02549917623400688,-0.00612823199480772,-9.959836959838867
1.7215720464488402e+18,-0.01913568004965782,-0.03644910454750061,-9.945022583007812
1.7215720464548403e+18,-0.03433062508702278,-0.022376637905836105,-9.919342994689941
1.7215720464668406e+18,0.02144712768495083,-0.022252172231674194,-9.848248481750488
1.7215720464728407e+18,-0.0005355664761736989,0.07176300883293152,-9.856679916381836
1.7215720464788408e+18,0.05056089162826538,0.01795893907546997,-9.877888679504395
1.721572046484841e+18,-0.012994296848773956,-0.07813381403684616,-9.850930213928223
1.721572046490841e+18,0.0011589222121983767,0.04277809336781502,-9.862236022949219
1.7215720464938412e+18,0.029835933819413185,0.029520004987716675,-9.882472038269043
1.7215720464998413e+18,-0.06717877835035324,0.007039682473987341,-9.799530982971191
1.7215720465058414e+18,0.056670185178518295,-0.05052860826253891,-9.824068069458008
1.7215720465088415e+18,-0.04049251228570938,-0.048554062843322754,-9.971195220947266
1.7215720465148416e+18,-0.002762013813480735,-0.01271292194724083,-9.810287475585938
1.7215720465208417e+18,0.014453260228037834,-0.001491389935836196,-9.944489479064941
1.7215720465268419e+18,0.016311118379235268,-0.021601520478725433,-9.891573905944824
1.721572046529842e+18,-0.039715297520160675,-0.10325807332992554,-9.889644622802734
1.721572046535842e+18,-0.0022855892311781645,0.051347438246011734,-9.894927978515625
1.7215720465418422e+18,0.012933009304106236,0.0004124882398173213,-9.908364295959473
1.7215720465478423e+18,-0.0338403582572937,0.021822011098265648,-10.010830879211426
1.7215720465538424e+18,0.04988840967416763,-0.0017360419733449817,-9.769951820373535
1.7215720465598426e+18,-0.020733535289764404,0.05767799913883209,-9.878793716430664
1.7215720465658427e+18,-0.050437312573194504,-0.03319759666919708,-9.929009437561035
1.7215720465718428e+18,-0.06426069140434265,-0.026943974196910858,-9.901535987854004
1.721572046580843e+18,-0.012014799751341343,-0.08835934847593307,-9.8828706741333
1.7215720465868431e+18,0.03283638134598732,-0.005430985242128372,-9.80928897857666
1.7215720465928433e+18,0.01459505781531334,0.008002512156963348,-9.854610443115234
1.7215720465988434e+18,0.04966887831687927,0.05438864976167679,-9.913562774658203
1.7215720466048435e+18,0.00425747549161315,0.004027817398309708,-9.858272552490234
1.7215720466108436e+18,-0.08131871372461319,-0.0004594678757712245,-9.875781059265137
1.7215720466168438e+18,0.018116066232323647,0.044024381786584854,-9.955108642578125
1.721572046622844e+18,-0.011487381532788277,-0.054571978747844696,-9.866583824157715
1.721572046628844e+18,-0.02702796272933483,-0.010320531204342842,-9.805688858032227
1.7215720466378442e+18,0.010522532276809216,-9.77466770564206e-05,-9.837851524353027
1.7215720466438444e+18,-0.009406140074133873,0.024619005620479584,-9.889480590820312
1.7215720466498445e+18,-0.08113200217485428,-0.06681255996227264,-9.920610427856445
1.7215720466558446e+18,-0.004742511082440615,-0.005215722136199474,-9.90350341796875
1.7215720466618447e+18,-0.050733767449855804,-0.049145422875881195,-10.016770362854004
1.7215720466678449e+18,0.05829198285937309,-0.020438557490706444,-9.994415283203125
1.721572046673845e+18,0.014400365762412548,0.01118621975183487,-9.955279350280762
1.721572046679845e+18,0.023613540455698967,-0.006401667837053537,-9.889860153198242
1.7215720466858452e+18,0.03745755925774574,0.06756778061389923,-9.956050872802734
1.7215720466918454e+18,0.0224140677601099,0.04760121554136276,-10.003072738647461
1.7215720467008456e+18,-0.009265240281820297,0.020476598292589188,-9.986706733703613
1.7215720467068457e+18,0.016366692259907722,0.027866851538419724,-10.102895736694336
1.7215720467128458e+18,0.009272043593227863,0.03730762377381325,-10.09658145904541
1.721572046718846e+18,0.05652621388435364,0.016186930239200592,-10.094897270202637
1.721572046724846e+18,0.05235361307859421,0.03727975860238075,-10.124561309814453
1.7215720467308462e+18,-0.005943601951003075,-0.07797989994287491,-10.07819652557373
1.7215720467368463e+18,0.04164903983473778,-0.01607080176472664,-10.169800758361816
1.7215720467428465e+18,-0.022695621475577354,0.048234522342681885,-10.160847663879395
1.7215720467488466e+18,-0.051923174411058426,-0.03311121091246605,-10.179780960083008
1.7215720467548467e+18,0.057134173810482025,0.0044993138872087,-10.10278034210205
1.7215720467608468e+18,0.035503000020980835,0.06492431461811066,-10.0469331741333
1.721572046769847e+18,-0.020758356899023056,-0.013573827221989632,-10.204360008239746
1.7215720467758472e+18,0.05611196160316467,-0.00682475883513689,-10.082426071166992
1.7215720467818473e+18,-0.0563143752515316,0.09750842303037643,-10.174430847167969
1.7215720467878474e+18,-0.03434651717543602,0.012591026723384857,-10.207630157470703
1.7215720467938476e+18,0.02217124216258526,-0.03587603196501732,-10.192970275878906
1.7215720467998477e+18,-0.02453507110476494,-0.011183034628629684,-10.212777137756348
1.7215720468058478e+18,-0.08426538854837418,0.03568113222718239,-10.185544967651367
1.721572046811848e+18,0.012988037429749966,0.08243739604949951,-10.207778930664062
1.721572046817848e+18,-0.024635830894112587,0.026831580325961113,-10.244783401489258
1.7215720468238482e+18,-0.0086313895881176,0.0019290647469460964,-10.232309341430664
1.7215720468298483e+18,-0.03044787608087063,0.022353028878569603,-10.247920989990234
1.7215720468358484e+18,-0.015240226872265339,0.023541031405329704,-10.244983673095703
1.7215720468418486e+18,-0.007924176752567291,0.032254770398139954,-10.208935737609863
1.7215720468508488e+18,-0.0289513748139143,-0.01298303809016943,-10.246377944946289
1.721572046856849e+18,0.04303717613220215,-0.07559752464294434,-10.206382751464844
1.721572046862849e+18,0.07275740057229996,0.04135401174426079,-10.225895881652832
1.7215720468688492e+18,0.0206746943295002,0.04968200623989105,-10.226731300354004
1.7215720468748493e+18,0.09539224952459335,0.004754133056849241,-10.25314998626709
1.7215720468778493e+18,-0.019979804754257202,-0.03593401983380318,-10.237181663513184
1.7215720468838495e+18,-0.024612240493297577,-0.0011758682085201144,-10.244903564453125
1.7215720468898496e+18,-0.05376588925719261,0.03498978912830353,-10.308051109313965
1.7215720468958497e+18,-0.0048517691902816296,-0.008392919786274433,-10.329683303833008
1.7215720468988498e+18,-0.03327460214495659,-0.016046032309532166,-10.47160816192627
1.72157204690485e+18,0.0508679561316967,-0.08831151574850082,-10.423125267028809
1.72157204691085e+18,0.031720902770757675,-0.07255018502473831,-10.458613395690918
1.7215720469168502e+18,0.057981137186288834,0.0009939040755853057,-10.420140266418457
1.7215720469228503e+18,0.00802290067076683,-0.07416483759880066,-10.450926780700684
1.7215720469288504e+18,-0.004163961857557297,-0.00012710032751783729,-10.461410522460938
1.7215720469348506e+18,0.058678798377513885,0.002795595210045576,-10.485088348388672
1.7215720469408507e+18,0.026444299146533012,-0.0026849890127778053,-10.588726043701172
1.7215720469468508e+18,-0.0038899562787264585,-0.04918546602129936,-10.561452865600586
1.721572046952851e+18,-0.07115736603736877,0.054557133466005325,-10.627758979797363
1.721572046958851e+18,0.022358059883117676,-0.03387241065502167,-10.641446113586426
1.7215720469648512e+18,0.06305769830942154,-0.005745152942836285,-10.60205364227295
1.7215720469708513e+18,-0.0369940809905529,-0.03343229740858078,-10.620573997497559
1.7215720469738514e+18,0.05024247244000435,0.027253249660134315,-10.610800743103027
1.7215720469798515e+18,0.05109839513897896,-0.010840913280844688,-10.64570140838623
1.7215720469858516e+18,0.06125966086983681,0.03866426274180412,-10.596914291381836
1.7215720469918518e+18,-0.0039878590032458305,0.007980580441653728,-10.611584663391113
1.721572046997852e+18,-0.04692528396844864,-0.05262107774615288,-10.58626651763916
1.721572047003852e+18,0.0418202169239521,-0.017370468005537987,-10.5531644821167
1.7215720470098522e+18,0.0370100736618042,-0.018740730360150337,-10.642888069152832
1.7215720470158523e+18,-0.020068617537617683,-0.01897764950990677,-10.643485069274902
1.7215720470218524e+18,0.024419883266091347,0.056555915623903275,-10.63659381866455
1.7215720470278525e+18,-0.013879142701625824,-0.06195621192455292,-10.577020645141602
1.7215720470368527e+18,0.012563453987240791,-0.011158687993884087,-10.60123062133789
1.7215720470428529e+18,-0.006150159053504467,0.016075626015663147,-10.545038223266602
1.721572047048853e+18,0.04443340748548508,-0.1070031002163887,-10.603757858276367
1.721572047054853e+18,0.03307396546006203,-0.0759335607290268,-10.676414489746094
1.7215720470608532e+18,-0.05291682481765747,-0.0139666348695755,-10.637828826904297
1.7215720470638533e+18,0.008085611276328564,0.010736909694969654,-10.612876892089844
1.7215720470698534e+18,-0.07617918401956558,0.05371986702084541,-10.637273788452148
1.7215720470758536e+18,0.0071833147667348385,0.026790983974933624,-10.67969799041748
1.7215720470818537e+18,-0.04231669753789902,-0.016395336017012596,-10.739873886108398
1.7215720470878538e+18,-0.008242719806730747,-0.0285805556923151,-10.713915824890137
1.721572047090854e+18,-0.030143745243549347,0.020711347460746765,-10.75898551940918
1.721572047096854e+18,-0.04653630033135414,0.0024293360766023397,-10.70418643951416
1.7215720471028541e+18,-0.01671248860657215,-0.016888240352272987,-10.679040908813477
1.7215720471088543e+18,0.09836027771234512,0.0256212055683136,-10.899482727050781
1.7215720471148544e+18,-0.07122952491044998,0.002304582390934229,-10.825589179992676
1.7215720471208545e+18,-0.011904899030923843,0.07500185072422028,-10.848934173583984
1.7215720471268547e+18,0.012531721033155918,0.07665953785181046,-10.841856956481934
1.7215720471328548e+18,-0.010761415585875511,-0.023525753989815712,-10.802313804626465
1.721572047138855e+18,0.11502735316753387,0.04716728255152702,-10.917594909667969
1.721572047144855e+18,-0.047075364738702774,0.05945136398077011,-10.905084609985352
1.7215720471508552e+18,-0.04890751093626022,0.018934784457087517,-10.933423042297363
1.7215720471568553e+18,-0.10967420041561127,0.07150636613368988,-10.946795463562012
1.7215720471628554e+18,0.02490975521504879,0.05257819965481758,-10.928352355957031
1.7215720471688556e+18,-0.0334378182888031,0.07308926433324814,-10.905851364135742
1.7215720471748557e+18,-0.014170587994158268,0.05280706658959389,-10.90980339050293
1.7215720471808558e+18,-0.023415520787239075,0.05944495275616646,-10.965835571289062
1.7215720471838559e+18,-0.002248036442324519,-0.03449143469333649,-10.9623384475708
1.721572047189856e+18,0.0035308559890836477,-0.005139664746820927,-10.988922119140625
1.7215720471958561e+18,-0.09253319352865219,0.01225711777806282,-10.95865249633789
1.7215720472018563e+18,-0.013814160600304604,0.0977196991443634,-10.925795555114746
1.7215720472078564e+18,-0.014024222269654274,-0.024393755942583084,-10.973471641540527
1.7215720472138565e+18,-0.030912190675735474,0.014540893025696278,-10.971576690673828
1.7215720472228567e+18,-0.017158083617687225,0.056348107755184174,-10.897119522094727
1.7215720472288568e+18,0.03306533396244049,0.05394819378852844,-10.977351188659668
1.721572047234857e+18,-0.0240373145788908,0.01713184081017971,-10.98094654083252
1.721572047240857e+18,0.01730816811323166,-0.034183453768491745,-10.958216667175293
1.7215720472468572e+18,-0.05071116238832474,0.020526688545942307,-10.984210014343262
1.7215720472528573e+18,0.00046938733430579305,0.03434014320373535,-11.007280349731445
1.7215720472588575e+18,-0.007572363596409559,-0.014419491402804852,-10.952933311462402
1.7215720472648576e+18,-0.024073787033557892,0.02861936017870903,-10.851808547973633
1.7215720472708577e+18,0.03799430653452873,-0.013590323738753796,-10.99106502532959
1.7215720472738578e+18,0.06935582309961319,0.10718665271997452,-10.96415901184082
1.721572047279858e+18,-0.07452171295881271,-0.009709840640425682,-11.024179458618164
1.721572047288858e+18,0.001388800097629428,0.05849522724747658,-11.038311004638672
1.7215720472918582e+18,0.05446730554103851,0.04513800889253616,-10.994643211364746
1.7215720472978583e+18,-0.05228270962834358,-0.08719468861818314,-10.980377197265625
1.7215720473038584e+18,-0.031651247292757034,0.0066213831305503845,-10.984954833984375
1.7215720473068585e+18,0.013981401920318604,0.015077200718224049,-10.94494342803955
1.7215720473128586e+18,0.028852947056293488,0.020726818591356277,-10.974750518798828
1.7215720473188588e+18,-0.009923900477588177,0.03492525964975357,-10.928098678588867
1.721572047324859e+18,0.014756857417523861,-0.008140751160681248,-10.974985122680664
1.721572047330859e+18,0.009832861833274364,0.027397606521844864,-10.95130729675293
1.7215720473368591e+18,-0.010049920529127121,0.004456848371773958,-11.006088256835938
1.7215720473428593e+18,-0.02578839100897312,-0.026769481599330902,-11.025603294372559
1.7215720473518595e+18,0.05472366139292717,-0.057464297860860825,-10.962587356567383
1.7215720473578596e+18,0.05154632776975632,-0.04076520726084709,-10.943642616271973
1.7215720473638597e+18,-0.018338633701205254,-0.018107354640960693,-11.023797035217285
1.7215720473698598e+18,-0.03795546293258667,-0.029029930010437965,-10.967798233032227
1.72157204737586e+18,-0.11732848733663559,0.03411107510328293,-10.86645221710205
1.72157204738186e+18,0.038406748324632645,0.014975029975175858,-10.987116813659668
1.7215720473878602e+18,-0.018885012716054916,-0.047881901264190674,-10.942869186401367
1.7215720473908603e+18,-0.018743207678198814,0.05236588791012764,-10.917076110839844
1.7215720473968604e+18,0.07865782082080841,-0.007281846832484007,-11.057528495788574
1.7215720474028605e+18,0.0027924636378884315,0.013112845830619335,-11.025997161865234
1.7215720474088607e+18,-0.020588155835866928,0.05792325362563133,-10.970874786376953
1.7215720474148608e+18,-0.03812463954091072,-0.07430242747068405,-10.945762634277344
1.7215720474178609e+18,0.03963123634457588,-0.001989291748031974,-10.947717666625977
1.721572047423861e+18,-0.01306977216154337,-0.010873397812247276,-11.041316986083984
1.721572047429861e+18,0.06087260693311691,-0.023788223043084145,-11.019203186035156
1.7215720474358612e+18,0.036522526293992996,0.0017983424477279186,-10.955683708190918
1.7215720474418614e+18,-0.0400109738111496,0.02720668911933899,-10.92080307006836
1.7215720474448614e+18,0.0061079589650034904,-0.016346869990229607,-10.97581958770752
1.7215720474508616e+18,0.02517862431704998,0.010593119077384472,-11.09044361114502
1.7215720474598618e+18,0.003368857316672802,-0.08986996114253998,-10.96323013305664
1.721572047465862e+18,-0.027054715901613235,-0.019398914650082588,-10.883440971374512
1.721572047471862e+18,0.023525115102529526,-0.006915029603987932,-10.90023422241211
1.7215720474778621e+18,0.007312056142836809,0.003719063475728035,-11.011580467224121
1.7215720474838623e+18,-0.0005759065970778465,-0.020010650157928467,-10.913239479064941
1.7215720474898624e+18,-0.0035753613337874413,0.0472419336438179,-11.010087013244629
1.7215720474958625e+18,0.030557027086615562,0.0009522599284537137,-10.960855484008789
1.7215720475018627e+18,-0.01740550622344017,-0.012724398635327816,-10.96501350402832
1.7215720475078628e+18,0.029414597898721695,0.09118420630693436,-10.93398380279541
1.721572047513863e+18,0.006588423624634743,0.04040497913956642,-10.961859703063965
1.721572047519863e+18,-0.02177751436829567,-0.03172886371612549,-10.923745155334473
1.721572047522863e+18,-0.03362015634775162,0.029960429295897484,-11.017349243164062
1.7215720475288632e+18,-0.0423697791993618,-0.012426506727933884,-10.99592399597168
1.7215720475348634e+18,0.011224961839616299,0.03415233641862869,-10.992206573486328
1.7215720475408635e+18,0.015048855915665627,-0.0015322434483096004,-10.923177719116211
1.7215720475438636e+18,-0.018729403614997864,0.04091636836528778,-10.920642852783203
1.7215720475498637e+18,0.06658533960580826,0.08011516183614731,-10.991454124450684
1.7215720475558638e+18,0.0284346342086792,-0.08610935509204865,-10.917617797851562
1.721572047561864e+18,0.01673700287938118,0.05970911309123039,-10.928485870361328
1.721572047567864e+18,-0.05090266466140747,-0.008421913720667362,-10.942826271057129
1.721572047570864e+18,0.021955035626888275,-0.026449836790561676,-10.864029884338379
1.7215720475768643e+18,0.04155048727989197,-0.05697239562869072,-10.991640090942383
1.7215720475828644e+18,0.011481107212603092,0.030627239495515823,-11.013789176940918
1.7215720475858644e+18,-0.046936795115470886,-0.07322023808956146,-10.90406608581543
1.7215720475918646e+18,-0.047426722943782806,-0.011277501471340656,-10.902520179748535
1.7215720475978647e+18,-0.07193641364574432,0.008482632227241993,-10.943513870239258
1.7215720476038648e+18,-0.04004249721765518,0.0009491755627095699,-11.003379821777344
1.721572047609865e+18,0.009383631870150566,-0.0426584929227829,-10.903587341308594
1.721572047615865e+18,0.004717322997748852,0.015725845471024513,-10.939774513244629
1.7215720476218652e+18,-0.006699575576931238,0.0811934769153595,-10.958772659301758
1.7215720476278653e+18,0.013852991163730621,-0.06468754261732101,-10.93808650970459
1.7215720476338655e+18,-0.04570099338889122,0.011871548369526863,-10.944734573364258
1.7215720476398656e+18,0.06860996037721634,-0.024615518748760223,-10.919609069824219
1.7215720476458657e+18,0.0338144414126873,-0.028318291530013084,-10.875473976135254
1.7215720476518659e+18,0.036642201244831085,-0.014534463174641132,-10.91270637512207
1.721572047657866e+18,-0.05051279440522194,-0.04927397146821022,-10.87371826171875
1.721572047663866e+18,-0.046975135803222656,-0.07158085703849792,-10.947715759277344
1.7215720476698662e+18,-0.014515714719891548,0.014780504629015923,-10.955728530883789
1.7215720476758664e+18,0.04042447358369827,0.0049460954032838345,-10.940203666687012
1.7215720476818665e+18,-0.10238975286483765,-0.06658124923706055,-10.965638160705566
1.7215720476878666e+18,-0.08994612097740173,-0.06871595233678818,-10.901922225952148
1.7215720476938668e+18,-0.016605719923973083,0.07435265928506851,-10.861157417297363
1.721572047699867e+18,-0.010814286768436432,-0.023996124044060707,-10.943196296691895
1.721572047705867e+18,-0.01849745586514473,-0.034183286130428314,-10.911744117736816
1.7215720477118671e+18,0.03656565025448799,0.016393639147281647,-10.936156272888184
1.7215720477178673e+18,0.007396015338599682,-0.0068358611315488815,-10.949024200439453
1.7215720477238674e+18,0.050616536289453506,0.007610186003148556,-10.906411170959473
1.7215720477298675e+18,-0.0417012944817543,0.11165311932563782,-10.927224159240723
1.7215720477358676e+18,-0.015208038501441479,-0.05251519754528999,-10.895112991333008
1.7215720477418678e+18,-0.020615458488464355,0.0844319760799408,-10.919234275817871
1.721572047747868e+18,-0.004929083865135908,-0.049975134432315826,-10.962141990661621
1.721572047753868e+18,-0.06646259874105453,0.06038815900683403,-10.936388969421387
1.721572047756868e+18,0.03189386427402496,-0.006364273838698864,-10.956283569335938
1.7215720477628682e+18,-0.01626836322247982,-0.03267109766602516,-10.921844482421875
1.7215720477688684e+18,-0.0038340287283062935,-0.015926992520689964,-10.919042587280273
1.7215720477778685e+18,-0.021769624203443527,-0.017842411994934082,-10.9197416305542
1.7215720477808686e+18,0.023214660584926605,0.07268541306257248,-10.867908477783203
1.7215720477868687e+18,0.036191798746585846,0.07325005531311035,-10.923949241638184
1.7215720477928689e+18,-0.015321541577577591,0.06654535979032516,-10.96207332611084
1.721572047798869e+18,-0.035557329654693604,0.03905213251709938,-10.861912727355957
1.721572047804869e+18,-0.02853924036026001,0.08657803386449814,-10.962299346923828
1.7215720478108692e+18,0.0779731273651123,-0.009483849629759789,-10.943742752075195
1.7215720478138693e+18,-0.07373238354921341,-0.007270738948136568,-10.923622131347656
1.7215720478198694e+18,0.012760120443999767,0.07400215417146683,-10.8795747756958
1.7215720478228695e+18,-0.02795332297682762,-0.04546884447336197,-10.821451187133789
1.7215720478288696e+18,0.034416258335113525,0.03631610795855522,-10.886330604553223
1.7215720478348698e+18,-0.016860835254192352,-0.02483988180756569,-10.938031196594238
1.72157204784087e+18,-0.023194720968604088,0.026813199743628502,-10.901183128356934
1.72157204784987e+18,0.059810757637023926,-0.050660233944654465,-10.821953773498535
1.7215720478558702e+18,0.0006714655901305377,0.05516454949975014,-10.843459129333496
1.7215720478618703e+18,-0.05248897150158882,-0.06340084969997406,-10.848298072814941
1.7215720478678705e+18,-0.05268454551696777,0.00857815332710743,-10.908589363098145
1.7215720478738706e+18,0.003117732238024473,-0.09556805342435837,-10.805602073669434
1.7215720478798707e+18,-0.10591818392276764,0.015160543844103813,-10.787569046020508
1.7215720478858708e+18,-0.090367890894413,0.006537312641739845,-10.833106994628906
1.721572047891871e+18,0.012158136814832687,-0.011409739032387733,-10.962055206298828
1.721572047897871e+18,-0.034631453454494476,-0.04019249975681305,-10.808856010437012
1.7215720479038712e+18,0.034281399101018906,0.03587469831109047,-10.835904121398926
1.7215720479098714e+18,-0.03452465683221817,0.03481364622712135,-10.875588417053223
1.7215720479158715e+18,-0.03375226631760597,-0.029636897146701813,-10.802525520324707
1.7215720479218716e+18,-0.027111800387501717,0.04269810765981674,-10.796943664550781
1.7215720479278717e+18,-0.009180784225463867,0.001083863782696426,-10.81372356414795
1.7215720479308718e+18,-0.02128651551902294,-0.10950624942779541,-10.833426475524902
1.721572047936872e+18,-0.020687777549028397,0.10334938019514084,-10.781492233276367
1.721572047942872e+18,-0.027373911812901497,0.052664369344711304,-10.86137580871582
1.7215720479458721e+18,-0.018665384501218796,-0.03163644298911095,-10.800325393676758
1.7215720479518723e+18,0.014998095110058784,0.0011279270984232426,-10.879988670349121
1.7215720479578724e+18,0.03851223737001419,0.020636852830648422,-10.907456398010254
1.7215720479638725e+18,0.042900003492832184,-0.008182068355381489,-10.830683708190918
1.7215720479698726e+18,0.010522086173295975,-0.07273934036493301,-10.798497200012207
1.7215720479728727e+18,-0.08168313652276993,-0.002591370604932308,-10.799428939819336
1.7215720479788728e+18,-0.0014884918928146362,-0.02191595360636711,-10.79551887512207
1.721572047984873e+18,-0.007339709438383579,0.0037019476294517517,-10.755939483642578
1.721572047990873e+18,0.06305205076932907,0.043713465332984924,-10.80210018157959
1.7215720479968732e+18,-0.042404137551784515,-0.010419762693345547,-10.772823333740234
1.7215720480028733e+18,-0.010365878231823444,0.022324467077851295,-10.736746788024902
1.7215720480088735e+18,0.03798386827111244,0.053709954023361206,-10.777998924255371
1.7215720480148736e+18,0.016045644879341125,0.02766479179263115,-10.845617294311523
1.7215720480238738e+18,0.04855194687843323,-0.05577519163489342,-10.807695388793945
1.721572048029874e+18,0.029817476868629456,0.0033411472104489803,-10.780437469482422
1.721572048035874e+18,0.07927317172288895,0.08229309320449829,-10.767500877380371
1.7215720480418742e+18,0.03161245957016945,-0.007025688886642456,-10.86721134185791
1.7215720480478743e+18,-0.044704001396894455,-0.050098348408937454,-10.804828643798828
1.7215720480508744e+18,-0.018848277628421783,-0.019502241164445877,-10.826172828674316
1.7215720480568745e+18,0.11360984295606613,0.014648270793259144,-10.800741195678711
1.7215720480628746e+18,-0.01771499589085579,0.043382663279771805,-10.832281112670898
1.7215720480688748e+18,0.0092817023396492,0.07475683838129044,-10.831266403198242
1.721572048074875e+18,0.08266104012727737,-0.009395132772624493,-10.788042068481445
1.721572048077875e+18,-0.01021593902260065,-0.061457518488168716,-10.792765617370605
1.721572048083875e+18,-0.040825147181749344,-0.05251763015985489,-10.776984214782715
1.7215720480898752e+18,-0.005843130871653557,0.001997519750148058,-10.721484184265137
1.7215720480958753e+18,-0.01524538267403841,-0.014491509646177292,-10.779213905334473
1.7215720481018755e+18,-0.017315633594989777,0.04010789468884468,-10.712210655212402
1.7215720481048755e+18,0.05335024744272232,-0.043958231806755066,-10.7744779586792
1.7215720481108756e+18,0.0020607393234968185,-0.038877300918102264,-10.791321754455566
1.7215720481168758e+18,0.05384114012122154,-0.021467408165335655,-10.739039421081543
1.721572048122876e+18,0.08143645524978638,0.0409889817237854,-10.72148609161377
1.721572048128876e+18,0.0032585645094513893,0.001660031732171774,-10.789531707763672
1.7215720481348762e+18,-0.03277800977230072,-0.05632833018898964,-10.733860969543457
1.7215720481408763e+18,0.04655837640166283,-0.06522524356842041,-10.750469207763672
1.7215720481468764e+18,-0.041794031858444214,0.011871468275785446,-10.79679012298584
1.7215720481528765e+18,0.04264797270298004,0.02639649622142315,-10.723876953125
1.7215720481588767e+18,-0.01702132262289524,0.0576331652700901,-10.803093910217285
1.7215720481618767e+18,0.01486655231565237,-0.024091415107250214,-10.752409934997559
1.7215720481678769e+18,0.03290613740682602,-0.06638603657484055,-10.712540626525879
1.721572048173877e+18,0.04933697357773781,0.07925180345773697,-10.73424243927002
1.721572048179877e+18,-0.0019416608847677708,0.019057994708418846,-10.780674934387207
1.7215720481858772e+18,0.024403724819421768,0.04529673233628273,-10.800701141357422
1.7215720481918774e+18,0.07239106297492981,0.0011714735301211476,-10.732236862182617
1.7215720481978775e+18,0.04355437681078911,-0.0022253699135035276,-10.755534172058105
1.7215720482038776e+18,0.031488437205553055,-0.018282968550920486,-10.730929374694824
1.7215720482098778e+18,0.02189524471759796,-0.044258859008550644,-10.778836250305176
1.721572048215878e+18,-0.04495806246995926,0.0023723819758743048,-10.745403289794922
1.721572048221878e+18,0.045452747493982315,-2.3239343136083335e-05,-10.748680114746094
1.7215720482278781e+18,0.07190757989883423,-0.001991686411201954,-10.711957931518555
1.7215720482338783e+18,0.044830042868852615,-0.01724892295897007,-10.763318061828613
1.7215720482398784e+18,0.07003352046012878,-0.022351808845996857,-10.701001167297363
1.7215720482458785e+18,0.06868269294500351,-0.022546865046024323,-10.769721031188965
1.7215720482518787e+18,0.008525596931576729,0.03362211212515831,-10.730021476745605
1.7215720482578788e+18,-0.0583847239613533,-0.019337916746735573,-10.755881309509277
1.721572048263879e+18,-0.025080813094973564,-0.140546053647995,-10.699180603027344
1.721572048269879e+18,0.003159926738590002,0.0102998623624444,-10.804431915283203
1.7215720482758792e+18,0.08723786473274231,-0.03392963483929634,-10.664107322692871
1.7215720482818793e+18,-0.010487176477909088,-0.06015581637620926,-10.791217803955078
1.7215720482878794e+18,0.020340774208307266,-0.05868225544691086,-10.710502624511719
1.7215720482968796e+18,-0.041438788175582886,-0.07347538322210312,-10.621150016784668
1.7215720483028797e+18,0.026441462337970734,0.041081108152866364,-10.646728515625
1.72157204830888e+18,0.05044080317020416,0.03102107346057892,-10.729427337646484
1.72157204831488e+18,-0.007278133183717728,-0.022456001490354538,-10.675517082214355
1.72157204832088e+18,0.01389444898813963,0.027813831344246864,-10.689976692199707
1.7215720483268803e+18,-0.03343560919165611,-0.032691001892089844,-10.679468154907227
1.7215720483328804e+18,-0.00445611122995615,-0.08439376950263977,-10.671146392822266
1.7215720483388805e+18,0.02831726148724556,0.006718216929584742,-10.695009231567383
1.7215720483448806e+18,0.010826542973518372,-0.07525027543306351,-10.6173734664917
1.7215720483508808e+18,0.017830511555075645,0.04070131108164787,-10.621707916259766
1.721572048356881e+18,-0.03941957652568817,0.07027503103017807,-10.599570274353027
1.721572048359881e+18,0.06686568260192871,0.02120770514011383,-10.682111740112305
1.721572048365881e+18,-0.02915787883102894,0.0207204706966877,-10.648205757141113
1.7215720483718812e+18,-0.15854708850383759,-0.07139886915683746,-10.727373123168945
1.7215720483778813e+18,0.060310330241918564,0.024526910856366158,-10.712486267089844
1.7215720483838815e+18,-0.055431850254535675,-0.0495077446103096,-10.633026123046875
1.7215720483868815e+18,-0.011318529956042767,0.010983082465827465,-10.760275840759277
1.7215720483928817e+18,-0.026566937565803528,0.034552086144685745,-10.581151962280273
1.7215720483988818e+18,0.022774051874876022,-0.01768769696354866,-10.641595840454102
1.721572048404882e+18,-0.05453820154070854,0.034833624958992004,-10.642545700073242
1.721572048407882e+18,-0.07262172549962997,0.08049695938825607,-10.583771705627441
1.721572048413882e+18,-0.040980592370033264,0.044013429433107376,-10.61263370513916
1.7215720484198822e+18,-0.056694261729717255,0.028940336778759956,-10.592453002929688
1.7215720484228823e+18,-0.015292178839445114,0.04507959634065628,-10.610233306884766
1.7215720484288824e+18,-0.04865501821041107,-0.06544726341962814,-10.518257141113281
1.7215720484348826e+18,-0.004142725840210915,0.017848918214440346,-10.602556228637695
1.7215720484408827e+18,0.015776686370372772,0.01126251183450222,-10.475127220153809
1.7215720484468828e+18,-0.023526646196842194,0.03729997202754021,-10.554120063781738
1.721572048452883e+18,-0.014559687115252018,0.03619006648659706,-10.569086074829102
1.721572048458883e+18,-0.057723402976989746,0.027210364118218422,-10.543024063110352
1.7215720484648832e+18,-0.013429855927824974,-0.06953771412372589,-10.517809867858887
1.7215720484708833e+18,0.02028367482125759,-0.019853685051202774,-10.509891510009766
1.7215720484768835e+18,-0.028222642838954926,-0.051111042499542236,-10.451815605163574
1.7215720484828836e+18,-0.07854965329170227,-0.013159528374671936,-10.53525447845459
1.7215720484888837e+18,-0.070487380027771,-0.0828792005777359,-10.566197395324707
1.7215720484948838e+18,0.004803715273737907,-0.009201927110552788,-10.39460277557373
1.721572048500884e+18,-0.10989581048488617,0.04968899488449097,-10.50357723236084
1.721572048506884e+18,-0.019548144191503525,-0.0023118900135159492,-10.48859691619873
1.7215720485128842e+18,-0.038323305547237396,0.02272207662463188,-10.533276557922363
1.7215720485158843e+18,-0.024896416813135147,-0.008089636452496052,-10.44605827331543
1.7215720485218844e+18,-0.04720257967710495,-0.042276863008737564,-10.520013809204102
1.7215720485278845e+18,0.01759066805243492,0.03757462650537491,-10.433210372924805
1.7215720485338847e+18,-0.06037025526165962,0.002311743563041091,-10.498050689697266
1.7215720485398848e+18,-0.003995503298938274,-0.013205829076468945,-10.494671821594238
1.721572048545885e+18,-0.06759625673294067,0.05256275460124016,-10.505696296691895
1.721572048548885e+18,-0.04888194799423218,0.021355383098125458,-10.497729301452637
1.721572048554885e+18,-0.013476381078362465,0.02342889830470085,-10.486729621887207
1.7215720485608852e+18,-0.009460325352847576,-0.02799859829246998,-10.470561027526855
1.7215720485668854e+18,-0.0010231807827949524,0.0020304014906287193,-10.424367904663086
1.7215720485728855e+18,0.06952685117721558,0.013156644999980927,-10.496284484863281
1.7215720485788856e+18,-0.043399497866630554,-0.06398995965719223,-10.467714309692383
1.7215720485848858e+18,0.0016266833990812302,0.0254319179803133,-10.45887565612793
1.721572048590886e+18,0.02634015679359436,-0.008338958024978638,-10.495352745056152
1.7215720486028861e+18,-0.1637156903743744,-0.028725920245051384,-10.371036529541016
1.7215720486088863e+18,-0.07451865822076797,0.08105089515447617,-10.46815299987793
1.7215720486148864e+18,-0.06625273078680038,-0.03500281274318695,-10.34095287322998
1.7215720486208865e+18,0.015518011525273323,0.07663454860448837,-10.4007568359375
1.7215720486268867e+18,0.032540999352931976,0.00975815113633871,-10.379048347473145
1.7215720486328868e+18,0.01541685126721859,0.0715814009308815,-10.357819557189941
1.721572048638887e+18,-0.023778976872563362,0.022061381489038467,-10.355557441711426
1.721572048644887e+18,0.11812988668680191,0.0037150061689317226,-10.33492660522461
1.7215720486508872e+18,0.012134792283177376,0.024607526138424873,-10.351263046264648
1.7215720486568873e+18,-0.09741393476724625,0.04142582416534424,-10.436905860900879
1.7215720486628874e+18,-0.003152012825012207,0.00819658488035202,-10.376554489135742
1.7215720486688876e+18,-0.007891371846199036,0.03383453190326691,-10.371445655822754
1.7215720486748877e+18,-0.004991772118955851,-0.03842788189649582,-10.38755989074707
1.7215720486808878e+18,-0.021036550402641296,-0.03404376283288002,-10.395342826843262
1.721572048686888e+18,0.004220804665237665,0.020720340311527252,-10.413222312927246
1.721572048692888e+18,-0.03108610399067402,-0.033318761736154556,-10.365586280822754
1.7215720486958881e+18,0.0007582653779536486,-0.045362360775470734,-10.334360122680664
1.7215720487018883e+18,0.06684175878763199,0.02731393277645111,-10.322912216186523
1.7215720487078884e+18,-0.009093986824154854,0.06823250651359558,-10.219208717346191
1.7215720487138885e+18,-0.022741904482245445,-0.044204045087099075,-10.253253936767578
1.7215720487198886e+18,0.008707119151949883,-0.07774768769741058,-10.304078102111816
1.7215720487258888e+18,-0.042844053357839584,0.044413741677999496,-10.368338584899902
1.721572048731889e+18,-0.02492539957165718,-0.05242189019918442,-10.333395004272461
1.721572048737889e+18,0.007765944115817547,0.11425808072090149,-10.307777404785156
1.7215720487438892e+18,-0.05209187790751457,-0.06951993703842163,-10.318440437316895
1.7215720487498893e+18,0.015559260733425617,0.04914531484246254,-10.345780372619629
1.7215720487558894e+18,0.038093823939561844,-0.0779050663113594,-10.285711288452148
1.7215720487618895e+18,-0.058910176157951355,0.04095522686839104,-10.373321533203125
1.7215720487678897e+18,-0.003125583752989769,-0.04225638508796692,-10.290472984313965
1.7215720487708897e+18,-0.02308504655957222,-0.040230996906757355,-10.348843574523926
1.7215720487768899e+18,0.006506829056888819,-0.0057244799099862576,-10.375467300415039
1.72157204878289e+18,-0.024236924946308136,0.06816084682941437,-10.353005409240723
1.72157204878889e+18,-0.011150839738547802,0.07833879441022873,-10.324162483215332
1.7215720487948902e+18,-0.05733460187911987,0.05772503837943077,-10.295047760009766
1.7215720488008904e+18,0.0432143360376358,0.08687471598386765,-10.29179859161377
1.7215720488068905e+18,0.010547875426709652,0.00010435401054564863,-10.315496444702148
1.7215720488128906e+18,0.03472097963094711,0.002227598801255226,-10.321816444396973
1.7215720488188908e+18,-0.0630887821316719,-0.007826670072972775,-10.318790435791016
1.721572048824891e+18,0.004831829573959112,-0.06908304989337921,-10.317951202392578
1.721572048833891e+18,0.02251257933676243,-0.03607147932052612,-10.282278060913086
1.7215720488398912e+18,-0.0017011120216920972,-0.02872440218925476,-10.238858222961426
1.7215720488458913e+18,0.02205176278948784,-0.04937274754047394,-10.22951889038086
1.7215720488518915e+18,-0.09389562904834747,0.0186217799782753,-10.229125022888184
1.7215720488578916e+18,-0.06065180152654648,-0.05003778636455536,-10.319576263427734
1.7215720488638917e+18,0.058748841285705566,0.031845349818468094,-10.268259048461914
1.7215720488698918e+18,0.008328915573656559,0.040183331817388535,-10.234939575195312
1.721572048875892e+18,0.07153688371181488,0.0031796256080269814,-10.264315605163574
1.721572048878892e+18,-0.04561052471399307,0.02814403548836708,-10.177733421325684
1.7215720488848922e+18,0.0840207114815712,0.004694811068475246,-10.287878036499023
1.7215720488908923e+18,0.04407656937837601,0.018250275403261185,-10.214524269104004
1.7215720488968924e+18,0.016735389828681946,-0.007701266091316938,-10.260519981384277
1.7215720488998925e+18,0.02949845977127552,0.02786383405327797,-10.228124618530273
1.7215720489058926e+18,-0.007473236881196499,0.09520886093378067,-10.279854774475098
1.7215720489118927e+18,0.024337701499462128,-0.009293844923377037,-10.271973609924316
1.7215720489178929e+18,-0.013756390661001205,-0.007335816975682974,-10.208612442016602
1.721572048923893e+18,-0.056853942573070526,0.03661463037133217,-10.264431953430176
1.721572048929893e+18,0.02162599377334118,0.03205581381917,-10.21638011932373
1.7215720489358932e+18,0.026325393468141556,0.018729882314801216,-10.22718620300293
1.7215720489418934e+18,0.021537184715270996,-0.011134885251522064,-10.228316307067871
1.7215720489478935e+18,0.030837107449769974,0.02563232183456421,-10.2422456741333
1.7215720489538936e+18,0.02713237702846527,0.06834565848112106,-10.178657531738281
1.7215720489598938e+18,-0.06524352729320526,0.03848026692867279,-10.18872356414795
1.721572048965894e+18,-0.04081611707806587,0.04546678811311722,-10.254884719848633
1.721572048968894e+18,-0.03494013845920563,-0.032223835587501526,-10.247068405151367
1.721572048974894e+18,0.01591961644589901,0.06618278473615646,-10.246888160705566
1.7215720489808942e+18,0.040469832718372345,0.019785020500421524,-10.12623119354248
1.7215720489868943e+18,-0.009442705661058426,0.005050350911915302,-10.243497848510742
1.7215720489928945e+18,0.02981351688504219,-0.011493122205138206,-10.207661628723145
1.7215720489988946e+18,-0.03053012117743492,0.05351891741156578,-10.119787216186523
1.7215720490048947e+18,-0.060055702924728394,0.042751796543598175,-10.178580284118652
1.7215720490108948e+18,-0.005609837826341391,0.05991359055042267,-10.22950553894043
1.721572049016895e+18,-0.06142903119325638,-0.06727707386016846,-10.286630630493164
1.721572049022895e+18,0.02724730595946312,0.012894987128674984,-10.201125144958496
1.7215720490288952e+18,0.03033195063471794,-0.02788533829152584,-10.219291687011719
1.7215720490348954e+18,0.02284979075193405,0.01958908513188362,-10.169825553894043
1.7215720490408955e+18,0.003017362440004945,0.08076906204223633,-10.173840522766113
1.7215720490468956e+18,0.028166890144348145,0.05646698549389839,-10.276813507080078
1.7215720490528957e+18,0.0412638895213604,0.04387737810611725,-10.208666801452637
1.721572049058896e+18,0.03927619755268097,-0.0407339483499527,-10.142727851867676
1.721572049064896e+18,-0.0554930604994297,-0.031201934441924095,-10.189594268798828
1.721572049070896e+18,-0.11325506865978241,-0.013052994385361671,-10.196188926696777
1.7215720490768963e+18,0.019996415823698044,0.01495257206261158,-10.054638862609863
1.7215720490828964e+18,-0.029208846390247345,-0.002398247364908457,-10.249009132385254
1.7215720490888965e+18,-0.0863439291715622,0.046655070036649704,-10.116840362548828
1.7215720490918966e+18,-0.012086047790944576,0.039713840931653976,-10.137762069702148
1.7215720491008968e+18,0.009812233969569206,0.013357373885810375,-10.192903518676758
1.7215720491038968e+18,0.018369320780038834,0.027660829946398735,-10.155739784240723
1.721572049109897e+18,-0.014305364340543747,0.007247877772897482,-10.217246055603027
1.721572049115897e+18,0.02926577255129814,0.07147961854934692,-10.181976318359375
1.7215720491218972e+18,-0.026576470583677292,0.029014017432928085,-10.2061767578125
1.7215720491278973e+18,0.0846482589840889,-0.01248699240386486,-10.169780731201172
1.7215720491338975e+18,0.034405652433633804,0.015087097883224487,-10.157062530517578
1.7215720491368975e+18,-0.0934273898601532,-0.028701860457658768,-10.104761123657227
1.7215720491398976e+18,0.01408002432435751,0.04164794087409973,-10.12117862701416
1.7215720491458977e+18,0.014732652343809605,-0.00342910410836339,-10.080890655517578
1.7215720491518979e+18,0.05463070422410965,0.01491082739084959,-10.022591590881348
1.721572049154898e+18,-0.09344000369310379,-0.026980284601449966,-10.11837387084961
1.721572049160898e+18,0.05354492738842964,0.0005460368702188134,-10.022513389587402
1.7215720491668982e+18,0.01574014313519001,-0.054565880447626114,-9.998769760131836
1.7215720491728983e+18,0.0011677846778184175,-0.07478408515453339,-10.034879684448242
1.7215720491788984e+18,0.006325609050691128,0.007674955762922764,-9.980182647705078
1.7215720491848986e+18,0.010473662987351418,-0.030692437663674355,-10.02042007446289
1.7215720491908987e+18,0.042877331376075745,0.003529211739078164,-10.022254943847656
1.7215720491968988e+18,-0.010975178331136703,0.031213460490107536,-9.980255126953125
1.721572049202899e+18,0.016892386600375175,-0.06664519757032394,-9.984813690185547
1.721572049208899e+18,0.008364995010197163,-0.010225258767604828,-10.062849044799805
1.7215720492148992e+18,-0.0069866175763309,-0.014492765069007874,-9.982911109924316
1.7215720492208993e+18,0.022743061184883118,0.04550652951002121,-10.006063461303711
1.7215720492298995e+18,0.010671352036297321,0.014750760979950428,-9.991990089416504
1.7215720492358996e+18,0.05216473340988159,0.02326175756752491,-9.991036415100098
1.7215720492418998e+18,-0.02153269574046135,-0.05546606704592705,-9.998357772827148
1.7215720492479e+18,0.038598187267780304,0.027349309995770454,-10.002337455749512
1.7215720492539e+18,-0.10107984393835068,-0.011629540473222733,-10.017838478088379
1.7215720492569e+18,0.021618055179715157,-0.08119145780801773,-9.977630615234375
1.7215720492629002e+18,-0.021582823246717453,0.06471866369247437,-9.958206176757812
1.7215720492689004e+18,-0.011583182029426098,-0.01808442361652851,-9.94717788696289
1.7215720492719004e+18,-0.01402667909860611,-0.048073235899209976,-10.022597312927246
1.7215720492779005e+18,0.048224885016679764,-0.061553385108709335,-9.912863731384277
1.7215720492839007e+18,-0.012816398404538631,-0.043449901044368744,-9.825700759887695
1.7215720492899008e+18,-0.06379159539937973,0.010467649437487125,-9.935404777526855
1.721572049295901e+18,-0.06255163252353668,0.1228613555431366,-9.848483085632324
1.721572049301901e+18,0.049809593707323074,0.0177981685847044,-9.813461303710938
1.7215720493079012e+18,0.04289279878139496,-0.019743934273719788,-9.874763488769531
1.7215720493139013e+18,-0.07120295614004135,-0.0066750021651387215,-9.839957237243652
1.7215720493229015e+18,-0.05019926652312279,-0.05009463056921959,-9.875894546508789
1.7215720493289016e+18,-0.01619272492825985,0.049865368753671646,-9.806763648986816
1.7215720493349018e+18,-0.06984539330005646,0.05132473260164261,-9.800296783447266
1.721572049340902e+18,-0.00888594426214695,0.05867578461766243,-9.862273216247559
1.721572049346902e+18,-0.03943919017910957,0.005989622324705124,-9.820042610168457
1.7215720493529021e+18,-0.034093476831912994,-0.014306725934147835,-9.878983497619629
1.7215720493589023e+18,-0.0029329401440918446,0.0010002311319112778,-9.850275039672852
1.7215720493649024e+18,-0.04029582440853119,-0.11265160143375397,-9.775500297546387
1.7215720493709025e+18,-0.07209377735853195,-0.0012172970455139875,-9.85525894165039
1.7215720493769027e+18,0.024628156796097755,-0.04817434400320053,-9.801923751831055
1.7215720493799027e+18,0.019201114773750305,-0.0223003551363945,-9.816105842590332
1.7215720493859028e+18,0.08771459013223648,0.01875031739473343,-9.719198226928711
1.721572049391903e+18,0.08265981078147888,0.020462218672037125,-9.724236488342285
1.721572049397903e+18,-0.034619010984897614,0.06796880066394806,-9.775580406188965
1.7215720494039032e+18,0.000161727424710989,-0.03418969362974167,-9.696660995483398
1.7215720494129034e+18,-0.017819102853536606,0.012746842578053474,-9.714377403259277
1.7215720494159035e+18,-0.016082365065813065,0.039647214114665985,-9.639122009277344
1.7215720494249037e+18,-0.014534223824739456,-0.0519859716296196,-9.751507759094238
1.7215720494279037e+18,-0.02424241602420807,0.015561345964670181,-9.667540550231934
1.7215720494339039e+18,-0.028365761041641235,-0.03643739968538284,-9.820771217346191
1.721572049439904e+18,-0.025139305740594864,-0.019026007503271103,-9.725547790527344
1.7215720494459041e+18,0.03645005822181702,0.06678245216608047,-9.714351654052734
1.7215720494519043e+18,0.030329495668411255,0.016907095909118652,-9.768579483032227
1.7215720494549043e+18,0.09389561414718628,0.01777447946369648,-9.677172660827637
1.7215720494609044e+18,-0.021921761333942413,-0.0725012868642807,-9.718802452087402
1.7215720494669046e+18,0.05355353280901909,-0.04205028712749481,-9.633467674255371
1.7215720494729047e+18,0.042899079620838165,-0.08353128284215927,-9.733201026916504
1.7215720494789048e+18,0.006126222666352987,-0.018079690635204315,-9.787196159362793
1.721572049481905e+18,0.004057636484503746,-0.0016513247974216938,-9.733404159545898
1.721572049487905e+18,-0.031486038118600845,0.027437690645456314,-9.698128700256348
1.721572049490905e+18,-0.008842088282108307,0.0555383637547493,-9.655847549438477
1.7215720494969052e+18,-0.05717328563332558,0.09118589013814926,-9.726831436157227
1.7215720495029053e+18,0.024138174951076508,-0.05660494044423103,-9.752937316894531
1.7215720495089055e+18,0.037730876356363297,-0.03975903242826462,-9.708608627319336
1.7215720495149056e+18,0.00784548744559288,-0.018824266269803047,-9.768092155456543
1.7215720495209057e+18,0.02688279189169407,0.0022363546304404736,-9.711994171142578
1.7215720495269059e+18,0.033819470554590225,0.038070835173130035,-9.704998970031738
1.721572049532906e+18,-0.07890743017196655,-0.04671918973326683,-9.64716625213623
1.721572049538906e+18,0.017575442790985107,0.03433777391910553,-9.73847484588623
1.7215720495449062e+18,0.03432274982333183,0.004909631330519915,-9.716570854187012
1.7215720495509064e+18,0.08345457911491394,-0.011267296969890594,-9.708348274230957
1.7215720495539064e+18,5.501182749867439e-05,-0.0894550085067749,-9.658555030822754
1.7215720495599066e+18,-0.11083827167749405,0.11323598027229309,-9.638333320617676
1.7215720495659067e+18,0.01559976302087307,-0.027503587305545807,-9.670792579650879
1.7215720495719068e+18,0.055925484746694565,0.015462309122085571,-9.598185539245605
1.721572049577907e+18,0.03156840056180954,-0.012164756655693054,-9.697473526000977
1.721572049583907e+18,0.13613463938236237,0.045974262058734894,-9.621065139770508
1.7215720495899072e+18,0.015431581996381283,0.03959422558546066,-9.57954216003418
1.7215720495929073e+18,0.0051575107499957085,-0.03892817720770836,-9.632894515991211
1.7215720495989074e+18,-0.029581988230347633,0.022883577272295952,-9.57123851776123
1.7215720496049075e+18,0.010069215670228004,-0.01873697340488434,-9.662623405456543
1.7215720496109076e+18,0.030029302462935448,0.05241172015666962,-9.600152969360352
1.7215720496169078e+18,0.07431361824274063,0.030895832926034927,-9.611275672912598
1.7215720496199078e+18,0.0022165582049638033,-0.015217965468764305,-9.623873710632324
1.721572049625908e+18,-0.0018620997434481978,0.005033021792769432,-9.654889106750488
1.721572049631908e+18,-0.06769101321697235,-0.014412159100174904,-9.592833518981934
1.7215720496379082e+18,0.016165219247341156,0.053779006004333496,-9.62875747680664
1.7215720496439084e+18,-0.09780988842248917,-0.06150161474943161,-9.71485424041748
1.7215720496469084e+18,-0.017069105058908463,-0.05952702462673187,-9.619163513183594
1.7215720496529085e+18,-0.011836177669465542,-0.03052263706922531,-9.633318901062012
1.7215720496589087e+18,-0.040811751037836075,-0.07196802645921707,-9.587560653686523
1.7215720496649088e+18,0.03668898716568947,0.007379911374300718,-9.521979331970215
1.721572049670909e+18,0.001121707260608673,-0.010066557675600052,-9.464010238647461
1.721572049679909e+18,-0.024949850514531136,-0.002541437279433012,-9.52258586883545
1.7215720496829092e+18,-0.0007179889362305403,0.05562866851687431,-9.564146995544434
1.7215720496889093e+18,-0.0012890868820250034,0.08538874238729477,-9.53014850616455
1.7215720496949094e+18,-0.09135840088129044,-0.014314299449324608,-9.506997108459473
1.7215720497009096e+18,-0.09074965119361877,0.014930693432688713,-9.557979583740234
1.7215720497069097e+18,0.016848968341946602,-0.03196203336119652,-9.470630645751953
1.7215720497129098e+18,-0.03239928558468819,-0.055080756545066833,-9.529451370239258
1.72157204971891e+18,-0.033424168825149536,-0.013376858085393906,-9.498847007751465
1.72157204972491e+18,-0.012732032686471939,-0.018175257369875908,-9.509093284606934
1.7215720497309102e+18,0.010735451243817806,-0.06376419961452484,-9.511754035949707
1.7215720497369103e+18,-0.0039502596482634544,-0.0029952367767691612,-9.553072929382324
1.7215720497399104e+18,-0.04394727200269699,-0.031066732481122017,-9.50770092010498
1.7215720497459105e+18,-0.002621880965307355,-0.04750928655266762,-9.529972076416016
1.7215720497519107e+18,-0.04460160434246063,0.013154861517250538,-9.534263610839844
1.7215720497579108e+18,-0.017588142305612564,0.07121126353740692,-9.489171028137207
1.7215720497609108e+18,0.036702729761600494,-0.02461506798863411,-9.519081115722656
1.721572049766911e+18,-0.02023322880268097,0.058630626648664474,-9.506739616394043
1.721572049772911e+18,-0.04691861942410469,0.002507477067410946,-9.371101379394531
1.7215720497759112e+18,0.03607780486345291,-0.029070010408759117,-9.37647533416748
1.7215720497819113e+18,-0.0036220112815499306,-0.11211627721786499,-9.46691608428955
1.7215720497879114e+18,0.012282950803637505,-0.016202222555875778,-9.410940170288086
1.7215720497939116e+18,0.04104425758123398,-0.03397040441632271,-9.387633323669434
1.7215720497999117e+18,0.03878530487418175,-0.06225813925266266,-9.415414810180664
1.7215720498059118e+18,-0.021831529214978218,-0.030771056190133095,-9.447153091430664
1.721572049811912e+18,-0.08778027445077896,0.019714267924427986,-9.443906784057617
1.721572049817912e+18,0.00763633893802762,-0.009240962564945221,-9.424121856689453
1.7215720498239122e+18,0.02132502570748329,-0.03511529043316841,-9.414623260498047
1.7215720498299123e+18,-0.06816540658473969,0.0869244709610939,-9.409162521362305
1.7215720498359124e+18,-0.03155554085969925,0.040979258716106415,-9.454545974731445
1.7215720498419126e+18,0.0027889395132660866,-0.013307182118296623,-9.427190780639648
1.7215720498509128e+18,-0.06634245067834854,0.0723486840724945,-9.462596893310547
1.721572049856913e+18,-0.034287698566913605,0.024894975125789642,-9.497899055480957
1.721572049862913e+18,0.021527521312236786,0.05119604617357254,-9.49931812286377
1.7215720498689132e+18,-0.008338899351656437,0.011147579178214073,-9.424506187438965
1.7215720498719132e+18,-0.04029669985175133,-0.010749784298241138,-9.435837745666504
1.7215720498809134e+18,0.02983594685792923,-0.07780790328979492,-9.454182624816895
1.7215720498839135e+18,0.010497741401195526,0.0384722501039505,-9.504732131958008
1.7215720498899136e+18,-0.011905895546078682,-0.0087464340031147,-9.428948402404785
1.7215720498959137e+18,-0.04629974067211151,-0.05480024963617325,-9.394280433654785
1.7215720499019139e+18,0.039979830384254456,-0.0270982813090086,-9.408947944641113
1.721572049907914e+18,0.018219048157334328,0.05865092948079109,-9.519403457641602
1.721572049913914e+18,0.022201579064130783,0.04884215071797371,-9.36147689819336
1.7215720499169142e+18,-0.03301778435707092,0.0289461612701416,-9.48475456237793
1.7215720499229143e+18,-0.024575412273406982,0.008669736795127392,-9.413209915161133
1.7215720499289144e+18,0.024250268936157227,0.05606740713119507,-9.445474624633789
1.7215720499349146e+18,-0.08796054869890213,-0.04688587412238121,-9.435588836669922
1.7215720499379146e+18,-0.09061922132968903,-0.027665307745337486,-9.434431076049805
1.7215720499439148e+18,-0.06466483324766159,0.030515402555465698,-9.4398832321167
1.721572049949915e+18,0.006635977420955896,-0.0152187654748559,-9.494304656982422
1.721572049955915e+18,-0.0014470713213086128,0.06904240697622299,-9.433306694030762
1.7215720499619151e+18,0.0022620060481131077,0.01705329678952694,-9.392655372619629
1.7215720499679153e+18,-0.054291512817144394,0.05330617353320122,-9.345598220825195
1.7215720499769155e+18,-0.01928960159420967,-0.045541875064373016,-9.34239387512207
1.7215720499829156e+18,0.09563237428665161,-0.02005496248602867,-9.324531555175781
1.7215720499889157e+18,-0.010585280135273933,0.020133281126618385,-9.465607643127441
1.7215720499949158e+18,-0.05224909633398056,-0.04373916983604431,-9.344964981079102
1.721572050000916e+18,0.03294145688414574,0.0036497125402092934,-9.41992473602295
1.721572050003916e+18,0.027392689138650894,0.024641605094075203,-9.450084686279297
1.7215720500099162e+18,0.005289566237479448,0.004017367959022522,-9.435768127441406
1.7215720500159163e+18,-0.020451301708817482,-0.013950738124549389,-9.436981201171875
1.7215720500219164e+18,-0.009491129778325558,-0.06786584854125977,-9.389839172363281
1.7215720500279165e+18,-0.005569796077907085,-0.012042471207678318,-9.470514297485352
1.7215720500309166e+18,0.008404512889683247,-0.015040666796267033,-9.454331398010254
1.7215720500369167e+18,0.0027277148328721523,0.016347598284482956,-9.407003402709961
1.7215720500429169e+18,-0.02006511203944683,-0.027653999626636505,-9.457645416259766
1.721572050048917e+18,0.012006804347038269,-0.07106616348028183,-9.440961837768555
1.721572050054917e+18,-0.10029975324869156,0.040114011615514755,-9.46014404296875
1.7215720500579172e+18,-0.05478248745203018,-0.02682524360716343,-9.402873039245605
1.7215720500639173e+18,-0.05227816849946976,0.02986968867480755,-9.465478897094727
1.7215720500699174e+18,-0.06624586880207062,-0.043875157833099365,-9.526206016540527
1.7215720500759176e+18,0.03775681555271149,-0.031226566061377525,-9.481728553771973
1.7215720500819177e+18,0.051995571702718735,-0.05290386080741882,-9.394855499267578
1.7215720500879178e+18,-0.012068879790604115,0.04491963982582092,-9.46131706237793
1.721572050093918e+18,-0.061449941247701645,0.04332326725125313,-9.48711109161377
1.721572050099918e+18,-0.08902724087238312,0.03684728220105171,-9.432757377624512
1.7215720501059182e+18,0.04286700114607811,-0.02813684567809105,-9.46072006225586
1.7215720501119183e+18,-0.03741675242781639,-0.006787851452827454,-9.483901977539062
1.7215720501179185e+18,-0.002849765121936798,-0.030748777091503143,-9.50365924835205
1.7215720501239186e+18,-0.05283369496464729,-0.06377328932285309,-9.404524803161621
1.7215720501299187e+18,-0.013761067762970924,-0.023417429998517036,-9.458126068115234
1.7215720501359188e+18,-0.05131252855062485,-0.07001904398202896,-9.375262260437012
1.721572050141919e+18,-0.07744501531124115,0.017832303419709206,-9.484199523925781
1.721572050147919e+18,-0.010417104698717594,0.021771151572465897,-9.428670883178711
1.7215720501539192e+18,0.017260169610381126,-0.001966817071661353,-9.424259185791016
1.7215720501599194e+18,-0.046464819461107254,0.025033337995409966,-9.43627643585205
1.7215720501629194e+18,0.05379580333828926,-0.02561134472489357,-9.444100379943848
1.7215720501689196e+18,-0.014826668426394463,0.0033523119054734707,-9.537915229797363
1.7215720501749197e+18,-0.07524310052394867,0.027274115011096,-9.48426342010498
1.7215720501809198e+18,-0.026541700586676598,0.0040404959581792355,-9.445183753967285
1.72157205018692e+18,-0.0652131736278534,-0.012371995486319065,-9.43846607208252
1.72157205019292e+18,0.04707472398877144,0.037981268018484116,-9.474051475524902
1.7215720501989202e+18,0.05587140843272209,0.06758864223957062,-9.530816078186035
1.7215720502049203e+18,-0.05209985375404358,-0.004629909060895443,-9.546058654785156
1.7215720502109204e+18,0.009127424098551273,0.01603938266634941,-9.44863224029541
1.7215720502169206e+18,-0.06806004047393799,-0.04644289240241051,-9.381653785705566
1.7215720502229207e+18,0.03900114819407463,-0.02179666981101036,-9.486706733703613
1.7215720502289208e+18,0.04613308236002922,0.015093096531927586,-9.424165725708008
1.721572050234921e+18,-0.07097981125116348,-0.015547124668955803,-9.408961296081543
1.721572050240921e+18,-0.061664849519729614,0.04496319964528084,-9.429393768310547
1.7215720502469212e+18,-0.0006778663955628872,-0.05126486346125603,-9.471277236938477
1.7215720502529213e+18,0.02322292886674404,0.027694320306181908,-9.58987045288086
1.7215720502589215e+18,0.03042828105390072,-0.01525644026696682,-9.497390747070312
1.7215720502649216e+18,0.02650880254805088,0.021433254703879356,-9.436220169067383
1.7215720502709217e+18,-0.015942249447107315,-0.044536374509334564,-9.529196739196777
1.7215720502769219e+18,-0.06691894680261612,0.07073070108890533,-9.504761695861816
1.721572050279922e+18,-0.03444564715027809,0.09816013276576996,-9.478496551513672
1.721572050285922e+18,0.0332452617585659,-0.07455596327781677,-9.561842918395996
1.7215720502919222e+18,-0.020522069185972214,-0.08284882456064224,-9.405973434448242
1.7215720502979223e+18,-0.06186747923493385,-0.017680803313851357,-9.54802417755127
1.7215720503039224e+18,-0.0048925988376140594,-0.0644306167960167,-9.393733024597168
1.7215720503069225e+18,-0.022977309301495552,0.006159328855574131,-9.470749855041504
1.7215720503129226e+18,0.018768224865198135,0.018573906272649765,-9.44871711730957
1.7215720503189228e+18,0.020861493423581123,-0.027415379881858826,-9.466583251953125
1.721572050324923e+18,-0.02373448573052883,0.006251398008316755,-9.44910717010498
1.721572050330923e+18,-0.0067848023027181625,0.017927469685673714,-9.46800422668457
1.7215720503369231e+18,-0.06686165183782578,0.06321101635694504,-9.504900932312012
1.7215720503429233e+18,-0.03547421097755432,0.07225377857685089,-9.430522918701172
1.7215720503489234e+18,0.019725065678358078,-0.00989221129566431,-9.438828468322754
1.7215720503549235e+18,-0.018820855766534805,0.03360038250684738,-9.478464126586914
1.7215720503609236e+18,-0.045103177428245544,0.049440763890743256,-9.538019180297852
1.7215720503669238e+18,0.01868598535656929,0.05378163233399391,-9.456384658813477
1.721572050372924e+18,-0.014774232171475887,-0.02800176292657852,-9.451266288757324
1.721572050378924e+18,0.0566786453127861,0.07961276918649673,-9.504593849182129
1.7215720503849242e+18,0.024580754339694977,0.006816586013883352,-9.482888221740723
1.7215720503909243e+18,-0.028284255415201187,-0.015540363267064095,-9.525629997253418
1.7215720503969244e+18,-0.02833089418709278,0.03549597039818764,-9.482671737670898
1.7215720504029245e+18,-0.05007996782660484,0.0010684783337637782,-9.515425682067871
1.7215720504089247e+18,0.0029490869492292404,-0.05190131068229675,-9.432812690734863
1.7215720504149248e+18,0.013315947726368904,0.028165744617581367,-9.541407585144043
1.721572050420925e+18,-0.012713959440588951,0.014916151762008667,-9.462423324584961
1.721572050426925e+18,-0.01626107469201088,0.010826348327100277,-9.544100761413574
1.721572050429925e+18,0.03720607981085777,0.09203028678894043,-9.549400329589844
1.7215720504359252e+18,-0.07916891574859619,-0.0808173418045044,-9.445039749145508
1.7215720504419254e+18,0.02065300941467285,0.012432511895895004,-9.413920402526855
1.7215720504479255e+18,-0.002653622068464756,0.02008906379342079,-9.509523391723633
1.7215720504539256e+18,0.0066335806623101234,-0.02481897361576557,-9.61108684539795
1.7215720504599258e+18,0.021107658743858337,-0.03210514783859253,-9.548762321472168
1.721572050465926e+18,0.03764883056282997,-0.014169828034937382,-9.481659889221191
1.721572050468926e+18,0.039361584931612015,0.022786075249314308,-9.530726432800293
1.7215720504779261e+18,0.013618162833154202,-0.03902929276227951,-9.498128890991211
1.7215720504809262e+18,0.04659369960427284,0.016493137925863266,-9.51688289642334
1.7215720504869263e+18,0.011640026234090328,-0.023439181968569756,-9.575889587402344
1.7215720504959265e+18,0.04583527892827988,0.029154116287827492,-9.56187629699707
1.7215720504989266e+18,0.06368602812290192,-0.07447955757379532,-9.4476957321167
1.7215720505049267e+18,0.0352257639169693,0.04077675938606262,-9.636496543884277
1.7215720505109268e+18,0.058155644685029984,-0.09338659793138504,-9.536069869995117
1.721572050516927e+18,-0.015478547662496567,0.10418914258480072,-9.577420234680176
1.721572050522927e+18,0.020913992077112198,0.02891278825700283,-9.55002498626709
1.7215720505289272e+18,0.025337960571050644,-0.005459674634039402,-9.531832695007324
1.7215720505349274e+18,0.0008386550471186638,-0.07437659800052643,-9.656003952026367
1.7215720505409275e+18,0.03167915716767311,0.05787169560790062,-9.592535018920898
1.7215720505469276e+18,-0.023937005549669266,-0.038957636803388596,-9.523016929626465
1.7215720505529277e+18,-0.13514550030231476,-0.06451073288917542,-9.537184715270996
1.721572050558928e+18,-0.06700267642736435,0.03860782831907272,-9.509188652038574
1.721572050561928e+18,0.06029033660888672,-0.02647124044597149,-9.586736679077148
1.721572050567928e+18,0.007824841886758804,-0.017548387870192528,-9.517231941223145
1.7215720505739282e+18,-0.09407609701156616,-0.05222468450665474,-9.556632995605469
1.7215720505799283e+18,0.017658155411481857,-0.045291732996702194,-9.546385765075684
1.7215720505829284e+18,0.026928571984171867,0.003589400090277195,-9.516878128051758
1.7215720505919286e+18,-0.04750366136431694,0.015894904732704163,-9.46330451965332
1.7215720505949286e+18,0.03258649632334709,-0.013244185596704483,-9.572123527526855
1.721572050606929e+18,-0.0432315319776535,0.046520669013261795,-9.554729461669922
1.721572050612929e+18,0.002669732552021742,0.004261580295860767,-9.568371772766113
1.7215720506189292e+18,-0.06134834140539169,0.01891312561929226,-9.61431884765625
1.7215720506249293e+18,0.026421112939715385,0.06207655742764473,-9.601595878601074
1.7215720506309294e+18,0.05760377272963524,0.03497696295380592,-9.575592994689941
1.7215720506369295e+18,0.09704568982124329,-0.05827853083610535,-9.566156387329102
1.7215720506399296e+18,-0.0028667673468589783,0.014274301007390022,-9.583053588867188
1.7215720506459297e+18,-0.06910042464733124,-0.027488095685839653,-9.563504219055176
1.7215720506519299e+18,-0.0409746915102005,-0.014358725398778915,-9.577037811279297
1.72157205065793e+18,-0.05721769481897354,-0.03131850063800812,-9.569883346557617
1.72157205066393e+18,-0.03432708978652954,0.03196581453084946,-9.557422637939453
1.7215720506699302e+18,0.047294098883867264,-0.04806448146700859,-9.614120483398438
1.7215720506759304e+18,-0.02492235228419304,0.07289887219667435,-9.523530960083008
1.7215720506819305e+18,-0.013431590050458908,0.0009543391643092036,-9.580364227294922
1.7215720506879306e+18,-0.03438814356923103,0.02815992571413517,-9.553332328796387
1.7215720506939308e+18,-0.0018541105091571808,0.04308930039405823,-9.518264770507812
1.721572050699931e+18,-0.022750813513994217,-0.0291462242603302,-9.575150489807129
1.721572050705931e+18,-0.02336488664150238,-0.017802590504288673,-9.603757858276367
1.7215720507119311e+18,-0.016383467242121696,-0.008637629449367523,-9.583837509155273
