timestamp,accel_x,accel_y,accel_z
1.7294252658668426e+18,0.003568763379007578,-0.043326206505298615,-9.846369743347168
1.7294252658758428e+18,-0.025007616728544235,0.01986692287027836,-9.792195320129395
1.729425265881843e+18,-0.05631357803940773,0.04108506813645363,-9.768381118774414
1.7294252658938432e+18,-0.03861064463853836,0.07780683785676956,-9.787930488586426
1.7294252658998433e+18,-0.03210094943642616,-0.044678326696157455,-9.803323745727539
1.7294252659088435e+18,-0.0007044450612738729,0.01582813635468483,-9.848308563232422
1.7294252659178437e+18,-0.004944496788084507,-0.05469144880771637,-9.803873062133789
1.729425265926844e+18,0.059017300605773926,0.021421393379569054,-9.847399711608887
1.729425265935844e+18,0.00606380682438612,0.038621935993433,-9.756837844848633
1.7294252659448443e+18,-0.016887012869119644,-0.09132611751556396,-9.807933807373047
1.7294252659538445e+18,0.015289495699107647,-0.0526830293238163,-9.827192306518555
1.7294252659628447e+18,0.03219999000430107,-0.01253856997936964,-9.810212135314941
1.7294252659718449e+18,-0.030043262988328934,0.0523628368973732,-9.792322158813477
1.729425265980845e+18,0.0700146034359932,0.05958633869886398,-9.762072563171387
1.7294252659898452e+18,0.036109648644924164,0.047356508672237396,-9.825983047485352
1.7294252659988454e+18,0.03679879009723663,0.056122880429029465,-9.881776809692383
1.7294252660078456e+18,-0.055459920316934586,-0.01990138366818428,-9.834756851196289
1.7294252660168458e+18,-0.009823253378272057,-0.020528996363282204,-9.826141357421875
1.729425266025846e+18,-0.005648091435432434,0.0591433160007,-9.83958911895752
1.7294252660348462e+18,0.009450823999941349,-0.05012974515557289,-9.83449649810791
1.7294252660438464e+18,0.021154208108782768,0.03288312628865242,-9.864530563354492
1.7294252660528466e+18,0.0056898826733231544,0.027369016781449318,-9.780487060546875
1.7294252660618468e+18,0.06518174707889557,-0.07180168479681015,-9.762063980102539
1.729425266070847e+18,-0.035039130598306656,-0.059697482734918594,-9.77929401397705
1.7294252660798472e+18,-0.006998580414801836,-0.05199965834617615,-9.736019134521484
1.7294252660888474e+18,-0.0125295864418149,-0.029023587703704834,-9.762055397033691
1.7294252660978476e+18,0.0025540052447468042,-0.0025024344213306904,-9.70055103302002
1.7294252661068477e+18,-0.042766135185956955,0.0048435828648507595,-9.862540245056152
1.729425266112848e+18,-0.07538094371557236,0.02679937332868576,-9.764129638671875
1.729425266121848e+18,-0.035922612994909286,0.05379664897918701,-9.778144836425781
1.7294252661308483e+18,0.035528164356946945,-0.047395188361406326,-9.779272079467773
1.7294252661398484e+18,0.012248998507857323,0.0035072274040430784,-9.724784851074219
1.7294252661488486e+18,-0.03882411867380142,-0.032720085233449936,-9.847919464111328
1.7294252661578488e+18,-0.037054333835840225,0.08861702680587769,-9.750386238098145
1.729425266166849e+18,-0.06596274673938751,-0.07950689643621445,-9.75087833404541
1.7294252661758492e+18,-0.04214470833539963,-0.0648275837302208,-9.769999504089355
1.7294252661848494e+18,-0.01618797332048416,0.0734202116727829,-9.830789566040039
1.7294252661938496e+18,0.007134435698390007,-0.040138643234968185,-9.765265464782715
1.7294252662058499e+18,-0.005084259435534477,-0.02576916664838791,-9.727919578552246
1.72942526621485e+18,-0.012940820306539536,-0.037926577031612396,-9.799606323242188
1.7294252662238502e+18,-0.003145849797874689,0.04169540852308273,-9.760763168334961
1.7294252662328504e+18,-0.02014729380607605,0.0193574707955122,-9.793944358825684
1.7294252662418506e+18,0.005973865743726492,0.12230493873357773,-9.839849472045898
1.7294252662508508e+18,-0.016757410019636154,0.051420554518699646,-9.767414093017578
1.729425266259851e+18,-0.0039870161563158035,0.019832439720630646,-9.804835319519043
1.7294252662688512e+18,0.043055590242147446,-0.015944743528962135,-9.826871871948242
1.7294252662748513e+18,0.03210734948515892,0.01570880226790905,-9.843755722045898
1.7294252662838515e+18,-0.04600438475608826,0.016046879813075066,-9.822869300842285
1.7294252662928517e+18,0.0039784531109035015,0.026250803843140602,-9.803095817565918
1.729425266301852e+18,-0.04431737959384918,-0.018619831651449203,-9.775915145874023
1.729425266310852e+18,0.03686164319515228,-0.008622786030173302,-9.742568969726562
1.7294252663198523e+18,0.012836286798119545,-0.044770095497369766,-9.746914863586426
1.7294252663288525e+18,-0.0005902920383960009,-0.03433447703719139,-9.856588363647461
1.7294252663348526e+18,0.03323093801736832,-0.037704307585954666,-9.826689720153809
1.7294252663438528e+18,-0.008960855193436146,0.03842627629637718,-9.766581535339355
1.729425266352853e+18,0.09385112673044205,-0.09580952674150467,-9.86909294128418
1.7294252663648532e+18,0.013215061277151108,-0.06249534711241722,-9.893176078796387
1.7294252663738534e+18,0.015434945933520794,0.045693784952163696,-9.810944557189941
1.7294252663828536e+18,0.0166653823107481,0.027738027274608612,-9.835369110107422
1.7294252663888538e+18,0.08819884806871414,0.05506778135895729,-9.778313636779785
1.729425266397854e+18,-0.05319160968065262,-0.0394832119345665,-9.895251274108887
1.7294252664068541e+18,0.014024711214005947,-0.032206594944000244,-9.824283599853516
1.7294252664128543e+18,-0.05269085615873337,-0.07928463071584702,-9.785351753234863
1.7294252664218545e+18,0.01219963002949953,0.020954126492142677,-9.835817337036133
1.7294252664338547e+18,-0.012857841327786446,-0.04650063067674637,-9.836294174194336
1.729425266442855e+18,-0.010143759660422802,-0.0007055146852508187,-9.766544342041016
1.729425266451855e+18,0.033280156552791595,-0.03943916782736778,-9.796013832092285
1.7294252664578552e+18,0.020307809114456177,0.017542904242873192,-9.822426795959473
1.7294252664698555e+18,0.024778097867965698,-0.00289893732406199,-9.756570816040039
1.7294252664758556e+18,-0.019385334104299545,0.053826458752155304,-9.887679100036621
1.7294252664848558e+18,-0.06780136376619339,0.023306896910071373,-9.84581470489502
1.729425266493856e+18,-0.020993251353502274,-0.06222414970397949,-9.782418251037598
1.7294252665028562e+18,-0.06276841461658478,-0.026708584278821945,-9.766510963439941
1.7294252665118564e+18,0.0074828448705375195,0.01761186495423317,-9.789203643798828
1.7294252665208566e+18,0.038493480533361435,-0.02596452832221985,-9.766507148742676
1.7294252665298568e+18,0.04569602757692337,0.08354923874139786,-9.802445411682129
1.729425266538857e+18,0.001675222534686327,0.005655087996274233,-9.809205055236816
1.7294252665478572e+18,-0.011800252832472324,0.10278061032295227,-9.687849044799805
1.7294252665568573e+18,0.02292044833302498,0.07482615113258362,-9.770259857177734
1.7294252665658575e+18,0.023491201922297478,0.00829441100358963,-9.817923545837402
1.7294252665718577e+18,0.04008916765451431,-0.025972217321395874,-9.73060131072998
1.7294252665808579e+18,0.012217036448419094,0.01140157412737608,-9.856950759887695
1.729425266589858e+18,-0.002641510684043169,0.012501067481935024,-9.783013343811035
1.7294252665988582e+18,-0.029427632689476013,-0.014440173283219337,-9.754047393798828
1.7294252666078584e+18,-0.0052041285671293736,-0.023390792310237885,-9.842697143554688
1.7294252666168586e+18,-0.054289888590574265,0.005712226498872042,-9.853605270385742
1.7294252666228588e+18,0.07879345118999481,0.010116519406437874,-9.728218078613281
1.729425266631859e+18,-0.05306417495012283,0.04944920912384987,-9.765926361083984
1.7294252666408591e+18,-0.07173766940832138,0.05875430628657341,-9.772089958190918
1.7294252666468593e+18,0.0044299401342868805,-0.06405606120824814,-9.769452095031738
1.7294252666558595e+18,-0.017958659678697586,-0.031047837808728218,-9.798471450805664
1.7294252666648596e+18,0.08134422451257706,0.08545344322919846,-9.811652183532715
1.7294252666738598e+18,0.0665607750415802,0.09874843806028366,-9.76987361907959
1.72942526668286e+18,0.017474118620157242,0.031124135479331017,-9.811701774597168
1.7294252666918602e+18,-0.05021391808986664,-0.045210644602775574,-9.81753921508789
1.7294252666978604e+18,-0.0032403715886175632,0.01765385828912258,-9.815605163574219
1.7294252667068605e+18,0.009339101612567902,-0.01971401274204254,-9.77927017211914
1.7294252667158607e+18,0.0331740528345108,0.059509024024009705,-9.743635177612305
1.729425266724861e+18,0.03996475413441658,0.10926864296197891,-9.827415466308594
1.729425266733861e+18,0.04073676839470863,-0.026379618793725967,-9.838052749633789
1.7294252667398612e+18,-0.031737037003040314,-0.06504029035568237,-9.812275886535645
1.7294252667488614e+18,0.035753559321165085,-0.0400707945227623,-9.827447891235352
1.7294252667578616e+18,-0.03697551041841507,-0.0742044672369957,-9.819091796875
1.7294252667668618e+18,0.008900893852114677,0.0012658301275223494,-9.823807716369629
1.729425266775862e+18,-0.05083451047539711,0.06714168190956116,-9.806347846984863
1.7294252667848622e+18,-0.02585507556796074,-0.010379149578511715,-9.820619583129883
1.7294252667938624e+18,0.019560985267162323,0.033360760658979416,-9.769913673400879
1.7294252668028626e+18,0.004788828082382679,-0.0026599918492138386,-9.756657600402832
1.7294252668118628e+18,-0.00971523579210043,-0.06098254397511482,-9.839835166931152
1.729425266820863e+18,-0.058892376720905304,0.03020898625254631,-9.836528778076172
1.7294252668298632e+18,0.007873576134443283,0.010418657213449478,-9.781145095825195
1.7294252668388634e+18,0.006296361796557903,-0.00021848114556632936,-9.825444221496582
1.7294252668478636e+18,-0.04458606243133545,-0.049478087574243546,-9.837672233581543
1.7294252668568637e+18,0.028101304545998573,-0.06375434249639511,-9.801175117492676
1.729425266865864e+18,0.030253352597355843,0.08207983523607254,-9.827164649963379
1.729425266871864e+18,0.0005148433265276253,0.03169668838381767,-9.823824882507324
1.7294252668808643e+18,0.016690166667103767,0.012831544503569603,-9.761436462402344
1.7294252668898644e+18,0.004190558567643166,-0.013496611267328262,-9.838143348693848
1.7294252668988646e+18,-0.06398212909698486,0.008012189529836178,-9.775790214538574
1.7294252669078648e+18,-0.06670263409614563,0.015126332640647888,-9.788232803344727
1.729425266916865e+18,0.056944094598293304,0.06815238296985626,-9.868698120117188
1.7294252669258652e+18,-0.0030687786638736725,0.005048827268183231,-9.864846229553223
1.7294252669318653e+18,-0.03652743250131607,0.015544922091066837,-9.720268249511719
1.7294252669408655e+18,-0.003105113049969077,0.034682631492614746,-9.73348331451416
1.7294252669528658e+18,-0.09407220035791397,-0.09301790595054626,-9.806764602661133
1.729425266961866e+18,-0.03156108781695366,0.05900593847036362,-9.767449378967285
1.7294252669708662e+18,0.06289148330688477,-0.02972150407731533,-9.840126037597656
1.7294252669798664e+18,-0.027790863066911697,-0.021284783259034157,-9.756779670715332
1.7294252669888666e+18,-0.030748330056667328,0.009725022129714489,-9.744552612304688
1.7294252669948667e+18,-0.0007802176405675709,-0.03368646278977394,-9.806132316589355
1.729425267003867e+18,-0.018420295789837837,0.01948302425444126,-9.919306755065918
1.7294252670158671e+18,-0.001428360235877335,0.003336510853841901,-9.705826759338379
1.7294252670218673e+18,-0.012064344249665737,0.01719285547733307,-9.799513816833496
1.7294252670308675e+18,0.0027955537661910057,0.030858470126986504,-9.813405990600586
1.7294252670398676e+18,0.023474354296922684,0.09976610541343689,-9.77109146118164
1.7294252670488678e+18,0.00471704825758934,-0.0543944276869297,-9.8652925491333
1.729425267057868e+18,0.004346543923020363,-0.027402102947235107,-9.796220779418945
1.7294252670668682e+18,0.02514132671058178,-0.09789920598268509,-9.821414947509766
1.7294252670758684e+18,-0.03357687219977379,0.0006723204278387129,-9.849893569946289
1.7294252670848686e+18,-0.038838837295770645,0.015130667947232723,-9.790213584899902
1.7294252670938688e+18,0.06112150847911835,-0.03948023170232773,-9.807462692260742
1.729425267102869e+18,-0.0011807861737906933,-0.02875797636806965,-9.826993942260742
1.729425267108869e+18,0.03938701003789902,0.007704767398536205,-9.795841217041016
1.7294252671178693e+18,-0.04489796608686447,-0.015077962540090084,-9.851685523986816
1.7294252671268695e+18,0.038920387625694275,-0.00938569288700819,-9.770423889160156
1.7294252671358697e+18,0.00593769084662199,0.05013761296868324,-9.847594261169434
1.72942526714487e+18,0.018117714673280716,-0.02346833609044552,-9.824187278747559
1.72942526715387e+18,0.03936222195625305,0.004353460390120745,-9.735095024108887
1.7294252671628703e+18,0.05416669696569443,-0.059807948768138885,-9.762508392333984
1.7294252671718705e+18,0.01529046893119812,-0.03072114661335945,-9.837695121765137
1.7294252671778706e+18,0.012942268513143063,0.005840715020895004,-9.784478187561035
1.7294252671898708e+18,0.0208798348903656,-0.004959150217473507,-9.890079498291016
1.729425267195871e+18,-0.07677112519741058,-0.0033880698028951883,-9.797046661376953
1.7294252672048712e+18,-0.053523898124694824,0.022174986079335213,-9.841867446899414
1.7294252672138714e+18,-0.009705986827611923,0.05490265041589737,-9.720648765563965
1.7294252672228716e+18,-0.005156988278031349,-0.06819283962249756,-9.753825187683105
1.7294252672318717e+18,0.06101372838020325,-0.09631328284740448,-9.860777854919434
1.729425267240872e+18,0.030749721452593803,0.04327205941081047,-9.777388572692871
1.7294252672498721e+18,0.1193172037601471,0.028012558817863464,-9.789661407470703
1.7294252672588723e+18,-0.015344740822911263,0.018942877650260925,-9.774741172790527
1.7294252672678725e+18,-0.03684287145733833,0.02319152280688286,-9.776158332824707
1.7294252672768727e+18,0.08798721432685852,-0.024310367181897163,-9.783476829528809
1.729425267285873e+18,-0.031957514584064484,0.026282837614417076,-9.828530311584473
1.729425267294873e+18,0.06139984726905823,-0.03802104294300079,-9.812261581420898
1.7294252673038733e+18,-0.036790985614061356,-0.0029183649457991123,-9.863790512084961
1.7294252673128735e+18,-0.04561960697174072,-0.018185216933488846,-9.744516372680664
1.7294252673218737e+18,-0.10449812561273575,-0.027336131781339645,-9.7533597946167
1.7294252673278738e+18,-0.015104960650205612,-0.02953408658504486,-9.775774955749512
1.729425267339874e+18,-0.010372226126492023,0.006131868809461594,-9.806859016418457
1.7294252673458742e+18,0.0001040258866851218,-0.030824648216366768,-9.872762680053711
1.7294252673548744e+18,-0.02099698595702648,-0.012773812748491764,-9.827293395996094
1.7294252673638746e+18,-0.028219951316714287,-0.033511508256196976,-9.81755542755127
1.7294252673728748e+18,0.03509160503745079,0.005372130777686834,-9.819284439086914
1.729425267381875e+18,0.012328366748988628,-0.044793806970119476,-9.854351043701172
1.7294252673908751e+18,0.027840813621878624,0.036283042281866074,-9.846884727478027
1.7294252673998753e+18,0.01967555657029152,0.04883478581905365,-9.829259872436523
1.7294252674088755e+18,0.027711065486073494,-0.03657182678580284,-9.811833381652832
1.7294252674178757e+18,0.019266046583652496,0.00522222276777029,-9.791550636291504
1.729425267426876e+18,-0.040623098611831665,-0.015908675268292427,-9.794514656066895
1.729425267435876e+18,-0.014257713221013546,-0.000851000368129462,-9.835360527038574
1.7294252674448763e+18,0.045795757323503494,0.026008129119873047,-9.828692436218262
1.7294252674538765e+18,-0.03757866844534874,-0.04715121537446976,-9.83630657196045
1.7294252674628767e+18,0.009908928535878658,0.024452444165945053,-9.876891136169434
1.7294252674718769e+18,0.0611637681722641,-0.062275949865579605,-9.782570838928223
1.729425267480877e+18,0.0768495723605156,-0.024239586666226387,-9.782683372497559
1.7294252674868772e+18,0.02745499648153782,0.037813298404216766,-9.86377239227295
1.7294252674958774e+18,-0.07415946573019028,-0.020740384235978127,-9.843735694885254
1.7294252675048776e+18,-0.040393147617578506,0.03678642585873604,-9.830731391906738
1.7294252675138778e+18,0.019020074978470802,0.0628097802400589,-9.831377029418945
1.729425267522878e+18,-0.035819243639707565,-0.03547148033976555,-9.827375411987305
1.7294252675318781e+18,-0.010783927515149117,-0.014705324545502663,-9.796380043029785
1.7294252675408783e+18,-0.037490781396627426,-0.04967506602406502,-9.821797370910645
1.7294252675498785e+18,-0.044245850294828415,0.0735657662153244,-9.744319915771484
1.7294252675588787e+18,-0.02834656462073326,0.007637114729732275,-9.78794002532959
1.7294252675648788e+18,-0.033328261226415634,-0.01855492778122425,-9.735393524169922
1.729425267573879e+18,0.03174293413758278,-0.06391721963882446,-9.763163566589355
1.7294252675828792e+18,-0.00030024172156117857,-0.06290135532617569,-9.810194969177246
1.7294252675918794e+18,-0.022459300234913826,0.03870459645986557,-9.831130981445312
1.7294252676008796e+18,0.05497267097234726,0.02835126593708992,-9.927071571350098
1.7294252676098798e+18,-0.022905835881829262,-0.06661027669906616,-9.751898765563965
1.72942526761888e+18,0.0334782637655735,0.00726333586499095,-9.793929100036621
1.7294252676278802e+18,0.07162250578403473,-0.04322937875986099,-9.753640174865723
1.7294252676368804e+18,-0.03510891646146774,-0.02453729882836342,-9.81312370300293
1.7294252676458806e+18,0.013176108710467815,-0.04464593902230263,-9.801789283752441
1.7294252676518807e+18,0.003388734767213464,-0.005891731474548578,-9.702840805053711
1.729425267660881e+18,0.04882247373461723,-0.04564453661441803,-9.73869514465332
1.7294252676728812e+18,0.010315963998436928,0.04120032861828804,-9.82876968383789
1.7294252676818813e+18,-0.05667629837989807,-0.02179587073624134,-9.82431697845459
1.7294252676908815e+18,0.008832679130136967,-0.015454601496458054,-9.835745811462402
1.7294252676998817e+18,0.044774219393730164,0.06536490470170975,-9.799803733825684
1.729425267708882e+18,0.036557916551828384,0.004345837514847517,-9.825671195983887
1.729425267717882e+18,-0.02153363637626171,0.045582909137010574,-9.904096603393555
1.7294252677238822e+18,-0.09992838650941849,-0.046365201473236084,-9.811135292053223
1.7294252677328824e+18,0.03189629688858986,0.0500277616083622,-9.902066230773926
1.7294252677418826e+18,-0.0177068542689085,0.020604921504855156,-9.796107292175293
1.7294252677508828e+18,-0.03516123443841934,0.024375421926379204,-9.806511878967285
1.729425267759883e+18,-0.0008139769197441638,0.0017274561105296016,-9.781445503234863
1.7294252677688832e+18,0.07364468276500702,-0.031613659113645554,-9.8385648727417
1.7294252677778834e+18,-0.00913339015096426,0.021260544657707214,-9.847814559936523
1.7294252677868836e+18,0.004080849699676037,-0.001029071630910039,-9.865537643432617
1.7294252677958838e+18,0.03691280633211136,-0.033393993973731995,-9.840672492980957
1.729425267804884e+18,0.1133967712521553,-0.0037231026217341423,-9.92180347442627
1.7294252678138842e+18,0.03859777748584747,-0.04589281231164932,-9.991949081420898
1.7294252678228844e+18,0.011257550679147243,-0.023151006549596786,-9.941161155700684
1.7294252678318845e+18,-0.10513824969530106,0.024515945464372635,-10.065914154052734
1.7294252678408847e+18,-0.02284412831068039,0.007930589839816093,-10.04127311706543
1.729425267849885e+18,-0.01126569788902998,-0.026617368683218956,-9.998106002807617
1.729425267858885e+18,0.0375799797475338,-0.02063911035656929,-9.993034362792969
1.7294252678648852e+18,-0.017939116805791855,-0.028593508526682854,-10.145123481750488
1.7294252678738854e+18,0.02669847011566162,-0.031093863770365715,-10.048149108886719
1.7294252678828856e+18,0.06522811204195023,-0.02552942931652069,-10.089524269104004
1.7294252678918858e+18,-0.036384958773851395,0.000276792561635375,-10.103007316589355
1.729425267897886e+18,0.00736925657838583,-0.02446988970041275,-10.262948989868164
1.7294252679068861e+18,0.01875772885978222,0.05609321594238281,-10.506277084350586
1.7294252679158863e+18,-0.07561817765235901,-0.011695122346282005,-10.435287475585938
1.7294252679248865e+18,-0.10592885315418243,-0.012523512355983257,-10.442547798156738
1.7294252679338867e+18,-0.005045087542384863,0.07250424474477768,-10.470959663391113
1.729425267942887e+18,0.03925100341439247,0.007013470865786076,-10.492050170898438
1.729425267951887e+18,-0.04763362184166908,0.08165106177330017,-10.446798324584961
1.7294252679608873e+18,0.013667943887412548,-0.057585787028074265,-10.532536506652832
1.7294252679698875e+18,0.04043778404593468,0.04198084771633148,-10.420990943908691
1.7294252679788877e+18,0.03823084756731987,0.031147820875048637,-10.571623802185059
1.7294252679878879e+18,0.03262811154127121,0.013392155058681965,-10.519980430603027
1.729425267996888e+18,-0.034946806728839874,-0.018304742872714996,-10.461792945861816
1.7294252680058883e+18,-0.016084477305412292,0.02581668272614479,-10.489295959472656
1.7294252680148884e+18,0.07928095012903214,0.056633394211530685,-10.538920402526855
1.7294252680238886e+18,-0.018845627084374428,0.016770265996456146,-10.551443099975586
1.7294252680328888e+18,0.04087572917342186,-0.06471426784992218,-10.5420503616333
1.729425268041889e+18,0.006148810964077711,0.04924226552248001,-10.523941040039062
1.7294252680508892e+18,0.04713357239961624,0.029661517590284348,-10.576730728149414
1.7294252680598894e+18,-0.07636842876672745,-0.03117358684539795,-10.56797981262207
1.7294252680688896e+18,0.020391330122947693,0.08311019092798233,-10.52702522277832
1.7294252680748897e+18,-0.01834889128804207,0.013079257681965828,-10.607872009277344
1.72942526808389e+18,-0.05797939375042915,0.06637880951166153,-10.495311737060547
1.7294252680958902e+18,0.04319892078638077,0.020928027108311653,-10.585193634033203
1.7294252681018903e+18,0.008650410920381546,-0.08237115293741226,-10.590156555175781
1.7294252681108905e+18,-0.06501484662294388,-0.021441861987113953,-10.583396911621094
1.7294252681198907e+18,-0.006674008909612894,0.10026077926158905,-10.549121856689453
1.729425268128891e+18,-0.07791214436292648,-0.0016565228579565883,-10.614388465881348
1.729425268137891e+18,0.040269337594509125,0.05041412636637688,-10.572060585021973
1.7294252681468913e+18,0.01201971247792244,0.007937094196677208,-10.535737037658691
1.7294252681558915e+18,0.027602115646004677,0.03337350860238075,-10.545734405517578
1.7294252681648916e+18,-0.010367240756750107,0.011710882186889648,-10.519458770751953
1.7294252681738918e+18,0.017424413934350014,0.01334210205823183,-10.535367965698242
1.729425268182892e+18,-0.060855623334646225,-0.0023217732086777687,-10.541332244873047
1.7294252681918922e+18,0.0010221090633422136,-0.01881672441959381,-10.519094467163086
1.7294252682008924e+18,0.06706637889146805,-0.042446259409189224,-10.579148292541504
1.7294252682098926e+18,-0.03347619250416756,0.022205667570233345,-10.590645790100098
1.7294252682188928e+18,0.05218568816781044,-0.011020753532648087,-10.543478965759277
1.729425268227893e+18,0.04606550559401512,0.07835350930690765,-10.572269439697266
1.7294252682368932e+18,-0.0319720134139061,0.06384672969579697,-10.522520065307617
1.7294252682458934e+18,0.06392046809196472,-0.0420396625995636,-10.619651794433594
1.7294252682548936e+18,-0.04688076674938202,0.01721774786710739,-10.673574447631836
1.7294252682638938e+18,0.024213720113039017,0.013296060264110565,-10.548288345336914
1.729425268272894e+18,0.014964303001761436,0.004649597220122814,-10.617532730102539
1.7294252682818941e+18,-0.005918302107602358,-0.0973874181509018,-10.62805461883545
1.7294252682878943e+18,0.02077382244169712,-0.00020225945627316833,-10.592324256896973
1.7294252682938944e+18,-0.03933801129460335,-0.01695171371102333,-10.59547233581543
1.7294252683028946e+18,-0.04178779199719429,0.08420766890048981,-10.55508041381836
1.7294252683088947e+18,0.020102888345718384,0.016947807744145393,-10.545981407165527
1.7294252683148948e+18,-0.0058260392397642136,0.005922999233007431,-10.656270027160645
1.729425268323895e+18,-0.01010800153017044,-0.07997836172580719,-10.570427894592285
1.7294252683328952e+18,2.913817297667265e-05,-0.0023765743244439363,-10.549309730529785
1.7294252683418954e+18,0.021381469443440437,0.03187074884772301,-10.485770225524902
1.7294252683508956e+18,0.043191999197006226,0.03292063623666763,-10.58464527130127
1.7294252683598958e+18,0.014213761314749718,0.06025811657309532,-10.626971244812012
1.729425268368896e+18,-0.008038757368922234,-0.039447490125894547,-10.647696495056152
1.7294252683778962e+18,-0.002253193873912096,-0.0005349674029275775,-10.595745086669922
1.7294252683838963e+18,-0.05590800195932388,0.08784176409244537,-10.606642723083496
1.7294252683928965e+18,-0.033325955271720886,0.033181559294462204,-10.648539543151855
1.7294252684048968e+18,-0.0746690034866333,0.02358723245561123,-10.599677085876465
1.729425268410897e+18,0.009534310549497604,0.06322931498289108,-10.646981239318848
1.729425268419897e+18,-0.011270320042967796,-0.014806394465267658,-10.6171236038208
1.7294252684288973e+18,0.027365852147340775,0.07045107334852219,-10.59762954711914
1.7294252684378975e+18,-0.04578475281596184,-0.03917139023542404,-10.675856590270996
1.7294252684468977e+18,0.031093347817659378,-0.03554992750287056,-10.620889663696289
1.7294252684558979e+18,-0.0507623553276062,0.03338748216629028,-10.595125198364258
1.729425268464898e+18,0.006620193365961313,0.025319356471300125,-10.585532188415527
1.7294252684708982e+18,0.026284951716661453,0.01908697746694088,-10.66301441192627
1.7294252684828984e+18,-0.05693094804883003,0.008211893029510975,-10.671952247619629
1.7294252684888986e+18,0.018415341153740883,0.018409861251711845,-10.626293182373047
1.7294252685008988e+18,0.0029616598039865494,-0.02220138907432556,-10.559165954589844
1.729425268509899e+18,-0.01825818419456482,-0.059503182768821716,-10.566473007202148
1.7294252685188992e+18,-0.006290240678936243,0.011919043958187103,-10.583611488342285
1.7294252685248993e+18,-0.0009981675539165735,-0.05207354575395584,-10.595050811767578
1.7294252685338995e+18,-0.0168148186057806,0.033680856227874756,-10.539519309997559
1.7294252685428997e+18,-0.09690453112125397,0.0018957376014441252,-10.642629623413086
1.7294252685519e+18,0.0188865028321743,-0.03148939087986946,-10.612051010131836
1.7294252685609e+18,-0.014392209239304066,-0.025159163400530815,-10.643270492553711
1.7294252685729004e+18,-0.05234265327453613,0.04826633259654045,-10.51585578918457
1.7294252685819005e+18,0.010627571493387222,0.007909443229436874,-10.672249794006348
1.7294252685909007e+18,0.001974887680262327,-0.024251671507954597,-10.557599067687988
1.729425268599901e+18,0.06920783966779709,-0.046983834356069565,-10.5738525390625
1.729425268608901e+18,0.00472513772547245,0.06288503110408783,-10.622912406921387
1.7294252686179013e+18,-0.009154193103313446,0.015285307541489601,-10.643501281738281
1.7294252686269015e+18,0.03219526633620262,-0.0003641825751401484,-10.657780647277832
1.7294252686359017e+18,0.02528446912765503,-0.016959063708782196,-10.684547424316406
1.729425268644902e+18,-0.024711381644010544,0.09903136640787125,-10.594429969787598
1.729425268650902e+18,0.07365144044160843,0.012264500372111797,-10.508137702941895
1.7294252686629023e+18,-0.06751861423254013,-0.00670994445681572,-10.464489936828613
1.7294252686719025e+18,0.05802474543452263,-0.005796459503471851,-10.62587833404541
1.7294252686809027e+18,-0.06805337965488434,0.05562528222799301,-10.575328826904297
1.7294252686899028e+18,-0.015168068930506706,0.0851244181394577,-10.536999702453613
1.729425268698903e+18,-0.018219176679849625,-0.0379456952214241,-10.597237586975098
1.7294252687079032e+18,-0.0007901649223640561,-0.031363535672426224,-10.57125186920166
1.7294252687169034e+18,0.0566975399851799,-0.04611661657691002,-10.544449806213379
1.7294252687259036e+18,-0.0038184255827218294,-0.0930362343788147,-10.633557319641113
1.7294252687319037e+18,0.05420439690351486,0.030078694224357605,-10.61033821105957
1.7294252687379039e+18,-0.005513346288353205,-0.04207831248641014,-10.588194847106934
1.729425268746904e+18,-0.00010550348088145256,0.004495251923799515,-10.538090705871582
1.7294252687559043e+18,0.10157041251659393,-0.028797030448913574,-10.536608695983887
1.7294252687649044e+18,-0.062072183936834335,0.0681433379650116,-10.52704906463623
1.7294252687739046e+18,0.008805382996797562,-0.042469821870326996,-10.628496170043945
1.7294252687799048e+18,-0.008107607252895832,-0.02990031987428665,-10.602766990661621
1.729425268788905e+18,-0.045437563210725784,0.06333521753549576,-10.539176940917969
1.7294252687979052e+18,0.013389503583312035,0.0796007513999939,-10.62739086151123
1.7294252688099054e+18,0.04703246057033539,-0.05308659374713898,-10.592279434204102
1.7294252688189056e+18,-0.042581528425216675,0.010312157683074474,-10.508798599243164
1.7294252688279058e+18,-0.030761759728193283,0.029250282794237137,-10.560698509216309
1.729425268836906e+18,-0.00746949203312397,0.04473895952105522,-10.620468139648438
1.7294252688459062e+18,0.07383977621793747,0.009393345564603806,-10.616957664489746
1.7294252688549064e+18,0.029009655117988586,-0.023687731474637985,-10.594217300415039
1.7294252688639066e+18,0.011045822873711586,0.050579920411109924,-10.601949691772461
1.7294252688729068e+18,0.022770565003156662,0.061433956027030945,-10.57502269744873
1.729425268881907e+18,-0.03211851790547371,-0.01754404604434967,-10.52209186553955
1.7294252688909071e+18,0.03267570957541466,-0.053129345178604126,-10.58449649810791
1.7294252688999073e+18,0.06422646343708038,-0.02364235557615757,-10.479635238647461
1.7294252689119076e+18,0.03303011134266853,0.0406038835644722,-10.575675964355469
1.7294252689209078e+18,-0.034526724368333817,0.06273315846920013,-10.571377754211426
1.729425268929908e+18,0.04747137799859047,0.10061879456043243,-10.598734855651855
1.7294252689389082e+18,-0.05554934963583946,-0.03684499114751816,-10.5573148727417
1.7294252689509084e+18,-0.03467322513461113,0.008687025867402554,-10.523088455200195
1.7294252689599086e+18,0.044793084263801575,0.09147695451974869,-10.568084716796875
1.7294252689689088e+18,0.008489195257425308,-0.035598933696746826,-10.568625450134277
1.729425268977909e+18,0.00011208833893761039,-0.02691126987338066,-10.62583065032959
1.7294252689869092e+18,-0.048839569091796875,-0.02126333676278591,-10.55521297454834
1.7294252689959094e+18,0.025638407096266747,0.06113757565617561,-10.512601852416992
1.7294252690049096e+18,-0.06289242208003998,-0.034361399710178375,-10.627274513244629
1.7294252690139098e+18,0.009904120117425919,0.03916820138692856,-10.590648651123047
1.72942526902291e+18,-0.06707145273685455,-0.011792441830039024,-10.508200645446777
1.7294252690319101e+18,0.019426314160227776,-0.06800819933414459,-10.616156578063965
1.7294252690409103e+18,0.03175968676805496,-0.06774746626615524,-10.50405502319336
1.7294252690529106e+18,0.004878947511315346,0.04056345671415329,-10.446016311645508
1.7294252690619108e+18,0.08807918429374695,0.02026696503162384,-10.573699951171875
1.729425269070911e+18,0.037747275084257126,0.030589532107114792,-10.594176292419434
1.7294252690799112e+18,-0.0035376937594264746,0.013517273589968681,-10.531166076660156
1.7294252690889114e+18,0.059594739228487015,-0.023359786719083786,-10.583827018737793
1.7294252690979116e+18,0.0586240291595459,0.012632276862859726,-10.47223949432373
1.7294252691069117e+18,0.04505857080221176,-0.03305505961179733,-10.466065406799316
1.729425269118912e+18,0.047329701483249664,-0.006710336077958345,-10.503436088562012
1.7294252691279122e+18,0.013389386236667633,0.021299239248037338,-10.548371315002441
1.7294252691369124e+18,-0.05430474877357483,-0.04295603185892105,-10.506199836730957
1.7294252691459126e+18,0.08364231884479523,0.0053215292282402515,-10.565608978271484
1.7294252691549128e+18,-0.010769607499241829,-0.03788264840841293,-10.53110408782959
1.729425269166913e+18,0.04448070377111435,0.024711623787879944,-10.517773628234863
1.7294252691759132e+18,-0.007468604017049074,0.0032247183844447136,-10.49446964263916
1.7294252691849134e+18,-0.02109701931476593,0.0235555712133646,-10.557815551757812
1.7294252691939136e+18,-0.008025243878364563,0.015968836843967438,-10.588483810424805
1.7294252692029138e+18,0.08558794856071472,0.02974616177380085,-10.564587593078613
1.729425269211914e+18,0.08436260372400284,0.005861232522875071,-10.539314270019531
1.7294252692239142e+18,0.011140082031488419,0.008045932278037071,-10.586857795715332
1.7294252692359145e+18,0.041586942970752716,-0.028512340039014816,-10.505681991577148
1.7294252692449147e+18,0.10157904028892517,0.018224522471427917,-10.478849411010742
1.729425269253915e+18,-0.03669188916683197,-0.03566226363182068,-10.447916030883789
1.729425269262915e+18,-0.013538018800318241,0.03654772788286209,-10.413997650146484
1.7294252692749153e+18,-0.009689572267234325,-0.09160574525594711,-10.39988899230957
1.7294252692809155e+18,0.009439421817660332,0.031165022403001785,-10.336729049682617
1.7294252692899156e+18,-0.010462768375873566,0.019093340262770653,-10.28683853149414
1.7294252692989158e+18,0.014699759893119335,-0.04068993031978607,-10.286885261535645
1.729425269307916e+18,-0.032343387603759766,-0.06402193009853363,-10.258371353149414
1.7294252693169162e+18,-0.04461466521024704,0.0324748195707798,-10.230304718017578
1.7294252693229164e+18,-0.027945872396230698,0.012517489492893219,-10.21669864654541
1.7294252693319165e+18,-0.02354372665286064,-0.03362330421805382,-10.23116683959961
1.7294252693409167e+18,0.006520469672977924,-0.03529295325279236,-10.143863677978516
1.729425269349917e+18,-0.02694045379757881,0.031613074243068695,-10.075185775756836
1.729425269358917e+18,-0.014920050278306007,-0.032200053334236145,-10.088028907775879
1.7294252693679173e+18,0.04542534425854683,0.014480389654636383,-10.10851001739502
1.7294252693799176e+18,-0.045870617032051086,0.03371348977088928,-10.026202201843262
1.7294252693889178e+18,0.011973715387284756,-0.05803683400154114,-10.061691284179688
1.729425269397918e+18,-0.017945948988199234,-0.00028901800396852195,-9.93604564666748
1.7294252694069181e+18,-0.003915660083293915,0.007296421565115452,-10.032076835632324
1.7294252694189184e+18,-0.020253412425518036,0.08219233900308609,-9.916587829589844
1.7294252694279186e+18,0.007359296083450317,0.037138283252716064,-9.969706535339355
1.7294252694369188e+18,0.029995456337928772,0.036213941872119904,-9.905258178710938
1.729425269445919e+18,0.021167373284697533,-0.010537423193454742,-9.784148216247559
1.7294252694549192e+18,0.05012931674718857,0.03188614919781685,-9.899422645568848
1.7294252694669194e+18,0.0692463219165802,0.016515089198946953,-9.722260475158691
1.7294252694789197e+18,0.011198699474334717,-0.034396566450595856,-9.741308212280273
1.7294252694879199e+18,-0.003259197575971484,-0.03361378610134125,-9.701798439025879
1.72942526949692e+18,0.012715889140963554,-0.04080743342638016,-9.767284393310547
1.7294252695059203e+18,-0.014515932649374008,0.10240764170885086,-9.655794143676758
1.7294252695149204e+18,0.04143672436475754,0.008052898570895195,-9.644036293029785
1.7294252695239206e+18,0.05457623302936554,-0.026631562039256096,-9.653465270996094
1.729425269535921e+18,-0.009507139213383198,0.008537331596016884,-9.655779838562012
1.729425269544921e+18,0.025244003161787987,0.011825686320662498,-9.651825904846191
1.7294252695539213e+18,0.01654820330440998,0.017746899276971817,-9.637800216674805
1.7294252695629215e+18,0.004016151651740074,-0.013390383683145046,-9.665029525756836
1.7294252695719217e+18,0.031532932072877884,0.039443813264369965,-9.64620304107666
1.729425269583922e+18,-0.07117152214050293,0.020782507956027985,-9.676194190979004
1.729425269589922e+18,0.029661597684025764,0.058295756578445435,-9.697617530822754
1.7294252695989222e+18,-0.024079030379652977,0.012466853484511375,-9.662665367126465
1.7294252696079224e+18,-0.08481740951538086,-0.06609348207712173,-9.666291236877441
1.7294252696169226e+18,0.03374788165092468,-0.03499499335885048,-9.69332504272461
1.7294252696259228e+18,0.06223617494106293,0.017088111490011215,-9.646167755126953
1.729425269631923e+18,0.03380487859249115,0.06956683099269867,-9.61062240600586
1.7294252696409231e+18,-0.024542389437556267,-0.06138058006763458,-9.648212432861328
1.7294252696499233e+18,-0.05229821056127548,0.028416987508535385,-9.608113288879395
1.7294252696589235e+18,-0.03148964047431946,0.010608004406094551,-9.736671447753906
1.7294252696679237e+18,0.01322750560939312,-0.001605903496965766,-9.675957679748535
1.729425269676924e+18,-0.04327944666147232,0.03289449214935303,-9.635641098022461
1.729425269685924e+18,0.053592607378959656,-0.06874459981918335,-9.604336738586426
1.7294252696919242e+18,0.05067392438650131,-0.03990808129310608,-9.674336433410645
1.7294252697009244e+18,0.029629191383719444,0.0025603461544960737,-9.632186889648438
1.7294252697099246e+18,-0.04071590304374695,-0.05147130414843559,-9.60302734375
1.7294252697219249e+18,0.03957527130842209,-0.013593403622508049,-9.619619369506836
1.729425269730925e+18,0.002718884265050292,-0.0013814001576974988,-9.664688110351562
1.7294252697399252e+18,-0.05053179711103439,0.04173450544476509,-9.696446418762207
1.7294252697489254e+18,-0.050594642758369446,0.0029745353385806084,-9.612751960754395
1.7294252697579256e+18,-0.05561917647719383,-0.01326233334839344,-9.650541305541992
1.729425269769926e+18,0.022585105150938034,0.0146111398935318,-9.639424324035645
1.729425269775926e+18,-0.06288459897041321,0.01739320531487465,-9.659599304199219
1.7294252697849262e+18,-0.016132697463035583,0.047936100512742996,-9.603010177612305
1.7294252697909263e+18,0.042908500880002975,0.0023052014876157045,-9.67635726928711
1.7294252697999265e+18,-0.036730967462062836,-0.023668117821216583,-9.60359001159668
1.7294252698089267e+18,-0.04965570196509361,0.056829240173101425,-9.665821075439453
1.729425269817927e+18,-0.005582970567047596,-0.021139072254300117,-9.60799789428711
1.729425269826927e+18,-0.040944721549749374,-0.013510623946785927,-9.5523681640625
1.7294252698359273e+18,-0.01678961142897606,0.04708756133913994,-9.604881286621094
1.7294252698419274e+18,0.030179405584931374,-0.028515808284282684,-9.577778816223145
1.7294252698479276e+18,0.03827819228172302,0.012844454497098923,-9.66127872467041
1.7294252698569277e+18,0.016323383897542953,-0.030411189422011375,-9.626989364624023
1.729425269865928e+18,-0.060004424303770065,-0.0004935351898893714,-9.666129112243652
1.729425269874928e+18,0.02631523832678795,-0.011653948575258255,-9.59250259399414
1.7294252698839283e+18,-0.010620716027915478,-0.005696316249668598,-9.603462219238281
1.7294252698929285e+18,-0.00022387903300113976,0.024905525147914886,-9.655340194702148
1.7294252699049288e+18,0.04794524237513542,-0.039103325456380844,-9.569260597229004
1.729425269913929e+18,0.027425849810242653,-0.04532896727323532,-9.620346069335938
1.7294252699259292e+18,-0.005670115351676941,-0.044969961047172546,-9.65363883972168
1.7294252699319293e+18,0.05714014545083046,-0.10947935283184052,-9.61406135559082
1.7294252699409295e+18,-0.061602335423231125,-0.02563222497701645,-9.560376167297363
1.7294252699499297e+18,0.019459417089819908,-0.08773143589496613,-9.61268138885498
1.72942526995893e+18,-0.02204207144677639,0.0115788783878088,-9.584014892578125
1.72942526996793e+18,-0.0399729423224926,0.023701978847384453,-9.619527816772461
1.7294252699769303e+18,-0.006940098945051432,-0.035097360610961914,-9.619449615478516
1.7294252699829304e+18,-0.026911675930023193,0.024755319580435753,-9.568548202514648
1.7294252699919306e+18,-0.0630713626742363,-0.05460534244775772,-9.525716781616211
1.7294252700009308e+18,0.07312584668397903,0.0083722323179245,-9.619244575500488
1.729425270006931e+18,-0.0013131998712196946,-0.02624686434864998,-9.530078887939453
1.7294252700159311e+18,-0.005693019367754459,0.07029492408037186,-9.648696899414062
1.7294252700189312e+18,0.046758826822042465,-0.007743264548480511,-9.571330070495605
1.7294252700249313e+18,0.09596651792526245,0.04488689452409744,-9.53940200805664
1.7294252700339315e+18,-0.026186466217041016,-0.04163864254951477,-9.57823657989502
1.7294252700399316e+18,0.004076593555510044,0.012121004983782768,-9.578797340393066
1.7294252700459318e+18,0.09425652027130127,-0.011979023925960064,-9.703227996826172
1.729425270051932e+18,-0.009099259972572327,0.03530741110444069,-9.586796760559082
1.729425270057932e+18,0.014095747843384743,0.03388453274965286,-9.635331153869629
1.7294252700669322e+18,-0.007851586677134037,0.0220514964312315,-9.611204147338867
1.7294252700699323e+18,-0.013012371957302094,-0.04660724103450775,-9.665373802185059
1.7294252700759324e+18,-0.04308353736996651,-0.053069375455379486,-9.56026840209961
1.7294252700849326e+18,0.02866494469344616,0.06600627303123474,-9.531806945800781
1.7294252700909327e+18,0.033920690417289734,-0.026440948247909546,-9.535287857055664
1.7294252700969329e+18,-0.0737316682934761,-0.08243948221206665,-9.61745548248291
1.729425270102933e+18,0.04073029011487961,-0.02975142002105713,-9.518799781799316
1.729425270108933e+18,-0.08551496267318726,-0.0020536601077765226,-9.567000389099121
1.7294252701179333e+18,-0.05494653806090355,0.0245270524173975,-9.511175155639648
1.7294252701239334e+18,-0.032163552939891815,-0.015680447220802307,-9.643511772155762
1.7294252701299336e+18,-0.0634685531258583,-0.01912888139486313,-9.651037216186523
1.7294252701389338e+18,0.01972145587205887,0.005355465225875378,-9.595242500305176
1.7294252701419338e+18,-0.0330437496304512,0.025096271187067032,-9.573514938354492
1.729425270150934e+18,-0.07031576335430145,0.00798401515930891,-9.524660110473633
1.7294252701569341e+18,-0.015040609985589981,-0.057116247713565826,-9.542516708374023
1.7294252701629343e+18,-0.018606746569275856,0.03405804932117462,-9.552170753479004
1.7294252701689344e+18,-0.0151998745277524,-0.013156363740563393,-9.600017547607422
1.7294252701779346e+18,-0.0038783831987529993,-0.003503972664475441,-9.583611488342285
1.7294252701839347e+18,-0.015772687271237373,0.013725836761295795,-9.474239349365234
1.729425270192935e+18,-0.0045247310772538185,-0.06668570637702942,-9.45238971710205
1.729425270198935e+18,-0.020415974780917168,0.016781987622380257,-9.56316089630127
1.7294252702079352e+18,0.019944652915000916,-0.08557938784360886,-9.500917434692383
1.7294252702169354e+18,-0.002155234105885029,-0.027372729033231735,-9.532292366027832
1.7294252702259356e+18,0.015570756047964096,0.0576290525496006,-9.630788803100586
1.7294252702349358e+18,0.01284452062100172,-0.04665285721421242,-9.545112609863281
1.729425270240936e+18,-0.04178977012634277,-0.11045870184898376,-9.548188209533691
1.7294252702529362e+18,-0.060842812061309814,-0.05726289749145508,-9.539918899536133
1.7294252702589363e+18,0.007386392913758755,-0.010903732851147652,-9.594145774841309
1.7294252702679365e+18,-0.01061483845114708,-0.0666673481464386,-9.613139152526855
1.7294252702739366e+18,0.043688077479600906,0.020809028297662735,-9.588342666625977
1.7294252702799368e+18,-0.018983082845807076,-0.04082264006137848,-9.524714469909668
1.729425270288937e+18,-0.02823088876903057,-0.06968595087528229,-9.52293586730957
1.729425270294937e+18,-0.010080170817673206,0.07497736066579819,-9.448930740356445
1.7294252703009372e+18,0.0013441030168905854,-0.054081160575151443,-9.47481918334961
1.7294252703069373e+18,-0.015020899474620819,-0.02084713615477085,-9.510196685791016
1.7294252703129375e+18,0.0535314716398716,-0.008792085573077202,-9.461670875549316
1.7294252703219377e+18,0.02973964996635914,0.00966882798820734,-9.487278938293457
1.7294252703309379e+18,0.024141671136021614,0.004119290504604578,-9.497679710388184
1.729425270339938e+18,-0.015170639380812645,-0.03932427242398262,-9.496027946472168
1.7294252703489382e+18,0.01182399969547987,0.005916929803788662,-9.522112846374512
1.7294252703549384e+18,0.026411091908812523,-0.03846525028347969,-9.49864387512207
1.7294252703609385e+18,0.01426239125430584,0.030047520995140076,-9.536293983459473
1.7294252703699387e+18,0.01207579392939806,0.030624663457274437,-9.473546028137207
1.7294252703759388e+18,-0.058155421167612076,0.00869723130017519,-9.470023155212402
1.729425270381939e+18,0.06257443130016327,-0.05767171084880829,-9.454002380371094
1.7294252703909391e+18,0.05778156965970993,0.05155409127473831,-9.54094409942627
1.7294252703999393e+18,0.024029677733778954,-0.010478845797479153,-9.462603569030762
1.7294252704059395e+18,-0.061090417206287384,-0.09238971024751663,-9.522771835327148
1.7294252704149396e+18,-0.012818540446460247,-0.04343344643712044,-9.401993751525879
1.7294252704209398e+18,0.005635513458400965,0.012926784344017506,-9.434045791625977
1.72942527042994e+18,-0.037091922014951706,0.02706146240234375,-9.555665016174316
1.72942527043594e+18,0.02613133378326893,-0.02358233742415905,-9.538701057434082
1.7294252704419402e+18,0.02143748290836811,-0.009235505014657974,-9.49687385559082
1.7294252704479404e+18,0.0023911253083497286,-0.0028986972756683826,-9.575166702270508
1.7294252704539405e+18,0.051246143877506256,0.004327133297920227,-9.477426528930664
1.7294252704629407e+18,0.008257775567471981,-0.007449014112353325,-9.478877067565918
1.7294252704689408e+18,0.03857544809579849,0.08726657181978226,-9.453425407409668
1.729425270474941e+18,-0.024509932845830917,-0.023373255506157875,-9.423974990844727
1.729425270480941e+18,0.01509389840066433,-0.06173735484480858,-9.55683422088623
1.7294252704869412e+18,-0.04169892892241478,0.026922352612018585,-9.475225448608398
1.7294252704929413e+18,-0.0614120289683342,0.012892290949821472,-9.429703712463379
1.7294252705019415e+18,0.05135063827037811,-0.022421568632125854,-9.49002742767334
1.7294252705079416e+18,0.05788429453969002,0.04105043783783913,-9.518370628356934
1.7294252705169418e+18,-0.0015838935505598783,0.029868580400943756,-9.467984199523926
1.729425270522942e+18,0.0668957307934761,-0.02717839553952217,-9.446807861328125
1.729425270528942e+18,0.03086506947875023,-0.011636624112725258,-9.46977424621582
1.7294252705349422e+18,0.060414403676986694,-0.0182434543967247,-9.488402366638184
1.7294252705439424e+18,0.002424377715215087,-0.009976143017411232,-9.478095054626465
1.7294252705529426e+18,0.011960449628531933,-0.01007840596139431,-9.4625825881958
1.7294252705589427e+18,0.0031370874494314194,-0.003116224892437458,-9.489601135253906
1.7294252705649428e+18,-0.0064384834840893745,0.030520478263497353,-9.482620239257812
1.729425270570943e+18,-0.011666378006339073,0.05899114906787872,-9.366082191467285
1.729425270576943e+18,-0.001306053134612739,-0.02799796685576439,-9.430293083190918
1.7294252705859433e+18,0.08222396671772003,-0.03863301873207092,-9.43074893951416
1.7294252705919434e+18,0.03711101785302162,0.05476967990398407,-9.583648681640625
1.7294252705979436e+18,0.007281459402292967,0.03444152697920799,-9.430639266967773
1.7294252706039437e+18,0.06152801960706711,0.039262786507606506,-9.47986125946045
1.7294252706099438e+18,0.016900695860385895,-0.004757191054522991,-9.415444374084473
1.729425270618944e+18,0.05246266350150108,0.048801228404045105,-9.545339584350586
1.7294252706279442e+18,-0.09435195475816727,0.0027398623060435057,-9.443705558776855
1.7294252706339443e+18,-0.0047737304121255875,-0.10479618608951569,-9.487653732299805
1.7294252706399444e+18,-0.005100231152027845,-0.027752289548516273,-9.480332374572754
1.7294252706459446e+18,-0.0005463268607854843,-0.06385478377342224,-9.51988697052002
1.7294252706549448e+18,0.04591172933578491,-0.050116635859012604,-9.453140258789062
1.729425270660945e+18,-0.029102694243192673,0.061517924070358276,-9.518478393554688
1.729425270669945e+18,0.03528086096048355,0.042008135467767715,-9.464851379394531
1.7294252706759452e+18,0.0060480558313429356,0.005279344506561756,-9.471940994262695
1.7294252706849454e+18,-0.012530825100839138,0.06642119586467743,-9.442167282104492
1.7294252706909455e+18,-0.005140481982380152,0.010400052182376385,-9.481810569763184
1.7294252706999457e+18,0.026422599330544472,0.0015655203023925424,-9.467585563659668
1.7294252707059459e+18,0.04431670531630516,-0.01693323627114296,-9.411213874816895
1.729425270711946e+18,0.034464411437511444,-0.007518121041357517,-9.512691497802734
1.729425270717946e+18,-0.016139602288603783,0.005216749384999275,-9.439001083374023
1.7294252707269463e+18,0.001955996034666896,0.06309608370065689,-9.507341384887695
1.7294252707329464e+18,0.010789156891405582,-0.006636930629611015,-9.434279441833496
1.7294252707419466e+18,-0.048027027398347855,0.015696479007601738,-9.483370780944824
1.7294252707509468e+18,-0.017438288778066635,0.003206761321052909,-9.393980026245117
1.729425270759947e+18,-0.00533429766073823,0.04282955080270767,-9.437297821044922
1.7294252707719473e+18,0.030552370473742485,0.05020485445857048,-9.43266773223877
1.7294252707809475e+18,-0.029419032856822014,-0.029891345649957657,-9.495129585266113
1.7294252707869476e+18,0.07753906399011612,0.05527089908719063,-9.423739433288574
1.7294252707959478e+18,-0.015482105314731598,-0.022911930456757545,-9.452869415283203
1.729425270804948e+18,-0.005633356515318155,-0.06266256421804428,-9.384013175964355
1.7294252708169482e+18,-0.08761677891016006,-0.037142422050237656,-9.520078659057617
1.7294252708259484e+18,0.0342789851129055,0.038655009120702744,-9.408162117004395
1.7294252708319485e+18,-0.015416324138641357,-0.012212083674967289,-9.457481384277344
1.7294252708409487e+18,-0.07828176021575928,-0.030130460858345032,-9.45291519165039
1.729425270849949e+18,0.014738808386027813,0.003787982976064086,-9.468889236450195
1.729425270858949e+18,-0.028275996446609497,0.05990489572286606,-9.364805221557617
1.7294252708679493e+18,0.012014097534120083,0.06402146071195602,-9.506025314331055
1.7294252708769495e+18,0.042600907385349274,0.009638059884309769,-9.358575820922852
1.7294252708859497e+18,-0.07224583625793457,-0.07979059964418411,-9.432743072509766
1.72942527089495e+18,-0.03150678053498268,-0.010867559351027012,-9.479486465454102
1.72942527090395e+18,0.01073724590241909,0.024800481274724007,-9.353479385375977
1.7294252709129503e+18,-0.0420355461537838,-0.030405238270759583,-9.474152565002441
1.7294252709189504e+18,0.05260001868009567,0.04135248810052872,-9.326619148254395
1.7294252709309507e+18,0.08944886177778244,0.028185976669192314,-9.379352569580078
1.7294252709369508e+18,-0.0019378082361072302,0.060959428548812866,-9.434540748596191
1.729425270945951e+18,0.01917794719338417,-0.047786712646484375,-9.31407356262207
1.7294252709549512e+18,-0.010636204853653908,0.017353959381580353,-9.297113418579102
1.7294252709669514e+18,0.0586114265024662,0.04817713052034378,-9.287272453308105
1.7294252709759516e+18,-0.020032480359077454,0.04301971197128296,-9.1834135055542
1.7294252709849518e+18,-0.047352757304906845,-0.06485317647457123,-9.299020767211914
1.729425270993952e+18,-0.03176085650920868,0.013313326984643936,-9.200783729553223
1.7294252710029522e+18,0.011410017497837543,-0.03132764995098114,-9.207310676574707
1.7294252710119524e+18,0.07357299327850342,0.032812248915433884,-9.160989761352539
1.7294252710209526e+18,-0.02408045157790184,-0.0055891056545078754,-9.077218055725098
1.7294252710269527e+18,-0.0474201999604702,0.10339585691690445,-9.104418754577637
1.729425271038953e+18,-0.06372062116861343,-0.039708442986011505,-8.933791160583496
1.729425271044953e+18,0.031148504465818405,-0.05078527703881264,-8.947486877441406
1.7294252710539533e+18,0.02157445065677166,-0.008104892447590828,-9.027772903442383
1.7294252710629535e+18,0.02606385201215744,-0.018288327381014824,-8.991880416870117
1.7294252710719537e+18,-0.04255756363272667,0.005244355648756027,-8.946468353271484
1.7294252710809539e+18,-0.00246942020021379,-0.0706353411078453,-8.847145080566406
1.729425271089954e+18,-0.037736546248197556,0.006935162469744682,-8.875008583068848
1.7294252710989542e+18,-0.16111789643764496,-0.04685085266828537,-8.890620231628418
1.7294252711079544e+18,-0.01734991744160652,0.024596087634563446,-8.794660568237305
1.7294252711169546e+18,-0.0820586234331131,-0.061263471841812134,-8.832965850830078
1.7294252711259548e+18,-0.05741635710000992,0.015614478848874569,-8.743008613586426
1.729425271134955e+18,0.02635846473276615,0.021499142050743103,-8.799601554870605
1.7294252711409551e+18,-0.056817322969436646,-0.008860078640282154,-8.765668869018555
1.7294252711529554e+18,0.03246604651212692,-0.07261548936367035,-8.75663948059082
1.7294252711619556e+18,-0.10118979960680008,-0.043599311262369156,-8.64521312713623
1.7294252711679557e+18,-0.05231860280036926,0.012210785411298275,-8.636788368225098
1.729425271176956e+18,-0.06963442265987396,0.06780028343200684,-8.617481231689453
1.729425271185956e+18,0.03236151859164238,-0.02561013586819172,-8.607468605041504
1.7294252711949563e+18,-0.04600675031542778,-0.02486511692404747,-8.600622177124023
1.7294252712039565e+18,-0.1496354639530182,0.005283508915454149,-8.624544143676758
1.7294252712129567e+18,-0.031260665506124496,-0.042993780225515366,-8.696499824523926
1.7294252712219569e+18,-0.017985012382268906,0.037970494478940964,-8.685019493103027
1.729425271230957e+18,-0.022053910419344902,0.0014451905153691769,-8.730731010437012
1.7294252712399572e+18,-0.1500038057565689,-0.06495387107133865,-8.66858196258545
1.7294252712459574e+18,-0.05416497215628624,-0.013371429406106472,-8.705072402954102
1.7294252712549576e+18,-0.019650906324386597,0.02721133828163147,-8.707948684692383
1.7294252712639578e+18,0.021221192553639412,0.002432728186249733,-8.726567268371582
1.729425271272958e+18,0.05320211499929428,-0.03989667445421219,-13.932523727416992
1.7294252712819581e+18,0.02722395397722721,-0.041481539607048035,-15.801369667053223
1.7294252712879583e+18,0.03171980008482933,-0.0790354385972023,-16.067218780517578
1.7294252712969585e+18,0.01337548065930605,0.03144502267241478,-16.177305221557617
1.7294252713059587e+18,-0.02558509260416031,0.00037453905679285526,-16.24612045288086
1.7294252713149588e+18,0.024064240977168083,0.07035727053880692,-16.22742462158203
1.729425271323959e+18,-0.04177122190594673,0.015619387850165367,-16.024072647094727
1.7294252713329592e+18,-0.001859394134953618,-0.016878444701433182,-15.876457214355469
1.7294252713419594e+18,0.09217627346515656,0.06485387682914734,-15.797321319580078
1.7294252713509596e+18,0.033269934356212616,0.002018229104578495,-15.533519744873047
1.7294252713599598e+18,-0.0031693733762949705,0.037860188633203506,-15.443522453308105
1.72942527136896e+18,-0.04309830069541931,-0.013432804495096207,-15.329756736755371
1.7294252713779602e+18,0.036483991891145706,-0.04227227717638016,-15.210221290588379
1.7294252713869604e+18,-0.01889515481889248,0.009958342649042606,-15.073661804199219
1.7294252713959606e+18,0.05345986783504486,-0.034408364444971085,-14.944476127624512
1.7294252714049608e+18,0.0015546343056485057,-0.05888370797038078,-14.84677791595459
1.729425271413961e+18,0.016364915296435356,0.016568604856729507,-14.7903470993042
1.7294252714229612e+18,-0.06779678910970688,0.049798376858234406,-14.648982048034668
1.7294252714319613e+18,-0.04660172015428543,-0.06489916890859604,-14.508398056030273
1.7294252714409615e+18,0.01619846746325493,-0.00984896905720234,-14.383216857910156
1.7294252714499617e+18,0.050616562366485596,0.05426240339875221,-14.289262771606445
1.729425271458962e+18,0.09055003523826599,-0.05878858268260956,-14.230236053466797
1.729425271467962e+18,-0.0013095538597553968,-0.08098120987415314,-13.957958221435547
1.7294252714769623e+18,-0.03990909457206726,0.017026714980602264,-13.957874298095703
1.7294252714859625e+18,0.05416002869606018,0.043878667056560516,-13.840348243713379
1.7294252714949627e+18,0.02275652252137661,-0.014441304840147495,-13.743431091308594
1.729425271503963e+18,0.09096371382474899,-0.025659358128905296,-13.624687194824219
1.729425271512963e+18,0.016515439376235008,-0.044992197304964066,-13.63322925567627
1.7294252715219633e+18,0.11270961165428162,0.09093896299600601,-13.519818305969238
1.7294252715309635e+18,-0.04611004516482353,-0.01568688079714775,-13.457819938659668
1.7294252715399636e+18,-0.016456278041005135,0.027309458702802658,-13.37523365020752
1.7294252715489638e+18,-0.03378821164369583,-0.06735480576753616,-13.170711517333984
1.729425271557964e+18,-0.01432382594794035,-0.03761349990963936,-13.075298309326172
1.7294252715669642e+18,-0.024304814636707306,0.06986603140830994,-13.084357261657715
1.7294252715759644e+18,0.002811947138980031,-0.019205784425139427,-12.993437767028809
1.7294252715849646e+18,0.09501545131206512,0.06655284017324448,-12.812628746032715
1.7294252715939648e+18,-0.010475399903953075,0.03703279793262482,-12.829886436462402
1.729425271602965e+18,0.03703339025378227,-0.058544255793094635,-12.7921724319458
1.7294252716119652e+18,-0.04645979776978493,-0.04220820590853691,-12.675058364868164
1.7294252716179653e+18,0.048438940197229385,-0.033726148307323456,-12.706114768981934
1.7294252716269655e+18,0.06400392949581146,-0.012519999407231808,-12.514951705932617
1.7294252716359657e+18,-0.06927832961082458,-0.0233205184340477,-12.543084144592285
1.729425271644966e+18,-0.024299530312418938,-0.04921310767531395,-12.493042945861816
1.729425271653966e+18,0.04609406366944313,0.019318481907248497,-12.377073287963867
1.7294252716599662e+18,-0.05393572896718979,0.01479840837419033,-12.310158729553223
1.7294252716689664e+18,0.07124021649360657,-0.053375329822301865,-12.192008972167969
1.7294252716779666e+18,0.0034635858610272408,0.010950480587780476,-12.266448020935059
1.7294252716869668e+18,0.07714571058750153,0.01984248496592045,-12.1770658493042
1.729425271695967e+18,0.045369938015937805,-0.0681888684630394,-12.140640258789062
1.7294252717049672e+18,0.04979395493865013,-0.02264581061899662,-12.113852500915527
1.7294252717139674e+18,0.10139144212007523,0.05688009411096573,-12.073701858520508
1.7294252717229676e+18,0.03167629987001419,0.030042707920074463,-12.086987495422363
1.7294252717319677e+18,0.0211187731474638,0.022535210475325584,-11.911187171936035
1.729425271740968e+18,-0.04505777731537819,0.0012599597685039043,-11.87238597869873
1.7294252717499681e+18,-0.03813821077346802,0.06802616268396378,-11.938200950622559
1.7294252717589683e+18,-0.06563427299261093,-0.08627209812402725,-11.819416999816895
1.7294252717679685e+18,0.006950009614229202,0.009319717064499855,-11.797677040100098
1.7294252717769687e+18,0.03827911987900734,0.006362464744597673,-11.722476959228516
1.729425271785969e+18,0.035148218274116516,0.027014685794711113,-11.725787162780762
1.729425271794969e+18,0.07577338069677353,0.014022241346538067,-11.655366897583008
1.7294252718039693e+18,-0.01258381363004446,0.007108048535883427,-11.570165634155273
1.7294252718129695e+18,0.10046080499887466,0.011770856566727161,-11.54629135131836
1.7294252718219697e+18,0.013644265942275524,-0.06833338737487793,-11.492769241333008
1.7294252718309699e+18,-0.011461801826953888,0.009512970224022865,-11.519556999206543
1.72942527183997e+18,0.003191768890246749,-0.04149520397186279,-11.39365005493164
1.7294252718489702e+18,0.015106655657291412,0.08383355289697647,-11.394759178161621
1.7294252718579704e+18,-0.040926869958639145,0.005885349586606026,-11.357986450195312
1.7294252718669706e+18,0.020533783361315727,-0.008093678392469883,-11.34227466583252
1.7294252718759708e+18,0.0015292284078896046,-0.03910355269908905,-11.353487014770508
1.729425271884971e+18,-0.0027558989822864532,0.016428301110863686,-11.263031005859375
1.7294252718939712e+18,-0.002057231729850173,-0.16984547674655914,-11.268009185791016
1.7294252719029714e+18,-0.013187898322939873,-0.023708980530500412,-11.189509391784668
1.7294252719119716e+18,-0.030025701969861984,0.08121366798877716,-11.252323150634766
1.7294252719209718e+18,0.008260341361165047,-0.01688534766435623,-11.14769172668457
1.729425271929972e+18,0.008622304536402225,0.01862366683781147,-11.136802673339844
1.7294252719389722e+18,-0.03348777815699577,0.005522883031517267,-11.1570405960083
1.7294252719479724e+18,0.005950971506536007,0.005438202526420355,-11.064019203186035
1.7294252719569725e+18,0.017723018303513527,-0.08551736921072006,-11.02290153503418
1.7294252719659727e+18,-0.005466301925480366,0.036419618874788284,-10.983014106750488
1.729425271974973e+18,-0.04061832278966904,-0.048125624656677246,-11.035920143127441
1.729425271983973e+18,0.0323912538588047,-0.034543123096227646,-10.920945167541504
1.7294252719929733e+18,-0.014006338082253933,0.03189541772007942,-10.983475685119629
1.7294252720019735e+18,-0.015124787576496601,0.015245294198393822,-10.924480438232422
1.7294252720109737e+18,-0.05525074526667595,0.0038115787319839,-10.919102668762207
1.729425272019974e+18,0.010941966436803341,-0.041828785091638565,-10.937902450561523
1.729425272028974e+18,0.04704262316226959,-0.005548726301640272,-10.776941299438477
1.7294252720349742e+18,0.01952475868165493,0.012041179463267326,-10.81772232055664
1.7294252720439744e+18,-0.02064598724246025,-0.0063296956941485405,-10.765125274658203
1.7294252720529746e+18,-0.0284887608140707,0.00014315922453533858,-10.76797103881836
1.7294252720619748e+18,0.10450360924005508,0.05164634436368942,-10.798624992370605
1.729425272070975e+18,0.0075165824964642525,0.010984396561980247,-10.721776962280273
1.7294252720799752e+18,-0.04007808864116669,0.08839759230613708,-10.740835189819336
1.7294252720859753e+18,-0.04053162783384323,0.03571565821766853,-10.672361373901367
1.7294252720949755e+18,-0.039589542895555496,0.06018141657114029,-10.697199821472168
1.7294252721039757e+18,-0.04159074276685715,0.12741784751415253,-10.615487098693848
1.729425272112976e+18,-0.0044080340303480625,-0.033174723386764526,-10.655898094177246
1.729425272121976e+18,-0.058688487857580185,-0.08072683215141296,-10.642664909362793
1.7294252721309763e+18,0.04038361459970474,-0.03770799562335014,-10.52730655670166
1.7294252721399764e+18,0.04439643397927284,-0.09152090549468994,-10.619733810424805
1.7294252721489766e+18,-0.027382224798202515,0.000535186321940273,-10.471212387084961
1.7294252721579768e+18,0.01752038672566414,-0.006997519172728062,-10.55077838897705
1.729425272166977e+18,0.030578244477510452,-0.022901661694049835,-10.438356399536133
1.7294252721759772e+18,-0.02971017360687256,-0.0068888370878994465,-10.54150390625
1.7294252721849774e+18,0.006837306544184685,-0.10658887028694153,-10.558059692382812
1.7294252721939776e+18,-0.09933894872665405,0.037666741758584976,-10.454482078552246
1.7294252722059779e+18,0.06885982304811478,0.02748418040573597,-10.485931396484375
1.729425272211978e+18,-0.06677303463220596,0.09390667080879211,-10.506052017211914
1.7294252722209782e+18,0.04800719395279884,-0.004658272955566645,-10.526115417480469
1.7294252722299784e+18,0.04269809648394585,-0.045821238309144974,-10.401566505432129
1.7294252722389786e+18,0.07498577982187271,0.05616740137338638,-10.398637771606445
1.7294252722479788e+18,-0.03861221298575401,0.001399242551997304,-10.336459159851074
1.729425272256979e+18,-0.010104390792548656,-0.027279606088995934,-10.34257698059082
1.7294252722689792e+18,-0.0009755761129781604,-0.008353129029273987,-10.41839599609375
1.7294252722779794e+18,0.0040410300716757774,-0.03832881525158882,-10.300270080566406
1.7294252722869796e+18,-0.06543651223182678,0.016763979569077492,-10.309319496154785
1.7294252722929797e+18,-0.0708925724029541,-0.042278192937374115,-10.299617767333984
1.72942527230198e+18,-0.04093337804079056,0.006713625509291887,-10.32113265991211
1.72942527231098e+18,0.07410167902708054,-0.04210612550377846,-10.287779808044434
1.7294252723199803e+18,0.009723417460918427,0.0030275522731244564,-10.264922142028809
1.7294252723289805e+18,-0.04001164436340332,-0.0019289690535515547,-10.299891471862793
1.7294252723379807e+18,-0.01096465066075325,-0.038111504167318344,-10.219738006591797
1.7294252723469809e+18,0.022120026871562004,0.06278637796640396,-10.191527366638184
1.729425272358981e+18,0.01081598550081253,-0.03433626890182495,-10.198787689208984
1.7294252723649812e+18,-0.036938488483428955,0.016427692025899887,-10.22068977355957
1.7294252723709814e+18,0.006419630721211433,-0.06742935627698898,-10.227378845214844
1.7294252723799816e+18,0.007108507677912712,0.03512780740857124,-10.143776893615723
1.7294252723889818e+18,-0.07656991481781006,-0.03587917611002922,-10.226149559020996
1.729425272400982e+18,0.0150919109582901,0.03082001581788063,-10.16336727142334
1.7294252724069821e+18,0.1329481154680252,-0.03549470379948616,-10.198482513427734
1.7294252724189824e+18,-0.014093567617237568,0.015798721462488174,-10.229204177856445
1.7294252724279826e+18,0.057218533009290695,0.04379003867506981,-10.141220092773438
1.7294252724369828e+18,0.013868086040019989,0.00701146200299263,-10.113091468811035
1.729425272445983e+18,-0.004744951147586107,-0.010852528735995293,-10.151483535766602
1.7294252724549832e+18,-0.0454438254237175,-0.07279612869024277,-10.1060209274292
1.7294252724609833e+18,0.005676034837961197,-0.034454718232154846,-10.162569999694824
1.7294252724699835e+18,-0.07502998411655426,0.054570820182561874,-10.100080490112305
1.7294252724789837e+18,0.0006885215407237411,-0.00885265413671732,-10.185528755187988
1.7294252724879839e+18,0.0037193484604358673,0.03432841598987579,-10.143712997436523
1.729425272496984e+18,-0.059219568967819214,0.033550042659044266,-10.128067970275879
1.7294252725029842e+18,0.031510040163993835,-0.008924288675189018,-10.06452751159668
1.7294252725089843e+18,-0.06511814147233963,-0.054839812219142914,-10.093401908874512
1.7294252725179845e+18,-0.04783840849995613,-0.03486606478691101,-10.097142219543457
1.7294252725269847e+18,0.05429259315133095,-0.03208280727267265,-10.008563041687012
1.729425272535985e+18,0.0358852781355381,0.0006705969572067261,-10.10632610321045
1.729425272544985e+18,0.007231470663100481,-0.05906059592962265,-10.031710624694824
1.7294252725569853e+18,-0.0008349543786607683,0.013424868695437908,-10.038732528686523
1.7294252725659855e+18,0.06102955341339111,0.023529324680566788,-10.026772499084473
1.7294252725749857e+18,-0.020242739468812943,-0.07366324216127396,-9.964143753051758
1.729425272583986e+18,0.04867129400372505,0.06592756509780884,-9.913698196411133
1.729425272592986e+18,-0.06138869374990463,-0.0077493819408118725,-10.033978462219238
1.7294252726019863e+18,-0.03651963174343109,0.04773925244808197,-9.992433547973633
1.7294252726109865e+18,0.003972472622990608,-0.035311777144670486,-9.915214538574219
1.7294252726199867e+18,-0.06134796142578125,-0.011578403413295746,-9.992365837097168
1.729425272628987e+18,-0.04155696928501129,0.000818901346065104,-9.94070816040039
1.729425272637987e+18,-0.02262314222753048,0.001474897377192974,-9.84929084777832
1.7294252726469873e+18,-0.06273075193166733,0.03425690159201622,-9.987826347351074
1.7294252726559875e+18,-0.03635013848543167,0.037040967494249344,-9.970680236816406
1.7294252726649876e+18,0.02772141620516777,-0.031195910647511482,-9.941628456115723
1.7294252726739878e+18,0.044590070843696594,0.054645318537950516,-9.936644554138184
1.729425272682988e+18,-0.045059576630592346,0.028996344655752182,-9.985604286193848
1.7294252726919882e+18,-0.0025363904424011707,0.044382695108652115,-9.894368171691895
1.7294252727009884e+18,-0.003916184417903423,0.011904839426279068,-9.92115306854248
1.7294252727099886e+18,-0.0016546286642551422,0.00883198156952858,-10.02217960357666
1.7294252727189888e+18,-0.0009124212665483356,0.004095576703548431,-9.95230484008789
1.729425272727989e+18,-0.020359640941023827,-0.02003968507051468,-9.861281394958496
1.7294252727369892e+18,-0.008850550279021263,-0.030923938378691673,-9.933538436889648
1.7294252727459894e+18,0.020713910460472107,-0.017072713002562523,-9.869644165039062
1.7294252727549896e+18,0.030928906053304672,0.02842053212225437,-9.873138427734375
1.7294252727639898e+18,-0.04419291019439697,0.020282195881009102,-9.901450157165527
1.72942527277299e+18,0.018477696925401688,0.08486338704824448,-9.859176635742188
1.7294252727819901e+18,-0.01334135327488184,-0.025811903178691864,-9.82412338256836
1.7294252727909903e+18,0.013541572727262974,-0.05084887146949768,-9.834519386291504
1.7294252728029906e+18,0.04476360231637955,0.0032698025461286306,-9.923765182495117
1.7294252728119908e+18,-0.02819913625717163,-0.055735331028699875,-9.785008430480957
1.729425272820991e+18,0.00493829557672143,-0.06339623034000397,-9.870322227478027
1.729425272826991e+18,0.03280066326260567,-0.010812240652740002,-9.938158988952637
1.7294252728389914e+18,0.028479168191552162,-0.07426031678915024,-9.883960723876953
1.7294252728479916e+18,0.03069106489419937,-0.012445885688066483,-9.767870903015137
1.7294252728569917e+18,0.03430888429284096,-0.005742103327065706,-9.85350227355957
1.729425272865992e+18,-0.024643387645483017,0.0058701056987047195,-9.786656379699707
1.729425272874992e+18,0.004810314625501633,-0.06461648643016815,-9.80657958984375
1.7294252728839923e+18,-0.007151967845857143,-0.03211076557636261,-9.763742446899414
1.7294252728929925e+18,0.055637426674366,0.014285685494542122,-9.845224380493164
1.7294252729019927e+18,0.0076807108707726,0.013173392042517662,-9.745287895202637
1.729425272910993e+18,-0.03414091467857361,-0.01106212381273508,-9.858591079711914
1.729425272916993e+18,0.035733699798583984,0.05626647546887398,-9.851860046386719
1.7294252729259932e+18,0.012762785889208317,-0.028373099863529205,-9.821854591369629
1.7294252729379935e+18,-0.04896221682429314,-0.04106129705905914,-9.791852951049805
1.7294252729499937e+18,0.06616903096437454,-0.09298748522996902,-9.873875617980957
1.729425272958994e+18,0.010080092586576939,0.0031230917666107416,-9.774557113647461
1.729425272967994e+18,-0.08735926449298859,0.002516468521207571,-9.793481826782227
1.7294252729769943e+18,-0.01952613890171051,0.005303879734128714,-9.754302024841309
1.7294252729859945e+18,0.03903252258896828,-0.043637681752443314,-9.7979736328125
1.7294252729979948e+18,-0.0558161698281765,0.014910365454852581,-9.801823616027832
1.729425273006995e+18,-0.09488392621278763,0.010883353650569916,-9.778406143188477
1.7294252730159951e+18,-0.008444355800747871,0.008934584446251392,-9.73768424987793
1.7294252730249953e+18,0.03010936640202999,-0.00033210933906957507,-9.774169921875
1.7294252730339955e+18,0.008050053380429745,-0.015304826200008392,-9.790212631225586
1.7294252730429957e+18,-0.017323244363069534,-0.032990749925374985,-9.797907829284668
1.729425273051996e+18,0.019555678591132164,0.029851503670215607,-9.753030776977539
1.729425273060996e+18,0.05701683089137077,0.023773331195116043,-9.7770357131958
1.7294252730699963e+18,-0.03337455168366432,-0.002425407525151968,-9.673393249511719
1.7294252730789965e+18,0.02624966949224472,-0.019222723320126534,-9.725312232971191
1.7294252730909967e+18,-0.04256981238722801,0.002333496930077672,-9.742081642150879
1.729425273099997e+18,0.06099777668714523,0.00687829265370965,-9.845274925231934
1.729425273108997e+18,-0.039016757160425186,-0.09869135171175003,-9.71811580657959
1.7294252731179973e+18,-0.008672832511365414,0.02029252238571644,-9.77144718170166
1.7294252731269975e+18,-0.024523993954062462,-0.03787265345454216,-9.69887924194336
1.7294252731359977e+18,-0.07151226699352264,0.025656094774603844,-9.68667221069336
1.729425273144998e+18,-0.02145460806787014,0.03256431221961975,-9.793157577514648
1.729425273153998e+18,-0.006812941748648882,0.03142688795924187,-9.758173942565918
1.7294252731629983e+18,-0.001852271961979568,0.043113768100738525,-9.732892990112305
1.7294252731719985e+18,-0.021470870822668076,0.005044737830758095,-9.792396545410156
1.7294252731809987e+18,0.05269114300608635,0.016297588124871254,-9.741576194763184
1.7294252731899988e+18,-0.04153722897171974,-0.00042912940261885524,-9.800180435180664
1.729425273198999e+18,0.027221329510211945,-0.007101395167410374,-9.73509693145752
1.7294252732079992e+18,0.025318002328276634,0.03281725198030472,-9.78618049621582
1.7294252732169994e+18,-0.06438872963190079,0.05681703984737396,-9.752531051635742
1.7294252732259996e+18,-0.02301369048655033,0.045981839299201965,-9.728157043457031
1.7294252732349998e+18,0.08644657582044601,0.016561442986130714,-9.705201148986816
1.729425273244e+18,-0.02529885061085224,-0.051689039915800095,-9.64145278930664
1.7294252732530002e+18,0.000897618941962719,0.11071701347827911,-9.746915817260742
1.7294252732620004e+18,0.05047428980469704,-0.012444127351045609,-9.760432243347168
1.7294252732710006e+18,-0.043138064444065094,-0.08309885859489441,-9.759851455688477
1.7294252732800008e+18,-0.0024202722124755383,0.040049679577350616,-9.7714204788208
1.729425273289001e+18,-0.006767596583813429,0.013614684343338013,-9.763909339904785
1.7294252732980012e+18,0.004649120848625898,0.01137189008295536,-9.717874526977539
1.7294252733070013e+18,-0.07306299358606339,0.03125252574682236,-9.742883682250977
1.7294252733160015e+18,0.03306480497121811,0.012388504110276699,-9.811786651611328
1.7294252733220017e+18,0.0861840695142746,0.019164439290761948,-9.78812026977539
1.7294252733310019e+18,-0.05983420088887215,-0.07219535857439041,-9.801933288574219
1.729425273340002e+18,0.13158629834651947,0.05637303367257118,-9.829297065734863
1.7294252733490022e+18,0.026387497782707214,0.030471356585621834,-9.779003143310547
1.7294252733580024e+18,-0.04169144108891487,-0.03194280341267586,-9.89054012298584
1.7294252733670026e+18,0.020864753052592278,-0.026542903855443,-9.819282531738281
1.7294252733760028e+18,0.05802018195390701,0.03032449074089527,-9.835284233093262
1.729425273385003e+18,-0.020819298923015594,0.014691701158881187,-9.742718696594238
1.7294252733940032e+18,0.019830845296382904,-0.03627260401844978,-9.788553237915039
1.7294252734030034e+18,0.048291075974702835,-0.08275724202394485,-9.779207229614258
1.7294252734120036e+18,0.01339586079120636,-0.12008961290121078,-9.807990074157715
1.7294252734210038e+18,0.04346664249897003,-0.04460262879729271,-9.857711791992188
1.729425273430004e+18,0.08572328835725784,-0.0273163840174675,-9.816234588623047
1.7294252734390042e+18,-0.01730683632194996,0.024085473269224167,-9.862746238708496
1.7294252734480044e+18,-0.02142086625099182,-0.015708379447460175,-9.783053398132324
1.7294252734570045e+18,-0.01689675636589527,0.01851893588900566,-9.758858680725098
1.7294252734660047e+18,0.11370164901018143,0.07631491869688034,-9.777533531188965
1.729425273475005e+18,0.019543996080756187,-0.02473992109298706,-9.773786544799805
1.729425273484005e+18,0.0024789543822407722,0.023854417726397514,-9.838881492614746
1.7294252734900052e+18,-0.040097158402204514,0.0694548636674881,-9.770588874816895
1.7294252734960054e+18,-0.02351667918264866,0.01465639565140009,-9.857880592346191
1.7294252735050056e+18,-0.006480843294411898,0.009218879975378513,-9.840250968933105
1.7294252735110057e+18,0.050120070576667786,-0.010620095767080784,-9.758475303649902
1.729425273520006e+18,0.02415776252746582,0.06414486467838287,-9.802577018737793
1.729425273529006e+18,0.01504401583224535,0.01938799023628235,-9.7366304397583
1.7294252735410063e+18,0.04724755510687828,-0.02465732768177986,-9.759720802307129
1.7294252735500065e+18,0.037042759358882904,0.006987328641116619,-9.751930236816406
1.7294252735590067e+18,-0.08024827390909195,0.05702899023890495,-9.835769653320312
1.729425273568007e+18,0.03518631309270859,-0.0006203732918947935,-9.795857429504395
1.729425273577007e+18,-0.003659061621874571,-0.05339038372039795,-9.646341323852539
1.7294252735860073e+18,0.04802282527089119,-0.039900701493024826,-9.662817001342773
1.7294252735950075e+18,0.045548949390649796,-0.009243474341928959,-9.736404418945312
1.7294252736040077e+18,0.03086254931986332,-0.037521637976169586,-9.771651268005371
1.729425273613008e+18,-0.004442253150045872,-0.03186987340450287,-9.759562492370605
1.729425273622008e+18,0.0430329330265522,-0.005768273025751114,-9.74911880493164
1.7294252736310083e+18,-0.007196744438260794,-0.027379347011446953,-9.762919425964355
1.7294252736400084e+18,0.01361460704356432,0.005272019188851118,-9.75252628326416
1.7294252736460086e+18,-0.06655679643154144,0.06584790349006653,-9.747479438781738
1.7294252736550088e+18,-0.038620300590991974,-0.08843327313661575,-9.805959701538086
1.729425273664009e+18,-0.038752105087041855,-0.009045422077178955,-9.766251564025879
1.7294252736730092e+18,0.02750343643128872,-0.05045570060610771,-9.763541221618652
1.7294252736820093e+18,-0.02448951080441475,-0.005142297595739365,-9.716432571411133
1.7294252736910095e+18,-0.026521869003772736,0.004783005453646183,-9.879226684570312
1.7294252737000097e+18,-0.015238405205309391,-0.03454267978668213,-9.664624214172363
1.72942527370901e+18,-0.007607842329889536,0.021663282066583633,-9.604971885681152
1.72942527371801e+18,-0.05689900368452072,-0.035633284598588943,-9.657755851745605
1.7294252737270103e+18,0.009507552720606327,-0.004858541302382946,-9.80463695526123
1.7294252737360105e+18,-0.0275989081710577,-0.0072802407667040825,-9.675594329833984
1.7294252737450107e+18,0.019986750558018684,-0.08749434351921082,-9.717702865600586
1.729425273754011e+18,-0.09254646301269531,-0.07101836055517197,-9.705554962158203
1.729425273763011e+18,0.07448121905326843,0.009354944340884686,-9.712287902832031
1.7294252737720113e+18,-0.038901813328266144,0.01652027666568756,-9.733325004577637
1.7294252737810115e+18,0.003296898677945137,0.00889331754297018,-9.712226867675781
1.7294252737900116e+18,-0.0982179194688797,-0.050622690469026566,-9.802907943725586
1.7294252737990118e+18,0.004868601448833942,-0.07264303416013718,-9.734240531921387
1.729425273808012e+18,-0.04617474973201752,-0.011171508580446243,-9.76267147064209
1.7294252738200123e+18,0.00040046684443950653,-0.05302318558096886,-9.707893371582031
1.7294252738260124e+18,-0.024895023554563522,0.02778059057891369,-9.714211463928223
1.7294252738380127e+18,-0.005959658417850733,-0.02471587434411049,-9.76860523223877
1.7294252738470129e+18,0.023021243512630463,0.0048094880767166615,-9.799531936645508
1.729425273856013e+18,-0.06747186928987503,0.005285459570586681,-9.761474609375
1.7294252738650132e+18,0.06148026883602142,0.017557531595230103,-9.775668144226074
1.7294252738740134e+18,-0.04935682937502861,-0.0745151937007904,-9.685277938842773
1.7294252738830136e+18,0.02983952686190605,0.03503931313753128,-9.721770286560059
1.7294252738920138e+18,0.02192552201449871,0.010608904995024204,-9.774079322814941
1.729425273901014e+18,-0.001971917925402522,0.02169467881321907,-9.764205932617188
1.7294252739130143e+18,0.08437802642583847,0.0020782561041414738,-9.676865577697754
1.7294252739220145e+18,-0.02627289481461048,-0.057204410433769226,-9.68529224395752
1.7294252739280146e+18,0.05946224555373192,-0.010390396229922771,-9.739388465881348
1.7294252739370148e+18,-0.022124506533145905,-0.005867540370672941,-9.739320755004883
1.729425273946015e+18,0.0013828111113980412,0.053723886609077454,-9.67381477355957
1.7294252739550152e+18,0.018257858231663704,0.06203581020236015,-9.71325969696045
1.7294252739640154e+18,0.004733650479465723,-0.03863806650042534,-9.756244659423828
1.7294252739730156e+18,-0.04218665510416031,-0.007868492044508457,-9.806159019470215
1.7294252739820157e+18,-0.020177198573946953,0.1113562136888504,-9.751642227172852
1.7294252739880159e+18,-0.0412382073700428,0.01697590760886669,-9.700711250305176
1.7294252740000161e+18,0.03295532613992691,0.001027952297590673,-9.710753440856934
1.7294252740060163e+18,-0.10187377035617828,0.037715885788202286,-9.709622383117676
1.7294252740150164e+18,0.004446475300937891,-0.01200844720005989,-9.710325241088867
1.7294252740240166e+18,-0.06008904054760933,-0.011398826725780964,-9.794971466064453
1.7294252740330168e+18,-0.004746620077639818,0.05199316889047623,-9.78966999053955
1.729425274042017e+18,-0.005968102253973484,-0.0020044073462486267,-9.660436630249023
1.7294252740510172e+18,0.044523946940898895,0.026228422299027443,-9.777450561523438
1.7294252740600174e+18,0.017338046804070473,-0.0963856428861618,-9.692231178283691
1.7294252740690176e+18,-0.058046698570251465,0.052806556224823,-9.734883308410645
1.7294252740780178e+18,-0.026132943108677864,0.016786105930805206,-9.72188663482666
1.729425274087018e+18,0.037860870361328125,-0.020656423643231392,-9.714784622192383
1.7294252740960182e+18,0.07284793257713318,-0.04723181203007698,-9.76547622680664
1.7294252741020183e+18,-0.01996210776269436,0.007584431674331427,-9.773900032043457
1.7294252741110185e+18,-0.06240477412939072,-0.027236221358180046,-9.712516784667969
1.7294252741200187e+18,0.020157570019364357,-0.01975817233324051,-9.836786270141602
1.729425274129019e+18,-0.010638166218996048,-0.008447321131825447,-9.690010070800781
1.729425274138019e+18,-0.030855853110551834,0.04102884978055954,-9.732096672058105
1.7294252741470193e+18,-0.029583144932985306,0.07638642191886902,-9.77607250213623
1.7294252741560195e+18,-0.08881180733442307,-0.04002263769507408,-9.739104270935059
1.7294252741650196e+18,0.02332388237118721,0.049898527562618256,-9.755582809448242
1.7294252741740198e+18,0.036733388900756836,-0.07151765376329422,-9.622828483581543
1.72942527418302e+18,0.03568682074546814,-0.026748942211270332,-9.69030475616455
1.7294252741920202e+18,-0.02007957547903061,0.061732854694128036,-9.756404876708984
1.7294252742010204e+18,0.01002433244138956,0.019450433552265167,-9.793366432189941
1.7294252742100206e+18,-0.02594582363963127,0.07694780081510544,-9.727657318115234
1.7294252742190208e+18,-0.025888165459036827,-0.037331461906433105,-9.653569221496582
1.729425274228021e+18,-0.008437300100922585,-0.008519627153873444,-9.775546073913574
1.7294252742370212e+18,-0.04910058528184891,-0.0488993376493454,-9.701160430908203
1.7294252742460214e+18,0.03453180193901062,-0.01365724578499794,-9.707427978515625
1.7294252742520215e+18,0.003328596241772175,0.03935890644788742,-9.813706398010254
1.7294252742610217e+18,-0.019253350794315338,-0.02017161250114441,-9.761836051940918
1.729425274270022e+18,-0.007148358039557934,-0.03526449576020241,-9.754497528076172
1.729425274279022e+18,-0.0373210534453392,0.010824484750628471,-9.759031295776367
1.7294252742880223e+18,-0.05860671401023865,-0.014180682599544525,-9.730354309082031
1.7294252742970225e+18,0.04693932831287384,0.06753180176019669,-9.730826377868652
1.7294252743060227e+18,-0.012128334492444992,0.01550776232033968,-9.736424446105957
1.7294252743150228e+18,0.025769706815481186,0.009633461944758892,-9.749561309814453
1.729425274324023e+18,-0.10477395355701447,0.08853612095117569,-9.790718078613281
1.7294252743330232e+18,-0.019160626456141472,0.061668526381254196,-9.763693809509277
1.7294252743420234e+18,-0.03116067312657833,-0.04149014502763748,-9.803606986999512
1.7294252743510236e+18,-0.02390788123011589,-0.011417432688176632,-9.808097839355469
1.7294252743600238e+18,0.03611871972680092,0.0006548889214172959,-9.802802085876465
1.729425274369024e+18,0.010440235957503319,0.033646561205387115,-9.696355819702148
1.7294252743780242e+18,0.026618001982569695,0.02571127563714981,-9.70722484588623
1.7294252743870244e+18,-0.013066744431853294,-0.0021904418244957924,-9.791522979736328
1.7294252743960246e+18,0.021832671016454697,0.07224633544683456,-9.70876693725586
1.7294252744080248e+18,0.12261170893907547,-0.0023548253811895847,-9.765368461608887
1.729425274417025e+18,-0.03809744119644165,-0.031050104647874832,-9.723414421081543
1.7294252744260252e+18,0.06447102129459381,-0.016951411962509155,-9.745577812194824
1.7294252744350254e+18,0.015035496093332767,-0.09169182926416397,-9.700860977172852
1.7294252744440256e+18,-0.002596542937681079,0.07808930426836014,-9.775762557983398
1.7294252744530258e+18,-0.015238145366311073,0.04272634536027908,-9.801728248596191
1.729425274462026e+18,0.011690647341310978,0.04586617648601532,-9.723065376281738
1.7294252744710262e+18,0.044310152530670166,0.02449791319668293,-9.786145210266113
1.7294252744770263e+18,0.046074699610471725,-0.0012475736439228058,-9.769218444824219
1.7294252744890266e+18,-0.04090535268187523,0.011867167428135872,-9.771716117858887
1.7294252744980268e+18,0.018020853400230408,0.05111104995012283,-9.719233512878418
1.729425274507027e+18,0.08159630000591278,-0.0035432600416243076,-9.745673179626465
1.7294252745160271e+18,-0.08040394634008408,-0.012666733004152775,-9.759854316711426
1.7294252745220273e+18,0.005961354356259108,0.087168850004673,-9.761442184448242
1.7294252745310275e+18,0.056307174265384674,-0.10721568018198013,-9.787829399108887
1.7294252745370276e+18,0.026373500004410744,-0.04305984452366829,-9.671679496765137
1.7294252745460278e+18,0.02652878873050213,-0.034466877579689026,-9.685768127441406
1.729425274555028e+18,-0.039104919880628586,-0.1448841392993927,-9.764825820922852
1.7294252745670282e+18,-0.025698238983750343,-0.022761015221476555,-9.802927017211914
1.7294252745760284e+18,-0.05521734803915024,-0.04741711542010307,-9.75217056274414
1.7294252745850286e+18,0.03734683245420456,-0.09706833958625793,-9.706003189086914
1.7294252745940288e+18,0.006775969173759222,0.014129240065813065,-9.82900333404541
1.729425274603029e+18,0.05816316232085228,0.020011035725474358,-9.81978988647461
1.729425274609029e+18,-0.006826447788625956,-0.06365647166967392,-9.79902172088623
1.7294252746180293e+18,0.015481446869671345,0.007028457708656788,-9.763280868530273
1.7294252746270295e+18,0.023155519738793373,0.007100744638592005,-9.740405082702637
1.7294252746360297e+18,-0.023884590715169907,-0.019676173105835915,-9.831392288208008
1.72942527464503e+18,0.01163390465080738,-0.04338643327355385,-9.796310424804688
1.72942527465403e+18,0.010382378473877907,-0.0671023428440094,-9.75009822845459
1.7294252746630303e+18,0.03622864559292793,0.020528612658381462,-9.894444465637207
1.7294252746720305e+18,-0.04153405874967575,-0.05223207548260689,-9.779104232788086
1.7294252746810307e+18,-0.01725361868739128,-0.015926256775856018,-9.728168487548828
1.7294252746900308e+18,-0.02518308162689209,-0.05626033619046211,-9.711664199829102
1.729425274699031e+18,-0.04312318563461304,0.006861947476863861,-9.803594589233398
1.7294252747080312e+18,-0.07631660252809525,0.051386769860982895,-9.716938972473145
1.7294252747170314e+18,-0.032556213438510895,-0.03242846950888634,-9.825043678283691
1.7294252747260316e+18,0.09190535545349121,-0.025012237951159477,-9.729864120483398
1.7294252747350318e+18,-0.0010839879978448153,-0.03756002336740494,-9.787964820861816
1.729425274747032e+18,-0.008585840463638306,-0.025427911430597305,-9.75413990020752
1.7294252747560323e+18,0.05727285519242287,0.010894788429141045,-9.783517837524414
1.7294252747650324e+18,-0.018036458641290665,-0.03667663410305977,-9.77746295928955
1.7294252747740326e+18,0.021764064207673073,-0.025283265858888626,-9.749542236328125
1.7294252747830328e+18,-0.03744426369667053,0.1098417267203331,-9.757054328918457
1.729425274789033e+18,-0.047908537089824677,-0.011554859578609467,-9.765668869018555
1.7294252748010332e+18,0.04326460137963295,-0.04462685436010361,-9.7416410446167
1.7294252748070333e+18,-0.035304710268974304,-0.0016363845206797123,-9.824296951293945
1.7294252748160335e+18,-0.03923247382044792,0.023857466876506805,-9.78579330444336
1.7294252748250337e+18,0.08217741549015045,-0.011390156112611294,-9.795330047607422
1.729425274834034e+18,0.003665377153083682,-0.0044479286298155785,-9.7575101852417
1.729425274843034e+18,0.07464216649532318,0.04842429235577583,-9.794384002685547
1.7294252748520343e+18,0.004653003066778183,-0.02999832294881344,-9.755963325500488
1.7294252748610345e+18,-0.009878928773105145,-0.029350288212299347,-9.766489028930664
1.7294252748700347e+18,0.05623377114534378,-0.011756890453398228,-9.774372100830078
1.729425274879035e+18,-0.06984852999448776,0.0027476088143885136,-9.734321594238281
1.729425274888035e+18,0.005255554802715778,0.02922447957098484,-9.689045906066895
1.7294252748970353e+18,-0.0037247026339173317,-0.0314333476126194,-9.757023811340332
1.7294252749060355e+18,0.02783793956041336,-0.03266989067196846,-9.777524948120117
1.7294252749150356e+18,0.00939977541565895,-0.011004779487848282,-9.761658668518066
1.7294252749210358e+18,0.08373967558145523,-0.12172635644674301,-9.70148754119873
1.729425274930036e+18,0.019322989508509636,0.0316692590713501,-9.719942092895508
1.7294252749390362e+18,-0.05646565183997154,-0.006759143900126219,-9.772562980651855
1.7294252749480364e+18,0.0023540875408798456,0.08644852042198181,-9.767330169677734
1.7294252749540365e+18,-0.002520425943657756,-0.03591882809996605,-9.708792686462402
1.7294252749630367e+18,0.07442189753055573,0.006606526207178831,-9.78076457977295
1.7294252749720369e+18,-0.03663294389843941,-0.07218924164772034,-9.802472114562988
1.729425274984037e+18,0.024294976145029068,0.03445948660373688,-9.784003257751465
1.7294252749900372e+18,-0.08587805926799774,-0.08497440069913864,-9.857630729675293
1.7294252749990374e+18,0.012790977954864502,-0.019611287862062454,-9.771717071533203
1.7294252750080376e+18,0.02082994394004345,-0.026803268119692802,-9.78623104095459
1.7294252750170378e+18,-0.027428558096289635,0.018335429951548576,-9.750253677368164
1.729425275026038e+18,0.028215277940034866,0.018123406916856766,-9.795915603637695
1.7294252750350382e+18,0.03431553766131401,0.002703004516661167,-9.764276504516602
1.7294252750440384e+18,-0.05711359158158302,-0.06538067758083344,-9.803266525268555
1.7294252750530386e+18,-0.0161778274923563,0.04053518548607826,-9.808120727539062
1.7294252750620388e+18,-0.02142735756933689,0.12070848792791367,-9.89159107208252
1.729425275071039e+18,-0.03331892564892769,0.008576393127441406,-9.81787109375
1.7294252750800392e+18,-0.07798776775598526,-0.0010448372922837734,-9.836958885192871
1.7294252750890394e+18,0.0014562008436769247,0.029347164556384087,-9.834012031555176
1.7294252750980396e+18,-0.0571148544549942,0.009938725270330906,-9.777487754821777
1.7294252751070397e+18,-0.06683597713708878,0.04228217527270317,-9.70008373260498
1.72942527511604e+18,0.016917699947953224,-0.024870390072464943,-9.770655632019043
1.72942527512204e+18,-0.00448371097445488,-0.09713701903820038,-9.75952434539795
1.7294252751310403e+18,0.025403860956430435,0.07028049975633621,-9.87600040435791
1.7294252751400404e+18,0.02089175581932068,-0.0029450643341988325,-9.788973808288574
1.7294252751490406e+18,-0.032183609902858734,-0.02038908563554287,-9.802899360656738
1.7294252751580408e+18,-0.036168381571769714,-0.04131385684013367,-9.802254676818848
1.729425275167041e+18,-0.005478839389979839,0.009157417342066765,-9.805010795593262
1.7294252751760412e+18,-0.007810444105416536,0.012137331068515778,-9.838486671447754
1.7294252751850414e+18,-0.057517100125551224,-0.10081271082162857,-9.810470581054688
1.7294252751940416e+18,-0.022280046716332436,0.015876920893788338,-9.803613662719727
1.7294252752030418e+18,-0.03916844725608826,-0.017226314172148705,-9.805585861206055
1.729425275212042e+18,0.05501728132367134,-0.03184153512120247,-9.859357833862305
1.7294252752210422e+18,-0.04144858941435814,0.03410055488348007,-9.73438549041748
1.7294252752300424e+18,0.027993928641080856,0.11440122872591019,-9.803471565246582
1.7294252752390426e+18,-0.041666559875011444,-0.05881497636437416,-9.829480171203613
1.7294252752480428e+18,0.04969166964292526,0.014957509934902191,-9.879697799682617
1.729425275257043e+18,0.015523732639849186,-0.027170106768608093,-9.703335762023926
1.7294252752660431e+18,0.04913657158613205,-0.02678968571126461,-9.799093246459961
1.7294252752750433e+18,0.03131822496652603,0.016137629747390747,-9.804351806640625
1.7294252752810435e+18,0.04303530603647232,0.016958994790911674,-9.795808792114258
1.7294252752930437e+18,0.0033247792162001133,-0.009016739204525948,-9.775084495544434
1.729425275302044e+18,0.12327459454536438,-0.019420092925429344,-9.80289363861084
1.729425275311044e+18,-0.09236563742160797,-0.004278427455574274,-9.7850923538208
1.7294252753200443e+18,-0.039689160883426666,0.04296908527612686,-9.760865211486816
1.7294252753290445e+18,-0.04472292587161064,0.08414334058761597,-9.801642417907715
1.7294252753380447e+18,0.02215835079550743,0.06232307851314545,-9.786301612854004
1.7294252753470449e+18,0.0007865955121815205,0.008248550817370415,-9.764555931091309
1.729425275353045e+18,0.060298338532447815,0.02340993657708168,-9.79460620880127
1.7294252753620452e+18,-0.006174139678478241,-0.04805693030357361,-9.784916877746582
1.7294252753710454e+18,-0.07398644834756851,-0.07900360971689224,-9.779997825622559
1.7294252753830456e+18,-0.003879027906805277,-0.0258085485547781,-9.829011917114258
1.7294252753920458e+18,-0.036690641194581985,0.05287173390388489,-9.837505340576172
1.729425275398046e+18,-0.009050781838595867,0.059439677745103836,-9.786073684692383
1.7294252754070461e+18,0.016815925016999245,-0.057627689093351364,-9.72045612335205
1.7294252754160463e+18,0.018226198852062225,0.020446935668587685,-9.808366775512695
1.7294252754280466e+18,-0.01503029279410839,0.0636567547917366,-9.738927841186523
1.7294252754370468e+18,0.027703113853931427,0.02487553469836712,-9.740081787109375
1.729425275446047e+18,0.0570949986577034,0.026531944051384926,-9.80600357055664
1.7294252754550472e+18,0.04644032195210457,-0.03692817687988281,-9.753540992736816
1.7294252754640474e+18,-0.07317379862070084,-0.0064886887557804585,-9.762161254882812
1.7294252754730476e+18,-0.07350534200668335,0.01745375245809555,-9.83527946472168
1.7294252754820477e+18,-0.07408896088600159,0.05263567343354225,-9.76917552947998
1.729425275491048e+18,-0.015169807709753513,0.057115353643894196,-9.806243896484375
1.7294252755030482e+18,-0.040325265377759933,0.0482916496694088,-9.765657424926758
1.7294252755120484e+18,-0.024762149900197983,0.06513350456953049,-9.787571907043457
1.7294252755210486e+18,-0.012157517485320568,0.06964932382106781,-9.80042552947998
1.7294252755300488e+18,-0.005566869396716356,-0.028407886624336243,-9.82898235321045
1.729425275536049e+18,0.03197736665606499,0.0187694039195776,-9.785122871398926
1.729425275545049e+18,-0.011343168094754219,-0.08646851032972336,-9.776142120361328
1.7294252755540493e+18,-0.05304858833551407,-0.01775982603430748,-9.742860794067383
1.7294252755630495e+18,0.09623149037361145,-0.04187634587287903,-9.80580997467041
1.7294252755750497e+18,0.01303009781986475,0.01390569843351841,-9.80492877960205
1.72942527558405e+18,-0.010362442582845688,-0.0145568223670125,-9.735498428344727
1.72942527559305e+18,0.026303626596927643,-0.07462788373231888,-9.848708152770996
1.7294252756020503e+18,-0.04368853196501732,-0.02389702759683132,-9.704278945922852
1.7294252756110505e+18,0.03359370306134224,-0.09107191115617752,-9.799267768859863
1.7294252756200507e+18,-0.04425127059221268,-0.025444427505135536,-9.792338371276855
1.729425275629051e+18,-0.016286423429846764,-0.032573897391557693,-9.789545059204102
1.729425275635051e+18,0.06992670148611069,-0.013246637769043446,-9.812539100646973
1.7294252756470513e+18,-0.01648102141916752,-0.0069276406429708,-9.769871711730957
1.7294252756560515e+18,0.01811368577182293,0.009427731856703758,-9.792708396911621
1.7294252756650516e+18,-0.0659598708152771,-0.09750434011220932,-9.77185344696045
1.7294252756740518e+18,-0.013244093395769596,-0.011114864610135555,-9.749037742614746
1.729425275683052e+18,0.019469037652015686,-0.0243748240172863,-9.801958084106445
1.7294252756920522e+18,0.049990616738796234,0.018121372908353806,-9.724587440490723
1.7294252757010524e+18,0.06193085387349129,-0.0032326835207641125,-9.78761100769043
1.7294252757100526e+18,-0.010095554403960705,-0.013662751764059067,-9.821718215942383
1.7294252757190528e+18,-0.007005514111369848,0.004049327224493027,-9.777263641357422
1.729425275728053e+18,0.0664108544588089,0.006553017534315586,-9.834396362304688
1.7294252757370532e+18,0.0031860952731221914,-0.05603690817952156,-9.757526397705078
1.7294252757460534e+18,-0.04004037752747536,0.03906407207250595,-9.866059303283691
1.7294252757550536e+18,0.014715281315147877,0.0015128131490200758,-9.767108917236328
1.7294252757640538e+18,0.029739737510681152,-0.014879115857183933,-9.733902931213379
1.729425275773054e+18,0.04165022447705269,0.020851461216807365,-9.768694877624512
1.7294252757850542e+18,0.09274660050868988,0.05895959213376045,-9.702722549438477
1.7294252757940544e+18,0.00789786409586668,-0.05974564328789711,-9.734034538269043
1.7294252758030546e+18,-0.016000228002667427,0.10744712501764297,-9.819405555725098
1.7294252758120548e+18,-0.10000403225421906,0.004120065364986658,-9.789718627929688
1.729425275821055e+18,-0.017747845500707626,0.0017947627929970622,-9.751801490783691
1.7294252758300552e+18,0.04881928116083145,0.0070880744606256485,-9.806782722473145
1.7294252758390554e+18,0.0283337589353323,0.004899957682937384,-9.740195274353027
1.7294252758480556e+18,-0.047649871557950974,0.10117357969284058,-9.787310600280762
1.7294252758570557e+18,-0.018773192539811134,0.0016859531169757247,-9.814847946166992
1.729425275869056e+18,-0.04346016049385071,-0.0020067167934030294,-9.806046485900879
1.729425275875056e+18,0.037491343915462494,0.031100843101739883,-9.816404342651367
1.7294252758840563e+18,0.01848740130662918,-0.05795367434620857,-9.663788795471191
1.7294252758930565e+18,0.048486631363630295,0.043527454137802124,-9.831232070922852
1.7294252759020567e+18,0.00894751027226448,0.002349128481000662,-9.878684997558594
1.729425275914057e+18,-0.022990601137280464,0.023424219340085983,-9.801294326782227
1.729425275920057e+18,0.054681673645973206,0.01982666552066803,-9.859663963317871
1.7294252759290573e+18,0.035006627440452576,0.022978026419878006,-9.786437034606934
1.7294252759410575e+18,0.010540208779275417,-0.0006003428716212511,-9.823081016540527
1.7294252759500577e+18,0.04922115430235863,0.028972359374165535,-9.85528564453125
1.729425275959058e+18,0.07673832774162292,0.01015546265989542,-9.7586030960083
1.729425275968058e+18,-0.04435516148805618,-0.05463063716888428,-9.746390342712402
1.7294252759770583e+18,0.02417389675974846,0.03057386539876461,-9.712647438049316
1.7294252759860585e+18,-0.034516576677560806,-0.016044944524765015,-9.869091987609863
1.7294252759950587e+18,-0.0670744776725769,-0.05882495269179344,-9.831110954284668
1.729425276004059e+18,0.06200549006462097,0.0077375248074531555,-9.800455093383789
1.729425276013059e+18,-0.01052791066467762,-0.03625602647662163,-9.761129379272461
1.7294252760220593e+18,-0.030866771936416626,-0.0028633468318730593,-9.803478240966797
1.7294252760310595e+18,-0.04474659264087677,0.03266298770904541,-9.834637641906738
1.7294252760400596e+18,-0.018624484539031982,-0.01805000752210617,-9.856870651245117
1.7294252760490598e+18,-0.004347738344222307,-0.019192203879356384,-9.744857788085938
1.72942527605806e+18,-0.053032469004392624,-0.010390067473053932,-9.854393005371094
1.7294252760670602e+18,-0.07514496892690659,0.022116580978035927,-9.780293464660645
1.7294252760760604e+18,-0.037055853754282,0.01169608999043703,-9.823345184326172
1.7294252760850606e+18,0.0017578122206032276,0.02980310656130314,-9.843756675720215
1.7294252760940608e+18,0.042044855654239655,-0.04157932102680206,-9.756439208984375
1.729425276103061e+18,0.03633757308125496,-0.004786300472915173,-9.735296249389648
1.7294252761120612e+18,0.03849630802869797,0.05342598259449005,-9.79883098602295
1.7294252761210614e+18,-0.06389091908931732,-0.007860520854592323,-9.811728477478027
1.7294252761300616e+18,0.007009498775005341,0.023678943514823914,-9.804821014404297
1.7294252761390618e+18,-0.0015071815578266978,-0.06267674267292023,-9.792817115783691
1.729425276148062e+18,-0.006261050701141357,-0.003893617307767272,-9.773585319519043
1.7294252761570621e+18,-0.05748903378844261,0.0584714449942112,-9.777674674987793
1.7294252761660623e+18,-0.030391590669751167,0.024941150099039078,-9.76850700378418
1.7294252761750625e+18,-0.044816434383392334,-0.056544236838817596,-9.840360641479492
1.7294252761840627e+18,-0.05068133771419525,0.02523249015212059,-9.8458833694458
1.729425276193063e+18,-0.04624621942639351,-0.015272090211510658,-9.896890640258789
1.729425276202063e+18,-0.02622186206281185,0.008444055914878845,-9.742459297180176
1.7294252762110633e+18,0.0773896872997284,-0.017144443467259407,-9.82042121887207
1.7294252762200635e+18,0.024602660909295082,0.02638891153037548,-9.811447143554688
1.7294252762290637e+18,0.034942787140607834,-0.033306147903203964,-9.759654998779297
1.7294252762380639e+18,0.013307678513228893,-0.01842222362756729,-9.817830085754395
1.729425276244064e+18,-0.0010479119373485446,-0.041868630796670914,-9.740163803100586
1.7294252762530642e+18,0.02708197757601738,0.03639201447367668,-9.796425819396973
1.7294252762620644e+18,-0.03997361660003662,-0.05683310702443123,-9.701118469238281
1.7294252762710646e+18,-0.04060911759734154,0.003142388304695487,-9.79561710357666
1.7294252762800648e+18,-0.03240144997835159,-0.03634049743413925,-9.824472427368164
1.729425276289065e+18,-0.029493242502212524,0.022659840062260628,-9.84540843963623
1.7294252762980652e+18,0.028801066800951958,-0.06382540613412857,-9.82280445098877
1.7294252763070653e+18,-0.007484002038836479,0.008781773038208485,-9.805006980895996
1.7294252763160655e+18,-0.007838603109121323,-0.005093919113278389,-9.761022567749023
1.7294252763250657e+18,-0.02809661626815796,-0.04353782534599304,-9.79681396484375
1.729425276334066e+18,0.02525831200182438,0.010461810044944286,-9.769879341125488
1.729425276343066e+18,0.01115551870316267,0.040400248020887375,-9.844064712524414
1.7294252763520663e+18,0.050398316234350204,0.02280202880501747,-9.783201217651367
1.7294252763610665e+18,-0.023258449509739876,-0.0585254542529583,-9.795696258544922
1.7294252763670666e+18,-0.024556852877140045,-0.037140265107154846,-9.781926155090332
1.7294252763760668e+18,-0.08165819942951202,-0.08816420286893845,-9.788602828979492
1.729425276388067e+18,0.005812152288854122,0.03381611779332161,-9.8765230178833
1.7294252763970673e+18,-0.0366349034011364,-0.0841689184308052,-9.794696807861328
1.7294252764060675e+18,-0.002427252009510994,-0.00653846375644207,-9.772318840026855
1.7294252764150676e+18,-0.006832277402281761,-0.016048429533839226,-9.849017143249512
1.7294252764240678e+18,0.035500071942806244,0.07690016180276871,-9.766749382019043
1.729425276436068e+18,0.0030699598137289286,0.025778530165553093,-9.765235900878906
1.7294252764450683e+18,-0.03597025200724602,-0.011882130056619644,-9.720696449279785
1.7294252764540685e+18,-0.006716595962643623,-0.09742088615894318,-10.119575500488281
1.7294252764630687e+18,0.010547716170549393,-0.14629098773002625,-11.770602226257324
1.7294252764690688e+18,0.008267953060567379,-0.0909203588962555,-12.334970474243164
1.729425276478069e+18,-0.09017074108123779,-0.150308296084404,-12.554770469665527
1.7294252764870692e+18,0.04538616165518761,-0.17352457344532013,-12.652176856994629
1.7294252764960694e+18,0.034226708114147186,-0.09904642403125763,-12.49483871459961
1.7294252765050696e+18,0.05033908039331436,-0.10033872723579407,-12.41041374206543
1.7294252765140698e+18,-0.00026621250435709953,-0.1804085671901703,-12.27828598022461
1.72942527652607e+18,-0.060522519052028656,-0.14390729367733002,-12.013090133666992
1.7294252765350702e+18,-0.016311345621943474,-0.09902208298444748,-12.000758171081543
1.7294252765440704e+18,-0.009827056899666786,-0.07248158007860184,-11.85909366607666
1.7294252765530706e+18,0.04732551798224449,-0.114540696144104,-11.825723648071289
1.7294252765620708e+18,-0.034610312432050705,-0.04190945625305176,-11.664406776428223
1.729425276571071e+18,0.0778631940484047,0.020031429827213287,-11.610757827758789
1.7294252765800712e+18,-0.096440888941288,-0.05237501114606857,-11.501721382141113
1.7294252765890714e+18,0.03049531579017639,-0.055331286042928696,-11.407849311828613
1.7294252765980716e+18,-0.07036614418029785,-0.07598347216844559,-11.308642387390137
1.7294252766070717e+18,0.05890625715255737,-0.024991344660520554,-11.253811836242676
1.729425276616072e+18,-0.03173736482858658,-0.020565245300531387,-11.125592231750488
1.729425276625072e+18,0.08736751228570938,-0.08462929725646973,-10.974782943725586
1.7294252766340723e+18,-0.028873750939965248,-0.06166704744100571,-10.988606452941895
1.7294252766430725e+18,-0.07154422253370285,-0.06916085630655289,-10.911515235900879
1.7294252766520727e+18,-0.0173321645706892,-0.021018506959080696,-10.88184928894043
1.729425276661073e+18,0.08099673688411713,-0.007862374186515808,-10.798579216003418
1.729425276670073e+18,0.0005268966779112816,-0.04480854421854019,-10.845977783203125
1.7294252766790733e+18,0.0493464395403862,0.04154364764690399,-10.739875793457031
1.7294252766880735e+18,-0.015050495974719524,0.005812549963593483,-10.709233283996582
1.7294252766970737e+18,0.04435371980071068,-0.05270453169941902,-10.491962432861328
1.7294252767060739e+18,-0.02780342288315296,-0.02682691626250744,-10.428146362304688
1.729425276715074e+18,0.027852008119225502,-0.08416040986776352,-10.390605926513672
1.7294252767210742e+18,-0.03211093693971634,-0.02405618317425251,-10.389778137207031
1.7294252767270743e+18,-0.009095869958400726,-0.016490021720528603,-10.21955680847168
1.7294252767330744e+18,0.003724836278706789,-0.03916497528553009,-10.142472267150879
1.7294252767420746e+18,-0.021864844486117363,-0.054832544177770615,-10.093615531921387
1.7294252767480748e+18,0.04778192192316055,0.011786247603595257,-10.091832160949707
1.729425276757075e+18,0.07195049524307251,-0.09278334677219391,-10.046772956848145
1.729425276763075e+18,0.02252454124391079,-0.008119398728013039,-9.968356132507324
1.7294252767720753e+18,-0.07294382154941559,0.04910276085138321,-9.918561935424805
1.7294252767780754e+18,0.07889971137046814,-0.03874386101961136,-9.842461585998535
1.7294252767840755e+18,0.04081141948699951,0.09543387591838837,-9.93522834777832
1.7294252767930757e+18,0.013440507464110851,0.0864056646823883,-9.79880428314209
1.7294252767990758e+18,-0.03629076108336449,0.008783586323261261,-9.636831283569336
1.729425276805076e+18,0.033185504376888275,0.06956198811531067,-9.616625785827637
1.7294252768140762e+18,0.016261901706457138,0.047065749764442444,-9.62131118774414
1.7294252768230764e+18,0.027009468525648117,0.022428086027503014,-9.54503059387207
1.7294252768320765e+18,0.08402755856513977,0.004699472337961197,-9.445283889770508
1.7294252768410767e+18,0.021894672885537148,0.06514258682727814,-9.449661254882812
1.729425276850077e+18,0.042443640530109406,0.08771314471960068,-9.558951377868652
1.729425276859077e+18,-0.06134268641471863,0.08116212487220764,-9.468535423278809
1.7294252768650772e+18,0.00545844342559576,0.08472409844398499,-9.387251853942871
1.7294252768710774e+18,-0.015548424795269966,0.015745393931865692,-9.4276123046875
1.7294252768800776e+18,0.03712084889411926,-0.023865383118391037,-9.330976486206055
1.7294252768890778e+18,-0.02367386221885681,0.06522467732429504,-9.43598747253418
1.729425276901078e+18,-0.06577052175998688,-0.02593107521533966,-9.324746131896973
1.7294252769070781e+18,-0.008959924802184105,0.057453300803899765,-9.354828834533691
1.7294252769160783e+18,-0.056243713945150375,0.02393553964793682,-9.397066116333008
1.7294252769250785e+18,0.05587954819202423,-0.022046450525522232,-9.222941398620605
1.7294252769310787e+18,-0.043526541441679,0.06503280997276306,-9.224922180175781
1.7294252769400788e+18,0.030989544466137886,0.03918670862913132,-9.348941802978516
1.729425276946079e+18,-0.08154778927564621,-0.05038005858659744,-6.334095001220703
1.7294252769550792e+18,0.03490227460861206,0.008379902690649033,-5.451611518859863
1.7294252769610793e+18,0.015668686479330063,-0.008627395145595074,-5.075270175933838
1.7294252769670794e+18,-0.07974524796009064,0.04292367771267891,-4.939981937408447
1.7294252769730796e+18,0.02617848850786686,0.022627564147114754,-4.948770523071289
1.7294252769820797e+18,-0.05069107562303543,0.003537554293870926,-5.084539890289307
1.7294252769880799e+18,-0.07323843240737915,1.3894401490688324e-05,-5.064531326293945
1.72942527699708e+18,0.03498619794845581,-0.05258743837475777,-4.979299068450928
1.7294252770030802e+18,-0.08897781372070312,0.0002482880372554064,-5.044617176055908
1.7294252770150804e+18,-0.005126148462295532,-0.020882541313767433,-5.2508015632629395
1.7294252770240806e+18,0.027371898293495178,0.03193697705864906,-5.510715484619141
1.7294252770300808e+18,-0.0273862574249506,-0.07630541920661926,-5.335071086883545
1.729425277036081e+18,-0.028989756479859352,0.048075079917907715,-5.47286319732666
1.729425277045081e+18,0.012716693803668022,0.10024184733629227,-4.744369029998779
1.7294252770540813e+18,-0.05836972966790199,0.014751316979527473,-3.7869532108306885
1.7294252770600814e+18,0.015279904007911682,-0.011746898293495178,-3.7114522457122803
1.7294252770660815e+18,-0.011667581275105476,-0.06217016652226448,-3.6839935779571533
1.7294252770720817e+18,-0.017038952559232712,0.016121411696076393,-3.735816240310669
1.7294252770780818e+18,0.0011395057663321495,-0.021328488364815712,-3.7562379837036133
1.729425277087082e+18,-0.06403714418411255,0.0027424953877925873,-3.737938642501831
1.729425277093082e+18,-0.044490963220596313,-0.1374186873435974,-3.992713689804077
1.7294252770990822e+18,0.05531112104654312,-0.01198017317801714,-4.081064224243164
1.7294252771080824e+18,0.019460458308458328,-0.007978488691151142,-4.251946926116943
1.7294252771170826e+18,-0.007058040238916874,-0.022207800298929214,-4.434696674346924
1.7294252771260828e+18,-0.09446984529495239,-0.019320305436849594,-4.737581253051758
1.729425277132083e+18,0.009242316707968712,0.09720784425735474,-4.650736331939697
1.729425277138083e+18,0.0482182539999485,-0.058634426444768906,-4.844496726989746
1.7294252771470833e+18,0.04037947580218315,-0.006207500584423542,-4.946132659912109
1.7294252771560835e+18,0.018521582707762718,0.057069145143032074,-5.125639915466309
1.7294252771650836e+18,0.02566291019320488,0.055296361446380615,-5.292216777801514
1.7294252771740838e+18,0.025031134486198425,-0.04329552873969078,-5.506940841674805
1.729425277186084e+18,0.0016894405707716942,-0.08451078832149506,-5.6613054275512695
1.7294252771920842e+18,0.020276272669434547,0.025554586201906204,-5.718807220458984
1.7294252772010844e+18,0.0046872831881046295,-0.0633225217461586,-5.8738203048706055
1.7294252772100846e+18,-0.05952833965420723,0.004991300404071808,-6.030335903167725
1.7294252772190848e+18,-0.02039666846394539,-0.04302581772208214,-6.027006149291992
1.729425277228085e+18,0.00526038371026516,-0.09887386858463287,-6.2535319328308105
1.7294252772370852e+18,-0.01462921779602766,-0.08027917146682739,-6.391226291656494
1.7294252772460854e+18,0.05312138423323631,-0.020299585536122322,-6.462218284606934
1.7294252772580856e+18,0.006559635046869516,-0.056005217134952545,-6.584798812866211
1.7294252772670858e+18,-0.039668969810009,-0.08038026094436646,-6.682803630828857
1.729425277276086e+18,-0.09381406754255295,-0.03236078843474388,-6.829802513122559
1.7294252772850862e+18,-0.044914450496435165,0.029526814818382263,-6.812722206115723
1.7294252772940864e+18,0.011436151340603828,-0.008852463215589523,-6.89112663269043
1.7294252773030866e+18,-0.04987683519721031,-0.0744473934173584,-6.999166965484619
1.7294252773120868e+18,0.04674325883388519,-0.05089239031076431,-7.229018688201904
1.729425277321087e+18,-0.011990721337497234,-0.042144086211919785,-7.303797721862793
1.7294252773300872e+18,0.021051842719316483,-0.07978583872318268,-7.315802574157715
1.7294252773390874e+18,0.011258120648562908,-0.08620573580265045,-7.439335346221924
1.7294252773480876e+18,0.11016101390123367,0.024291694164276123,-7.48860502243042
1.7294252773510876e+18,-0.0021143974736332893,-0.12671741843223572,-7.532957553863525
1.7294252773600878e+18,-0.03388623520731926,-0.0957007110118866,-7.5423688888549805
1.729425277369088e+18,0.05220184475183487,0.033161066472530365,-7.7223992347717285
1.729425277375088e+18,-0.060494475066661835,-0.13389062881469727,-7.659317493438721
1.7294252773810883e+18,0.04611137509346008,-0.11354602128267288,-7.796646595001221
1.7294252773900884e+18,-0.0066246651113033295,-0.10737664997577667,-7.7906012535095215
1.7294252773990886e+18,0.019965676590800285,0.009976387023925781,-7.895832538604736
1.7294252774020887e+18,-0.00434521771967411,-0.06412345170974731,-7.878683567047119
1.7294252774080888e+18,-0.015542272478342056,-0.06896211206912994,-7.841909885406494
1.729425277420089e+18,-0.0031056292355060577,-0.08409501612186432,-7.946438789367676
1.7294252774260892e+18,-0.03225581720471382,-0.04860179126262665,-8.009793281555176
1.7294252774320893e+18,-0.0003086840733885765,-0.030903849750757217,-8.082756042480469
1.7294252774380895e+18,0.007703879848122597,-0.0681772381067276,-8.100287437438965
1.7294252774500897e+18,-0.028332531452178955,-0.05644737184047699,-8.219491004943848
1.72942527745909e+18,-0.054372433573007584,-0.06896396726369858,-8.279902458190918
1.72942527746809e+18,0.011684468947350979,-0.03305273503065109,-8.220686912536621
1.7294252774770903e+18,-0.06248629093170166,-0.0741828978061676,-8.31766414642334
1.7294252774830904e+18,-0.005506895482540131,-0.014231506735086441,-8.366293907165527
1.7294252774890906e+18,0.01723075658082962,-0.06159619987010956,-8.447458267211914
1.7294252774950907e+18,0.05712674930691719,-0.052408214658498764,-8.477950096130371
1.7294252774980908e+18,-0.0308106429874897,-0.08769814670085907,-8.479842185974121
1.729425277507091e+18,-0.04166505113244057,-0.0931449756026268,-8.412493705749512
1.729425277513091e+18,-0.021266154944896698,-0.06781905144453049,-8.539162635803223
1.7294252775220913e+18,-0.049664344638586044,-0.047319184988737106,-8.616888046264648
1.7294252775310915e+18,0.027016764506697655,-0.09291154891252518,-8.593817710876465
1.7294252775400916e+18,0.007691682316362858,-0.1127123013138771,-8.651744842529297
1.7294252775490918e+18,0.008127618581056595,-0.10164553672075272,-8.70170783996582
1.729425277558092e+18,0.030216360464692116,-0.07010126113891602,-8.712169647216797
1.7294252775670922e+18,0.005369652062654495,-0.07668614387512207,-8.737456321716309
1.7294252775760924e+18,-0.014811007305979729,-0.08583730459213257,-8.690204620361328
1.7294252775820925e+18,0.05542345717549324,-0.070607990026474,-8.75159740447998
1.7294252775910927e+18,0.028554029762744904,-0.06581110507249832,-8.865113258361816
1.729425277603093e+18,-0.031944118440151215,-0.13991867005825043,-8.87176513671875
1.7294252776120932e+18,-0.04757661744952202,-0.09219428896903992,-8.9039306640625
1.7294252776210934e+18,0.013209883123636246,-0.0076469555497169495,-8.911792755126953
1.7294252776300936e+18,0.07013002038002014,-0.09460713714361191,-8.893328666687012
1.7294252776390938e+18,0.03654024749994278,-0.12105563282966614,-8.964942932128906
1.729425277648094e+18,0.0860610082745552,-0.05279029533267021,-9.066805839538574
1.7294252776570941e+18,-0.027558859437704086,-0.03746408596634865,-8.981481552124023
1.7294252776660943e+18,-0.05923706665635109,-0.10661432147026062,-9.035849571228027
1.7294252776750945e+18,0.009757649153470993,-0.1333567351102829,-9.044317245483398
1.7294252776840947e+18,-0.00040753488428890705,-0.12714652717113495,-9.109319686889648
1.729425277693095e+18,-0.029899492859840393,-0.12780962884426117,-9.17519760131836
1.729425277702095e+18,-0.05160694569349289,-0.06605245172977448,-9.189833641052246
1.7294252777110953e+18,0.008459202013909817,-0.13336467742919922,-9.16318130493164
1.7294252777200955e+18,0.011465249583125114,-0.05619459226727486,-9.191214561462402
1.7294252777290957e+18,-0.058411162346601486,-0.04947522282600403,-9.189987182617188
1.7294252777380959e+18,-0.05196049436926842,-0.14060483872890472,-9.209705352783203
1.729425277747096e+18,-0.035500720143318176,-0.1278211623430252,-9.284404754638672
1.7294252777560963e+18,0.018418772146105766,-0.14186346530914307,-9.363645553588867
1.7294252777620964e+18,-0.01421706285327673,-0.1331111341714859,-9.345549583435059
1.7294252777710966e+18,-0.03394899144768715,-0.09976153075695038,-9.334826469421387
1.7294252777770967e+18,-0.04253759980201721,-0.09275232255458832,-9.39671802520752
1.7294252777830968e+18,0.016842976212501526,-0.11936620622873306,-9.411845207214355
1.729425277792097e+18,-0.09081714600324631,-0.17677971720695496,-9.402408599853516
1.7294252778010972e+18,-0.03211954981088638,-0.11917222291231155,-9.40097713470459
1.7294252778070973e+18,0.04543440043926239,-0.11124712973833084,-9.464241027832031
1.7294252778130975e+18,-0.005617963150143623,-0.1579938381910324,-9.402257919311523
1.7294252778220977e+18,0.0033976659178733826,-0.09408577531576157,-9.454934120178223
1.7294252778280978e+18,-0.07235685735940933,-0.12472480535507202,-9.442435264587402
1.729425277834098e+18,-0.019063575193285942,-0.22745805978775024,-9.381546974182129
1.729425277843098e+18,0.04708755388855934,-0.18104654550552368,-9.472458839416504
1.7294252778520983e+18,0.035732291638851166,-0.12813691794872284,-9.38199234008789
1.7294252778610985e+18,-0.018737435340881348,-0.21517658233642578,-9.489736557006836
1.7294252778700987e+18,-0.012057708576321602,-0.1146697923541069,-9.507786750793457
1.7294252778760988e+18,0.005714038386940956,-0.10402649641036987,-9.558881759643555
1.729425277885099e+18,-0.0634484589099884,-0.16290172934532166,-9.537232398986816
1.729425277888099e+18,0.05117611959576607,-0.10478600114583969,-9.509599685668945
1.7294252778970993e+18,0.021747063845396042,-0.08303911983966827,-9.503212928771973
1.7294252779030994e+18,-0.04830899089574814,-0.08142279088497162,-9.472386360168457
1.7294252779090995e+18,-0.05464533343911171,-0.18388879299163818,-9.581342697143555
1.7294252779150996e+18,0.025957027450203896,-0.1312781125307083,-9.508893966674805
1.7294252779240998e+18,0.08886928856372833,-0.1729724109172821,-9.583333015441895
1.7294252779301e+18,-0.07391012459993362,-0.1331765353679657,-9.548562049865723
1.7294252779361e+18,-0.024516407400369644,-0.16365008056163788,-9.576825141906738
1.7294252779421002e+18,-0.03253830596804619,-0.15446904301643372,-9.544833183288574
1.7294252779511004e+18,0.00767106655985117,-0.14139649271965027,-9.594767570495605
1.7294252779601006e+18,-0.031381893903017044,-0.17218786478042603,-9.600805282592773
1.7294252779661007e+18,0.03390277177095413,-0.14874093234539032,-9.631976127624512
1.7294252779721009e+18,-0.09590080380439758,-0.18269406259059906,-9.55208969116211
1.729425277981101e+18,-0.007657679263502359,-0.21056890487670898,-9.569615364074707
1.7294252779871012e+18,0.013373661786317825,-0.15009449422359467,-9.576069831848145
1.7294252779961014e+18,0.007217226549983025,-0.21236053109169006,-9.688888549804688
1.7294252780021015e+18,0.015151478350162506,-0.2218487560749054,-9.6177339553833
1.7294252780081016e+18,-0.03503291308879852,-0.07088789343833923,-9.586562156677246
1.7294252780171018e+18,0.011502739042043686,-0.07932405918836594,-9.577380180358887
1.729425278023102e+18,-0.012837097980082035,-0.17872321605682373,-9.564373016357422
1.7294252780321021e+18,-0.08668194711208344,-0.13215970993041992,-9.686906814575195
1.7294252780381023e+18,0.02314862608909607,-0.1382300704717636,-9.675131797790527
1.7294252780441024e+18,0.00819772481918335,-0.11524450778961182,-9.724934577941895
1.7294252780531026e+18,-0.016557816416025162,-0.1842098981142044,-9.638754844665527
1.7294252780591027e+18,-0.006957216188311577,-0.06307118386030197,-9.731978416442871
1.7294252780651028e+18,-0.053105250000953674,-0.1387881636619568,-9.707925796508789
1.729425278074103e+18,0.00980757549405098,-0.1417212188243866,-9.650571823120117
1.7294252780801032e+18,0.002199264243245125,-0.12364793568849564,-9.614603996276855
1.7294252780831032e+18,0.03588676452636719,-0.04953119903802872,-9.673813819885254
1.7294252780921034e+18,-0.06618022918701172,-0.1351691484451294,-9.6657133102417
1.7294252781011036e+18,0.03477003797888756,-0.1690497100353241,-9.703022003173828
1.7294252781101038e+18,0.026609793305397034,-0.13369028270244598,-9.693894386291504
1.729425278116104e+18,-0.0998702272772789,-0.2337096482515335,-9.765907287597656
1.7294252781281042e+18,0.010203566402196884,-0.09303230047225952,-9.714227676391602
1.7294252781371044e+18,-0.03880072385072708,-0.13310806453227997,-9.780348777770996
1.7294252781461046e+18,0.08130296319723129,-0.14231227338314056,-9.822617530822754
1.7294252781551048e+18,-0.018998414278030396,-0.2021469622850418,-9.696757316589355
1.729425278161105e+18,-0.06737862527370453,-0.10158111155033112,-9.776664733886719
1.729425278170105e+18,0.06542687863111496,-0.15581636130809784,-9.718703269958496
1.7294252781791053e+18,-0.055306561291217804,-0.19351935386657715,-9.691553115844727
1.7294252781911055e+18,-0.04529619589447975,-0.12178993225097656,-9.779362678527832
1.7294252781971057e+18,-0.03961867094039917,-0.2880249321460724,-9.771550178527832
1.7294252782061059e+18,0.029294412583112717,-0.14626309275627136,-9.718194007873535
1.729425278215106e+18,0.02372513711452484,-0.10913370549678802,-9.735272407531738
1.7294252782241062e+18,-0.03619508072733879,-0.10309481620788574,-9.808652877807617
