timestamp,gyro_x,gyro_y,gyro_z
1.7294245997956334e+18,0.0023124474100768566,-0.001045375014655292,-0.00032518318039365113
1.7294245998016335e+18,0.00013155234046280384,0.0013444161741062999,-0.0001333256805082783
1.7294245998076337e+18,0.0010012901620939374,0.0022090948186814785,0.00010649030446074903
1.7294245998136338e+18,-0.0017465221462771297,0.0010959174251183867,-0.003927332814782858
1.7294245998166339e+18,-0.0011962384451180696,0.0006142211495898664,0.0013658037642017007
1.729424599822634e+18,0.0011438641231507063,-0.0006782884593121707,0.0007911808206699789
1.729424599828634e+18,0.001099384156987071,0.0009454708197154105,-0.002244779374450445
1.7294245998316342e+18,-0.0012168665416538715,-0.0017240883316844702,0.00020160264102742076
1.7294245998376343e+18,0.00012751840404234827,-0.00040263161645270884,0.0025048069655895233
1.7294245998436344e+18,-0.0019807585049420595,-0.0019861517939716578,0.0023611036594957113
1.7294245998496346e+18,0.0014217154821380973,0.00038977034273557365,-0.0006373092764988542
1.7294245998526346e+18,0.0019691865891218185,0.0020635046530514956,0.0006830850034020841
1.7294245998586348e+18,0.0015199894551187754,-0.0011165660107508302,0.0014816296752542257
1.729424599864635e+18,0.0016103418311104178,-0.0003268581349402666,0.0014981600688770413
1.729424599870635e+18,-0.004231277387589216,0.0005546484026126564,-0.0007933751912787557
1.729424599873635e+18,-0.0038019439671188593,-0.0001385909999953583,-5.766717731603421e-05
1.7294245998796352e+18,0.0019518535118550062,-0.0007256451062858105,0.001557061797939241
1.7294245998856353e+18,0.00042580743320286274,-0.0018470225622877479,-0.001067361212335527
1.7294245998916355e+18,-0.00161886983551085,0.0005091632483527064,-0.0007409758982248604
1.7294245998976356e+18,0.00028924288926646113,-0.0012360201217234135,0.0003848777269013226
1.7294245999006356e+18,-0.0004597998922690749,-0.00030242057982832193,0.0023660461883991957
1.7294245999066358e+18,-0.0016333602834492922,0.0004602761473506689,0.002256229519844055
1.729424599912636e+18,0.0007510329596698284,-0.0017984956502914429,-0.0016732780495658517
1.729424599915636e+18,-0.003136289305984974,5.467769369715825e-05,0.00151354749687016
1.729424599921636e+18,-0.0016363289905712008,-0.0009622839279472828,-0.0012727141147479415
1.7294245999276362e+18,-0.001402460620738566,-0.0006466358317993581,0.00017701466276776046
1.7294245999336364e+18,0.0007344460464082658,-0.0011258549056947231,0.0007740731234662235
1.7294245999366364e+18,-0.002212599851191044,0.0002500865375623107,0.001298296730965376
1.7294245999426365e+18,-0.0007503817905671895,0.0006547000957652926,0.0013851887779310346
1.7294245999486367e+18,-4.5948159822728485e-05,0.0005935156950727105,-0.002050324808806181
1.7294245999546368e+18,0.0013067973777651787,0.00047476557665504515,-0.0005049897008575499
1.7294245999576369e+18,-0.0018515638075768948,-0.0008113773656077683,0.0005638894508592784
1.729424599963637e+18,0.0034895155113190413,-0.0007086594123393297,0.0008788229897618294
1.729424599969637e+18,0.0007304184255190194,0.001071383710950613,-0.0014357899781316519
1.7294245999726372e+18,0.0029082775581628084,0.0004791467799805105,0.0019830677192658186
1.7294245999786373e+18,-0.0006002055015414953,-0.0003435410326346755,-0.0007665022276341915
1.7294245999846374e+18,-0.0006589951226487756,0.00011431890743551776,0.0012759234523400664
1.7294245999906376e+18,0.002498554065823555,0.0007038378389552236,-0.0020335994195193052
1.7294245999936376e+18,0.00045182695612311363,0.0012402680004015565,0.0002566610346548259
1.7294245999996378e+18,7.17155053280294e-05,-0.0019649285823106766,0.0013060802593827248
1.729424600005638e+18,-4.995090785087086e-05,-0.0013394274283200502,-0.0002456256188452244
1.729424600011638e+18,-0.0007258711848407984,-0.0010308090131729841,0.0007842536433599889
1.7294246000176381e+18,0.000718619441613555,-0.0007093806634657085,4.135199196753092e-05
1.7294246000206382e+18,0.0006477324641309679,-0.0003435214748606086,0.0011345773236826062
1.7294246000266383e+18,-0.000931469548959285,-6.450724322348833e-05,0.0024286997504532337
1.7294246000326385e+18,0.0008295581210404634,0.0016231974586844444,0.0008048063609749079
1.7294246000356385e+18,-0.0002452571352478117,0.00043713574996218085,-0.0004744578036479652
1.7294246000416387e+18,-0.0023165082093328238,-0.002012246986851096,0.003947412129491568
1.7294246000476388e+18,0.0032341748010367155,-0.0018283396493643522,-0.0025538040790706873
1.729424600053639e+18,0.001166179426945746,0.00018462524167262018,0.0036260474007576704
1.729424600056639e+18,0.0018067799974232912,-0.0006055508274585009,-0.0005217257421463728
1.729424600062639e+18,-1.9264602087787353e-05,0.002720143413171172,-0.0019410370150581002
1.7294246000686392e+18,0.0012840223498642445,0.0023650601506233215,-0.00043162680231034756
1.7294246000746394e+18,0.0002421050303382799,-0.0003348712343722582,0.0005914921639487147
1.7294246000776394e+18,0.0010392015101388097,0.0005488604074344039,-0.0007580681121908128
1.7294246000836396e+18,0.0008947137393988669,0.0005716060986742377,0.00028858709265477955
1.7294246000896397e+18,0.0019321780418977141,-5.314494774211198e-05,0.0004965447587892413
1.7294246000956398e+18,-0.0009621354984119534,0.0014710930408909917,0.0005907815648242831
1.72942460009864e+18,0.00037966028321534395,-0.00122228788677603,-0.000273855694103986
1.72942460010464e+18,-0.0027557676658034325,0.0019163264660164714,0.0020676758140325546
1.72942460011064e+18,-0.0011440548114478588,-4.7591682232450694e-05,-0.002399648539721966
1.7294246001166403e+18,-0.0017708397936075926,-0.000580149469897151,0.0013472591526806355
1.7294246001196403e+18,0.00019863074703607708,-0.0006286791758611798,-0.0005115016829222441
1.7294246001256404e+18,0.0013503493973985314,0.001754834083840251,0.0012084657792001963
1.7294246001316406e+18,-0.0005771012511104345,0.001079112058505416,0.0019171240273863077
1.7294246001376407e+18,0.0008694876451045275,-0.0013250361662358046,0.0012220259523019195
1.7294246001406408e+18,-0.001384894596412778,-0.0004888054681941867,-0.0009249895811080933
1.729424600146641e+18,3.292521432740614e-05,-0.0014896573266014457,0.0005713843856938183
1.729424600152641e+18,0.0024173129349946976,1.7810323697631247e-05,-0.0013959883945062757
1.7294246001586412e+18,-0.0015460029244422913,0.00014572501822840422,-0.003166050184518099
1.7294246001616412e+18,0.0010852626292034984,-9.945651981979609e-05,-0.00012284675904083997
1.7294246001676413e+18,-0.0013565103290602565,-0.0017230032244697213,-0.0011530437041074038
1.7294246001736415e+18,-0.002404147991910577,-0.003121959511190653,-0.0006404051091521978
1.7294246001766415e+18,-0.0036676942836493254,0.0015219853958114982,-0.0006579332984983921
1.7294246001826417e+18,0.0007539326325058937,0.0001356730645056814,-0.0006739781238138676
1.7294246001886418e+18,-0.001659213681705296,-0.00028570136055350304,0.003198022022843361
1.729424600194642e+18,0.0002796427870634943,0.00024686308461241424,0.0003072934632655233
1.729424600200642e+18,0.0004699734563473612,0.0008884251583367586,0.00279291532933712
1.729424600203642e+18,0.00111805135384202,-0.0008488220046274364,-0.0008609280339442194
1.7294246002096422e+18,-0.0018764445558190346,0.002482099924236536,0.0011635411065071821
1.7294246002156424e+18,0.0006299642845988274,-0.0015427364269271493,-0.0009345493162982166
1.7294246002186424e+18,0.0001612611231394112,3.3680800697766244e-05,-0.0004883818328380585
1.7294246002246426e+18,0.00012391309428494424,0.0017593480879440904,-0.0018036712426692247
1.7294246002306427e+18,0.002838313113898039,0.00020198784477543086,8.691546099726111e-05
1.7294246002366428e+18,-0.0008542627329006791,0.0002895495272241533,0.0014899639645591378
1.729424600239643e+18,-0.001950063044205308,-0.0006285103736445308,0.0023744660429656506
1.729424600245643e+18,-0.0010212071938440204,-0.000926822132896632,0.0011907689040526748
1.7294246002516431e+18,0.0008036804501898587,-0.0005490322364494205,0.000876043108291924
1.7294246002546432e+18,0.0002880091196857393,0.0009480527369305491,0.002782379509881139
1.7294246002606433e+18,-0.000496656633913517,0.00047241905122064054,0.002678565215319395
1.7294246002666435e+18,-0.0010312062222510576,-0.00023977149976417422,0.0009521761094219983
1.7294246002726436e+18,-0.000446036719949916,-0.0010852416744455695,0.000527636322658509
1.7294246002756436e+18,0.0004026082169730216,7.491508586099371e-05,0.0006687369314022362
1.7294246002816438e+18,0.0029826159588992596,0.0015426441095769405,0.00035531484172679484
1.729424600287644e+18,0.002434816909953952,-0.0011868617730215192,-0.001908391946926713
1.729424600290644e+18,0.0020603856537491083,-0.0016590023878961802,0.0015900162979960442
1.729424600296644e+18,9.82842393568717e-05,7.12215987732634e-05,0.0020438050851225853
1.7294246003026442e+18,-0.0009246285771951079,-0.00155766517855227,-0.0008913346100598574
1.7294246003056443e+18,-0.0007312585366889834,-0.0004986994317732751,-0.0011093543143942952
1.7294246003116444e+18,0.0011606105836108327,-0.0007180896354839206,0.0003542859049048275
1.7294246003176445e+18,-0.0017891315510496497,0.0002526705793570727,0.0018047679914161563
1.7294246003206446e+18,-0.0014932623598724604,0.0004891437711194158,0.0018176169833168387
1.7294246003266447e+18,7.705288589932024e-05,0.000342993822414428,-0.0032788063399493694
1.7294246003326449e+18,-0.0006698044016957283,0.0021339452359825373,0.0014783231308683753
1.729424600338645e+18,-0.003422962035983801,0.00274377828463912,0.0002809919824358076
1.729424600341645e+18,-0.001298250863328576,-0.002276110462844372,0.002051941119134426
1.7294246003476452e+18,0.0007383913616649806,-0.0005128533812239766,0.0024085640907287598
1.7294246003536453e+18,-0.0004263421578798443,0.0008462263504043221,0.0010802473407238722
1.7294246003566454e+18,-0.00032349335378967226,-0.0005168040515854955,-0.00038044792017899454
1.7294246003626455e+18,0.0010912453290075064,-0.0006962728803046048,0.0017648151842877269
1.7294246003686456e+18,-0.0018950275843963027,0.0019987672567367554,0.0011349598644301295
1.7294246003716457e+18,-0.0006283988477662206,0.0004946520202793181,-0.00013374754053074867
1.7294246003776458e+18,-0.00019388638611417264,-0.001939863315783441,-0.001686682691797614
1.729424600383646e+18,-0.00042143912287428975,0.0009086233912967145,0.0001416017912561074
1.729424600389646e+18,0.0011366409016773105,-0.0018416226375848055,0.000429063627962023
1.7294246003926461e+18,0.002346150577068329,0.0013038244796916842,-0.0011473994236439466
1.7294246003986463e+18,9.832254727371037e-05,4.5664441131521016e-05,-0.0006534748245030642
1.7294246004046464e+18,-0.0002752613800112158,-0.0006006961339153349,0.0011886786669492722
1.7294246004106465e+18,0.002890265779569745,-0.0017361169448122382,0.000994742731563747
1.7294246004136466e+18,0.0002981950528919697,0.0003630823630373925,0.000942709855735302
1.7294246004196467e+18,-0.000710009247995913,0.0013955268077552319,0.0026539333630353212
1.7294246004256468e+18,-0.002298919251188636,0.0027704336680471897,0.0010352813405916095
1.729424600428647e+18,0.002789011923596263,0.001186687033623457,-0.001855095149949193
1.729424600434647e+18,-0.000174633227288723,-0.0006280211382545531,-0.0005930484621785581
1.7294246004406472e+18,-0.001754916156642139,0.001763982349075377,-0.0009006659965962172
1.7294246004466473e+18,0.0032530745957046747,-0.002421950688585639,-0.001212756847962737
1.7294246004526474e+18,0.0006283236434683204,0.0010012639686465263,0.0015767731238156557
1.7294246004556475e+18,0.0011633699759840965,0.0007042443612590432,0.0005750599666498601
1.7294246004616476e+18,-0.0014683862682431936,-0.0005042225238867104,0.0011181342415511608
1.7294246004676477e+18,-0.0019202274270355701,0.0011180671863257885,0.00026195537066087127
1.7294246004736479e+18,-0.0021807639859616756,-0.0009090648964047432,0.0011458774097263813
1.729424600476648e+18,0.0022211691830307245,-0.0020097466185688972,-0.0020076809450984
1.729424600482648e+18,-3.097045191680081e-05,-0.0016176736680790782,0.0021951752714812756
1.7294246004886482e+18,0.0013170538004487753,-0.0013942160876467824,0.0008104543667286634
1.7294246004946483e+18,0.0012279334478080273,-0.001051802304573357,0.00026284356135874987
1.7294246004976484e+18,0.0019682166166603565,3.4222914109705016e-05,0.00014238699804991484
1.7294246005036485e+18,0.0004545556439552456,-0.0009510897216387093,-0.0016490344423800707
1.7294246005096486e+18,-0.0009093499393202364,0.0020224745385348797,-0.00010600437235552818
1.7294246005156488e+18,-0.0002820156223606318,0.0006997081218287349,-0.0006107727531343699
1.7294246005186488e+18,0.0008290231344290078,-0.0017914560157805681,-0.0016256032977253199
1.729424600524649e+18,0.0005334969027899206,-0.002720992313697934,0.0005749174160882831
1.729424600530649e+18,-0.0008692650590091944,-0.002740188268944621,-0.0014543873257935047
1.7294246005366492e+18,-0.002593292621895671,-0.0013865905348211527,-0.0006560860201716423
1.7294246005396493e+18,0.002048503141850233,0.0027501878794282675,-0.0011543321888893843
1.7294246005456494e+18,0.001761621213518083,0.0013780328445136547,-0.001263305894099176
1.7294246005516495e+18,-0.0032483404502272606,0.0016551592852920294,-0.0007791934185661376
1.7294246005576497e+18,0.0007332195527851582,-0.00024862500140443444,0.0006276064086705446
1.7294246005606497e+18,0.00038497726200148463,-0.0002898568054661155,-0.0008431434398517013
1.7294246005666499e+18,0.00032450814615003765,-0.003467552363872528,0.0005980381392873824
1.72942460057265e+18,-0.0004849387041758746,-0.00028104259399697185,0.0010406605433672667
1.72942460057565e+18,-0.0008526587625965476,0.0015669582644477487,0.0006834293599240482
1.7294246005846502e+18,-0.0005881847464479506,0.0003697832580655813,-0.0004574225458782166
1.7294246005876503e+18,-0.0021985741332173347,0.00016436490113846958,-0.00014995790843386203
1.7294246005936504e+18,-0.0034394357353448868,0.001075834734365344,-9.347697050543502e-05
1.7294246005996506e+18,0.0006831667851656675,0.001138705643825233,0.0008620056905783713
1.7294246006056507e+18,0.0023757731541991234,-1.6524794773431495e-05,-0.0005293923313729465
1.7294246006086508e+18,0.0011476262006908655,0.0014335580635815859,-0.00019865842477884144
1.729424600614651e+18,-0.0015154116554185748,-0.0003581250784918666,0.0018066432094201446
1.729424600620651e+18,-0.0006133111892268062,-0.001571468310430646,-0.0006894026882946491
1.7294246006266511e+18,-0.0009907978819683194,-0.0024530808441340923,0.0017700772732496262
1.7294246006296512e+18,-4.1380008042324334e-05,0.0014240172458812594,0.0003744118148460984
1.7294246006356513e+18,0.002582801505923271,-0.00040245274431072176,-0.00031991154537536204
1.7294246006416515e+18,-0.0018697124905884266,0.00014945604198146611,-0.0037476064171642065
1.7294246006446515e+18,-0.0009427474578842521,-0.0013934383168816566,0.0013899985933676362
1.7294246006506516e+18,0.0011874421034008265,0.002562806475907564,0.0016866822261363268
1.7294246006566518e+18,8.790287392912433e-05,0.001727961003780365,0.0016466598026454449
1.729424600662652e+18,-0.0022215922363102436,0.0013689541956409812,-0.0007770514348521829
1.729424600665652e+18,0.0016335166292265058,-0.00036377206561155617,-0.0005163532332517207
1.729424600671652e+18,-0.00331568974070251,0.002622049767524004,-0.0022058056201785803
1.7294246006776522e+18,-0.0015153286512941122,0.00082009396282956,0.0005067315651103854
1.7294246006836524e+18,0.0032068872824311256,0.0015495229745283723,-0.0012372267665341496
1.7294246006866524e+18,-0.00022875156719237566,0.0005819973303005099,0.0011008087312802672
1.7294246006926525e+18,0.0009032695670612156,0.0017884914996102452,-0.0005802286323159933
1.7294246006986527e+18,0.0004186897131148726,0.0022971576545387506,-0.0016802472528070211
1.7294246007046528e+18,0.0008673834381625056,4.322463792050257e-05,-0.0018600978655740619
1.7294246007076529e+18,-0.0004093993338756263,0.00033229083055630326,-0.001279905205592513
1.729424600713653e+18,0.0007505749235861003,0.002575973281636834,0.00013328477507457137
1.729424600719653e+18,-0.0007575437775813043,0.002879503881558776,-0.0008441781392320991
1.7294246007226532e+18,0.001968134194612503,-0.0036703157238662243,-0.0011994997039437294
1.7294246007286533e+18,-0.0017701832111924887,0.0023006212431937456,0.0010967113776132464
1.7294246007346534e+18,-0.001693990547209978,-0.00025005999486893415,0.00010166177526116371
1.7294246007376535e+18,-0.0008989584748633206,0.0027588808443397284,0.0002992420631926507
1.7294246007436536e+18,-0.0017192066879943013,-0.0008656607824377716,0.0016328892670571804
1.7294246007496538e+18,-0.000987635925412178,-0.0030963539611548185,0.00211469829082489
1.729424600755654e+18,-0.002209894824773073,0.0007698790868744254,0.0021269218996167183
1.729424600758654e+18,-0.0036591000389307737,-0.0004947914276272058,-0.0017348167020827532
1.729424600764654e+18,0.0021440943237394094,-0.0005568858468905091,0.00038551021134480834
1.7294246007706542e+18,-0.0019449644023552537,-0.0024300748482346535,0.00239678961224854
1.7294246007736543e+18,-0.0026553585194051266,-0.0012795145157724619,-0.0018090974772349
1.7294246007796544e+18,0.000585010799113661,-0.0010974241886287928,0.0008469089516438544
1.7294246007856545e+18,0.002019738545641303,0.0023541089612990618,0.00019748808699660003
1.7294246007916547e+18,0.0020140602719038725,-0.001191576011478901,-0.0009511416428722441
1.7294246007946547e+18,-0.0011522147106006742,0.0005008694133721292,-0.0024757368955761194
1.7294246008006548e+18,-0.0011289442190900445,0.002851341152563691,0.0015631272690370679
1.729424600806655e+18,0.0009354669600725174,-0.000896717538125813,-0.002260501030832529
1.729424600809655e+18,0.0015511588426306844,0.0005011638859286904,-0.0002906270674429834
1.7294246008156552e+18,-0.0011002850951626897,0.0006425540777854621,0.00024227598623838276
1.7294246008216553e+18,0.003319589886814356,0.002125572180375457,-0.0006923780892975628
1.7294246008276554e+18,-0.0025478159077465534,0.0023709097877144814,-0.0006358028622344136
1.7294246008306555e+18,-0.00152966205496341,0.002531207399442792,-0.0010311960941180587
1.7294246008366556e+18,0.0009347319137305021,-0.0005159445572644472,-9.46440650295699e-07
1.7294246008426557e+18,-0.0022328118793666363,-0.0022312605287879705,-7.958889909787104e-05
1.729424600848656e+18,0.0020203753374516964,0.0013095183530822396,0.00046877405839040875
1.729424600851656e+18,-0.0024327344726771116,-0.0010060981148853898,-0.000979772536084056
1.729424600857656e+18,-0.00014238418953027576,0.00046884347102604806,-0.0015609653200954199
1.7294246008636562e+18,0.0018042554147541523,-0.0003242367529310286,0.00041861351928673685
1.7294246008666563e+18,-0.0012045394396409392,-0.002085072221234441,-0.0006308762240223587
1.7294246008726564e+18,-0.0006444020546041429,-0.0006356019293889403,0.0009769725147634745
1.7294246008786565e+18,-0.0023781515192240477,0.002175277564674616,-0.0005574662936851382
1.7294246008846566e+18,-0.0003759826940950006,-0.00019598995277192444,0.001366236014291644
1.7294246008876567e+18,-0.0009646841208450496,-0.0015801878180354834,0.0002727604878600687
1.7294246008936568e+18,0.00036863808054476976,0.0007376219145953655,0.0007738356362096965
1.729424600899657e+18,0.0004285073955543339,-0.000960162898991257,-3.8312446122290567e-05
1.729424600902657e+18,0.00012883206363767385,0.0006773280329070985,0.0008190710796043277
1.7294246009086572e+18,-0.003434917191043496,0.001775456010363996,-0.0008705807267688215
1.7294246009146573e+18,0.000998576870188117,-0.00103687250521034,-0.0018302886746823788
1.7294246009176573e+18,-0.0005108258919790387,-0.0019117934862151742,0.0008966568857431412
1.7294246009236575e+18,-0.0014281162293627858,0.00021648981783073395,0.001571422559209168
1.7294246009296576e+18,0.0005657796864397824,-0.0014054739149287343,-0.0015054527902975678
1.7294246009356577e+18,0.0009894733084365726,-0.00075673614628613,0.0012326963478699327
1.7294246009386578e+18,-0.001117102918215096,0.0017137305112555623,0.002305623609572649
1.729424600944658e+18,-0.001443675602786243,-0.000943206949159503,0.0016649391036480665
1.729424600950658e+18,6.617346662096679e-05,-0.0004860771878156811,-0.00014827139966655523
1.729424600953658e+18,0.0006200940697453916,-0.001016835798509419,-0.0005990823265165091
1.7294246009596582e+18,0.001500009442679584,0.0009299743105657399,-0.0017476872308179736
1.7294246009656584e+18,-0.0032471029553562403,0.0012180478079244494,-0.0004779598966706544
1.7294246009716585e+18,-0.0004769109655171633,-0.00142375857103616,-0.0029553601052612066
1.7294246009746586e+18,0.00217890040948987,-0.000861318432725966,-0.0017040942329913378
1.7294246009806587e+18,0.0011056227376684546,0.0004636635712813586,0.00023955662618391216
1.7294246009866588e+18,0.0026545855216681957,4.578222433337942e-05,-0.001174336881376803
1.729424600992659e+18,-0.0014518889365717769,-0.0014609294012188911,-8.521052222931758e-05
1.729424600995659e+18,-5.041341864853166e-05,-0.002889390103518963,7.19007493898971e-06
1.7294246010016591e+18,0.0006549208192154765,-0.00012377976963762194,5.398486246122047e-05
1.7294246010076593e+18,0.001052740728482604,0.0003789104230236262,0.0007182622794061899
1.7294246010316598e+18,-0.0008547742036171257,0.0003914986737072468,0.0021634637378156185
1.72942460103766e+18,0.002429105807095766,-0.0001486981491325423,0.0011865455890074372
1.72942460104366e+18,0.0005655905115418136,0.0005668342346325517,0.0002980133576784283
1.7294246010496602e+18,-0.001809049746952951,-0.00023368616530206054,-0.00012627551041077822
1.7294246010526602e+18,0.0007079060887917876,-0.002343025291338563,0.0007093074382282794
1.7294246010586604e+18,-0.0010562670649960637,-0.001553547102957964,0.0014195168623700738
1.7294246010646605e+18,-0.0025298926047980785,-0.0032725539058446884,0.002373934257775545
1.7294246010676605e+18,-0.0022154091857373714,-0.0010786846978589892,-0.002251886995509267
1.7294246010736607e+18,-0.0003814733063336462,0.0029881226364523172,0.0022004914935678244
1.7294246010796608e+18,-0.0004724394530057907,0.0033303929958492517,-0.0025810902006924152
1.7294246010826609e+18,0.0022834595292806625,-0.0009230885771103203,0.00023904882255010307
1.729424601088661e+18,0.00012808674364350736,-0.0020229623187333345,-0.0013591382885351777
1.729424601094661e+18,0.001965221017599106,-0.0026324926875531673,-0.000747863610740751
1.7294246011006612e+18,-0.000652223126962781,-0.0015167546225711703,0.00038969560409896076
1.7294246011066614e+18,0.0009015752002596855,-0.002823122078552842,-0.001021494739688933
1.7294246011126615e+18,0.00030714867170900106,-0.0015958619769662619,-0.0008394102333113551
1.7294246011186616e+18,0.0001022356009343639,-0.0009507631184533238,-0.00047252679360099137
1.7294246011246618e+18,0.002925413427874446,0.0007902812794782221,-0.0011338043259456754
1.729424601133662e+18,0.002362871076911688,0.0018128131050616503,-0.00026835085009224713
1.729424601139662e+18,0.0010386367794126272,0.00015766118303872645,-0.0001246845058631152
1.7294246011486623e+18,-0.00046753871720284224,0.00026795832673087716,-0.0006869658827781677
1.7294246011576625e+18,-0.0024222536012530327,4.943486419506371e-05,-0.0005960111739113927
1.7294246011636626e+18,0.0003078617446590215,-0.0019220653921365738,0.002286056987941265
1.7294246011726628e+18,-0.0028258254751563072,-0.0003310187312308699,0.0027028117328882217
1.729424601181663e+18,-0.0013366274069994688,0.0010483036749064922,-0.0009858757257461548
1.7294246011906632e+18,-0.0007885952945798635,-0.0013732159277424216,0.0010734207462519407
1.7294246011996634e+18,-0.0016179141821339726,0.003081970615312457,0.002558421343564987
1.7294246012086636e+18,0.0008739625918678939,-0.00030287637491710484,-0.0005963650182820857
1.7294246012146637e+18,0.000586531066801399,-0.0004947419511154294,0.0020586519967764616
1.7294246012236639e+18,-0.004011883866041899,0.0018416887614876032,0.0016353013925254345
1.729424601232664e+18,-0.0008134050294756889,-3.1830229545448674e-06,-0.002591266529634595
1.7294246012416643e+18,0.0035443720407783985,0.000667898915708065,0.0015129019739106297
1.7294246012476644e+18,-0.0001722948654787615,-0.0017249623779207468,-0.00023382154176943004
1.7294246012536645e+18,0.0022173698525875807,9.403043077327311e-05,0.00098490621894598
1.7294246012626647e+18,0.0005544723244383931,-0.0020084793213754892,-0.0018691729055717587
1.7294246012686648e+18,0.0005578076816163957,-0.0020299816969782114,0.0005310031119734049
1.729424601277665e+18,-0.0003637061163317412,0.00039104605093598366,0.0027106760535389185
1.7294246012836652e+18,-0.0008655157871544361,0.0013987444108352065,0.00042907672468572855
1.7294246012896653e+18,-0.0003386305761523545,-0.0011698078596964478,0.0014207438798621297
1.7294246012956654e+18,-0.00020195438992232084,-0.002750381827354431,-0.0008569300407543778
1.7294246013016655e+18,-0.0016533907037228346,0.00026595115195959806,0.0012881289003416896
1.7294246013106657e+18,0.0003139066102448851,-0.00323916575871408,-0.0024495127145200968
1.7294246013136658e+18,0.0007232632488012314,-0.0013851396506652236,-0.0034337418619543314
1.729424601322666e+18,-0.00011627678759396076,0.0018556611612439156,0.000992284039966762
1.729424601328666e+18,0.004426672589033842,0.00137104163877666,0.0004255585663486272
1.7294246013346662e+18,-0.00163619639351964,0.0010305418400093913,0.001944633899256587
1.7294246013406664e+18,-4.4896103645442054e-05,0.0007054554298520088,-4.8730064008850604e-05
1.7294246013466665e+18,0.001904556411318481,0.0011348689440637827,-0.0010393493575975299
1.7294246013556667e+18,0.0035824666265398264,0.0028595668263733387,0.00023872654128354043
1.7294246013616668e+18,-0.0001972177706193179,-0.001678593223914504,-0.0026787773240357637
1.729424601367667e+18,-0.0008624072652310133,3.365383963682689e-05,-0.0013153607724234462
1.729424601373667e+18,0.0035748102236539125,0.0004970168229192495,0.0007317042327485979
1.7294246013796672e+18,0.0008380608051083982,-0.0005883802659809589,0.001256678020581603
1.7294246013856673e+18,0.0007513616001233459,-0.00018331888713873923,0.0005691631813533604
1.7294246013916675e+18,-0.0011254874989390373,-1.9987333871540613e-05,0.0007440597983077168
1.7294246014006676e+18,-0.0005935169174335897,-0.0004725698090624064,0.00023636623518541455
1.7294246014066678e+18,0.000875834608450532,-0.0028202456887811422,0.0012594329891726375
1.729424601412668e+18,0.0024656530003994703,-0.002150183543562889,0.0009052146342583001
1.729424601418668e+18,0.0005986357573419809,0.004270446021109819,-0.0017001554369926453
1.7294246014246682e+18,-0.001945654395967722,-0.000765858858358115,-0.0024225935339927673
1.7294246014336684e+18,0.0008777547045610845,-0.000815362436696887,-0.0002748975530266762
1.7294246014396685e+18,0.0008409349829889834,0.0006650945288129151,-0.0023241471499204636
1.7294246014486687e+18,-0.0004680174170061946,0.0020315097644925117,0.0004228321777191013
1.7294246014546688e+18,-0.001552523928694427,-0.0008769684354774654,0.0005726177478209138
1.729424601460669e+18,-0.00045678779133595526,-0.0005021409597247839,0.0011017716024070978
1.729424601469669e+18,-0.00018282397650182247,4.2929299524985254e-05,0.0009375693625770509
1.7294246014756692e+18,0.0035821266938000917,0.0017109346808865666,-0.0003089024976361543
1.7294246014816694e+18,0.0005628043436445296,-0.0003063743934035301,0.0006513255066238344
1.7294246014876695e+18,0.0012832097709178925,0.00042261945782229304,-0.0002932815405074507
1.7294246014936696e+18,7.463571091648191e-05,-0.0024444919545203447,-0.0012960318708792329
1.7294246014996698e+18,0.002381914993748069,0.0012109148083254695,-0.0009392757201567292
1.72942460150867e+18,-9.734166815178469e-05,0.0011985632590949535,-0.0005497767706401646
1.72942460151467e+18,0.0002470801991876215,-0.0012643933296203613,0.0017048368463292718
1.7294246015206702e+18,0.003688976401463151,0.0009349540341645479,-0.002422888530418277
1.7294246015266703e+18,0.00015159415488597006,6.942074378457619e-06,-0.0009175979066640139
1.7294246015326705e+18,0.0016135459300130606,-0.0003326093719806522,-0.0010357752908021212
1.7294246015386706e+18,-0.0019219765672460198,-0.0005633818218484521,-0.002050471492111683
1.7294246015416707e+18,0.0009514638804830611,0.00035610314807854593,-0.001690318458713591
1.7294246015476708e+18,-0.0025061029009521008,0.0003494603151921183,-0.002534690545871854
1.729424601553671e+18,0.0005612735403701663,0.0006666688132099807,0.0018732163589447737
1.729424601559671e+18,-0.00048158926074393094,0.0008488343446515501,0.0011047514853999019
1.7294246015656712e+18,-0.0007136819185689092,0.00016063782095443457,0.0026932163164019585
1.7294246015686712e+18,-0.0018052136292681098,-0.00013250784832052886,0.0014376456383615732
1.7294246015746714e+18,0.00180238822940737,-0.001144695794209838,-0.0018046075711026788
1.7294246015806715e+18,-0.0014609050704166293,0.000899879785720259,-0.0014576580142602324
1.7294246015866716e+18,-0.0026913019828498363,0.0011608080239966512,0.002328146481886506
1.7294246015896717e+18,-0.0006979736499488354,-0.0007731291698291898,-0.0012903236784040928
1.7294246015956718e+18,-0.00042341454536654055,0.00022649821767117828,0.00040003727190196514
1.729424601601672e+18,0.0007077463087625802,0.0028042916674166918,-0.0020470109302550554
1.729424601607672e+18,-0.002501625334843993,0.00047923438251018524,0.0015641764039173722
1.729424601610672e+18,-0.0019949153065681458,-0.0008968313341028988,0.0003627685073297471
1.7294246016166723e+18,-0.0015657917829230428,-0.0005798481870442629,0.0002695027505978942
1.7294246016226724e+18,-4.5896558731328696e-05,-0.0005438806256279349,-0.0010489491978660226
1.7294246016286725e+18,-0.0009812787175178528,0.0006024375325068831,0.001670538098551333
1.7294246016316726e+18,-0.0004635724180843681,-0.000286055204924196,-0.0013562191743403673
1.7294246016376727e+18,-0.0013050534762442112,-0.0017718662275001407,0.00032868084963411093
1.7294246016436728e+18,0.0011066747829318047,-0.0014054813655093312,0.00035298001603223383
1.729424601649673e+18,0.0015566748334094882,0.0021105618216097355,0.003210109891369939
1.729424601652673e+18,-0.001808574190363288,-0.002534712664783001,-0.001192209543660283
1.7294246016586732e+18,0.0015041831647977233,-0.00019456807058304548,-0.0007063077646307647
1.7294246016646733e+18,0.0006177960895001888,0.00033563506440259516,-4.7271074436139315e-05
1.7294246016706734e+18,0.0010314695537090302,0.0028451350517570972,-0.002461680443957448
1.7294246016736735e+18,-0.002015615813434124,0.001159550971351564,0.0024586988147348166
1.7294246016796736e+18,0.000824414542876184,-0.0021556250285357237,-0.0027233536820858717
1.7294246016856737e+18,-0.0001829463872127235,-0.0009484703186899424,-0.003460243111476302
1.7294246016886738e+18,0.00020053476328030229,-0.0003185906389262527,0.0030091649387031794
1.729424601694674e+18,-0.00028677593218162656,0.0010253168875351548,-0.0008802334778010845
1.729424601700674e+18,-0.006879109423607588,0.007174917496740818,0.0005713271675631404
1.7294246017066742e+18,-0.03667175769805908,0.05063371732831001,0.0028372560627758503
1.7294246017126743e+18,-0.06230492517352104,0.0851486325263977,-7.6181189797353e-05
1.7294246017156744e+18,-0.07316954433917999,0.10559484362602234,0.002476644702255726
1.7294246017216745e+18,-0.10163771361112595,0.14429640769958496,-0.0019738213159143925
1.7294246017276746e+18,-0.11710257828235626,0.1726698875427246,0.0008206436177715659
1.7294246017336748e+18,-0.1280985176563263,0.19090093672275543,9.39594756346196e-05
1.729424601739675e+18,-0.12862470746040344,0.19732950627803802,-0.0014708101516589522
1.729424601745675e+18,-0.11628061532974243,0.19315718114376068,0.0022913855500519276
1.729424601748675e+18,-0.11033310741186142,0.18435992300510406,0.0014006796991452575
1.7294246017546752e+18,-0.09470120072364807,0.17307867109775543,0.001078593428246677
1.7294246017606753e+18,-0.08261030167341232,0.1601586937904358,-0.0031722169369459152
1.7294246017666755e+18,-0.07692059874534607,0.15384064614772797,-0.003125549294054508
1.7294246017726756e+18,-0.0808940902352333,0.15357305109500885,0.0012146184453740716
1.7294246017756756e+18,-0.08268837630748749,0.15138079226016998,0.0001973399193957448
1.7294246017816758e+18,-0.08983366936445236,0.1608152687549591,0.0019142159726470709
1.729424601787676e+18,-0.0990353673696518,0.16882191598415375,0.001416481682099402
1.729424601793676e+18,-0.10892799496650696,0.17187945544719696,-0.0013220106484368443
1.7294246017996762e+18,-0.10787086188793182,0.17328186333179474,-5.550729110836983e-05
1.7294246018026762e+18,-0.10684651136398315,0.1710357367992401,-0.0020226831547915936
1.7294246018086764e+18,-0.09651374816894531,0.16657713055610657,-0.0017619052669033408
1.7294246018146765e+18,-0.08751931041479111,0.15564942359924316,-0.0010036296444013715
1.7294246018206766e+18,-0.07046590000391006,0.14330227673053741,-0.001045442302711308
1.7294246018266767e+18,-0.060468997806310654,0.12876731157302856,-0.0013955386821180582
1.7294246018326769e+18,-0.05076586455106735,0.11499898880720139,-0.0021178361494094133
1.729424601838677e+18,-0.04586425796151161,0.10366422683000565,0.0012822970747947693
1.729424601841677e+18,-0.04613422602415085,0.09832940250635147,-0.0010786878410726786
1.7294246018476772e+18,-0.04680945724248886,0.09332720190286636,-0.00028444494819268584
1.7294246018536773e+18,-0.04955340921878815,0.08714193850755692,-0.003064740914851427
1.7294246018596774e+18,-0.05123351514339447,0.08285435289144516,0.0002590463263913989
1.7294246018656776e+18,-0.04859843850135803,0.08093206584453583,-0.0029759472236037254
1.7294246018716777e+18,-0.044347576797008514,0.07315036654472351,-0.0010986316483467817
1.7294246018746778e+18,-0.04362466558814049,0.07030018419027328,0.0019216303480789065
1.729424601880678e+18,-0.029797840863466263,0.06412064284086227,-0.002559080719947815
1.729424601886678e+18,-0.021126460283994675,0.05198085680603981,-0.0025742417201399803
1.7294246018926781e+18,-0.014088797383010387,0.04243120551109314,-0.0010840552859008312
1.7294246018986783e+18,-0.005538856610655785,0.03061589226126671,0.0013414572458714247
1.7294246019046784e+18,-0.002175880130380392,0.018648069351911545,-0.001198174199089408
1.7294246019076785e+18,0.0007153761107474566,0.01629764586687088,-0.0026616535615175962
1.7294246019136786e+18,0.006966800428926945,0.0075093284249305725,-0.003660165471956134
1.7294246019196787e+18,0.005345240235328674,0.0030656326562166214,-0.004814844578504562
1.7294246019256788e+18,0.004204690922051668,-0.0033704515080899,0.0002702660858631134
1.729424601931679e+18,0.004286267329007387,-0.00599875021725893,-0.0004298242274671793
1.729424601934679e+18,0.0064105992205441,-0.010447647422552109,-0.0027426339220255613
1.7294246019406792e+18,0.00587070407345891,-0.013257844373583794,0.00011812418233603239
1.7294246019466793e+18,0.007212948985397816,-0.020735805854201317,-0.002149050123989582
1.7294246019526794e+18,0.018079757690429688,-0.026358770206570625,0.001060850452631712
1.7294246019556795e+18,0.018094755709171295,-0.030134521424770355,0.003135938197374344
1.7294246019616796e+18,0.02633495070040226,-0.03464158996939659,0.0034993370063602924
1.7294246019676797e+18,0.03192966803908348,-0.040139660239219666,0.0025839596055448055
1.7294246019736799e+18,0.03462456166744232,-0.046207837760448456,0.002102083992213011
1.72942460197668e+18,0.039047565311193466,-0.04943755641579628,-8.738110773265362e-05
1.72942460198268e+18,0.04087834432721138,-0.05528903380036354,-0.00015112501569092274
1.7294246019886802e+18,0.03678733482956886,-0.05994285270571709,-0.0019084401428699493
1.7294246019946803e+18,0.03556350991129875,-0.06315810978412628,0.0011999427806586027
1.7294246019976804e+18,0.033881865441799164,-0.06361576914787292,-0.0019053302239626646
1.7294246020036805e+18,0.03705845773220062,-0.06875040382146835,0.0025677720550447702
1.7294246020096806e+18,0.036918606609106064,-0.0649411603808403,0.0005939524853602052
1.7294246020126807e+18,0.03816297650337219,-0.07154940068721771,0.0003896717098541558
1.7294246020186808e+18,0.0398360975086689,-0.07169362902641296,0.0033008703030645847
1.729424602024681e+18,0.04300369322299957,-0.07262217253446579,0.00014454132178798318
1.729424602027681e+18,0.04393761605024338,-0.07297391444444656,-0.0004399186000227928
1.7294246020336812e+18,0.04825131967663765,-0.07402350753545761,0.0006937062134966254
1.7294246020396813e+18,0.045650120824575424,-0.07392554730176926,0.0008659051381982863
1.7294246020456814e+18,0.04872681573033333,-0.08123163133859634,-0.0011198860593140125
1.7294246020486815e+18,0.04722370579838753,-0.08096969127655029,0.002224651863798499
1.7294246020546816e+18,0.04663320258259773,-0.08549603074789047,-0.0006840752903372049
1.7294246020606817e+18,0.04552986100316048,-0.0863492414355278,-0.001753416145220399
1.7294246020666819e+18,0.04533959552645683,-0.08445587754249573,0.001114637590944767
1.729424602069682e+18,0.04588800668716431,-0.08685965090990067,-0.0008122510043904185
1.729424602075682e+18,0.04363951459527016,-0.08507409691810608,-0.0003988018142990768
1.7294246020816822e+18,0.04526155814528465,-0.08280441910028458,0.0007292249356396496
1.7294246020846822e+18,0.04183517396450043,-0.08170372247695923,-0.0010680481791496277
1.7294246020906824e+18,0.042209599167108536,-0.0829605758190155,0.00251804874278605
1.7294246020966825e+18,0.04279739037156105,-0.08172202110290527,0.001933021005243063
1.7294246020996826e+18,0.04476539418101311,-0.08116446435451508,-0.0020292371045798063
1.7294246021056827e+18,0.044017840176820755,-0.08258283138275146,0.00421481067314744
1.7294246021116828e+18,0.04779205471277237,-0.07956637442111969,0.0010182136902585626
1.729424602114683e+18,0.04143678396940231,-0.0791541263461113,0.000820454559288919
1.729424602120683e+18,0.04568766430020332,-0.08121322095394135,0.0017236010171473026
1.7294246021266831e+18,0.047315459698438644,-0.08018810302019119,-0.000691256660502404
1.7294246021326833e+18,0.04488592594861984,-0.08059467375278473,-0.0007181080873124301
1.7294246021356833e+18,0.04374159127473831,-0.08106115460395813,0.0004471282591111958
1.7294246021416835e+18,0.04212978109717369,-0.078719861805439,0.0002819871879182756
1.7294246021476836e+18,0.032931067049503326,-0.07730521261692047,-0.0008104511070996523
1.7294246021506836e+18,0.03599318861961365,-0.07808225601911545,0.0012909286888316274
1.7294246021566838e+18,0.03623712807893753,-0.07368151843547821,-4.132170579396188e-05
1.729424602162684e+18,0.03323465958237648,-0.07040997594594955,0.0013072547735646367
1.729424602165684e+18,0.03572871908545494,-0.07029982656240463,-0.0009259057696908712
1.729424602171684e+18,0.031059835106134415,-0.06553591042757034,-0.002548340242356062
1.7294246021776842e+18,0.03631860017776489,-0.06781984120607376,0.00012777370284311473
1.7294246021836844e+18,0.03106471337378025,-0.06354716420173645,-0.00016342068556696177
1.7294246021866844e+18,0.03400365263223648,-0.06584679335355759,0.002749833045527339
1.7294246021926845e+18,0.03430340439081192,-0.06371410936117172,-0.004732050467282534
1.7294246021986847e+18,0.03404371812939644,-0.06413155049085617,0.0025677718222141266
1.7294246022046848e+18,0.03155233711004257,-0.06408471614122391,0.0029194443486630917
1.7294246022076849e+18,0.030093250796198845,-0.06152373552322388,-0.000988683896139264
1.729424602213685e+18,0.030995065346360207,-0.05989282205700874,-0.0009998325258493423
1.729424602219685e+18,0.03028971143066883,-0.05681782588362694,0.0014422342646867037
1.7294246022226852e+18,0.02813424915075302,-0.05821526050567627,0.003983222879469395
1.7294246022286853e+18,0.028554385527968407,-0.056071843951940536,-0.0007376947905868292
1.7294246022346854e+18,0.028676830232143402,-0.05384927615523338,0.0010738170240074396
1.7294246022376855e+18,0.028998233377933502,-0.05274736136198044,0.00012859172420576215
1.7294246022436856e+18,0.0265702772885561,-0.05270317941904068,0.001314101042225957
1.7294246022496858e+18,0.02707742527127266,-0.04743129387497902,-0.0008031277684494853
1.729424602255686e+18,0.029659753665328026,-0.04581824317574501,-0.0004549511068034917
1.729424602258686e+18,0.023159600794315338,-0.04723144322633743,-0.00018680578796193004
1.729424602264686e+18,0.02682146243751049,-0.04513103887438774,-0.0003599977062549442
1.7294246022706862e+18,0.024339469149708748,-0.04145273193717003,-0.0011515840888023376
1.7294246022736863e+18,0.02643297240138054,-0.042809370905160904,0.002038171049207449
1.7294246022796864e+18,0.02375314012169838,-0.04127822071313858,0.002806519391015172
1.7294246022856865e+18,0.024402394890785217,-0.04508744925260544,-0.0016308510676026344
1.7294246022886866e+18,0.023180119693279266,-0.04567107558250427,-0.000893514952622354
1.7294246022946867e+18,0.022649001330137253,-0.040457043796777725,-6.879318971186876e-05
1.7294246023006868e+18,0.02232193760573864,-0.04223112016916275,-0.00026619050186127424
1.729424602306687e+18,0.022145075723528862,-0.03575434163212776,-0.0020179341081529856
1.729424602309687e+18,0.02116350084543228,-0.038098543882369995,-0.001035924069583416
1.7294246023156872e+18,0.020004576072096825,-0.033899955451488495,-0.0030197687447071075
1.7294246023216873e+18,0.018661605194211006,-0.03289320319890976,0.000262859626673162
1.7294246023276874e+18,0.018466118723154068,-0.03236137703061104,-0.00040870916564017534
1.7294246023336876e+18,0.01884227618575096,-0.03273062780499458,-0.0035923942923545837
1.7294246023366876e+18,0.017129216343164444,-0.030193788930773735,-9.709969162940979e-06
1.7294246023426877e+18,0.01804203726351261,-0.028917506337165833,0.00037601706571877003
1.729424602348688e+18,0.02042236737906933,-0.02664804644882679,-0.0016465933294966817
1.729424602354688e+18,0.020143508911132812,-0.031458284705877304,-0.004447652492672205
1.729424602360688e+18,0.019551092758774757,-0.027891505509614944,-0.0029434743337333202
1.7294246023636882e+18,0.019995398819446564,-0.027196550741791725,-0.002449224703013897
1.7294246023696883e+18,0.01660989038646221,-0.027727404609322548,-0.0021564264316111803
1.7294246023756884e+18,0.018822094425559044,-0.029324911534786224,-0.002999586286023259
1.7294246023816886e+18,0.015676505863666534,-0.027564534917473793,-0.0011968327453359962
1.7294246023846886e+18,0.019484251737594604,-0.024584928527474403,0.0005972967483103275
1.7294246023906888e+18,0.016268085688352585,-0.025085091590881348,-0.0014419027138501406
1.729424602396689e+18,0.016259366646409035,-0.027528366073966026,-0.003896864363923669
1.729424602399689e+18,0.014144858345389366,-0.025413040071725845,-0.0021509150974452496
1.729424602405689e+18,0.014557010494172573,-0.02805231139063835,-0.0016145262634381652
1.7294246024116892e+18,0.01723477989435196,-0.026365550234913826,-0.00576357264071703
1.7294246024146893e+18,0.015010121278464794,-0.023280374705791473,-0.0038147890008985996
1.7294246024206894e+18,0.014928377233445644,-0.023327991366386414,-0.0021407525055110455
1.7294246024266895e+18,0.014258472248911858,-0.022688474506139755,-0.0009637214243412018
1.7294246024326897e+18,0.0161176435649395,-0.02205219492316246,-0.004012218676507473
1.7294246024356897e+18,0.01439489983022213,-0.020730461925268173,-0.0024584289640188217
1.7294246024416899e+18,0.01737610623240471,-0.0215243399143219,-0.0036803926341235638
1.72942460244769e+18,0.014212043024599552,-0.023202333599328995,-0.004779626149684191
1.72942460245369e+18,0.01389952190220356,-0.020706098526716232,-0.002724846825003624
1.7294246024596902e+18,0.013360808603465557,-0.021271387115120888,-0.0053278058767318726
1.7294246024626903e+18,0.011025849729776382,-0.021051466464996338,-0.002550858538597822
1.7294246024686904e+18,0.014477365650236607,-0.01774728111922741,-0.0038912103045731783
1.7294246024746906e+18,0.012542578391730785,-0.018190652132034302,-0.0045469277538359165
1.7294246024776906e+18,0.012534089386463165,-0.016108714044094086,-0.00608814088627696
1.7294246024836908e+18,0.011085780337452888,-0.01718759909272194,-0.002324388362467289
1.729424602489691e+18,0.012181837111711502,-0.018035395070910454,-0.0021767178550362587
1.729424602495691e+18,0.0115338871255517,-0.017766838893294334,-0.006047835573554039
1.7294246025016911e+18,0.011528574861586094,-0.01746313087642193,-0.004625244531780481
1.7294246025046912e+18,0.008114729076623917,-0.01756872981786728,-0.0026805726811289787
1.7294246025106913e+18,0.008224978111684322,-0.018720969557762146,-0.004471093416213989
1.7294246025166915e+18,0.008551528677344322,-0.015286910347640514,-0.000992058776319027
1.7294246025226916e+18,0.009039933793246746,-0.01880614273250103,-0.004309020470827818
1.7294246025256916e+18,0.010680279694497585,-0.01895083673298359,-0.005514014512300491
1.7294246025316918e+18,0.013911573216319084,-0.01741175353527069,-0.005805750377476215
1.729424602537692e+18,0.01443477626889944,-0.014355521649122238,-0.006336149759590626
1.729424602543692e+18,0.018895691260695457,-0.016789577901363373,-0.004751261789351702
1.729424602546692e+18,0.01673314720392227,-0.01673630066215992,-0.0047589754685759544
1.7294246025526922e+18,0.016591543331742287,-0.015447041019797325,-0.005472858436405659
1.7294246025586924e+18,0.014379064552485943,-0.017075173556804657,-0.0039837416261434555
1.7294246025616924e+18,0.01893305592238903,-0.014839865267276764,-0.002306915121152997
1.7294246025676925e+18,0.014484022743999958,-0.012808365747332573,-0.007991591468453407
1.7294246025736927e+18,0.009812859818339348,-0.013167977333068848,-0.00777613976970315
1.7294246025796928e+18,0.01010243408381939,-0.012894699349999428,-0.005424956325441599
1.7294246025826929e+18,0.010896442458033562,-0.014496230520308018,-0.00600774260237813
1.729424602588693e+18,0.00798007007688284,-0.014726373367011547,-0.007275963202118874
1.729424602594693e+18,0.0076600429601967335,-0.017161309719085693,-0.0039738817140460014
1.7294246026006932e+18,0.01314625609666109,-0.015856768935918808,-0.0056204479187726974
1.7294246026036933e+18,0.012020468711853027,-0.016645392403006554,-0.004217582289129496
1.7294246026096934e+18,0.013785619288682938,-0.015865029767155647,-0.004118700511753559
1.7294246026156936e+18,0.014998852275311947,-0.01490737870335579,-0.006109409965574741
1.7294246026216937e+18,0.011429759673774242,-0.01411727350205183,-0.007759627886116505
1.7294246026246938e+18,0.01051372941583395,-0.014865834265947342,-0.005836726166307926
1.729424602630694e+18,0.011553294956684113,-0.01588357426226139,-0.007290314882993698
1.729424602636694e+18,0.007124197669327259,-0.01305511873215437,-0.0064423405565321445
1.7294246026426941e+18,0.006369094830006361,-0.01655561849474907,-0.005585760343819857
1.7294246026456942e+18,0.005670004058629274,-0.016764670610427856,-0.007931899279356003
1.7294246026516943e+18,0.005352853797376156,-0.015394703485071659,-0.007633813191205263
1.7294246026576945e+18,0.004141794517636299,-0.016103176400065422,-0.008149253204464912
1.7294246026636946e+18,0.0074858576990664005,-0.017883654683828354,-0.003637397661805153
1.7294246026666947e+18,0.00730582932010293,-0.01657109521329403,-0.006228250917047262
1.7294246026726948e+18,0.00822011660784483,-0.015849193558096886,-0.0020007463172078133
1.729424602678695e+18,0.007486090995371342,-0.018644390627741814,-0.007193216122686863
1.729424602681695e+18,0.009680574759840965,-0.015222752466797829,-0.007342654280364513
1.729424602687695e+18,0.009453058242797852,-0.017490888014435768,-0.007850393652915955
1.7294246026936952e+18,0.00964401662349701,-0.010778132826089859,-0.006628551986068487
1.7294246026966953e+18,0.008168365806341171,-0.011828802525997162,-0.008783657103776932
1.7294246027026954e+18,0.008323390036821365,-0.012636338360607624,-0.008381536230444908
1.7294246027086956e+18,0.008314902894198895,-0.013910016044974327,-0.005924413446336985
1.7294246027116956e+18,0.00858267117291689,-0.013434694148600101,-0.007130472455173731
1.7294246027176957e+18,0.005343107506632805,-0.011043780483305454,-0.0059529440477490425
1.7294246027236959e+18,0.008889937773346901,-0.013229302130639553,-0.007660508621484041
1.729424602729696e+18,0.005865658633410931,-0.016402997076511383,-0.008044060319662094
1.729424602732696e+18,0.005239209160208702,-0.01647031493484974,-0.005589801352471113
1.7294246027386962e+18,0.007670478895306587,-0.015325181186199188,-0.008288487792015076
1.7294246027446963e+18,0.00763041852042079,-0.016746876761317253,-0.006438256707042456
1.7294246027506964e+18,0.004521860741078854,-0.017520777881145477,-0.007438194938004017
1.7294246027536965e+18,0.008584678173065186,-0.014906443655490875,-0.0059998612850904465
1.7294246027596966e+18,0.011308474466204643,-0.014943143352866173,-0.007640567142516375
1.7294246027656968e+18,0.009547953493893147,-0.01614278182387352,-0.005019116215407848
1.7294246027686968e+18,0.0061829956248402596,-0.014466824941337109,-0.008681144565343857
1.729424602774697e+18,0.008923432789742947,-0.013317439705133438,-0.007464269641786814
1.729424602780697e+18,0.0052752806805074215,-0.01369983796030283,-0.006584316957741976
1.7294246027866972e+18,0.010006182827055454,-0.016065066680312157,-0.005335505120456219
1.7294246027896973e+18,0.004287878982722759,-0.018871068954467773,-0.007319636642932892
1.7294246027956974e+18,0.002749042585492134,-0.0167082492262125,-0.007281035650521517
1.7294246028016975e+18,0.009016602300107479,-0.015239683911204338,-0.008898815140128136
1.7294246028046976e+18,0.007789692375808954,-0.01907253824174404,-0.007849660702049732
1.7294246028106977e+18,0.00657237134873867,-0.015517115592956543,-0.008031726814806461
1.7294246028166979e+18,0.006750039756298065,-0.014694365672767162,-0.008972590789198875
1.729424602822698e+18,0.006243320647627115,-0.014134811237454414,-0.008618276566267014
1.729424602825698e+18,0.008663516491651535,-0.01045423187315464,-0.011810369789600372
1.7294246028316982e+18,0.003157735802233219,-0.012688327580690384,-0.006306368857622147
1.7294246028376983e+18,0.004855798557400703,-0.012415500357747078,-0.006117668934166431
1.7294246028436984e+18,0.0038736057467758656,-0.013173483312129974,-0.0064510987140238285
1.7294246028466985e+18,0.003377199172973633,-0.01158385630697012,-0.005663227289915085
1.7294246028526986e+18,0.004403832834213972,-0.012258256785571575,-0.006745256949216127
1.7294246028586988e+18,0.0006980753969401121,-0.01292148232460022,-0.006571521982550621
1.7294246028616988e+18,0.003561865072697401,-0.012469050474464893,-0.006620801519602537
1.729424602867699e+18,0.0019080303609371185,-0.01326862070709467,-0.005637403577566147
1.729424602873699e+18,0.004308378789573908,-0.012049724347889423,-0.007880410179495811
1.7294246028766991e+18,0.004625053144991398,-0.011470483615994453,-0.00469686184078455
1.7294246028826993e+18,0.0023914265912026167,-0.012406496331095695,-0.010259466245770454
1.7294246028886994e+18,0.005855380557477474,-0.011401113122701645,-0.010858077555894852
1.7294246028946995e+18,0.005907251965254545,-0.007379115559160709,-0.003146850038319826
1.7294246028976996e+18,0.004230726510286331,-0.011315939016640186,-0.007145029027014971
1.7294246029036997e+18,0.0031390530057251453,-0.00833977572619915,-0.0057637253776192665
1.7294246029096998e+18,0.005794736091047525,-0.012189274653792381,-0.008714578114449978
1.7294246029157e+18,0.003685941454023123,-0.011222991161048412,-0.006350628565996885
1.7294246029217e+18,0.0028239856474101543,-0.007811472751200199,-0.005982854403555393
1.7294246029247002e+18,0.002681615762412548,-0.009006454609334469,-0.00430387444794178
1.7294246029307003e+18,-0.0015257474733516574,-0.009297672659158707,-0.008743226528167725
1.7294246029367004e+18,0.0012473772512748837,-0.008599620312452316,-0.007071319036185741
1.7294246029397005e+18,-0.0001315218542004004,-0.010078816674649715,-0.0077576665207743645
1.7294246029457006e+18,-0.0017251379322260618,-0.011788668110966682,-0.005389483645558357
1.7294246029517007e+18,0.0013924739323556423,-0.009644409641623497,-0.008923333138227463
1.7294246029577009e+18,0.003000508528202772,-0.006751449313014746,-0.008017397485673428
1.729424602960701e+18,0.0003769604954868555,-0.0084467064589262,-0.010226098820567131
1.729424602966701e+18,-0.0003099879249930382,-0.009537397883832455,-0.006945822387933731
1.7294246029727012e+18,0.0019885257352143526,-0.011954045854508877,-0.008140935562551022
1.7294246029757012e+18,0.004484108649194241,-0.007327568717300892,-0.008974619209766388
1.7294246029817014e+18,0.0023462921380996704,-0.010756234638392925,-0.007445230148732662
1.7294246029877015e+18,0.0012353535275906324,-0.008785740472376347,-0.010199315845966339
1.7294246029937016e+18,6.98721269145608e-05,-0.008854352869093418,-0.00578717514872551
1.7294246029997018e+18,0.004715434275567532,-0.008595661260187626,-0.006002604030072689
1.7294246030027018e+18,-0.0006946281064301729,-0.00918649323284626,-0.007828841917216778
1.729424603008702e+18,0.0006414817762561142,-0.007621827069669962,-0.00849153846502304
1.729424603014702e+18,0.0012587292585521936,-0.007370489649474621,-0.007564247120171785
1.7294246030207022e+18,8.450870518572628e-05,-0.005086139775812626,-0.006272054277360439
1.7294246030237023e+18,-6.407019100151956e-05,-0.005510845687240362,-0.006930959410965443
1.7294246030297024e+18,0.0020796149037778378,-0.007649828679859638,-0.007542712148278952
1.7294246030357025e+18,0.0048862602561712265,-0.004001849330961704,-0.005585862789303064
1.7294246030387026e+18,0.00377495214343071,-0.0024641603231430054,-0.009555822238326073
1.7294246030447027e+18,0.0028960625641047955,-0.0047364444471895695,-0.006730922032147646
1.7294246030507028e+18,0.004901180509477854,-0.0027947458438575268,-0.007301424164324999
1.729424603053703e+18,0.003939805086702108,-0.004855347331613302,-0.008575540967285633
1.729424603059703e+18,0.002888815477490425,-0.0030768956057727337,-0.007671895902603865
1.7294246030657032e+18,0.0027843660209327936,-0.0032807607203722,-0.004456383176147938
1.7294246030687032e+18,0.0036257333122193813,-0.0026269457302987576,-0.006986331194639206
1.7294246030747034e+18,0.001911293133161962,-0.008193879388272762,-0.005967769306153059
1.7294246030807035e+18,0.0007783356122672558,-0.0017483155243098736,-0.008324285969138145
1.7294246030867036e+18,-0.0012857272522524,-0.0038133698981255293,-0.006482504773885012
1.7294246030927037e+18,0.0002768853446468711,-0.008873265236616135,-0.0074507854878902435
1.7294246030957038e+18,0.002167276106774807,-0.005033149383962154,-0.009301342070102692
1.729424603101704e+18,0.0014784596860408783,-0.0056167119182646275,-0.0056339106522500515
1.729424603107704e+18,0.0029566260054707527,-0.0023909644223749638,-0.006153876427561045
1.729424603110704e+18,-0.0023901285603642464,-0.0009945203782990575,-0.008832602761685848
1.7294246031167043e+18,0.0035568824969232082,-0.0047741481103003025,-0.0069795409217476845
1.7294246031227044e+18,7.084105163812637e-05,-0.002262840513139963,-0.005899882409721613
1.7294246031257044e+18,0.0024380756076425314,-6.356043741106987e-06,-0.007410445250570774
1.7294246031317046e+18,0.002671468537300825,0.001154941855929792,-0.004512622486799955
1.7294246031377047e+18,0.003740035928785801,-0.0014909295132383704,-0.005969479214400053
1.7294246031437048e+18,0.002880869898945093,-0.0016372734680771828,-0.007183837238699198
1.729424603146705e+18,-0.0004898051265627146,-0.0016622235998511314,-0.005469843279570341
1.729424603152705e+18,0.0011054767528548837,-0.0019984336104243994,-0.00906859990209341
1.7294246031587052e+18,-0.0015216958709061146,-0.003780272789299488,-0.004295310936868191
1.7294246031647053e+18,0.000558305240701884,-0.003771057818084955,-0.0063422126695513725
1.7294246031707054e+18,0.0006772131891921163,-0.001446892274543643,-0.006795560009777546
1.7294246031737055e+18,-0.0016856321599334478,-0.0051553500816226006,-0.007164254784584045
1.7294246031797056e+18,0.0006371950730681419,-0.005879095755517483,-0.006636385340243578
1.7294246031857057e+18,0.0026669958606362343,-0.002718973672017455,-0.006522882264107466
1.7294246031887058e+18,0.0008291354170069098,-0.004701849073171616,-0.005216741003096104
1.729424603194706e+18,0.0011750217527151108,-0.003925832454115152,-0.007772734388709068
1.729424603200706e+18,0.0009041180019266903,3.551488043740392e-05,-0.0053879134356975555
1.7294246032067062e+18,-0.00019797804998233914,0.0013456577435135841,-0.004209532402455807
1.7294246032097062e+18,-0.0005408998113125563,0.00040944316424429417,-0.0049976445734500885
1.7294246032157064e+18,-0.0011532159987837076,-0.0005150750512257218,-0.0057208351790905
1.7294246032217065e+18,-0.0025640148669481277,-0.0002698160242289305,-0.005854304879903793
1.7294246032247066e+18,-0.004282534122467041,-0.0013024630025029182,-0.003944382071495056
1.7294246032307067e+18,-0.001913977786898613,-0.000595126417465508,-0.00796269066631794
1.7294246032367068e+18,-0.004704615101218224,-0.0011486292351037264,-0.0030553105752915144
1.729424603242707e+18,-0.002556833904236555,-0.0024409552570432425,-0.004448065534234047
1.729424603245707e+18,-0.0008680399041622877,-0.0028581335209310055,-0.006716369651257992
1.7294246032517071e+18,0.0009192870929837227,-0.0013120095245540142,-0.004737154580652714
1.7294246032577073e+18,-0.0010156702483072877,-0.002582648303359747,-0.006383904255926609
1.7294246032637074e+18,0.0015306276036426425,0.0008433397160843015,-0.0025085825473070145
1.7294246032667075e+18,0.0005154266837053001,-0.0010910752462223172,-0.002746980171650648
1.7294246032727076e+18,-0.003871719352900982,-0.0009050428634509444,-0.002990875393152237
1.7294246032787077e+18,-0.0025548303965479136,0.0010673344368115067,-0.005228791385889053
1.7294246032817078e+18,-0.002489994512870908,0.0013735550455749035,-0.0034286421723663807
1.729424603287708e+18,-0.002597483340650797,-0.000288908660877496,-0.003978119697421789
1.729424603293708e+18,-0.0036744573153555393,-0.0029019340872764587,-0.003830204950645566
1.729424603296708e+18,-0.004459618590772152,-0.0003758830134756863,-0.0053393421694636345
1.7294246033027082e+18,-0.0003794855438172817,0.0018384690629318357,-0.0028647934086620808
1.7294246033087084e+18,-0.002890634350478649,-0.002267770003527403,-0.00608776044100523
1.7294246033147085e+18,-0.00471680099144578,-0.0011570313945412636,-0.0006268376018851995
1.7294246033177085e+18,-0.002367747249081731,-0.0012376438826322556,-0.003445285838097334
1.7294246033237087e+18,-0.004374726675450802,0.0019617315847426653,-0.0008884896524250507
1.7294246033297088e+18,-0.004564594943076372,0.0031730453483760357,-0.001963721588253975
1.7294246033327089e+18,-0.0014124437002465129,0.004003338050097227,-0.0025669599417597055
1.729424603338709e+18,-0.0008846616838127375,0.003947134129703045,-0.004113990813493729
1.729424603344709e+18,-0.0023488462902605534,0.004368254914879799,-0.0013286994071677327
1.7294246033507092e+18,-0.001248963293619454,0.005075633525848389,-0.003278836142271757
1.7294246033537093e+18,0.0016928797122091055,0.001322457566857338,-0.004982535727322102
1.7294246033597094e+18,-0.000906703295186162,0.0015623666113242507,-0.002943174447864294
1.7294246033657096e+18,0.001741283223964274,0.0022562926169484854,-0.0016877867747098207
1.7294246033687096e+18,0.005047494079917669,0.0022334037348628044,-0.0030892137438058853
1.7294246033747098e+18,0.0036908783949911594,0.0020702776964753866,0.0018397350795567036
1.72942460338071e+18,0.004917354788631201,0.004448525607585907,-0.0025574909523129463
1.72942460338371e+18,0.0010334502439945936,-0.0003830085042864084,-8.7665393948555e-06
1.72942460338971e+18,0.0010613948106765747,0.002454507164657116,-0.002177715767174959
1.7294246033957102e+18,0.0008846354903653264,0.005724049638956785,-4.051870200783014e-05
1.7294246034017103e+18,-0.003094650339335203,0.008562585338950157,-0.001608279999345541
1.7294246034047104e+18,-0.0018329021986573935,0.006003503687679768,-0.00181623047683388
1.7294246034107105e+18,-0.0004964745021425188,0.007507856469601393,-0.002162908436730504
1.7294246034167107e+18,-0.0028940164484083652,0.003009089035913348,-0.00014403683599084616
1.7294246034197107e+18,0.003310327185317874,0.00823872908949852,0.00012776500079780817
1.7294246034257108e+18,-0.0005292504793033004,0.006546291057020426,-0.004170779138803482
1.729424603431711e+18,0.0018352395854890347,0.005460897460579872,-0.0015905859181657434
1.729424603437711e+18,0.0016969897551462054,0.005075950175523758,-0.002216293942183256
1.7294246034407112e+18,0.007221469655632973,0.002777997637167573,-0.0016935421153903008
1.7294246034467113e+18,0.004247366916388273,0.00574817368760705,-0.0018610290717333555
1.7294246034527114e+18,0.002635764656588435,0.002739496296271682,-0.00152547936886549
1.7294246034557115e+18,0.006876190658658743,0.004275098908692598,0.0004892611177638173
1.7294246034617116e+18,0.0027444963343441486,0.002206462435424328,-0.0004618260427378118
1.7294246034677117e+18,-0.0014294690918177366,0.004438421688973904,0.0009934436529874802
1.7294246034737119e+18,-0.001163769862614572,0.005596490576863289,0.0003488524234853685
1.729424603476712e+18,0.0010057215113192797,0.006067200098186731,-0.0024718204513192177
1.729424603482712e+18,-0.0006188531406223774,0.005816376768052578,-0.0003087137301918119
1.7294246034887122e+18,-0.0028614122420549393,0.007561368867754936,4.417533637024462e-05
1.7294246034947123e+18,-0.0016433818964287639,0.00567962322384119,9.72235866356641e-05
1.7294246034977124e+18,-0.000908024434465915,0.009287983179092407,-0.001819077879190445
1.7294246035037125e+18,-0.002008459996432066,0.006991526577621698,0.0007864926010370255
1.7294246035097126e+18,-0.0022295911330729723,0.0025732992216944695,0.0005885662976652384
1.7294246035157128e+18,0.003846338950097561,0.007193118333816528,0.0029931438621133566
1.7294246035187128e+18,0.0017591415671631694,0.002786261262372136,-0.00042804930126294494
1.729424603524713e+18,0.0018850542837753892,0.005404807161539793,6.084093183744699e-05
1.729424603530713e+18,-0.00019027182133868337,0.00458407960832119,0.0016073303995653987
1.7294246035367132e+18,-0.0035494284238666296,0.0021728610154241323,-0.0009031958179548383
1.7294246035397133e+18,-0.0029695869889110327,0.005908773746341467,-0.0003707802388817072
1.7294246035457134e+18,-0.0026304051280021667,0.006674048490822315,-0.0011901342077180743
1.7294246035517135e+18,-0.0021931936498731375,0.005034816917032003,-3.294629277661443e-05
1.7294246035547136e+18,-0.0032327543012797832,0.0039058509282767773,0.0010736621916294098
1.7294246035607137e+18,0.001365435542538762,0.007541589438915253,0.0037478480953723192
1.7294246035667139e+18,0.0034491175319999456,0.007919931784272194,-0.0003232769086025655
1.729424603572714e+18,0.002990147564560175,0.006980834528803825,0.002900774823501706
1.729424603575714e+18,-0.0009260214865207672,0.006694622337818146,0.0015664675738662481
1.7294246035817142e+18,0.0025055413134396076,0.006105936598032713,0.0012856279499828815
1.7294246035877143e+18,0.002974030328914523,0.003729688236489892,0.0022739784326404333
1.7294246035907144e+18,-0.0005325619131326675,0.004457839764654636,-0.0021149725653231144
1.7294246035967145e+18,-0.0008357136975973845,0.0072622150182724,0.004290553275495768
1.7294246036027146e+18,-0.0007750615477561951,0.008663875982165337,-0.0013756654225289822
1.7294246036057147e+18,-0.0008698559831827879,0.0030954519752413034,0.0005791691364720464
1.7294246036117148e+18,-0.005193017423152924,0.006282279267907143,-0.00045669241808354855
1.729424603617715e+18,-0.007148039527237415,0.0053140888921916485,0.0026366133242845535
1.729424603623715e+18,-0.008076686412096024,0.006523554213345051,0.00021401431877166033
1.7294246036267151e+18,-0.00454296451061964,0.00759816262871027,7.478008046746254e-05
1.7294246036327153e+18,-0.003601042553782463,0.005556819029152393,0.002434538910165429
1.7294246036387154e+18,-0.004479536321014166,0.002751343883574009,0.0007657832466065884
1.7294246036417155e+18,-0.0014263908378779888,0.0062579140067100525,-0.00023883488029241562
1.7294246036477156e+18,-0.0012345683062449098,0.009268665686249733,0.006485789082944393
1.7294246036537157e+18,-0.001248350366950035,0.005786024034023285,0.00024129461962729692
1.7294246036597158e+18,-0.00025162892416119576,0.005998160690069199,0.0029207696206867695
1.729424603662716e+18,-0.002222811570391059,0.009269630536437035,0.00089029292576015
1.729424603668716e+18,0.0009030643850564957,0.006724843289703131,0.002846077550202608
1.7294246036747162e+18,-0.003231964074075222,0.003652585204690695,0.000874298915732652
1.7294246036807163e+18,-0.0060091749764978886,0.005222601350396872,0.004072444513440132
1.7294246036837164e+18,-0.006261179689317942,0.00425980519503355,0.0016268568579107523
1.7294246036897165e+18,-0.0073561291210353374,0.002500752452760935,0.003402723465114832
1.7294246036957166e+18,-0.00626228004693985,0.003125095507130027,0.0009748326847329736
1.7294246037017167e+18,-0.005955541506409645,0.004818693269044161,0.00383870885707438
1.7294246037047168e+18,-0.005302565637975931,0.004196147434413433,0.0020521616097539663
1.729424603710717e+18,-0.006031440570950508,0.006370144430547953,-3.981799818575382e-05
1.729424603716717e+18,-0.004357114899903536,0.009268119931221008,0.0028807567432522774
1.7294246037227172e+18,-0.0020194868557155132,0.006612217053771019,0.0016713670920580626
1.7294246037257172e+18,0.0018769432790577412,0.006684141233563423,0.002658303827047348
1.7294246037317174e+18,-0.0006367245223373175,0.007921149022877216,0.0030119107104837894
1.7294246037377175e+18,-0.0006881968583911657,0.007596611510962248,0.0027228668332099915
1.7294246037437176e+18,-0.0014484936837106943,0.0073731327429413795,0.0035046495031565428
1.7294246037467177e+18,-0.0008001678506843746,0.008115221746265888,-0.00019207806326448917
1.7294246037527178e+18,-0.0015904465690255165,0.002538133878260851,-0.0003441120497882366
1.729424603758718e+18,3.855116665363312e-05,0.007002122700214386,0.004275335930287838
1.729424603761718e+18,-0.004701580852270126,0.007200891617685556,0.005605894140899181
1.7294246037677181e+18,-0.0017979055410251021,0.008223280310630798,0.0036810971796512604
1.7294246037737183e+18,-0.003596899099647999,0.006244136020541191,0.0016839767340570688
1.7294246037797184e+18,-0.0018998669693246484,0.010302586480975151,0.002238627290353179
1.7294246037827185e+18,-0.0014859943185001612,0.009312203153967857,0.003913148306310177
1.7294246037887186e+18,-0.0024108293000608683,0.01215808093547821,0.0026291136164218187
1.7294246037947187e+18,-0.0036453441716730595,0.011221389286220074,0.0036961790174245834
1.7294246037977188e+18,-0.0026422806549817324,0.005524853710085154,0.003996802028268576
1.729424603803719e+18,-0.0015810877084732056,0.00982290506362915,0.0015260727377608418
1.729424603809719e+18,-0.0009722752729430795,0.008291708305478096,0.00428824732080102
1.729424603812719e+18,-0.0012670103460550308,0.00850692018866539,0.003336024470627308
1.7294246038187192e+18,0.0003701841924339533,0.006744933780282736,0.0023354743607342243
1.7294246038247194e+18,-0.0014514648355543613,0.006504177115857601,0.0030745086260139942
1.7294246038277194e+18,-0.004967515356838703,0.004624825436621904,0.0037512900307774544
1.7294246038337196e+18,-0.0032333089038729668,0.00768160168081522,0.0035228547640144825
1.7294246038397197e+18,-0.003207668662071228,0.0068192873150110245,0.005476449616253376
1.7294246038457198e+18,-0.007106149103492498,0.005838521756231785,0.003999804612249136
1.72942460384872e+18,-0.003964674659073353,0.00757500808686018,0.00237550912424922
1.72942460385472e+18,0.00025076698511838913,0.00835905596613884,0.0049288044683635235
1.72942460386072e+18,-0.002105503110215068,0.011426722630858421,0.00420175027102232
1.7294246038637202e+18,-0.003298340365290642,0.00848100334405899,0.002352337120100856
1.7294246038697203e+18,-0.001837011892348528,0.008123284205794334,0.00013012089766561985
1.7294246038757204e+18,8.73905373737216e-05,0.009697632864117622,0.0031372257508337498
1.7294246038817206e+18,0.0019190275343135,0.008531764149665833,0.003026365302503109
1.7294246038847206e+18,-0.002983521670103073,0.006216145120561123,0.0017172715160995722
1.7294246038907208e+18,-0.0015182181959971786,0.004373593721538782,0.004520570393651724
1.729424603896721e+18,-0.003502734936773777,0.003538182470947504,0.0024721091613173485
1.729424603902721e+18,-0.00223235203884542,0.0031951223500072956,0.0028410376980900764
1.729424603905721e+18,-0.006428282707929611,0.007625530939549208,0.0009148832177743316
1.7294246039117212e+18,-0.004943878389894962,0.006901423446834087,0.0016289574559777975
1.7294246039177213e+18,-0.004848942626267672,0.009240159764885902,0.0031915439758449793
1.7294246039207214e+18,-0.003362717805430293,0.0047525325790047646,0.003216114826500416
1.7294246039267215e+18,-0.0016267818864434958,0.010497319512069225,0.0029772042762488127
1.7294246039327217e+18,-0.005244300700724125,0.008050553500652313,0.0016283232253044844
1.7294246039387218e+18,0.00032173004001379013,0.007172979414463043,0.002262891735881567
1.729424603944722e+18,-0.0004976100753992796,0.006822254974395037,0.003147512674331665
1.729424603947722e+18,-0.002026489470154047,0.007465470116585493,0.003624792443588376
1.729424603953722e+18,-0.0034818751737475395,0.008640593849122524,0.0003318366361781955
1.7294246039597222e+18,-0.0016577099449932575,0.007574675604701042,0.0013857957674190402
1.7294246039627223e+18,-0.004416060168296099,0.007267328444868326,0.003681799629703164
1.7294246039687224e+18,-0.00461510568857193,0.005666743032634258,0.0005784420063719153
1.7294246039747226e+18,-0.006928438786417246,0.008828723803162575,0.004885456059128046
1.7294246039807227e+18,-0.004910227842628956,0.00969570130109787,0.001197196077555418
1.7294246039867228e+18,-0.00469725439324975,0.008757922798395157,0.0010879039764404297
1.729424603992723e+18,-0.006189495325088501,0.007159193977713585,0.0023977747187018394
1.729424603995723e+18,-0.006045004352927208,0.006234386935830116,0.0018142490880563855
1.7294246040017231e+18,-0.0032680886797606945,0.0058878036215901375,0.0005249814130365849
1.7294246040077233e+18,-0.0031999037601053715,0.008564705960452557,0.001803213614039123
1.7294246040107233e+18,-0.0003543251659721136,0.007900573313236237,0.0005093668587505817
1.7294246040167235e+18,0.0004507964476943016,0.004203002899885178,-0.0004325795453041792
1.7294246040227236e+18,-0.002174765570089221,0.00549352215602994,0.0027835159562528133
1.7294246040287237e+18,-0.003234499366953969,0.008521024137735367,0.0012520671589300036
1.7294246040317238e+18,-0.0012763026170432568,0.006000376306474209,0.00019416108261793852
1.729424604037724e+18,-0.004104080144315958,0.003973574377596378,0.0019491587299853563
1.729424604043724e+18,-0.006653817370533943,0.004557843320071697,0.0014801480574533343
1.7294246040497242e+18,-0.007969968020915985,0.004933427087962627,-0.005216548684984446
1.7294246040527242e+18,-0.011745000258088112,0.0011408214922994375,-0.013731881976127625
1.7294246040587244e+18,-0.016128769144415855,-2.391892485320568e-05,-0.017389636486768723
1.7294246040647245e+18,-0.02055472694337368,-0.003562625963240862,-0.021667534485459328
1.7294246040677245e+18,-0.02444245107471943,-0.0043311091139912605,-0.02124340645968914
1.7294246040737247e+18,-0.02637568674981594,-0.010690038092434406,-0.0215761698782444
1.7294246040797248e+18,-0.025617584586143494,-0.007384517230093479,-0.019888270646333694
1.729424604085725e+18,-0.0257936529815197,-0.00738330977037549,-0.020347241312265396
1.729424604088725e+18,-0.021188972517848015,-0.008921094238758087,-0.02257218398153782
1.729424604094725e+18,-0.02391018718481064,-0.001776993740350008,-0.01967906765639782
1.7294246041007252e+18,-0.018987882882356644,-0.0011746848467737436,-0.02204030565917492
1.7294246041037253e+18,-0.019004514440894127,-0.0028819888830184937,-0.021482590585947037
1.7294246041097254e+18,-0.017762623727321625,-0.0015610745176672935,-0.025299612432718277
1.7294246041157256e+18,-0.0203618835657835,-0.0014063050039112568,-0.020477117970585823
1.7294246041217257e+18,-0.017306089401245117,0.0014335890300571918,-0.02031974494457245
1.7294246041247258e+18,-0.019086260348558426,-0.002536675427109003,-0.023608040064573288
1.729424604130726e+18,-0.02041131816804409,-0.002775173867121339,-0.020704487338662148
1.729424604136726e+18,-0.02442019060254097,-0.0014625022886320949,-0.02048167958855629
1.729424604139726e+18,-0.02163228951394558,-0.0037365274038165808,-0.017570067197084427
1.7294246041457262e+18,-0.023474164307117462,-0.0028539644554257393,-0.01979035697877407
1.7294246041517263e+18,-0.022571558132767677,0.002160842064768076,-0.01762719266116619
1.7294246041577265e+18,-0.02305048517882824,-0.003216683166101575,-0.017873352393507957
1.7294246041607265e+18,-0.01647242158651352,-0.001481016748584807,-0.01592273637652397
1.7294246041667267e+18,-0.013769598677754402,0.004718630574643612,-0.011712324805557728
1.7294246041727268e+18,-0.015677539631724358,0.003261780831962824,-0.013308277353644371
1.729424604178727e+18,-0.007958721369504929,0.0045992182567715645,-0.009511785581707954
1.729424604181727e+18,-0.011141197755932808,0.0014437853824347258,-0.009287023916840553
1.729424604187727e+18,-0.008670714683830738,0.0054900613613426685,-0.007759856525808573
1.7294246041937272e+18,-0.007569417357444763,0.007005033083260059,-0.007094345521181822
1.7294246041967273e+18,-0.00696985749527812,0.005190498195588589,-0.00509956618770957
1.7294246042027274e+18,-0.008072245866060257,0.005370320286601782,-0.0008976333774626255
1.7294246042087276e+18,-0.012377265840768814,0.005598306190222502,-0.00040581414941698313
1.7294246042147277e+18,-0.008296694606542587,0.0030765593983232975,0.0017394028836861253
1.7294246042207278e+18,-0.008866947144269943,0.0038363372441381216,0.0027645945083349943
1.7294246042237279e+18,-0.006063415668904781,0.004337819758802652,0.0025550276041030884
1.729424604229728e+18,-0.004825417883694172,0.003675007028505206,0.006828111596405506
1.7294246042357281e+18,-0.0009548569796606898,0.006606947630643845,0.010547355748713017
1.7294246042417283e+18,0.00013171171303838491,0.009024661965668201,0.008799844421446323
1.7294246042447283e+18,0.0014073129277676344,0.01364457793533802,0.013438976369798183
1.7294246042507284e+18,0.005230296868830919,0.00957748293876648,0.01803661696612835
1.7294246042567286e+18,0.001722057699225843,0.011265167966485023,0.020508326590061188
1.7294246042627287e+18,0.0014725527726113796,0.012261290103197098,0.023068508133292198
1.7294246042687288e+18,0.0020014008041471243,0.011530376970767975,0.028382327407598495
1.729424604271729e+18,0.0024853553622961044,0.009076342917978764,0.025371184572577477
1.729424604277729e+18,0.00027084955945611,0.010250844061374664,0.030784495174884796
1.7294246042837292e+18,0.004656539764255285,0.012538461945950985,0.03368665650486946
1.7294246042897293e+18,2.914904325734824e-05,0.008259404450654984,0.03775275871157646
1.7294246042927293e+18,-0.0012571933912113309,0.011723791249096394,0.03455468267202377
1.7294246042987295e+18,0.0016865851357579231,0.01286410540342331,0.04039604216814041
1.7294246043047296e+18,0.0007567599532194436,0.01427515409886837,0.04586848244071007
1.7294246043077297e+18,0.0029655592516064644,0.012439732439815998,0.045633088797330856
1.7294246043137298e+18,0.002793945837765932,0.013138714246451855,0.04890497401356697
1.72942460431973e+18,0.0010425536893308163,0.01549308467656374,0.05522714927792549
1.72942460432573e+18,0.004220078699290752,0.016482848674058914,0.05715020000934601
1.7294246043317302e+18,0.0030658170580863953,0.016753872856497765,0.05848885327577591
1.7294246043347302e+18,0.005702825263142586,0.01688501052558422,0.06296990066766739
1.7294246043407304e+18,0.0069284867495298386,0.015912992879748344,0.06386993825435638
1.7294246043467305e+18,0.00914723426103592,0.011824437417089939,0.06811664253473282
1.7294246043497306e+18,0.005571906454861164,0.013378075323998928,0.07112885266542435
1.7294246043557307e+18,0.006621258333325386,0.011485924944281578,0.07368091493844986
1.7294246043617308e+18,0.0027053835801780224,0.011572714895009995,0.07623731344938278
1.729424604367731e+18,0.00634017214179039,0.010731103830039501,0.0807117447257042
1.729424604370731e+18,0.006289937067776918,0.013097426854074001,0.08494455367326736
1.7294246043767311e+18,0.0028356576804071665,0.012256510555744171,0.08621078729629517
1.7294246043827313e+18,0.005889119580388069,0.012292392551898956,0.08875221759080887
1.7294246043857313e+18,0.00410411087796092,0.014710096642374992,0.09112010151147842
1.7294246043917315e+18,0.00562331173568964,0.009665372781455517,0.0944746881723404
1.7294246043977316e+18,0.003665463300421834,0.012050730176270008,0.0975019782781601
1.7294246044007316e+18,0.0023470325395464897,0.01134756300598383,0.10120055824518204
1.7294246044067318e+18,0.00804553646594286,0.01308983750641346,0.10790020227432251
1.729424604412732e+18,0.006461128126829863,0.013627397827804089,0.10594826936721802
1.729424604418732e+18,0.004897724371403456,0.00862879678606987,0.10783062130212784
1.7294246044247322e+18,0.005140205379575491,0.01116478443145752,0.11150018125772476
1.7294246044277322e+18,0.003832470392808318,0.0074823228642344475,0.11652809381484985
1.7294246044337324e+18,0.0042176698334515095,0.010613265447318554,0.11586242914199829
1.7294246044397325e+18,0.0015313336625695229,0.012766976840794086,0.11867212504148483
1.7294246044427325e+18,0.0024024571757763624,0.01072673499584198,0.12156149744987488
1.7294246044487327e+18,-0.0010975701734423637,0.009817203506827354,0.12403827160596848
1.7294246044547328e+18,-0.00028683588607236743,0.011111426167190075,0.12904301285743713
1.729424604460733e+18,-0.00022200452804099768,0.009960580617189407,0.12881408631801605
1.729424604466733e+18,-0.0009434240637347102,0.009056427516043186,0.13383834064006805
1.729424604469733e+18,0.0005523419240489602,0.00927430484443903,0.13663342595100403
1.7294246044757332e+18,0.0027537522837519646,0.007095026783645153,0.1357666403055191
1.7294246044817334e+18,0.0035991580225527287,0.006137222982943058,0.1400727927684784
1.7294246044877335e+18,0.003163450164720416,0.0077804336324334145,0.14070147275924683
1.7294246044937336e+18,0.002929987385869026,0.01001360546797514,0.14447572827339172
1.7294246044967337e+18,0.007222495973110199,0.005537013057619333,0.14507760107517242
1.7294246045027338e+18,0.0023521180264651775,0.010225732810795307,0.1489749699831009
1.729424604508734e+18,0.0014270790852606297,0.012077879160642624,0.15052272379398346
1.729424604514734e+18,0.0028480219189077616,0.010504433885216713,0.15448373556137085
1.7294246045177341e+18,-0.00022036669543012977,0.010206898674368858,0.15260428190231323
1.7294246045237343e+18,-0.003436204046010971,0.008396772667765617,0.15590175986289978
1.7294246045297344e+18,-0.0006258695502765477,0.0095179108902812,0.15844658017158508
1.7294246045357345e+18,0.000787600758485496,0.01343618705868721,0.16042107343673706
1.7294246045387346e+18,0.0006624943343922496,0.013766417279839516,0.16167789697647095
1.7294246045447347e+18,0.0008440061938017607,0.011082716286182404,0.1649736613035202
1.7294246045507348e+18,0.0050880867056548595,0.010793255642056465,0.16376374661922455
1.729424604556735e+18,0.0003196315374225378,0.01148960366845131,0.16758830845355988
1.729424604559735e+18,8.996226824820042e-05,0.012705784291028976,0.1684965342283249
1.7294246045657352e+18,0.0033533205278217793,0.009738565422594547,0.1686524897813797
1.7294246045717353e+18,0.0033144797198474407,0.009317304007709026,0.16997909545898438
1.7294246045747354e+18,0.0017740515759214759,0.014377676881849766,0.17210684716701508
1.7294246045807355e+18,-0.0014134321827441454,0.013211068697273731,0.17436838150024414
1.7294246045867356e+18,-0.0008818028727546334,0.011480165645480156,0.17104479670524597
1.7294246045897357e+18,-0.0009617027244530618,0.011660014279186726,0.1755916178226471
1.7294246045957358e+18,-0.0019082608632743359,0.01143534854054451,0.176289901137352
1.729424604601736e+18,-0.003168975468724966,0.0093919662758708,0.17787793278694153
1.729424604607736e+18,-0.00350418733432889,0.010425220243632793,0.17674492299556732
1.729424604610736e+18,-0.0031272154301404953,0.012125834822654724,0.1795215755701065
1.7294246046167363e+18,-0.004871294368058443,0.009732518345117569,0.17929811775684357
1.7294246046227364e+18,0.0001817459997255355,0.010869855992496014,0.1810116469860077
1.7294246046257364e+18,-0.0005149641074240208,0.0117337042465806,0.18047845363616943
1.7294246046317366e+18,-0.0013179648667573929,0.011735494248569012,0.1825566589832306
1.7294246046377367e+18,0.001453883247449994,0.011233270168304443,0.18408222496509552
1.7294246046437368e+18,0.004322700202465057,0.011911633424460888,0.1849772185087204
1.729424604646737e+18,0.006128798238933086,0.011616184376180172,0.18429780006408691
1.729424604652737e+18,0.0033296511974185705,0.012353785336017609,0.18547141551971436
1.7294246046587372e+18,0.006332729943096638,0.008716062642633915,0.18675118684768677
1.7294246046647373e+18,-0.0010822996264323592,0.005154606886208057,0.18609419465065002
1.7294246046677373e+18,0.0011888202279806137,0.004203496500849724,0.18817001581192017
1.7294246046737375e+18,-0.0016650429461151361,0.010188421234488487,0.185287207365036
1.7294246046797376e+18,-0.005741171073168516,0.0069093406200408936,0.18671676516532898
1.7294246046827377e+18,-0.0023362464271485806,0.010099287144839764,0.18888777494430542
1.7294246046887378e+18,-0.004313111305236816,0.012541470117866993,0.19048334658145905
1.729424604694738e+18,-0.005450237542390823,0.011155652813613415,0.18586568534374237
1.729424604700738e+18,0.0024424840230494738,0.010388979688286781,0.18798251450061798
1.729424604703738e+18,0.001065265154466033,0.010188853368163109,0.186734139919281
1.7294246047097382e+18,0.0014887708239257336,0.010508449748158455,0.18705695867538452
1.7294246047157384e+18,0.002843905007466674,0.011860711500048637,0.18826523423194885
1.7294246047217385e+18,0.003349634585902095,0.009493386372923851,0.18523670732975006
1.7294246047247386e+18,0.0028893048875033855,0.010281406342983246,0.18840906023979187
1.7294246047307387e+18,-0.0011800493812188506,0.00879292655736208,0.1886337548494339
1.7294246047367388e+18,-0.0010918763000518084,0.009627262130379677,0.1894630491733551
1.729424604742739e+18,-0.0003903784090653062,0.01115015521645546,0.1892395317554474
1.729424604745739e+18,-0.002055851276963949,0.009297382086515427,0.18799199163913727
1.7294246047517391e+18,-0.005077765788882971,0.0076813604682683945,0.19041578471660614
1.7294246047577393e+18,0.00023168092593550682,0.009098493494093418,0.18985769152641296
1.7294246047637394e+18,-0.005213427823036909,0.008617280051112175,0.1835453361272812
1.7294246047667395e+18,-0.0016197985969483852,0.008213186636567116,0.18656761944293976
1.7294246047727396e+18,-0.0028577588964253664,0.008902963250875473,0.18516899645328522
1.7294246047787397e+18,-0.0016156170750036836,0.011175689287483692,0.18887090682983398
1.7294246047847398e+18,-0.0005399345536716282,0.00821803417056799,0.18644598126411438
1.72942460478774e+18,0.00125217589084059,0.00846521183848381,0.1849585920572281
1.72942460479374e+18,-0.00032850689603947103,0.013217584230005741,0.1868131309747696
1.7294246047997402e+18,0.00032872482552193105,0.009987916797399521,0.1832933872938156
1.7294246048027402e+18,0.002262200228869915,0.010498208925127983,0.18371957540512085
1.7294246048087404e+18,-0.001532691065222025,0.008238958194851875,0.18414419889450073
1.7294246048147405e+18,0.0018338816007599235,0.009173015132546425,0.18107353150844574
1.7294246048177405e+18,-6.009193020872772e-05,0.007613303139805794,0.17932838201522827
1.7294246048237407e+18,-0.0013937810435891151,0.007083747535943985,0.17994986474514008
1.7294246048297408e+18,0.0010616378858685493,0.006721748039126396,0.17975136637687683
1.729424604835741e+18,0.0019614093471318483,0.006121686659753323,0.177201047539711
1.729424604838741e+18,0.003278265008702874,0.005423629190772772,0.17735655605793
1.729424604844741e+18,0.001287063816562295,0.006881010252982378,0.1739778369665146
1.7294246048507412e+18,0.0016873095883056521,0.00946841761469841,0.17675307393074036
1.7294246048567414e+18,0.002231437247246504,0.009314114227890968,0.17329320311546326
1.7294246048627415e+18,-0.002038823440670967,0.0057744369842112064,0.17425459623336792
1.7294246048657416e+18,-0.0004973463364876807,0.004652827978134155,0.17591600120067596
1.7294246048717417e+18,0.0010029483819380403,0.0060223001055419445,0.17187939584255219
1.7294246048777418e+18,0.001356365391984582,0.007431698963046074,0.16922909021377563
1.729424604880742e+18,0.0003153475117869675,0.004206307698041201,0.17027612030506134
1.729424604886742e+18,0.00231112795881927,0.0059549035504460335,0.16812388598918915
1.7294246048927421e+18,0.0015137207228690386,0.008009202778339386,0.16868790984153748
1.7294246048987423e+18,0.0015417346730828285,0.004028248135000467,0.16472141444683075
1.7294246049047424e+18,0.002591894706711173,0.008974025957286358,0.16429054737091064
1.7294246049077425e+18,0.001649410231038928,0.006919569335877895,0.167507603764534
1.7294246049137426e+18,0.00017586146714165807,0.007598698139190674,0.16482384502887726
1.7294246049197427e+18,0.0002324764645891264,0.006908948998898268,0.15893633663654327
1.7294246049257428e+18,-0.00035790150286629796,0.00669845612719655,0.1613897830247879
1.729424604928743e+18,-0.0027664764784276485,0.00384919042699039,0.16043071448802948
1.729424604934743e+18,-0.00010448601096868515,0.005486094858497381,0.15621498227119446
1.7294246049407432e+18,0.001958834007382393,0.0061576273292303085,0.15317213535308838
1.7294246049467433e+18,0.002866653725504875,0.007410822436213493,0.15309001505374908
1.7294246049497434e+18,0.0011483489070087671,0.005617968272417784,0.15246298909187317
1.7294246049557435e+18,0.0038888705894351006,0.007316114380955696,0.1516890823841095
1.7294246049617436e+18,0.0012462791055440903,0.0070299142971634865,0.15383389592170715
1.7294246049677437e+18,0.00357236061245203,0.0055930824019014835,0.15192042291164398
1.7294246049707438e+18,-0.0005800814833492041,0.0042360201478004456,0.14941461384296417
1.729424604976744e+18,-8.479482494294643e-05,0.006803584285080433,0.14782537519931793
1.729424604982744e+18,-0.0028498354367911816,0.0019475012086331844,0.14588484168052673
1.7294246049887442e+18,-0.002036629244685173,0.002922706538811326,0.14505435526371002
1.7294246049947443e+18,-0.004473747219890356,0.0036633326672017574,0.14617745578289032
1.7294246049977444e+18,-0.0030304542742669582,0.0033760354854166508,0.14266841113567352
1.7294246050037445e+18,-0.004061774350702763,0.009163287468254566,0.13674244284629822
1.7294246050097446e+18,0.0010304213501513004,0.009279749356210232,0.13827085494995117
1.7294246050127447e+18,0.0005115125677548349,0.008690965361893177,0.13420924544334412
1.729424605021745e+18,0.0063485633581876755,0.009271037764847279,0.13520337641239166
1.729424605027745e+18,0.004841228947043419,0.0069238608703017235,0.13146495819091797
1.729424605030745e+18,0.00516272010281682,0.008531793020665646,0.13113000988960266
1.7294246050367452e+18,0.0070457858964800835,0.007407958619296551,0.1292303502559662
1.7294246050427453e+18,0.0016189846210181713,0.005576437339186668,0.12647205591201782
1.7294246050487455e+18,0.0023011849261820316,0.0068368795327842236,0.12247241288423538
1.7294246050517455e+18,0.0007149830344133079,0.006197697017341852,0.12451710551977158
1.7294246050577457e+18,0.0020341461058706045,0.006199706345796585,0.12275592982769012
1.7294246050637458e+18,-0.0019995104521512985,0.0032553805503994226,0.1217917948961258
1.7294246050667459e+18,-0.004205489065498114,0.00532023748382926,0.12039325386285782
1.729424605072746e+18,-0.0015083346515893936,0.007897934876382351,0.11835896223783493
1.729424605078746e+18,-0.0006653820746578276,0.007854177616536617,0.11755837500095367
1.7294246050847462e+18,0.00309809111058712,0.009356237016618252,0.11150333285331726
1.7294246050877463e+18,0.0034375451505184174,0.007749305572360754,0.11487583816051483
1.7294246050937464e+18,0.004216954577714205,0.00873455312103033,0.10954068601131439
1.7294246050997466e+18,0.006043199449777603,0.007088851183652878,0.10642623901367188
1.7294246051057467e+18,0.0035332953557372093,0.00431168545037508,0.1065375804901123
1.7294246051087468e+18,0.002634190022945404,0.007425232790410519,0.1045796275138855
1.729424605114747e+18,0.0014675112906843424,0.006337268278002739,0.10651867091655731
1.729424605120747e+18,-0.003495902754366398,0.0064176395535469055,0.10205745697021484
1.729424605123747e+18,-0.005606381222605705,0.009853236377239227,0.1018102765083313
1.7294246051297472e+18,-0.003496945835649967,0.006991542410105467,0.09784848242998123
1.7294246051357473e+18,-0.005405374336987734,0.010899526067078114,0.1003054529428482
1.7294246051417475e+18,-0.0034261485561728477,0.006982761900871992,0.09666229784488678
1.7294246051447475e+18,-0.0034467591904103756,0.008867957629263401,0.09502995759248734
1.7294246051507476e+18,-0.0003245357656851411,0.007379500661045313,0.09398408234119415
1.7294246051567478e+18,0.0012388331815600395,0.010124677792191505,0.0943932980298996
1.7294246051597478e+18,0.0004499673377722502,0.007388331461697817,0.09098164737224579
1.729424605165748e+18,0.004260346293449402,0.007560063619166613,0.0889064222574234
1.729424605171748e+18,0.005771181080490351,0.007970091886818409,0.08781507611274719
1.7294246051777482e+18,0.003642939031124115,0.008794805034995079,0.08731717616319656
1.7294246051807483e+18,0.004086751025170088,0.007259384263306856,0.08269553631544113
1.7294246051867484e+18,0.00195840816013515,0.007614091970026493,0.08179666846990585
1.7294246051927485e+18,0.0016347890486940742,0.009817944839596748,0.07996238023042679
1.7294246051987487e+18,0.00035500229569152,0.00558320339769125,0.07904547452926636
1.7294246052047488e+18,-0.0018510138615965843,0.010212844237685204,0.07340948283672333
1.7294246052077489e+18,-0.0018900553695857525,0.007198548410087824,0.07596587389707565
1.729424605213749e+18,-6.2521081417799e-05,0.0055629597045481205,0.07550165802240372
1.729424605219749e+18,-0.0027038357220590115,0.00520978681743145,0.07171851396560669
1.7294246052257492e+18,-0.0007667766185477376,0.006954084150493145,0.06825617700815201
1.7294246052287493e+18,-7.96983513282612e-05,0.00545774819329381,0.07024364173412323
1.7294246052347494e+18,-0.00036343804094940424,0.00518381642177701,0.0697043389081955
1.7294246052407496e+18,0.0010040244087576866,0.003688303753733635,0.06282348930835724
1.7294246052467497e+18,0.0015878076665103436,0.00397705240175128,0.06286141276359558
1.7294246052527498e+18,0.0038867401890456676,0.0022140229120850563,0.05830300226807594
1.72942460525575e+18,0.0007867504609748721,0.0032761881593614817,0.062224164605140686
1.72942460526175e+18,0.0028971899300813675,0.006628991104662418,0.06014658138155937
1.7294246052677501e+18,0.0016002533957362175,0.006365231238305569,0.05907975882291794
1.7294246052737503e+18,0.0012020186986774206,0.0065450118854641914,0.05371759459376335
1.7294246052767503e+18,-0.0027866146992892027,0.007022773381322622,0.05324943736195564
1.7294246052827505e+18,-0.0025803695898503065,0.010209537111222744,0.05600370839238167
1.7294246052887506e+18,-0.0039040716364979744,0.015802420675754547,0.05182046443223953
1.7294246052947507e+18,-0.01144870463758707,0.02056807093322277,0.04898476600646973
1.7294246052977508e+18,-0.014941724948585033,0.024806419387459755,0.04991602897644043
1.729424605303751e+18,-0.0165932085365057,0.02690705843269825,0.04775666445493698
1.729424605309751e+18,-0.01909109391272068,0.03225039690732956,0.046982839703559875
1.7294246053157512e+18,-0.019805779680609703,0.0354158915579319,0.04825441166758537
1.7294246053187512e+18,-0.015721723437309265,0.03466188162565231,0.04540117830038071
1.7294246053247514e+18,-0.016917727887630463,0.03282776474952698,0.045626863837242126
1.7294246053307515e+18,-0.01636519469320774,0.03305935487151146,0.0456472709774971
1.7294246053367516e+18,-0.018727658316493034,0.03256852924823761,0.044712916016578674
1.7294246053397517e+18,-0.01632808893918991,0.02875041402876377,0.04324967414140701
1.7294246053457518e+18,-0.015694662928581238,0.03162303566932678,0.045495860278606415
1.729424605351752e+18,-0.01804221235215664,0.03199540078639984,0.04245502129197121
1.729424605357752e+18,-0.020891405642032623,0.034792497754096985,0.043548669666051865
1.729424605360752e+18,-0.019812654703855515,0.036321453750133514,0.04355223849415779
1.7294246053667523e+18,-0.01882847584784031,0.038850005716085434,0.040923118591308594
1.7294246053727524e+18,-0.023062245920300484,0.03991059958934784,0.04052142798900604
1.7294246053787525e+18,-0.025729171931743622,0.036350660026073456,0.03744715452194214
1.7294246053817526e+18,-0.02436336688697338,0.039650559425354004,0.03956655040383339
1.7294246053877527e+18,-0.022699901834130287,0.0421634316444397,0.037868328392505646
1.7294246053937528e+18,-0.02172807790338993,0.03908522054553032,0.037852831184864044
1.729424605396753e+18,-0.022362852469086647,0.04008612036705017,0.03532370179891586
1.729424605402753e+18,-0.020886853337287903,0.0363672636449337,0.03562353178858757
1.7294246054087532e+18,-0.01680833287537098,0.034620773047208786,0.0366954505443573
1.7294246054147533e+18,-0.01898615062236786,0.028915438801050186,0.03529394790530205
1.7294246054177533e+18,-0.016999637708067894,0.028155742213129997,0.03556665778160095
1.7294246054237535e+18,-0.01599414274096489,0.027053091675043106,0.033692654222249985
1.7294246054297536e+18,-0.01727411337196827,0.02987365424633026,0.03339451551437378
1.7294246054327537e+18,-0.019136887043714523,0.028729183599352837,0.03372754529118538
1.7294246054387538e+18,-0.020884985104203224,0.030919333919882774,0.030089154839515686
1.729424605444754e+18,-0.020304257050156593,0.027736885473132133,0.03371209651231766
1.729424605450754e+18,-0.018024954944849014,0.030419815331697464,0.03117287904024124
1.729424605453754e+18,-0.01807146891951561,0.029161173850297928,0.03165556117892265
1.7294246054597542e+18,-0.021500499919056892,0.02881421521306038,0.029262788593769073
1.7294246054657544e+18,-0.012494245544075966,0.02789521962404251,0.030488789081573486
1.7294246054687544e+18,-0.013338679447770119,0.027457674965262413,0.030356500297784805
1.7294246054747546e+18,-0.011894349940121174,0.022349074482917786,0.028872225433588028
1.7294246054807547e+18,-0.006800808012485504,0.022750340402126312,0.03061049059033394
1.7294246054837548e+18,-0.008606583811342716,0.021092237904667854,0.03345619887113571
1.729424605489755e+18,-0.003037479007616639,0.021370498463511467,0.025069329887628555
1.729424605495755e+18,-0.004218823276460171,0.017039410769939423,0.030681034550070763
1.7294246055017551e+18,-0.004506809636950493,0.02104652300477028,0.02742426097393036
1.7294246055077553e+18,-0.009784860536456108,0.018131062388420105,0.028172677382826805
1.7294246055107553e+18,-0.00811685249209404,0.015746071934700012,0.02286970429122448
1.7294246055167555e+18,-0.008807925507426262,0.01803782396018505,0.026497386395931244
1.7294246055227556e+18,-0.009291978552937508,0.017471926286816597,0.024211112409830093
1.7294246055287557e+18,-0.010164792649447918,0.016497626900672913,0.021944168955087662
1.7294246055317558e+18,-0.008931159041821957,0.017222370952367783,0.02526247873902321
1.729424605537756e+18,-0.007862867787480354,0.015087060630321503,0.022537345066666603
1.729424605543756e+18,-0.00575724383816123,0.012457647360861301,0.01724589429795742
1.729424605546756e+18,-0.003510821145027876,0.011607930064201355,0.021441036835312843
1.7294246055527562e+18,-6.740447133779526e-06,0.011806427501142025,0.022607853636145592
1.7294246055587564e+18,0.0014256525319069624,0.009070995263755322,0.02129724808037281
1.7294246055617564e+18,0.0006054022815078497,0.006632198579609394,0.02025996521115303
1.7294246055677565e+18,-0.0005326506798155606,0.006089620292186737,0.021608836948871613
1.7294246055737567e+18,0.0008336981991305947,0.004889933858066797,0.018466882407665253
1.7294246055797568e+18,-0.002090160734951496,0.0047718677669763565,0.020435044541954994
1.729424605585757e+18,-0.004613099619746208,0.00457289582118392,0.01969798281788826
1.729424605588757e+18,-0.003329926636070013,0.005091941449791193,0.018367737531661987
1.729424605594757e+18,-0.005538038909435272,0.005632693413645029,0.018490947782993317
1.7294246056007572e+18,-0.0026152231730520725,0.006305039394646883,0.01858602650463581
1.7294246056037573e+18,-0.004871302749961615,0.004369968548417091,0.01953635737299919
1.7294246056097574e+18,-0.0006272278260439634,0.00022464105859398842,0.019762026146054268
1.7294246056157576e+18,0.0004770165542140603,0.0013189975870773196,0.01595451682806015
1.7294246056217577e+18,0.005132259335368872,0.0024733697064220905,0.014966600574553013
1.7294246056247578e+18,0.005212561227381229,0.0006397790857590735,0.01820247806608677
1.729424605630758e+18,0.005434395279735327,0.0004776130663231015,0.01631229743361473
1.729424605636758e+18,0.0026848837733268738,0.00022402044851332903,0.014950688928365707
1.7294246056427581e+18,0.0038724064361304045,-0.003936401568353176,0.017868980765342712
1.7294246056487583e+18,0.0025247419252991676,-0.005912821274250746,0.014546867460012436
1.7294246056517583e+18,0.0026566283777356148,-0.0012165587395429611,0.01705513522028923
1.7294246056577585e+18,0.0012180343037471175,-0.0027279919013381004,0.016027959063649178
1.7294246056637586e+18,0.0017687312792986631,-0.005012457258999348,0.012714427895843983
1.7294246056697587e+18,0.0005972088547423482,-0.0024737855419516563,0.015111839398741722
1.7294246056727588e+18,-0.0029471267480403185,-0.001063131494447589,0.014352831989526749
1.729424605678759e+18,0.0012780114775523543,-0.0016254172660410404,0.014288419857621193
1.729424605684759e+18,0.0003252699098084122,-0.0025207367725670338,0.013394960202276707
1.7294246056907592e+18,0.002315599238499999,-0.0024739131331443787,0.012579165399074554
1.7294246056967593e+18,-9.555579163134098e-05,-0.0015885422471910715,0.010823487304151058
1.7294246056997594e+18,-0.0006034451071172953,-0.0024382565170526505,0.0156598798930645
1.7294246057057595e+18,0.004961851984262466,-0.0038837669417262077,0.011042481288313866
1.7294246057117596e+18,0.00702447397634387,-0.0034984778612852097,0.011622314341366291
1.7294246057177597e+18,0.0023116222582757473,-0.006347586400806904,0.013881005346775055
1.7294246057207598e+18,0.0025509544648230076,-0.00551605224609375,0.013381652534008026
1.72942460572676e+18,0.0035006562247872353,-0.004792866297066212,0.012527874670922756
1.72942460573276e+18,0.00498152244836092,-0.004352233372628689,0.011007887311279774
1.7294246057357601e+18,0.004769698716700077,-0.0017707108054310083,0.00742847565561533
1.7294246057417603e+18,0.002175462432205677,-0.0019218483939766884,0.009609299711883068
1.7294246057477604e+18,0.002196740824729204,-0.001755481818690896,0.011537780985236168
1.7294246057537605e+18,0.004288990516215563,-0.00428086519241333,0.010745394974946976
1.7294246057567606e+18,0.0022239554673433304,-0.0032981911208480597,0.010722163133323193
1.7294246057627607e+18,0.004723392892628908,-0.005591636057943106,0.009291471913456917
1.7294246057687608e+18,0.004724586382508278,-0.004627397283911705,0.010428895242512226
1.729424605774761e+18,0.004157085902988911,-0.005475228186696768,0.007766110822558403
1.729424605780761e+18,0.0034151975996792316,-0.005739070475101471,0.010577947832643986
1.7294246057837612e+18,0.003311003791168332,-0.005980313289910555,0.00820749532431364
1.7294246057897613e+18,0.0031109966803342104,-0.005502041894942522,0.011030081659555435
1.7294246057957614e+18,0.004962701350450516,-0.0054401918314397335,0.005276615731418133
1.7294246058017615e+18,0.0021068828646093607,-0.005623765755444765,0.009694037027657032
1.7294246058047616e+18,0.0023676473647356033,-0.005612785462290049,0.00805911049246788
1.7294246058107617e+18,0.002463678829371929,-0.006185887381434441,0.007832673378288746
1.7294246058167619e+18,0.0029261582531034946,-0.006595931015908718,0.009709198027849197
1.729424605819762e+18,0.00221176166087389,-0.008988947607576847,0.008182899095118046
1.729424605825762e+18,0.0025130296126008034,-0.007047072518616915,0.0065401820465922356
1.7294246058317622e+18,0.0034899611491709948,-0.008356628939509392,0.00802142359316349
1.7294246058377623e+18,0.0028363442979753017,-0.008361524902284145,0.00790152233093977
1.7294246058407624e+18,0.003769271308556199,-0.007590622175484896,0.009537814185023308
1.7294246058467625e+18,-0.0003729606978595257,-0.0036180505994707346,0.0062736994586884975
1.7294246058527626e+18,-0.0002710203407332301,-0.005061831325292587,0.006186417769640684
1.7294246058587628e+18,0.0005348425474949181,-0.004312469158321619,0.005918885115534067
1.7294246058617628e+18,-0.0009998958557844162,-0.004591080360114574,0.0051307277753949165
1.729424605867763e+18,-0.0005555652314797044,-0.006162336096167564,0.007825521752238274
1.729424605873763e+18,-0.00034470303216949105,-0.008018800057470798,0.00336428452283144
1.7294246058797632e+18,0.0011648701038211584,-0.008713841438293457,0.0038019809871912003
1.7294246058857633e+18,0.00310515146702528,-0.01213142741471529,0.0035395375452935696
1.7294246058917635e+18,0.00023901439271867275,-0.006898484658449888,0.0042136977426707745
1.7294246058977636e+18,0.0031335691455751657,-0.010498874820768833,0.0056276763789355755
1.7294246059007636e+18,-0.00020990753546357155,-0.008200745098292828,0.005536193028092384
1.7294246059067638e+18,-0.0007117441273294389,-0.007331737782806158,0.0025244036223739386
1.729424605912764e+18,-0.0028290869668126106,-0.003510573413223028,0.0027301935479044914
1.729424605918764e+18,-0.0028350921347737312,-0.004394470248371363,0.004324897658079863
1.7294246059247642e+18,-0.003539538010954857,-0.007350698113441467,0.002054116688668728
1.7294246059307643e+18,-0.004143049940466881,-0.005390110891312361,0.0050130789168179035
1.7294246059367644e+18,-0.0032358341850340366,-0.0056368084624409676,0.0023470434825867414
1.7294246059397645e+18,-0.0007736675906926394,-0.004316502250730991,0.0018483916064724326
1.7294246059457646e+18,-0.0008877628715708852,-0.009131441824138165,-0.0008691467810422182
1.7294246059517647e+18,1.6398495063185692e-05,-0.006796358153223991,0.0023491831962019205
1.7294246059577649e+18,-0.0003165365196764469,-0.007469773758202791,0.0005779218627139926
1.729424605963765e+18,-0.002267741598188877,-0.010556935332715511,0.0015093500260263681
1.729424605969765e+18,-0.0037762813735753298,-0.008430265821516514,0.0005234513664618134
1.7294246059757652e+18,-0.0005857934011146426,-0.009609397500753403,0.0018405831651762128
1.7294246059817654e+18,0.0017610711511224508,-0.009931880980730057,0.002226036274805665
1.7294246059877655e+18,-0.0008972561336122453,-0.005662165582180023,0.0038291853852570057
1.7294246059937656e+18,0.00030758033972233534,-0.006576091051101685,-0.0005045753205195069
1.7294246059997658e+18,0.0013186202850192785,-0.005395872052758932,-0.0002728796098381281
1.729424606005766e+18,0.0004767096834257245,-0.007797569967806339,-0.0006298297084867954
1.729424606011766e+18,-0.0004857566673308611,-0.007058176677674055,0.0009908636566251516
1.7294246060177661e+18,-0.00044149410678073764,-0.004043906461447477,-0.0025301631540060043
1.7294246060237663e+18,0.0012945570051670074,-0.005547430366277695,-0.002781850518658757
1.7294246060297664e+18,0.002146400511264801,-0.007472834084182978,0.0006986812222748995
1.7294246060357665e+18,-0.0013359745498746634,-0.0092341098934412,0.002210711594671011
1.7294246060387666e+18,-0.00020979432156309485,-0.009636780247092247,-0.0005640543531626463
1.7294246060447667e+18,-0.00043492275290191174,-0.007807601243257523,0.0014395888429135084
1.7294246060507668e+18,-0.0019154082983732224,-0.01000343356281519,-0.0016915720188990235
1.729424606056767e+18,-0.002785399556159973,-0.012521467171609402,-0.0018021295545622706
1.729424606062767e+18,-0.0032870464492589235,-0.011308555491268635,0.0016916735330596566
1.7294246060687672e+18,-0.0027787801809608936,-0.011598114855587482,-0.001982312649488449
1.7294246060717673e+18,-0.000844967900775373,-0.010432244278490543,-0.002108657034114003
1.7294246060777674e+18,-0.001971449935808778,-0.006676040589809418,0.0012266181875020266
1.7294246060837676e+18,-0.00029631919460371137,-0.008879018947482109,0.00021157198352739215
1.7294246060897677e+18,0.002617157530039549,-0.009564803913235664,0.002126020612195134
1.7294246060957678e+18,0.001897843787446618,-0.008397316560149193,8.771533612161875e-05
1.729424606101768e+18,-0.0017997415270656347,-0.009888291358947754,-0.0014206664636731148
1.729424606104768e+18,-0.0016298494301736355,-0.01169918105006218,0.0008281042100861669
1.729424606110768e+18,-0.0026596414390951395,-0.010600182227790356,-0.0007507515838369727
1.7294246061167683e+18,-0.00421561673283577,-0.009107275865972042,-0.0012687467969954014
1.7294246061227684e+18,-0.0068142893724143505,-0.00531595665961504,-0.001463325577788055
1.7294246061287685e+18,-0.0022992452140897512,-0.009464931674301624,-0.00039645377546548843
1.7294246061347686e+18,-0.003026422578841448,-0.009122799150645733,0.0005549363559111953
1.7294246061377687e+18,-0.006839555222541094,-0.008855383843183517,-0.0015774448402225971
1.7294246061437688e+18,-0.00576883926987648,-0.008620760403573513,-0.0023415598552674055
1.729424606149769e+18,-0.0009207181865349412,-0.012318885885179043,-0.004340619780123234
1.729424606152769e+18,-0.002570776967331767,-0.010465743020176888,0.0003643857780843973
1.7294246061587692e+18,-6.51902737445198e-05,-0.008781671524047852,0.000998130301013589
1.7294246061647693e+18,0.0020979291293770075,-0.01362551935017109,-0.0002326208632439375
1.7294246061707694e+18,-0.003209533402696252,-0.011221488006412983,-0.0011573433876037598
1.7294246061767695e+18,-0.003555637551471591,-0.011171207763254642,-0.002787525998428464
1.7294246061797696e+18,6.123480852693319e-05,-0.008258732035756111,-0.004762942437082529
1.7294246061857697e+18,-0.000987016363069415,-0.01014165673404932,-0.0002620480954647064
1.7294246061917699e+18,-0.0011845534900203347,-0.009613147005438805,-0.002968941116705537
1.72942460619777e+18,-0.0018311693565919995,-0.009313805028796196,-0.0035049780271947384
1.72942460620377e+18,-0.00015141107724048197,-0.0088988421484828,-0.0018886509351432323
1.7294246062097702e+18,0.000617429381236434,-0.010320237837731838,-0.00100079202093184
1.7294246062127703e+18,-8.923624409362674e-05,-0.013084476813673973,-0.003050773171707988
1.7294246062187704e+18,0.0011861430248245597,-0.013497093692421913,-0.003529583103954792
1.7294246062247706e+18,0.00036170717794448137,-0.011708082631230354,-0.003484661690890789
1.7294246062307707e+18,0.00034543569199740887,-0.011100590229034424,-0.001016964204609394
1.7294246062337708e+18,0.0037101684138178825,-0.012018882669508457,-0.0035695552360266447
1.729424606239771e+18,0.0038785841315984726,-0.012146390043199062,-0.0009938175790011883
1.729424606245771e+18,0.0004508568672463298,-0.010750348679721355,-0.0037071150727570057
1.7294246062517711e+18,-0.0003760969848372042,-0.008448444306850433,-0.003096607280895114
1.7294246062547712e+18,-0.0008540354901924729,-0.010816373862326145,-0.0031450074166059494
1.7294246062607713e+18,-0.00045449158642441034,-0.00978255458176136,-0.004418384283781052
1.7294246062667715e+18,0.001080828020349145,-0.011421729810535908,-0.006360091269016266
1.7294246062727716e+18,0.004086828790605068,-0.012706204317510128,-0.004753476474434137
1.7294246062757716e+18,0.004278223495930433,-0.012391106225550175,-0.003068024292588234
1.7294246062817718e+18,0.004966892767697573,-0.011553602293133736,-0.0030219932086765766
1.729424606287772e+18,0.005994061939418316,-0.01406045164912939,-0.00501453410834074
1.729424606293772e+18,0.0025079629849642515,-0.015521622262895107,-0.0013666697777807713
1.7294246062997722e+18,0.0019786865450441837,-0.013434960506856441,-0.004886406008154154
1.7294246063027722e+18,0.0017840007785707712,-0.009975329041481018,-0.004975421354174614
1.7294246063087724e+18,-0.0035384544171392918,-0.015623349696397781,-0.004143832251429558
1.7294246063147725e+18,-0.004274609498679638,-0.012631118297576904,-0.0051322514191269875
1.7294246063207726e+18,-0.007235125172883272,-0.011343396268785,-0.0053201052360236645
1.7294246063267727e+18,-0.00572045287117362,-0.014959304593503475,-0.004491141997277737
1.7294246063297728e+18,-0.002987745450809598,-0.012096366845071316,-0.004496730398386717
1.729424606335773e+18,-0.0023313001729547977,-0.013374627567827702,-0.004474014975130558
1.729424606341773e+18,0.0020149140618741512,-0.012533429078757763,-0.006728334818035364
1.7294246063477732e+18,0.0027245287783443928,-0.012654909864068031,-0.005698683671653271
1.7294246063507732e+18,0.004738707095384598,-0.013942199759185314,-0.003948638681322336
1.7294246063567734e+18,0.007048557512462139,-0.016347922384738922,-0.007464169524610043
1.7294246063627735e+18,0.004387836437672377,-0.014736611396074295,-0.0032149236649274826
1.7294246063657736e+18,0.0031537695322185755,-0.012643205001950264,-0.004454950802028179
1.7294246063717737e+18,0.004460560157895088,-0.01519791129976511,-0.002636841731145978
1.7294246063777738e+18,-0.0029261037707328796,-0.012881217524409294,-0.0027223657816648483
1.729424606383774e+18,-0.002353531075641513,-0.013614471070468426,-0.004308191128075123
1.729424606389774e+18,-0.0047615603543818,-0.010126383043825626,-0.007417780812829733
1.7294246063927741e+18,-0.006608880124986172,-0.013572806492447853,-0.0038369721733033657
1.7294246063987743e+18,-0.0028297752141952515,-0.01578623428940773,-0.004689560271799564
1.7294246064047744e+18,-0.0024722409434616566,-0.013603650033473969,-0.004360882565379143
1.7294246064077745e+18,-0.0033678009640425444,-0.013275982812047005,-0.0060393293388187885
1.7294246064137746e+18,0.00010503208613954484,-0.01278714369982481,-0.0029492692556232214
1.7294246064197747e+18,0.001613354659639299,-0.012553347274661064,-0.005631220992654562
1.7294246064257748e+18,0.004137171898037195,-0.01305466704070568,-0.008280406706035137
1.729424606428775e+18,0.005122990347445011,-0.013295060023665428,-0.0070729935541749
1.729424606434775e+18,0.0025310413911938667,-0.013267426751554012,-0.00509443785995245
1.7294246064407752e+18,0.0005908398889005184,-0.013699227944016457,-0.0058616455644369125
1.7294246064467753e+18,0.004996167495846748,-0.012849305756390095,-0.003201217856258154
1.7294246064527754e+18,0.0034663588739931583,-0.01224288996309042,-0.0062655131332576275
1.7294246064587756e+18,0.0018704260000959039,-0.012819495983421803,-0.006211788393557072
1.7294246064617756e+18,0.0030427314341068268,-0.013803040608763695,-0.00661098025739193
1.7294246064677757e+18,0.0016666947631165385,-0.01062838826328516,-0.0046775853261351585
1.7294246064737759e+18,0.0019354579271748662,-0.011500746943056583,-0.0035276261623948812
1.729424606476776e+18,0.0027377349324524403,-0.009409245103597641,-0.005722585134208202
1.7294246064857761e+18,0.0027526963967829943,-0.010814697481691837,-0.009056327864527702
1.7294246064917763e+18,0.003326371544972062,-0.01318170316517353,-0.007494310848414898
1.7294246064947763e+18,0.006412418559193611,-0.013331016525626183,-0.008228613995015621
1.7294246065007764e+18,0.00372366257943213,-0.013597062788903713,-0.002953985007479787
1.7294246065067766e+18,0.005180283449590206,-0.011595172807574272,-0.006793912500143051
1.7294246065127767e+18,0.0044466531835496426,-0.011018645949661732,-0.0100853331387043
1.7294246065157768e+18,0.002615033183246851,-0.009632160887122154,-0.00720616988837719
1.729424606521777e+18,0.004875749349594116,-0.008538770489394665,-0.007558809593319893
1.729424606527777e+18,0.001300601288676262,-0.014463752508163452,-0.006134096998721361
1.7294246065337772e+18,0.0007978489156812429,-0.00838171411305666,-0.006530157756060362
1.7294246065367772e+18,0.004378264769911766,-0.00981354620307684,-0.0064432984218001366
1.7294246065427773e+18,0.0016851834952831268,-0.011756684631109238,-0.003342818468809128
1.7294246065487775e+18,0.0025461935438215733,-0.007311287336051464,-0.009089207276701927
1.7294246065547776e+18,0.0013818931765854359,-0.010765052400529385,-0.007994803600013256
1.7294246065577777e+18,0.005562158767133951,-0.007016774266958237,-0.005118200555443764
1.7294246065637778e+18,0.0036932777147740126,-0.008197827264666557,-0.007825318723917007
1.729424606569778e+18,0.001669042045250535,-0.008779439143836498,-0.007086410187184811
1.729424606575778e+18,0.0021146894432604313,-0.014215298928320408,-0.0068881395272910595
1.729424606578778e+18,0.0003297170624136925,-0.013727935962378979,-0.007216683588922024
1.7294246065847782e+18,0.0026709544472396374,-0.012323686853051186,-0.007932241074740887
1.7294246065907784e+18,-0.0009854723466560245,-0.011518742889165878,-0.008390494622290134
1.7294246065967785e+18,0.00424865260720253,-0.012319904752075672,-0.010216566734015942
1.7294246065997786e+18,0.00010339097934775054,-0.011866077780723572,-0.007073614746332169
1.7294246066057787e+18,0.000664673512801528,-0.013967403210699558,-0.0053457217290997505
1.7294246066117788e+18,0.0013349793152883649,-0.013471598736941814,-0.009196780622005463
1.729424606617779e+18,0.001068393001332879,-0.008881812915205956,-0.009669085964560509
1.729424606623779e+18,0.0034749796614050865,-0.008693463169038296,-0.008103100582957268
1.7294246066267791e+18,0.0036279091145843267,-0.009005486033856869,-0.006946842651814222
1.7294246066327793e+18,-0.0006818680558353662,-0.007499476429075003,-0.006909075193107128
1.7294246066387794e+18,0.0008723514620214701,-0.010016683489084244,-0.006223516073077917
1.7294246066417795e+18,0.00021213677246123552,-0.009449350647628307,-0.007582355290651321
1.7294246066477796e+18,0.0017202787566930056,-0.008244508877396584,-0.008207885548472404
1.7294246066537797e+18,-5.121694630361162e-05,-0.011793427169322968,-0.009234686382114887
1.7294246066597798e+18,-0.0011360576609149575,-0.010079804807901382,-0.008780299685895443
1.72942460666278e+18,-0.0004160765674896538,-0.011381752789020538,-0.0074592712335288525
1.72942460666878e+18,0.0008257895242422819,-0.009777287021279335,-0.009925431571900845
1.7294246066747802e+18,0.0004953115130774677,-0.013982032425701618,-0.009553066454827785
1.7294246066807803e+18,-0.00013251983909867704,-0.014094259589910507,-0.00721078971400857
1.7294246066867804e+18,0.0009999382309615612,-0.012318181805312634,-0.008976899087429047
1.7294246066897805e+18,-0.0021702093072235584,-0.013978568837046623,-0.009360769763588905
1.7294246066957806e+18,0.003817490069195628,-0.016332466155290604,-0.01068846881389618
1.7294246067017807e+18,0.0012495361734181643,-0.011962762102484703,-0.008958876132965088
1.7294246067077809e+18,-0.001822174759581685,-0.013096734881401062,-0.008698522113263607
1.729424606710781e+18,-0.0022383173927664757,-0.012219761498272419,-0.009639564901590347
1.729424606716781e+18,-0.0018284560646861792,-0.012378333136439323,-0.00853430200368166
1.7294246067227812e+18,-0.0004914418095722795,-0.012845742516219616,-0.009186114184558392
1.7294246067257812e+18,-0.0028198722284287214,-0.013619303703308105,-0.006957344710826874
1.7294246067317814e+18,-0.002840576460584998,-0.01514920499175787,-0.007716930937021971
1.7294246067377815e+18,-0.0020937235094606876,-0.015107454732060432,-0.010492105036973953
1.7294246067437816e+18,-0.0017816622275859118,-0.015496657229959965,-0.009631792083382607
1.7294246067467817e+18,-0.0007009919499978423,-0.016565388068556786,-0.00798791740089655
1.7294246067527818e+18,-0.0007203031564131379,-0.014696055091917515,-0.008294878527522087
1.729424606758782e+18,0.0015129641396924853,-0.015006188303232193,-0.0056692976504564285
1.729424606761782e+18,-0.0016283157747238874,-0.015321646817028522,-0.00788107793778181
1.7294246067677821e+18,-0.000605078530497849,-0.017177576199173927,-0.00889902375638485
1.7294246067737823e+18,0.0008611523080617189,-0.016383113339543343,-0.009414351545274258
1.7294246067797824e+18,-0.003986419644206762,-0.015068099834024906,-0.007020839024335146
1.7294246067857825e+18,-0.004165991675108671,-0.014003860764205456,-0.008083750493824482
1.7294246067887826e+18,-0.0030787165742367506,-0.013348796404898167,-0.011432158760726452
1.7294246067947827e+18,-0.003276549279689789,-0.015324970707297325,-0.008139067329466343
1.7294246068007828e+18,-0.007181499153375626,-0.015696780756115913,-0.0070882318541407585
1.729424606806783e+18,-0.003008402418345213,-0.014031648635864258,-0.008729381486773491
1.729424606809783e+18,-0.003651643870398402,-0.01748214289546013,-0.00790415145456791
1.7294246068157832e+18,-0.0021372486371546984,-0.018114499747753143,-0.010459711775183678
1.7294246068217833e+18,-0.003547176718711853,-0.017892619594931602,-0.005208675749599934
1.7294246068277834e+18,0.0007060977513901889,-0.01585465669631958,-0.008892352692782879
1.7294246068307835e+18,0.0025772068183869123,-0.018169932067394257,-0.008050614036619663
1.7294246068367836e+18,0.0021862806752324104,-0.014810172840952873,-0.00989468302577734
1.7294246068427837e+18,-0.0007489248528145254,-0.014935895800590515,-0.009279591962695122
1.729424606848784e+18,-0.0008000913076102734,-0.01695924997329712,-0.006926705129444599
1.729424606851784e+18,-0.0036837623920291662,-0.009785711765289307,-0.00964112114161253
1.729424606857784e+18,-0.0038515939377248287,-0.011702828109264374,-0.008131318725645542
1.7294246068637842e+18,-0.006798255257308483,-0.014887899160385132,-0.009501833468675613
1.7294246068697843e+18,-0.003441814798861742,-0.01504686288535595,-0.009445310570299625
1.7294246068757844e+18,-0.005733408499509096,-0.011718405410647392,-0.011153117753565311
1.7294246068787845e+18,-0.004617075901478529,-0.01723332889378071,-0.007227553054690361
1.7294246068847846e+18,-0.005013610236346722,-0.015728268772363663,-0.008775237016379833
1.7294246068907848e+18,-0.0029041985981166363,-0.01937909424304962,-0.006653499789535999
1.729424606896785e+18,0.0005344119272194803,-0.02199617028236389,-0.006989563815295696
1.729424606899785e+18,0.0019466611556708813,-0.01741659827530384,-0.008505471050739288
1.729424606905785e+18,0.0021791085600852966,-0.017131367698311806,-0.008025508373975754
1.7294246069117852e+18,0.002456437097862363,-0.013674004003405571,-0.010131346993148327
1.7294246069177853e+18,0.0019348422065377235,-0.01549875270575285,-0.010296246036887169
1.7294246069237855e+18,-0.0047434004954993725,-0.01052334625273943,-0.007878260686993599
1.7294246069267855e+18,-0.003268625121563673,-0.015341956168413162,-0.008181270211935043
1.7294246069327857e+18,-0.004718669690191746,-0.014300336129963398,-0.008701352402567863
1.7294246069387858e+18,-0.008566370233893394,-0.015538726933300495,-0.008921666070818901
1.729424606944786e+18,-0.009637541137635708,-0.0152690215036273,-0.009646261110901833
1.729424606950786e+18,-0.0036530583165585995,-0.013100878335535526,-0.008857008069753647
1.7294246069567862e+18,-0.0020050310995429754,-0.01491816807538271,-0.010595451109111309
1.7294246069597862e+18,-0.003312848974019289,-0.015372836031019688,-0.01134961936622858
1.7294246069657864e+18,-0.0023705512285232544,-0.017524460330605507,-0.008142383769154549
1.7294246069717865e+18,0.0011481901165097952,-0.013245882466435432,-0.007671642117202282
1.7294246069777866e+18,0.0023719097953289747,-0.014035198837518692,-0.008345830254256725
1.7294246069837868e+18,0.001604495570063591,-0.014640768989920616,-0.010264288634061813
1.729424606989787e+18,-0.00025367806665599346,-0.011692192405462265,-0.009668434038758278
1.729424606995787e+18,-0.002655868651345372,-0.011231843382120132,-0.00829246174544096
1.729424606998787e+18,-0.004084419459104538,-0.012589136138558388,-0.00686267577111721
1.7294246070047872e+18,-0.0018737476784735918,-0.015257582999765873,-0.010760817676782608
1.7294246070107873e+18,-0.006335921585559845,-0.009771428070962429,-0.00844143982976675
1.7294246070167875e+18,-0.005618592724204063,-0.00969047099351883,-0.014534953981637955
1.7294246070227876e+18,-0.004613389261066914,-0.014000067487359047,-0.00906186643987894
1.7294246070257876e+18,-0.003821028396487236,-0.014638388529419899,-0.008336345665156841
1.7294246070317878e+18,-0.003211741568520665,-0.012864049524068832,-0.008882587775588036
1.729424607037788e+18,-0.002752769272774458,-0.010615761391818523,-0.009347228333353996
1.729424607043788e+18,0.0012322544353082776,-0.011242243461310863,-0.011721283197402954
1.729424607046788e+18,-0.00010927842231467366,-0.012854679487645626,-0.008392412215471268
1.7294246070527882e+18,-0.00012292424798943102,-0.01171405240893364,-0.010121699422597885
1.7294246070587884e+18,-0.001345718395896256,-0.01304684765636921,-0.008266331627964973
1.7294246070647885e+18,-0.0015136930160224438,-0.012103048153221607,-0.006254185922443867
