timestamp,accel_x,accel_y,accel_z
1.729497917563153e+18,0.012899599969387054,-0.04979921877384186,-9.862281799316406
1.729497917569153e+18,0.02259655110538006,0.016220208257436752,-9.790114402770996
1.7294979175781532e+18,0.030243709683418274,-0.02516285516321659,-9.780268669128418
1.7294979175871534e+18,-0.01098125521093607,0.04666939377784729,-9.780773162841797
1.7294979175961536e+18,0.032802462577819824,0.018005074933171272,-9.849291801452637
1.7294979176021537e+18,-0.0074206870049238205,-0.009924681857228279,-9.777970314025879
1.729497917611154e+18,0.013828454539179802,-0.012306447140872478,-9.782652854919434
1.729497917617154e+18,0.021581698209047318,-0.016746927052736282,-9.732946395874023
1.7294979176261542e+18,0.009578501805663109,-0.062014155089855194,-9.855036735534668
1.7294979176351544e+18,-0.06154879927635193,-0.001163417473435402,-9.754533767700195
1.7294979176411546e+18,0.037256933748722076,-0.026976656168699265,-9.866364479064941
1.7294979176501548e+18,-0.025900352746248245,-0.053344689309597015,-9.74653148651123
1.729497917656155e+18,-0.013639349490404129,0.11248838901519775,-9.812736511230469
1.729497917665155e+18,-0.015460006892681122,-0.05442710220813751,-9.819266319274902
1.7294979176711552e+18,0.03258998692035675,-0.02495991624891758,-9.828818321228027
1.7294979176801554e+18,0.02649853751063347,0.0028844689950346947,-9.826139450073242
1.7294979176861555e+18,-0.030421799048781395,0.0020980648696422577,-9.7979154586792
1.7294979176951557e+18,-0.05817893519997597,0.04030218347907066,-9.78823471069336
1.7294979177011558e+18,-0.09189636260271072,-0.05738592520356178,-9.811348915100098
1.729497917710156e+18,0.038100287318229675,0.0134429344907403,-9.810546875
1.7294979177161562e+18,-0.032775215804576874,-0.05126612260937691,-9.783714294433594
1.7294979177251564e+18,0.06391384452581406,0.015974607318639755,-9.820735931396484
1.7294979177341565e+18,-0.016974635422229767,0.0035537858493626118,-9.82910442352295
1.7294979177431567e+18,-0.025379512459039688,0.03554806113243103,-9.83018684387207
1.7294979177491569e+18,0.022563787177205086,0.03464311733841896,-9.754295349121094
1.729497917758157e+18,-0.02744380384683609,-0.030019192025065422,-9.794820785522461
1.7294979177671572e+18,0.015827393159270287,-0.02932916209101677,-9.718860626220703
1.7294979177731574e+18,0.03945555165410042,0.019434157758951187,-9.81210708618164
1.7294979177821576e+18,0.02875562757253647,0.08751439303159714,-9.729626655578613
1.7294979177881577e+18,0.08807441592216492,-0.10689705610275269,-9.84606647491455
1.729497917797158e+18,0.06734415143728256,-0.1050526350736618,-9.833934783935547
1.729497917803158e+18,-0.04116976261138916,-0.046217840164899826,-9.822073936462402
1.7294979178121582e+18,0.0381506122648716,-0.0335502065718174,-9.771012306213379
1.7294979178211584e+18,0.013660754077136517,0.023596519604325294,-9.811260223388672
1.7294979178301586e+18,0.03671441599726677,-0.06823903322219849,-9.767108917236328
1.7294979178361587e+18,-0.0017146726604551077,-0.08564102649688721,-9.76911449432373
1.729497917845159e+18,0.049020763486623764,-0.0067062899470329285,-9.794088363647461
1.729497917854159e+18,0.009615249931812286,-0.0332932211458683,-9.856934547424316
1.7294979178631593e+18,0.021991491317749023,0.026369931176304817,-9.803143501281738
1.7294979178721595e+18,0.009140406735241413,0.006773727480322123,-9.751243591308594
1.7294979178871598e+18,-0.04965054616332054,0.028279317542910576,-9.82329273223877
1.72949791789616e+18,0.06841985136270523,0.0913267657160759,-9.783185958862305
1.7294979179051602e+18,0.04919194430112839,-0.02765570394694805,-9.81775188446045
1.7294979179111603e+18,-0.003336832160130143,0.03522660955786705,-9.814249038696289
1.7294979179201605e+18,0.010740269906818867,0.017230892553925514,-9.821687698364258
1.7294979179291607e+18,5.1503473514458165e-05,0.005443832371383905,-9.833392143249512
1.729497917938161e+18,-0.008375310339033604,-0.030122127383947372,-9.803120613098145
1.729497917947161e+18,0.014564123004674911,-0.03898391127586365,-9.832757949829102
1.7294979179531612e+18,-0.07136373966932297,0.03469156473875046,-9.824455261230469
1.7294979179621614e+18,0.01640396937727928,0.038406260311603546,-9.800996780395508
1.7294979179681615e+18,0.04393795132637024,-0.057800110429525375,-9.877607345581055
1.7294979179771617e+18,0.035497747361660004,-0.08398772031068802,-9.843711853027344
1.7294979179831619e+18,-0.03498964011669159,0.0016054668230935931,-9.812079429626465
1.729497917992162e+18,-0.06984647363424301,0.02079576440155506,-9.781562805175781
1.7294979180011622e+18,-0.028209445998072624,-0.04335315153002739,-9.833087921142578
1.7294979180101624e+18,-0.08547921478748322,-0.029747167602181435,-9.852267265319824
1.7294979180161626e+18,0.012182030826807022,0.053092025220394135,-9.746517181396484
1.7294979180251628e+18,-0.03120107762515545,-0.08829838037490845,-9.811539649963379
1.729497918034163e+18,-0.05926957353949547,-0.10187392681837082,-9.848011016845703
1.729497918040163e+18,0.003488646587356925,0.038490261882543564,-9.792766571044922
1.7294979180491633e+18,0.0585261695086956,-0.005495931953191757,-9.74218463897705
1.7294979180551634e+18,0.07456270605325699,-0.0023827143013477325,-9.813783645629883
1.7294979180641636e+18,0.03833779692649841,-0.01480585802346468,-9.82051944732666
1.7294979180701637e+18,-0.043669842183589935,-0.011963403783738613,-9.82312297821045
1.729497918079164e+18,-0.02170947939157486,-0.012100034393370152,-9.839606285095215
1.729497918088164e+18,0.04985882714390755,0.02367483265697956,-9.820530891418457
1.7294979180941642e+18,-0.07116062194108963,-0.009677874855697155,-9.799925804138184
1.7294979181031644e+18,0.005241232458502054,0.008813158608973026,-9.703449249267578
1.7294979181121646e+18,0.006139090750366449,-0.0024048180785030127,-9.82429313659668
1.7294979181181647e+18,-0.020620891824364662,-0.04615991562604904,-9.825011253356934
1.729497918127165e+18,0.00888908002525568,0.004527132958173752,-9.69348430633545
1.729497918133165e+18,-0.042175985872745514,-0.022044498473405838,-9.790486335754395
1.7294979181421652e+18,-0.025622641667723656,-0.012134520336985588,-9.83035659790039
1.7294979181511654e+18,-0.026161715388298035,0.035119980573654175,-9.747593879699707
1.7294979181571656e+18,0.019741307944059372,-0.016103709116578102,-9.788135528564453
1.7294979181661658e+18,-0.030904313549399376,-0.06738467514514923,-9.715531349182129
1.729497918172166e+18,0.06237266957759857,-0.015986936166882515,-9.755966186523438
1.729497918181166e+18,-0.04400048404932022,-0.05157725512981415,-9.802861213684082
1.7294979181871662e+18,0.03618849441409111,0.025235332548618317,-9.851101875305176
1.7294979181961664e+18,0.03786888346076012,-0.019400574266910553,-9.858076095581055
1.7294979182051666e+18,0.019930224865674973,0.03293132409453392,-9.814151763916016
1.7294979182111667e+18,-0.020801955834031105,-0.03331228718161583,-9.843825340270996
1.7294979182171668e+18,0.07394017279148102,-0.0018619666807353497,-9.80074691772461
1.729497918226167e+18,-0.02138022892177105,0.00546135613694787,-9.798272132873535
1.7294979182351672e+18,0.006119206547737122,-0.05104222148656845,-9.818631172180176
1.7294979182411674e+18,-0.05227117985486984,-0.04981973394751549,-9.851933479309082
1.7294979182501676e+18,-0.002878721570596099,-0.0018463967135176063,-9.806989669799805
1.7294979182561677e+18,0.04173000901937485,0.02279001474380493,-9.767789840698242
1.729497918265168e+18,-0.01783819869160652,0.035274606198072433,-9.836634635925293
1.729497918274168e+18,0.044427938759326935,0.01224984135478735,-9.807157516479492
1.7294979182801682e+18,-0.005902902688831091,-0.00782878790050745,-9.8900728225708
1.7294979182891684e+18,0.06132543459534645,0.03210087865591049,-9.899725914001465
1.7294979182951685e+18,0.03211956471204758,0.041496776044368744,-9.758356094360352
1.7294979183041687e+18,-0.07889959216117859,0.004263554234057665,-9.853590965270996
1.729497918313169e+18,-0.03712997958064079,0.044890981167554855,-9.802448272705078
1.729497918319169e+18,-0.048031602054834366,-0.03328203037381172,-9.830976486206055
1.7294979183281692e+18,0.058326076716184616,0.03252290189266205,-9.857949256896973
1.7294979183341693e+18,0.038062933832407,0.009574716910719872,-9.810513496398926
1.7294979183431695e+18,-0.032496377825737,-0.07179516553878784,-9.741376876831055
1.7294979183521697e+18,0.14821140468120575,0.020480049774050713,-9.876788139343262
1.7294979183581699e+18,0.010637529194355011,-0.03090192936360836,-9.824509620666504
1.72949791836717e+18,0.016214756295084953,0.030353780835866928,-9.761758804321289
1.7294979183731702e+18,-0.02741619013249874,-0.025372570380568504,-9.783888816833496
1.7294979183821704e+18,-0.03988933563232422,-0.030420830473303795,-9.831757545471191
1.7294979183911706e+18,-0.03421352803707123,-0.023137787356972694,-9.745224952697754
1.7294979183971707e+18,-0.0023201005533337593,-0.02154395543038845,-9.826325416564941
1.729497918406171e+18,-0.05831580609083176,-0.0073547931388020515,-9.830921173095703
1.729497918415171e+18,-0.022076305001974106,-0.08938322216272354,-9.825860977172852
1.7294979184211712e+18,0.030911337584257126,0.011587636545300484,-9.829276084899902
1.7294979184301714e+18,-0.0004976721829734743,-0.05352061986923218,-9.868815422058105
1.7294979184361715e+18,-0.11115157604217529,-0.05497144162654877,-9.843046188354492
1.7294979184451717e+18,0.04837469384074211,0.0620279423892498,-9.814035415649414
1.7294979184511718e+18,0.009488452225923538,-0.007287358865141869,-9.805352210998535
1.729497918460172e+18,0.033422842621803284,-0.045935891568660736,-9.777044296264648
1.7294979184661722e+18,-0.0612771101295948,0.02927830070257187,-9.813708305358887
1.7294979184751724e+18,-0.012362281791865826,-0.010393590666353703,-9.800833702087402
1.7294979184841725e+18,0.039218269288539886,-0.04222884029150009,-9.825129508972168
1.7294979184931727e+18,-0.05590987205505371,0.03715177997946739,-9.774130821228027
1.7294979184991729e+18,-0.013630437664687634,-0.00852581299841404,-9.822762489318848
1.729497918508173e+18,-0.08328153938055038,0.00860382430255413,-9.811389923095703
1.7294979185171732e+18,0.02503092586994171,0.0006279605440795422,-9.874907493591309
1.7294979185231734e+18,0.033038828521966934,-0.043891191482543945,-9.805939674377441
1.7294979185321736e+18,0.010402897372841835,0.06104752793908119,-9.870945930480957
1.7294979185411738e+18,-0.019071416929364204,-0.04699757322669029,-9.848661422729492
1.729497918547174e+18,0.06502097100019455,0.008787887170910835,-9.832242965698242
1.729497918556174e+18,0.005820952821522951,0.012608523480594158,-9.875614166259766
1.7294979185651743e+18,0.07347703725099564,-0.03496913984417915,-9.774696350097656
1.7294979185741745e+18,0.027137987315654755,0.0056502558290958405,-9.818039894104004
1.7294979185831747e+18,0.06703175604343414,-0.024208780378103256,-9.7408447265625
1.7294979185891748e+18,0.0564701184630394,0.026605816558003426,-9.806329727172852
1.729497918598175e+18,5.370306462282315e-05,-0.020290741696953773,-9.795613288879395
1.7294979186071752e+18,0.0641130730509758,0.01469828374683857,-9.781865119934082
1.7294979186131753e+18,0.09387683868408203,0.09167015552520752,-9.806783676147461
1.7294979186221755e+18,-0.008220943622291088,0.04726363345980644,-9.783447265625
1.7294979186311757e+18,0.021379102021455765,-0.05137156322598457,-9.799626350402832
1.7294979186401759e+18,-0.026777537539601326,-0.03592061996459961,-9.866852760314941
1.729497918649176e+18,-0.02396377921104431,-0.026183748617768288,-9.798323631286621
1.7294979186551762e+18,0.024925127625465393,-0.004941881634294987,-9.860764503479004
1.7294979186641764e+18,-0.05709841102361679,0.005902294535189867,-9.744033813476562
1.7294979186731766e+18,0.01739482767879963,0.07349899411201477,-9.803241729736328
1.7294979186791767e+18,0.0312512069940567,-0.02489650622010231,-9.795599937438965
1.729497918688177e+18,-0.022297363728284836,0.014618003740906715,-9.886445999145508
1.729497918697177e+18,0.04572506621479988,0.017937060445547104,-9.83383846282959
1.7294979187061773e+18,0.009151577949523926,0.06578246504068375,-9.825221061706543
1.7294979187121774e+18,0.007762475870549679,-0.03663221001625061,-9.791343688964844
1.7294979187211776e+18,-0.08190985769033432,-0.020603839308023453,-9.785079002380371
1.7294979187301778e+18,-0.05548833683133125,0.003102291841059923,-9.82780933380127
1.729497918736178e+18,-0.019388653337955475,0.011888748034834862,-9.80772876739502
1.729497918745178e+18,0.05278734862804413,-0.1046508327126503,-9.846478462219238
1.7294979187541783e+18,-0.007194113917648792,-0.0009138297173194587,-9.759773254394531
1.7294979187631785e+18,-0.034573994576931,-0.02968662604689598,-9.844559669494629
1.7294979187691786e+18,0.058812908828258514,-0.025220051407814026,-9.842461585998535
1.7294979187781788e+18,-0.054076701402664185,0.019477836787700653,-9.902790069580078
1.729497918787179e+18,-0.015440205112099648,0.03629379719495773,-9.77900218963623
1.7294979187961792e+18,-0.15693417191505432,0.020347880199551582,-9.870338439941406
1.7294979188021793e+18,0.0033142317552119493,-0.00185188720934093,-9.830965042114258
1.7294979188111795e+18,0.04831450432538986,0.01397550106048584,-9.866198539733887
1.7294979188201797e+18,-0.02697804383933544,0.03028421476483345,-9.76636028289795
1.7294979188261798e+18,0.001605248893611133,-0.006288825534284115,-9.754721641540527
1.72949791883518e+18,-0.031045429408550262,0.04100218042731285,-9.775761604309082
1.7294979188411802e+18,0.048124346882104874,0.029810436069965363,-9.770018577575684
1.7294979188501804e+18,-0.04229789227247238,-0.021242715418338776,-9.826912879943848
1.7294979188561805e+18,0.025248011574149132,-0.09230406582355499,-9.761384010314941
1.7294979188651807e+18,0.04394357651472092,-0.06357786804437637,-9.849709510803223
1.7294979188741809e+18,-0.09073629975318909,0.043026991188526154,-9.778648376464844
1.729497918880181e+18,0.024887066334486008,-0.01645594835281372,-9.891776084899902
1.7294979188891812e+18,-0.0027159731835126877,0.01140921376645565,-9.767030715942383
1.7294979188981814e+18,-0.01197534054517746,0.002265741815790534,-9.792509078979492
1.7294979189041815e+18,-0.05530007183551788,-0.023093808442354202,-9.918859481811523
1.7294979189131817e+18,0.12483244389295578,-0.0027025367598980665,-9.7597074508667
1.7294979189191818e+18,0.0018489737994968891,0.09299241006374359,-9.829704284667969
1.729497918928182e+18,-0.015382460318505764,0.02973337657749653,-9.767735481262207
1.7294979189371822e+18,-0.02042374201118946,0.041180506348609924,-9.862778663635254
1.7294979189431823e+18,0.01512045320123434,-0.021739540621638298,-9.780073165893555
1.7294979189521825e+18,0.0285335760563612,-0.06494678556919098,-9.818696975708008
1.7294979189611827e+18,-0.010196332819759846,-0.03708821162581444,-9.75894546508789
1.7294979189671828e+18,-0.05763404443860054,0.06696713715791702,-9.853436470031738
1.729497918976183e+18,-0.023760739713907242,-0.00020543181744869798,-9.800771713256836
1.7294979189821832e+18,0.06607909500598907,0.030509650707244873,-9.797656059265137
1.7294979189911834e+18,-0.04290265589952469,-0.0149583350867033,-9.83340072631836
1.7294979190001836e+18,-0.015918226912617683,-0.03143499419093132,-9.820098876953125
1.7294979190061837e+18,-0.05708871781826019,-0.10183688253164291,-9.81272029876709
1.729497919015184e+18,-0.017190685495734215,-0.07070682942867279,-9.78113079071045
1.729497919024184e+18,-0.14000797271728516,-0.01719391718506813,-9.865614891052246
1.7294979190301842e+18,0.12422309815883636,0.0028895267751067877,-9.80566692352295
1.7294979190391844e+18,0.041293226182460785,0.08324476331472397,-9.798596382141113
1.7294979190481846e+18,0.02868049405515194,-0.060337044298648834,-9.907551765441895
1.7294979190571848e+18,0.02460590749979019,-0.013610870577394962,-9.80915355682373
1.729497919063185e+18,0.004650427959859371,-0.018186267465353012,-9.818536758422852
1.729497919072185e+18,-0.028652850538492203,-0.08594252169132233,-9.830941200256348
1.7294979190811853e+18,-0.06387674808502197,-0.01724311336874962,-9.793937683105469
1.7294979190901855e+18,-0.01025943923741579,0.004742471966892481,-9.819867134094238
1.7294979190961856e+18,-0.037126194685697556,-0.0017053139163181186,-9.842212677001953
1.7294979191051858e+18,-0.06129443272948265,0.018347127363085747,-9.816883087158203
1.729497919111186e+18,-0.09384799003601074,-0.023606380447745323,-9.913139343261719
1.729497919120186e+18,0.011898178607225418,-0.030023664236068726,-9.769675254821777
1.7294979191291863e+18,-0.055860042572021484,0.0016067232936620712,-9.772266387939453
1.7294979191351864e+18,-0.062402259558439255,-0.08265677839517593,-9.792716979980469
1.7294979191441866e+18,0.01271718367934227,0.02174406684935093,-9.84311580657959
1.7294979191501868e+18,0.02037322334945202,0.043622296303510666,-9.77233600616455
1.729497919159187e+18,-0.00605245353654027,-0.010748276486992836,-9.835155487060547
1.729497919165187e+18,-0.028388118371367455,0.001559785334393382,-9.816068649291992
1.7294979191741873e+18,-0.018811777234077454,0.0355955995619297,-9.75920295715332
1.7294979191801874e+18,-0.0013390864478424191,0.005034610163420439,-9.7833833694458
1.7294979191891876e+18,0.008902551606297493,-0.039669979363679886,-9.821284294128418
1.7294979191981878e+18,0.0033545305486768484,0.0017924702260643244,-9.82750129699707
1.729497919204188e+18,0.007506728172302246,-0.038975004106760025,-9.803160667419434
1.729497919213188e+18,0.024687673896551132,-0.013904724270105362,-9.871098518371582
1.7294979192221883e+18,0.017431601881980896,-0.010197209194302559,-9.750276565551758
1.7294979192281884e+18,0.010290605016052723,-0.008987626060843468,-9.838356018066406
1.7294979192371886e+18,-0.050388529896736145,-0.03645292669534683,-9.800283432006836
1.7294979192461888e+18,-0.059615373611450195,0.05874811112880707,-9.808560371398926
1.729497919252189e+18,0.04079245775938034,-0.027610547840595245,-9.848898887634277
1.729497919261189e+18,-0.020231248810887337,0.04746488109230995,-9.783893585205078
1.7294979192671892e+18,-0.03557389974594116,-0.09671632945537567,-9.739684104919434
1.7294979192761894e+18,0.01576096937060356,0.013893363066017628,-9.790393829345703
1.7294979192851896e+18,0.02333744429051876,0.009702430106699467,-9.826323509216309
1.7294979192911898e+18,0.019590748474001884,-0.08826775848865509,-9.819689750671387
1.72949791930019e+18,-0.0004166002618148923,-0.04422144219279289,-9.720792770385742
1.7294979193091901e+18,0.004428679123520851,0.008235822431743145,-9.767704010009766
1.7294979193151903e+18,0.017739076167345047,0.006318845320492983,-9.757743835449219
1.7294979193241905e+18,0.05872980132699013,0.11728600412607193,-9.780479431152344
1.7294979193331907e+18,-0.05823804810643196,0.000920010672416538,-9.775764465332031
1.7294979193421908e+18,-0.008955415338277817,-0.053428277373313904,-9.801114082336426
1.729497919348191e+18,-0.015791030600667,0.0014543267898261547,-9.764623641967773
1.7294979193571912e+18,-0.0169529989361763,-0.030261414125561714,-9.783366203308105
1.7294979193661914e+18,0.007701595313847065,0.04804431274533272,-9.840306282043457
1.7294979193751916e+18,-0.04660846292972565,0.029960835352540016,-9.850659370422363
1.7294979193841917e+18,-0.028716564178466797,0.022559354081749916,-9.743898391723633
1.729497919393192e+18,0.020155975595116615,-0.06492121517658234,-9.751839637756348
1.729497919399192e+18,-0.00021080159058328718,-0.05311215668916702,-9.688446044921875
1.7294979194081923e+18,0.025919681414961815,0.019497578963637352,-9.746903419494629
1.7294979194141924e+18,0.024291519075632095,-0.04534680396318436,-9.81705093383789
1.7294979194231926e+18,-0.021593762561678886,-0.013168738223612309,-9.73604965209961
1.7294979194321928e+18,-0.02721879445016384,0.06733472645282745,-9.821109771728516
1.729497919441193e+18,0.02681819535791874,-0.04562688618898392,-9.774739265441895
1.729497919447193e+18,-0.015395884402096272,0.025844356045126915,-9.819991111755371
1.7294979194561933e+18,-0.03552592173218727,-0.009390623308718204,-9.846335411071777
1.7294979194651935e+18,-0.0631130263209343,0.016443829983472824,-9.852192878723145
1.7294979194741937e+18,-0.013777676969766617,-0.027683721855282784,-9.872363090515137
1.7294979194831939e+18,-0.1262054443359375,-0.0541294664144516,-9.87421703338623
1.729497919492194e+18,-0.016201484948396683,0.020013604313135147,-9.894775390625
1.7294979195011942e+18,0.05270521342754364,-0.07895277440547943,-9.870101928710938
1.7294979195101944e+18,-0.03995324671268463,-0.012693672440946102,-9.997668266296387
1.7294979195161946e+18,-0.09696853160858154,0.0705895870923996,-9.948477745056152
1.7294979195251948e+18,-0.02509826049208641,-0.04276134818792343,-9.903186798095703
1.729497919534195e+18,0.026843078434467316,-0.0071571748703718185,-9.993070602416992
1.729497919540195e+18,0.061311621218919754,0.039621345698833466,-10.011540412902832
1.7294979195491953e+18,-0.056053850799798965,0.012724047526717186,-9.968327522277832
1.7294979195581955e+18,-0.015547996386885643,-0.030887486413121223,-9.945287704467773
1.7294979195641956e+18,0.03742280974984169,-0.019077308475971222,-9.956428527832031
1.7294979195731958e+18,0.05429884046316147,0.0018959017470479012,-10.041838645935059
1.729497919582196e+18,0.05540871620178223,0.009645188227295876,-10.036712646484375
1.729497919588196e+18,0.0013459862675517797,0.01806613616645336,-9.979660034179688
1.7294979195971963e+18,-0.004106589592993259,-0.023635631427168846,-10.090597152709961
1.7294979196031964e+18,0.07823626697063446,-0.02256910502910614,-10.063055038452148
1.7294979196121966e+18,0.041147276759147644,-0.019532736390829086,-10.179688453674316
1.7294979196211968e+18,-0.05933184176683426,0.042248763144016266,-10.100053787231445
1.729497919627197e+18,0.07665686309337616,0.07541368901729584,-10.137555122375488
1.729497919636197e+18,0.04502461105585098,0.002212077844887972,-10.272056579589844
1.7294979196421972e+18,0.07224354892969131,-0.032031819224357605,-10.39901351928711
1.7294979196511974e+18,-0.022015780210494995,0.017638210207223892,-10.445189476013184
1.7294979196601976e+18,0.02638583816587925,-0.052331503480672836,-10.516762733459473
1.7294979196691978e+18,-0.021160682663321495,-0.0063204276375472546,-10.465553283691406
1.729497919675198e+18,-0.013653912581503391,-0.007576540112495422,-10.535459518432617
1.7294979196841981e+18,-0.12054666876792908,-0.08759140968322754,-10.533663749694824
1.7294979196931983e+18,0.0008726610685698688,-0.04790950194001198,-10.545894622802734
1.7294979196991985e+18,0.03316741809248924,-0.04140177369117737,-10.555742263793945
1.7294979197141988e+18,0.012946589849889278,0.08233720809221268,-10.534555435180664
1.729497919723199e+18,-0.007818760350346565,-0.024310817942023277,-10.62005615234375
1.7294979197321992e+18,-0.038108035922050476,0.01620529219508171,-10.571060180664062
1.7294979197411994e+18,0.01681656390428543,-0.03795107081532478,-10.566620826721191
1.7294979197471995e+18,0.04630054533481598,0.028813259676098824,-10.563772201538086
1.7294979197561997e+18,0.1041853204369545,0.01085731852799654,-10.595610618591309
1.7294979197652e+18,0.014172886498272419,0.04330378770828247,-10.606249809265137
1.7294979197712e+18,-0.017894547432661057,0.022622279822826385,-10.555129051208496
1.7294979197802002e+18,0.03521767258644104,0.00890027079731226,-10.57098388671875
1.7294979197862003e+18,0.025047682225704193,0.09688809514045715,-10.520962715148926
1.7294979197952005e+18,-0.038949742913246155,0.019173895940184593,-10.530333518981934
1.7294979198042007e+18,-0.08966337144374847,-0.033954448997974396,-10.591285705566406
1.7294979198102008e+18,0.034613676369190216,-0.00484427809715271,-10.616150856018066
1.729497919819201e+18,-0.035316649824380875,-0.0018935734406113625,-10.613883018493652
1.7294979198282012e+18,-0.07940975576639175,-0.03529713302850723,-10.484539031982422
1.7294979198372014e+18,-0.08216556161642075,0.040863748639822006,-10.504570007324219
1.7294979198492017e+18,-0.00039821676909923553,-0.027248565107584,-10.520770072937012
1.7294979198552018e+18,-0.043633848428726196,-0.09465264528989792,-10.636634826660156
1.729497919864202e+18,0.053478553891181946,-0.0013616522774100304,-10.627974510192871
1.7294979198762022e+18,0.005724482703953981,0.04609585553407669,-10.558530807495117
1.7294979198822024e+18,-0.011575109325349331,0.04250330850481987,-10.577361106872559
1.7294979198912026e+18,0.026669058948755264,-0.05036250874400139,-10.551131248474121
1.7294979198972027e+18,0.07048151642084122,-0.05690629035234451,-10.581127166748047
1.729497919906203e+18,0.09366992861032486,-0.10557925701141357,-10.60673713684082
1.729497919915203e+18,0.08848793804645538,0.02537442184984684,-10.586109161376953
1.7294979199212032e+18,0.034858450293540955,-0.02644496224820614,-10.5409517288208
1.7294979199302034e+18,0.045456334948539734,0.052897870540618896,-10.543349266052246
1.7294979199362035e+18,0.06093286722898483,0.007342788390815258,-10.70689582824707
1.7294979199452037e+18,-0.07104723155498505,0.019438497722148895,-10.698591232299805
1.729497919954204e+18,-0.022650886327028275,-0.04057507589459419,-10.634483337402344
1.729497919960204e+18,-0.004069106187671423,-0.06099808216094971,-10.567193984985352
1.7294979199692042e+18,0.0013244536239653826,0.02051909640431404,-10.62259578704834
1.7294979199782044e+18,0.060938917100429535,0.027844449505209923,-10.57751178741455
1.7294979199842045e+18,0.043271757662296295,0.021220266819000244,-10.63931941986084
1.7294979199932047e+18,-0.011506583541631699,0.059921085834503174,-10.626094818115234
1.7294979199992049e+18,-0.03393099829554558,-0.003586543956771493,-10.551313400268555
1.729497920011205e+18,-0.08611342310905457,-0.034259431064128876,-10.637439727783203
1.7294979200202053e+18,-0.10545742511749268,0.017798811197280884,-10.554105758666992
1.7294979200262054e+18,0.021365556865930557,-0.014897720888257027,-10.672707557678223
1.7294979200352056e+18,-0.01291751116514206,0.023458387702703476,-10.633893013000488
1.7294979200442058e+18,-0.040559276938438416,-0.025556564331054688,-10.612298011779785
1.729497920050206e+18,-0.013948921114206314,0.05046169087290764,-10.576268196105957
1.7294979200592061e+18,0.061284247785806656,0.06599066406488419,-10.647130966186523
1.7294979200682063e+18,-0.09978460520505905,0.020154757425189018,-10.663215637207031
1.7294979200742065e+18,-0.05156050994992256,0.014024200849235058,-10.636205673217773
1.7294979200832067e+18,0.06848499178886414,0.02199888974428177,-10.671538352966309
1.7294979200892068e+18,-0.03611059486865997,0.01877804659307003,-10.601073265075684
1.729497920098207e+18,0.02617775648832321,-0.11888472735881805,-10.63612174987793
1.729497920104207e+18,-0.015377332456409931,-0.01354670524597168,-10.571824073791504
1.7294979201132073e+18,0.024764303117990494,0.022516313940286636,-10.516883850097656
1.7294979201222075e+18,0.10245676338672638,-0.0250703115016222,-10.561767578125
1.7294979201282076e+18,-0.013257271610200405,-0.0818827897310257,-10.660202980041504
1.7294979201372078e+18,0.12531551718711853,-0.000879751518368721,-10.631896018981934
1.729497920146208e+18,-0.0374043732881546,0.05307695269584656,-10.654813766479492
1.7294979201522081e+18,0.08946006745100021,0.007364175282418728,-10.564876556396484
1.7294979201612083e+18,-0.0365339033305645,-0.06994079798460007,-10.60688591003418
1.7294979201702085e+18,-0.01799570582807064,0.07906631380319595,-10.676088333129883
1.7294979201792087e+18,0.0287388376891613,-0.034228697419166565,-10.536219596862793
1.7294979201852088e+18,0.030653778463602066,-0.012156135402619839,-10.664453506469727
1.729497920194209e+18,0.03063887730240822,0.006080031860619783,-10.54793643951416
1.7294979202062093e+18,-0.056798048317432404,0.01474600937217474,-10.640036582946777
1.7294979202152095e+18,-0.018244722858071327,0.012485280632972717,-10.590062141418457
1.7294979202242097e+18,-0.05252205953001976,0.044031865894794464,-10.654350280761719
1.7294979202302098e+18,-0.007454647682607174,-0.049959857016801834,-10.655536651611328
1.72949792023621e+18,-0.01944863609969616,0.011948192492127419,-10.596494674682617
1.72949792024521e+18,0.013098434545099735,0.025900762528181076,-10.613765716552734
1.7294979202542103e+18,0.06818687170743942,-0.00046266394201666117,-10.662044525146484
1.7294979202602104e+18,0.004016787279397249,0.0411258228123188,-10.614980697631836
1.7294979202692106e+18,0.006853082217276096,0.05346246808767319,-10.590259552001953
1.7294979202752108e+18,-0.04384096711874008,-0.06795813888311386,-10.537298202514648
1.729497920284211e+18,-0.007988309487700462,0.005134907551109791,-10.592864990234375
1.7294979202932111e+18,-0.00040280603570863605,0.03798523172736168,-10.603354454040527
1.7294979202992113e+18,-0.03189000487327576,-0.028424318879842758,-10.600642204284668
1.7294979203082115e+18,0.05787459760904312,0.03003581427037716,-10.55704402923584
1.7294979203142116e+18,-0.07717528194189072,0.027068953961133957,-10.55930233001709
1.7294979203232118e+18,0.012792153283953667,0.04415260627865791,-10.669981002807617
1.729497920332212e+18,-0.02854665368795395,0.05899140238761902,-10.68233585357666
1.7294979203412122e+18,0.038627833127975464,0.016695836558938026,-10.595298767089844
1.7294979203502124e+18,0.06063494831323624,0.01866457425057888,-10.564635276794434
1.7294979203562125e+18,-0.00927715189754963,-0.015140284784138203,-10.553945541381836
1.7294979203652127e+18,0.0038168691098690033,-0.002519087865948677,-10.584989547729492
1.7294979203712128e+18,-0.010895824059844017,0.00791512057185173,-10.599534034729004
1.7294979203892132e+18,0.002347474917769432,-0.015276771038770676,-10.667726516723633
1.7294979203982134e+18,-0.04762808606028557,0.12102916836738586,-10.599308013916016
1.7294979204072136e+18,-0.01536235399544239,0.023778779432177544,-10.588171005249023
1.7294979204132137e+18,-0.0018823985010385513,-0.054484773427248,-10.714689254760742
1.729497920422214e+18,0.024641213938593864,0.06011694669723511,-10.620831489562988
1.729497920431214e+18,0.03506159782409668,0.049796417355537415,-10.645136833190918
1.7294979204402143e+18,-0.0613647997379303,-0.029047459363937378,-10.670157432556152
1.7294979204492145e+18,0.08536940068006516,0.030447255820035934,-10.551740646362305
1.7294979204552146e+18,0.036074645817279816,-0.004658461548388004,-10.583263397216797
1.7294979204642148e+18,0.008452434092760086,0.015312525443732738,-10.507055282592773
1.729497920470215e+18,0.07848989963531494,0.03910880908370018,-10.571656227111816
1.729497920479215e+18,-0.008584676310420036,0.007830098271369934,-10.492207527160645
1.7294979204882153e+18,-0.07663100212812424,-0.030099237337708473,-10.490760803222656
1.7294979204972155e+18,-0.02806990221142769,-0.014551002532243729,-10.581297874450684
1.7294979205032156e+18,-0.025684431195259094,0.04546095058321953,-10.602035522460938
1.7294979205122158e+18,0.06206918880343437,0.007215332239866257,-10.627175331115723
1.729497920518216e+18,-0.04038892686367035,0.02959919162094593,-10.51878833770752
1.729497920527216e+18,0.022761616855859756,-0.04345269128680229,-10.583227157592773
1.7294979205362163e+18,-0.027648352086544037,0.04111618176102638,-10.570273399353027
1.7294979205422164e+18,-0.019260559231042862,0.06569348275661469,-10.58509349822998
1.7294979205512166e+18,-0.0017830762080848217,0.036241039633750916,-10.571612358093262
1.7294979205572168e+18,-0.013878140598535538,0.07275120913982391,-10.575699806213379
1.729497920566217e+18,-0.05748645216226578,-0.037720661610364914,-10.575716972351074
1.7294979205752172e+18,-0.03474649786949158,0.009129566140472889,-10.577823638916016
1.7294979205842173e+18,-0.01076546497642994,-0.0117091229185462,-10.604633331298828
1.7294979205902175e+18,0.05568748712539673,0.02914281375706196,-10.558854103088379
1.7294979205992177e+18,-0.03356873244047165,-0.03631830960512161,-10.522496223449707
1.7294979206052178e+18,0.011039484292268753,0.03449978679418564,-10.563125610351562
1.729497920614218e+18,-0.04906001314520836,-0.059095073491334915,-10.61410140991211
1.7294979206262182e+18,-0.010306887328624725,-0.05896822363138199,-10.582242965698242
1.7294979206322184e+18,-0.010773801244795322,-0.009820766746997833,-10.627338409423828
1.7294979206412186e+18,0.00287246098741889,0.08404242247343063,-10.51745319366455
1.7294979206502188e+18,-0.03693441301584244,0.021068863570690155,-10.522627830505371
1.729497920656219e+18,-0.08209842443466187,-0.10388997197151184,-10.543851852416992
1.729497920665219e+18,0.02066752314567566,-0.0029916854109615088,-10.4813871383667
1.7294979206712192e+18,0.06995610892772675,0.003633377142250538,-10.607301712036133
1.7294979206802194e+18,0.02677735686302185,-0.0519685223698616,-10.509113311767578
1.7294979206892196e+18,-0.024463878944516182,0.029955221340060234,-10.52211856842041
1.7294979206982198e+18,-0.08013755828142166,-0.034853000193834305,-10.474881172180176
1.72949792070422e+18,0.11112551391124725,-0.0074166362173855305,-10.542168617248535
1.72949792071322e+18,-0.07771915197372437,-0.015045633539557457,-10.636994361877441
1.7294979207192202e+18,-0.05615893006324768,0.028746100142598152,-10.584623336791992
1.7294979207282204e+18,-0.003287972416728735,-0.07368002831935883,-10.554701805114746
1.7294979207372206e+18,-0.00354933924973011,-0.06676656752824783,-10.488885879516602
1.7294979207432207e+18,-0.1035914272069931,-0.041814036667346954,-10.576118469238281
1.729497920755221e+18,-0.00606480473652482,0.0542374849319458,-10.501321792602539
1.729497920761221e+18,0.021904990077018738,0.03487120196223259,-10.553625106811523
1.7294979207702213e+18,-0.06690694391727448,-0.008021309040486813,-10.531534194946289
1.7294979207792215e+18,-0.01890871301293373,-0.00497807702049613,-10.540202140808105
1.7294979207882217e+18,0.013388171792030334,-0.012740641832351685,-10.554102897644043
1.729497920797222e+18,-0.048456430435180664,-0.01611289754509926,-10.535015106201172
1.729497920803222e+18,-0.02175462618470192,-0.038292255252599716,-10.586917877197266
1.7294979208152223e+18,0.03073534555733204,0.08790608495473862,-10.39928150177002
1.7294979208242225e+18,0.014095043763518333,0.04993344098329544,-10.43417739868164
1.7294979208302226e+18,-0.06452830135822296,-0.05216272920370102,-10.492475509643555
1.7294979208392228e+18,-0.027945581823587418,0.039150822907686234,-10.440311431884766
1.729497920845223e+18,0.005489998962730169,-0.010093577206134796,-10.502232551574707
1.729497920854223e+18,-0.03378196805715561,-0.01136715430766344,-10.538355827331543
1.7294979208632233e+18,0.0024603719357401133,-0.007012735120952129,-10.531700134277344
1.7294979208692234e+18,0.05504342541098595,0.007893447764217854,-10.46771240234375
1.7294979208782236e+18,-0.052858829498291016,0.03172425180673599,-10.538154602050781
1.7294979208872238e+18,0.05098892003297806,0.008967692032456398,-10.521079063415527
1.729497920893224e+18,-0.03118819370865822,-0.03237157315015793,-10.51772403717041
1.7294979209022241e+18,0.04465356096625328,0.011117013171315193,-10.546041488647461
1.7294979209112243e+18,-0.03389650210738182,-0.020473681390285492,-10.510875701904297
1.7294979209172244e+18,0.06449981778860092,-0.02603594958782196,-10.46259880065918
1.7294979209262246e+18,0.013550342991948128,0.11640497297048569,-10.577193260192871
1.7294979209322248e+18,-0.05557817965745926,-0.020245566964149475,-10.525259971618652
1.729497920941225e+18,0.031076567247509956,-0.0023266931530088186,-10.458187103271484
1.7294979209502252e+18,0.015713296830654144,-0.052889589220285416,-10.538186073303223
1.7294979209592253e+18,-0.019298743456602097,0.01864568330347538,-10.449516296386719
1.7294979209682255e+18,0.06190900504589081,0.09635922312736511,-10.395676612854004
1.7294979209772257e+18,-0.003419596701860428,-0.023313285782933235,-10.377150535583496
1.729497920986226e+18,0.04206165671348572,0.018956489861011505,-10.321099281311035
1.729497920995226e+18,0.013223713263869286,-0.023722272366285324,-10.411089897155762
1.7294979210012262e+18,-0.019665269181132317,0.020627295598387718,-10.319392204284668
1.7294979210102264e+18,0.029989272356033325,0.0004894267185591161,-10.30746841430664
1.7294979210162266e+18,0.06167745590209961,0.05642775446176529,-10.281599998474121
1.7294979210252268e+18,-0.04723414033651352,0.005247197113931179,-10.275628089904785
1.729497921034227e+18,0.052898235619068146,-0.05232023075222969,-10.239593505859375
1.7294979210432271e+18,-0.011771797202527523,-0.026163924485445023,-10.19647216796875
1.7294979210522273e+18,0.02818201296031475,-0.03803049027919769,-10.155510902404785
1.7294979210612275e+18,0.01233404129743576,0.01926044374704361,-10.182299613952637
1.7294979210672276e+18,-0.027246586978435516,-0.021598748862743378,-10.118488311767578
1.7294979210762278e+18,-0.008624191395938396,-0.07737842947244644,-10.150996208190918
1.729497921085228e+18,0.08382345736026764,-0.05304538831114769,-10.099896430969238
1.7294979210912282e+18,-0.011223182082176208,0.0018540044547989964,-9.962835311889648
1.7294979211002284e+18,0.007032386958599091,-0.06896304339170456,-9.966099739074707
1.7294979211062285e+18,0.04945078119635582,0.007874401286244392,-10.06037712097168
1.7294979211152287e+18,0.005892420187592506,0.006364018190652132,-10.00719165802002
1.7294979211242289e+18,-0.08714880794286728,-0.047175899147987366,-9.949055671691895
1.729497921130229e+18,-0.033516474068164825,-0.011167277581989765,-9.991888999938965
1.7294979211392292e+18,0.009948067367076874,0.010552638210356236,-9.947689056396484
1.7294979211482294e+18,0.038875043392181396,0.05798209086060524,-9.802878379821777
1.7294979211542295e+18,0.055742040276527405,-0.04943424090743065,-9.8615083694458
1.7294979211632297e+18,-0.04567457735538483,0.0718158483505249,-9.80040454864502
1.7294979211692298e+18,-0.0035758069716393948,0.0556618869304657,-9.823321342468262
1.72949792117823e+18,-0.003960323520004749,-0.01564309559762478,-9.774373054504395
1.7294979211872302e+18,-0.044304054230451584,0.003759629325941205,-9.771617889404297
1.7294979211932303e+18,-0.05472686141729355,0.022349167615175247,-9.780366897583008
1.7294979212022305e+18,0.023698095232248306,0.03406627103686333,-9.682538986206055
1.7294979212112307e+18,0.018362846225500107,0.0018886367324739695,-9.76239013671875
1.7294979212172308e+18,-0.042985569685697556,-0.06513474136590958,-9.684885025024414
1.729497921226231e+18,-0.034480441361665726,0.0072460961528122425,-9.723808288574219
1.7294979212352312e+18,0.03132953867316246,0.010093582794070244,-9.73012924194336
1.7294979212412314e+18,-0.033327050507068634,0.029377520084381104,-9.70852279663086
1.7294979212502316e+18,-0.03607894480228424,-0.014032626524567604,-9.77873420715332
1.7294979212592317e+18,-0.05497504398226738,-0.009314565919339657,-9.66434097290039
1.729497921265232e+18,0.07797709852457047,0.013382754288613796,-9.695693969726562
1.729497921274232e+18,0.040416426956653595,-0.011749683879315853,-9.662491798400879
1.7294979212802322e+18,0.005533888004720211,-0.008284111507236958,-9.668018341064453
1.7294979212892324e+18,0.03305010497570038,-0.0844239816069603,-9.693437576293945
1.7294979212952325e+18,-0.06133849918842316,0.039048388600349426,-9.625767707824707
1.7294979213042327e+18,0.011067585088312626,0.007691884413361549,-9.672410011291504
1.729497921313233e+18,0.03698733076453209,0.003852996975183487,-9.740659713745117
1.729497921319233e+18,0.07832633703947067,-0.04744609445333481,-9.686817169189453
1.7294979213282332e+18,-0.013975203968584538,-0.021977398544549942,-9.579410552978516
1.7294979213372334e+18,-0.06908690929412842,-0.0032284148037433624,-9.64466667175293
1.7294979213432335e+18,-0.021825706586241722,0.004800910595804453,-9.717374801635742
1.7294979213522337e+18,0.0767761617898941,0.018739577382802963,-9.584944725036621
1.729497921361234e+18,0.07419422268867493,-0.03537027910351753,-9.62881088256836
1.729497921367234e+18,-0.012145139276981354,-0.07237938791513443,-9.668448448181152
1.7294979213762342e+18,0.017772097140550613,0.018825795501470566,-9.644917488098145
1.7294979213822344e+18,0.031207375228405,-0.005552939139306545,-9.59754467010498
1.7294979213912346e+18,0.06214812770485878,0.018990781158208847,-9.694931030273438
1.7294979214002348e+18,0.007663180585950613,-0.01674112118780613,-9.59866714477539
1.729497921409235e+18,0.020887620747089386,0.0842977911233902,-9.624022483825684
1.729497921415235e+18,-0.007589245215058327,0.02275988645851612,-9.609291076660156
1.7294979214242353e+18,-0.011539914645254612,0.06323260068893433,-9.67991828918457
1.7294979214332355e+18,-0.08821327984333038,0.03156662732362747,-9.552674293518066
1.7294979214392356e+18,0.055224351584911346,0.0007602280238643289,-9.690823554992676
1.7294979214482358e+18,-0.0029429199639707804,0.013043945655226707,-9.651620864868164
1.729497921457236e+18,-0.007853766903281212,-0.03821580857038498,-9.747007369995117
1.729497921463236e+18,0.07334911078214645,0.04571390524506569,-9.7144136428833
1.7294979214722363e+18,0.005358049646019936,0.02750471979379654,-9.651175498962402
1.7294979214782364e+18,0.024543510749936104,-0.13935250043869019,-9.571855545043945
1.7294979214872366e+18,0.09036971628665924,-0.001846187631599605,-9.555704116821289
1.7294979214962368e+18,-0.043680254369974136,-0.0687173455953598,-9.620926856994629
1.729497921502237e+18,-0.0019052019342780113,-0.003337368369102478,-9.623252868652344
1.729497921511237e+18,0.010096564888954163,0.08550435304641724,-9.638548851013184
1.7294979215202373e+18,-0.008966314606368542,-0.054075539112091064,-9.586955070495605
1.7294979215322376e+18,-0.003688281634822488,0.000756633176933974,-9.621201515197754
1.7294979215412378e+18,-0.03905558958649635,0.051101259887218475,-9.618691444396973
1.729497921550238e+18,-0.029778532683849335,0.012884682975709438,-9.579446792602539
1.729497921556238e+18,0.021464060992002487,-0.0246125478297472,-9.6197509765625
1.7294979215652383e+18,0.0003369967162143439,-0.02461724914610386,-9.555848121643066
1.7294979215742385e+18,0.005648571997880936,0.03560798242688179,-9.627479553222656
1.7294979215832387e+18,0.019517239183187485,-0.017179759219288826,-9.575467109680176
1.7294979215892388e+18,-0.05017707124352455,0.005680580623447895,-9.616759300231934
1.729497921598239e+18,0.015272922813892365,-0.000965173589065671,-9.617813110351562
1.7294979216072392e+18,-0.04664149135351181,-0.017644910141825676,-9.548235893249512
1.7294979216132393e+18,0.012849252671003342,-0.06121888384222984,-9.62806224822998
1.7294979216222395e+18,-0.017066553235054016,-0.004905856214463711,-9.63200569152832
1.7294979216282396e+18,-0.022509748116135597,0.01751513034105301,-9.594200134277344
1.7294979216372398e+18,-0.03278046473860741,-0.030346622690558434,-9.646720886230469
1.72949792164324e+18,0.0498383454978466,0.019687693566083908,-9.659415245056152
1.7294979216522401e+18,0.10422521829605103,-0.0222324151545763,-9.597660064697266
1.7294979216612403e+18,-0.003547054948285222,-0.04247303307056427,-9.587618827819824
1.7294979216672404e+18,0.01138324849307537,0.012116871774196625,-9.548697471618652
1.7294979216762406e+18,-0.021353349089622498,0.0010195453651249409,-9.649862289428711
1.7294979216852408e+18,-0.01035059429705143,0.007071943022310734,-9.572383880615234
1.729497921694241e+18,0.020990218967199326,0.07964810729026794,-9.620115280151367
1.7294979217002412e+18,0.0236355047672987,-0.023047281429171562,-9.62285041809082
1.7294979217092413e+18,-0.03702646121382713,0.008917359635233879,-9.585138320922852
1.7294979217182415e+18,-0.05206042900681496,0.011643696576356888,-9.590961456298828
1.7294979217272417e+18,-0.015157938003540039,-0.006596224848181009,-9.490692138671875
1.7294979217332419e+18,-0.048766374588012695,0.016698678955435753,-9.598158836364746
1.729497921742242e+18,0.02493923343718052,-0.03897351026535034,-9.58720874786377
1.7294979217482422e+18,0.0003419178246986121,-0.009688200429081917,-9.565751075744629
1.7294979217572424e+18,0.043897416442632675,0.0007643266580998898,-9.520944595336914
1.7294979217632425e+18,0.0013912401627749205,0.04941820725798607,-9.608627319335938
1.7294979217722427e+18,0.04605868086218834,0.023559434339404106,-9.609846115112305
1.729497921781243e+18,-0.0024910331703722477,-0.03358615189790726,-9.565206527709961
1.729497921790243e+18,-0.07632358372211456,-0.06852316111326218,-9.538500785827637
1.7294979217962432e+18,-0.02106471359729767,-0.058080144226551056,-9.455904006958008
1.7294979218052434e+18,-0.009743824601173401,-0.06274810433387756,-9.621030807495117
1.7294979218112435e+18,-0.02966194599866867,0.020461229607462883,-9.59061336517334
1.7294979218202437e+18,-0.01670270785689354,0.016361599788069725,-9.611462593078613
1.7294979218262438e+18,0.025932790711522102,0.03812794014811516,-9.621931076049805
1.729497921835244e+18,-0.07464846223592758,-0.009956173598766327,-9.535980224609375
1.7294979218442442e+18,-0.008315847255289555,0.03595009073615074,-9.556977272033691
1.7294979218502444e+18,0.04723232612013817,-0.046572472900152206,-9.58633804321289
1.7294979218592445e+18,0.07038159668445587,0.025022409856319427,-9.579795837402344
1.7294979218682447e+18,0.012690408155322075,0.0010820345487445593,-9.560100555419922
1.729497921877245e+18,0.04736851155757904,0.026817522943019867,-9.514910697937012
1.729497921886245e+18,-0.011656098067760468,0.028898173943161964,-9.485682487487793
1.7294979218982454e+18,0.08464127033948898,-0.008727576583623886,-9.633001327514648
1.7294979219072456e+18,-0.008585022762417793,0.03636496886610985,-9.570901870727539
1.7294979219132457e+18,-0.10373266786336899,-0.0684683546423912,-9.541516304016113
1.729497921922246e+18,0.10385413467884064,-0.022122913971543312,-9.589855194091797
1.729497921931246e+18,0.03704305365681648,-0.06157524511218071,-9.517515182495117
1.7294979219402463e+18,-0.04756828024983406,0.03601521998643875,-9.549015045166016
1.7294979219462464e+18,-0.018942855298519135,0.017068197950720787,-9.551247596740723
1.7294979219552466e+18,-0.02900809422135353,-0.01641024835407734,-9.478010177612305
1.7294979219642468e+18,0.034743499010801315,0.009833438321948051,-9.59355640411377
1.729497921970247e+18,-0.06656645983457565,-0.06456762552261353,-9.458939552307129
1.729497921979247e+18,0.0037696193903684616,0.07749709486961365,-9.572979927062988
1.7294979219882473e+18,-0.06909341365098953,-0.07123428583145142,-9.527252197265625
1.7294979220032476e+18,-0.01968992128968239,0.00023959932150319219,-9.507600784301758
1.7294979220092477e+18,0.07516174763441086,0.036249514669179916,-9.548665046691895
1.729497922024248e+18,0.010290426202118397,-0.02072780206799507,-9.503663063049316
1.7294979220302482e+18,-0.008311194367706776,-0.028954938054084778,-9.57464599609375
1.7294979220452485e+18,0.03210809454321861,-0.019645055755972862,-9.499149322509766
1.7294979220542487e+18,-0.02041514776647091,0.017801057547330856,-9.464484214782715
1.7294979220602488e+18,0.0960940420627594,-0.04525281488895416,-9.52103042602539
1.729497922069249e+18,-0.022178802639245987,0.025904692709445953,-9.508137702941895
1.7294979220782492e+18,0.006013921927660704,0.026884211227297783,-9.409562110900879
1.7294979220842493e+18,0.0511147566139698,-0.025125913321971893,-9.492164611816406
1.7294979220932495e+18,0.009748528711497784,-0.0012544114142656326,-9.530523300170898
1.7294979221022497e+18,-0.010168569162487984,-0.02028791792690754,-9.524880409240723
1.7294979221082499e+18,-0.008108883164823055,0.020124029368162155,-9.597890853881836
1.72949792211725e+18,0.004284908063709736,0.030353650450706482,-9.512327194213867
1.7294979221232502e+18,0.009547018446028233,0.03389359265565872,-9.525853157043457
1.7294979221322504e+18,-0.023032281547784805,0.004149635322391987,-9.491137504577637
1.7294979221412506e+18,-0.060385629534721375,-0.09619764238595963,-9.44310188293457
1.7294979221472507e+18,-0.012992237694561481,-0.011003927327692509,-9.480738639831543
1.729497922156251e+18,0.07040105760097504,-0.05137677118182182,-9.526924133300781
1.729497922165251e+18,-0.00053353764815256,0.03615723177790642,-9.465563774108887
1.7294979221712512e+18,0.00846919883042574,-0.03956982120871544,-9.561457633972168
1.7294979221802514e+18,0.009694949723780155,-0.015807509422302246,-9.479360580444336
1.7294979221862515e+18,0.029088545590639114,0.02222222089767456,-9.467562675476074
1.7294979221952517e+18,0.04819747060537338,0.06324545294046402,-9.488144874572754
1.729497922204252e+18,-0.017196711152791977,0.0017787651158869267,-9.449591636657715
1.729497922213252e+18,-0.0133515615016222,-0.05195566266775131,-9.472904205322266
1.7294979222192522e+18,0.06193799525499344,-0.1001553162932396,-9.544503211975098
1.7294979222282524e+18,-0.024344081059098244,-0.07349397987127304,-9.491586685180664
1.7294979222372526e+18,-0.05846181884407997,-0.0358867421746254,-9.48991870880127
1.7294979222432527e+18,-0.010325716808438301,-0.03280389681458473,-9.436395645141602
1.729497922252253e+18,0.05927908420562744,0.045667603611946106,-9.48336124420166
1.729497922258253e+18,-0.019389105960726738,0.09256461262702942,-9.446409225463867
1.7294979222672532e+18,-0.01680704578757286,0.020104901865124702,-9.449870109558105
1.7294979222732534e+18,0.045348744839429855,-0.012553869746625423,-9.412291526794434
1.7294979222822536e+18,-0.018871622160077095,-0.01703215017914772,-9.533761024475098
1.7294979222912538e+18,-0.017554935067892075,-0.0294109508395195,-9.52978801727295
1.729497922300254e+18,-0.05496835336089134,-0.009299390017986298,-9.48359489440918
1.729497922306254e+18,0.09401428699493408,0.05788315087556839,-9.446977615356445
1.7294979223152543e+18,0.03541886806488037,0.033649519085884094,-9.47632884979248
1.7294979223242545e+18,0.025497421622276306,0.027605051174759865,-9.378400802612305
1.7294979223332547e+18,-0.015141519717872143,-0.02892141044139862,-9.473615646362305
1.7294979223422548e+18,-0.010925316251814365,0.016842177137732506,-9.473554611206055
1.729497922348255e+18,0.03146762400865555,0.06265455484390259,-9.483771324157715
1.7294979223572552e+18,-0.00960572436451912,0.0004882902139797807,-9.479456901550293
1.7294979223662554e+18,0.039692215621471405,-0.0009652464650571346,-9.525665283203125
1.7294979223752556e+18,-0.06459782272577286,-0.006526771001517773,-9.371707916259766
1.7294979223842557e+18,0.023290235549211502,0.036018867045640945,-9.476075172424316
1.7294979223902559e+18,0.022525906562805176,0.02396286465227604,-9.33409309387207
1.729497922399256e+18,-0.0051063839346170425,0.029020430520176888,-9.463848114013672
1.7294979224082563e+18,-0.0016966813709586859,0.08289798349142075,-9.512434005737305
1.7294979224142564e+18,-0.01604481041431427,0.023115988820791245,-9.451582908630371
1.7294979224232566e+18,-0.009228654205799103,-0.019114259630441666,-9.464700698852539
1.7294979224322568e+18,0.04070578143000603,0.004096844233572483,-9.416797637939453
1.729497922438257e+18,0.057453516870737076,-0.06542729586362839,-9.469937324523926
1.729497922447257e+18,0.031150544062256813,-0.06902443617582321,-9.498868942260742
1.7294979224532572e+18,-0.03764062002301216,-0.07602642476558685,-9.404623031616211
1.7294979224652575e+18,-0.014326623640954494,0.007547855377197266,-9.433711051940918
1.7294979224742577e+18,0.029664846137166023,-0.0354454405605793,-9.468687057495117
1.7294979224802578e+18,0.09297382086515427,0.0231227595359087,-9.494879722595215
1.729497922489258e+18,0.043424200266599655,0.03128059580922127,-9.453465461730957
1.7294979224982582e+18,-0.03264310210943222,-0.0439419262111187,-9.377145767211914
1.7294979225042583e+18,-0.01169342640787363,-0.013438967987895012,-9.462905883789062
1.7294979225132585e+18,0.03956964612007141,0.019264502450823784,-9.425148010253906
1.7294979225222587e+18,-0.0781279131770134,-0.04592421278357506,-9.439244270324707
1.7294979225282588e+18,-0.02097506634891033,-0.002048681490123272,-9.453750610351562
1.729497922537259e+18,0.005681674927473068,0.0540032684803009,-9.465754508972168
1.7294979225462592e+18,-0.039992496371269226,0.021538134664297104,-9.509980201721191
1.7294979225522593e+18,0.011739656329154968,-0.04570616036653519,-9.382942199707031
1.7294979225612595e+18,-0.07184919714927673,0.04882597550749779,-9.426032066345215
1.7294979225702597e+18,-0.003213268704712391,0.01462440937757492,-9.387593269348145
1.7294979225762598e+18,0.021632706746459007,-0.0848173052072525,-9.471365928649902
1.72949792258526e+18,0.01856430061161518,0.03994825854897499,-9.454479217529297
1.7294979225912602e+18,0.032321568578481674,-0.08295933157205582,-9.387202262878418
1.7294979226002604e+18,0.02107257954776287,0.028867213055491447,-9.409867286682129
1.7294979226092605e+18,0.04554488882422447,-0.02975054830312729,-9.450162887573242
1.7294979226152607e+18,-0.06854318827390671,-0.08543332666158676,-9.386526107788086
1.7294979226242609e+18,-0.009765313006937504,-0.05006444826722145,-9.361401557922363
1.729497922633261e+18,0.040853600949048996,0.010937088169157505,-9.436662673950195
1.7294979226392612e+18,0.012942938134074211,0.0822630226612091,-9.415258407592773
1.7294979226482614e+18,0.01435723714530468,-0.04084458947181702,-9.442168235778809
1.7294979226572616e+18,0.06576001644134521,-0.05008833110332489,-9.395927429199219
1.7294979226632617e+18,0.03322410210967064,-0.03033018298447132,-9.393279075622559
1.729497922672262e+18,-0.04393860697746277,0.008251688443124294,-9.450056076049805
1.729497922681262e+18,-0.015872718766331673,-0.0467863455414772,-9.359821319580078
1.7294979226902623e+18,-0.06117947772145271,0.031189043074846268,-9.422233581542969
1.7294979226962624e+18,-0.021600814536213875,0.02487759292125702,-9.332987785339355
1.7294979227052626e+18,-0.027382390573620796,0.04574744403362274,-9.3169584274292
1.7294979227112627e+18,-0.022168438881635666,0.1099889799952507,-9.207235336303711
1.729497922720263e+18,0.0076957568526268005,0.045885924249887466,-9.235076904296875
1.729497922726263e+18,-0.06526238471269608,0.010005513206124306,-9.170255661010742
1.7294979227352632e+18,0.03338183835148811,0.012221117503941059,-9.310860633850098
1.7294979227442634e+18,0.01836811564862728,0.0025590555742383003,-9.229595184326172
1.7294979227502636e+18,0.02102399617433548,0.07613418251276016,-9.2183256149292
1.7294979227592637e+18,-0.008320828899741173,0.0402555949985981,-9.106274604797363
1.729497922765264e+18,-0.03703994303941727,0.0064078401774168015,-9.076924324035645
1.729497922774264e+18,-0.02343163825571537,-0.0021871174685657024,-9.104026794433594
1.7294979227832643e+18,0.02613196149468422,-0.0030857636593282223,-9.002237319946289
1.7294979227952645e+18,-0.05605151131749153,0.06371802091598511,-9.069873809814453
1.7294979228042647e+18,0.02247973158955574,0.049870189279317856,-8.993515014648438
1.7294979228102648e+18,0.03077462874352932,0.0197742972522974,-8.938804626464844
1.729497922819265e+18,0.038708217442035675,0.0669248029589653,-9.015503883361816
1.7294979228252652e+18,0.059889666736125946,-0.002560391090810299,-8.837675094604492
1.7294979228342653e+18,-0.0504906065762043,-0.028858212754130363,-8.815040588378906
1.7294979228402655e+18,-0.05574930086731911,-0.05683417618274689,-8.939037322998047
1.7294979228492657e+18,0.03912030905485153,-0.002733333967626095,-8.802129745483398
1.7294979228582659e+18,0.04004703089594841,-0.06470735371112823,-8.853872299194336
1.729497922867266e+18,-0.008117866702377796,-0.018250733613967896,-8.772329330444336
1.7294979228762662e+18,0.02291545830667019,0.03219364583492279,-8.729238510131836
1.7294979228822664e+18,0.06769750267267227,0.011812210083007812,-8.714862823486328
1.7294979228912666e+18,-0.04164813086390495,-0.025913074612617493,-8.721625328063965
1.7294979229002668e+18,0.0030864309519529343,-0.031796105206012726,-8.683871269226074
1.729497922909267e+18,0.0024181988555938005,0.010550604201853275,-8.706791877746582
1.7294979229182671e+18,0.03370669484138489,0.024434903636574745,-8.626879692077637
1.7294979229272673e+18,-0.031087679788470268,-0.01090333890169859,-8.61698055267334
1.7294979229332675e+18,0.0042906273156404495,0.042766980826854706,-8.62939453125
1.7294979229422676e+18,0.03475670889019966,-0.006209694780409336,-8.634743690490723
1.7294979229512678e+18,-0.045351434499025345,0.04294644296169281,-8.691756248474121
1.729497922960268e+18,0.030831079930067062,0.007695303298532963,-8.75582218170166
1.7294979229662682e+18,-0.02925124391913414,0.011553043499588966,-8.68878173828125
1.7294979229752684e+18,-0.005867266561836004,0.003809921443462372,-8.668876647949219
1.7294979229842685e+18,0.00031687767477706075,-0.008562866598367691,-8.69074535369873
1.7294979229902687e+18,-0.013565952889621258,-0.05765433982014656,-8.736429214477539
1.7294979229992689e+18,0.07437919825315475,0.035635776817798615,-8.741764068603516
1.729497923008269e+18,0.040456678718328476,-0.04998758062720299,-13.938827514648438
1.7294979230142692e+18,0.03268960863351822,-0.07428407669067383,-15.546915054321289
1.7294979230232694e+18,0.026000725105404854,-0.0059119416400790215,-16.103273391723633
1.7294979230322696e+18,-0.0037718412932008505,-0.046063996851444244,-16.297677993774414
1.7294979230412698e+18,0.023108534514904022,-0.08806108683347702,-16.10936164855957
1.72949792305027e+18,0.007455939427018166,0.00293176993727684,-16.144620895385742
1.72949792305627e+18,0.01233518123626709,-0.06473788619041443,-16.14678955078125
1.7294979230652703e+18,-0.013253415934741497,0.037178780883550644,-15.88397216796875
1.7294979230742705e+18,-0.025365572422742844,0.035883381962776184,-15.765175819396973
1.7294979230832707e+18,0.05215474218130112,0.03318389505147934,-15.708958625793457
1.7294979230892708e+18,0.009467020630836487,-0.01235517580062151,-15.562231063842773
1.729497923098271e+18,0.029941042885184288,0.025307362899184227,-15.41336441040039
1.7294979231072712e+18,-0.03890753164887428,0.021679513156414032,-15.305608749389648
1.7294979231162714e+18,-0.05518435686826706,0.05300525948405266,-15.268775939941406
1.7294979231222715e+18,-0.0285711158066988,0.12058796733617783,-15.109766006469727
1.7294979231312717e+18,-0.03542690724134445,-0.04888436943292618,-15.006555557250977
1.7294979231372718e+18,-0.03396984189748764,0.01813829131424427,-14.881657600402832
1.729497923146272e+18,0.08196321129798889,-0.0050249965861439705,-14.771327018737793
1.7294979231522721e+18,0.010240912437438965,-0.04147038608789444,-14.691139221191406
1.7294979231612723e+18,0.003482857719063759,-0.056452617049217224,-14.614561080932617
1.7294979231672724e+18,0.013579091988503933,-0.005248873494565487,-14.46955680847168
1.7294979231762726e+18,0.005669015925377607,-0.02283831313252449,-14.446805953979492
1.7294979231852728e+18,-0.009593239985406399,-0.04074301943182945,-14.221382141113281
1.729497923194273e+18,0.0034390613436698914,-0.014111369848251343,-14.22903823852539
1.7294979232002732e+18,-0.02473478391766548,0.04431584104895592,-14.07026481628418
1.7294979232092733e+18,-0.037028949707746506,-0.004366674926131964,-13.92967414855957
1.7294979232152735e+18,-0.013657787814736366,0.007622608449310064,-14.001270294189453
1.7294979232242737e+18,0.07668392360210419,-0.002340261358767748,-13.779712677001953
1.7294979232332739e+18,-0.06739447265863419,0.013085060752928257,-13.738751411437988
1.729497923239274e+18,0.010053109377622604,0.004351506009697914,-13.58463191986084
1.7294979232482742e+18,-0.03849047049880028,0.013722928240895271,-13.59737777709961
1.7294979232572744e+18,0.09924668073654175,-0.08614948391914368,-13.548324584960938
1.7294979232632745e+18,-0.009639117866754532,-0.05671655014157295,-13.34184741973877
1.7294979232722747e+18,0.02171206846833229,-0.053126994520425797,-13.286747932434082
1.7294979232782748e+18,-0.05010034888982773,0.03530047833919525,-13.412158012390137
1.729497923287275e+18,0.022374708205461502,-0.044094789773225784,-13.161398887634277
1.7294979232962752e+18,0.02778009884059429,0.005510599352419376,-13.043431282043457
1.7294979233022753e+18,-0.006182126235216856,-0.009294620715081692,-12.97077751159668
1.7294979233112755e+18,-0.000764724682085216,0.04798533022403717,-12.96337604522705
1.7294979233202757e+18,0.004225351847708225,-0.08566417545080185,-12.916068077087402
1.729497923329276e+18,0.00358747411519289,0.03555050119757652,-12.837006568908691
1.729497923335276e+18,0.024466287344694138,0.012471440248191357,-12.802814483642578
1.7294979233442762e+18,0.015298707410693169,0.06289330869913101,-12.774600982666016
1.7294979233532764e+18,0.04679837077856064,0.03735055774450302,-12.682657241821289
1.7294979233592765e+18,-0.06774775683879852,0.04681168869137764,-12.631669044494629
1.7294979233682767e+18,0.060205500572919846,0.00835447572171688,-12.524481773376465
1.729497923377277e+18,0.05180494859814644,-0.008892111480236053,-12.54158878326416
1.729497923386277e+18,-0.02605549991130829,0.10745001584291458,-12.51021957397461
1.7294979233922772e+18,-0.023539386689662933,-0.025261150673031807,-12.335198402404785
1.7294979234012774e+18,-0.013025966472923756,0.02278103120625019,-12.2869873046875
1.7294979234072776e+18,0.02406679093837738,0.0036577724386006594,-12.251251220703125
1.7294979234162778e+18,-0.04952109232544899,0.024399781599640846,-12.358445167541504
1.729497923425278e+18,-0.002628609072417021,-0.058887578547000885,-12.190251350402832
1.729497923431278e+18,0.07892358303070068,-0.03095955401659012,-12.151000022888184
1.7294979234402783e+18,0.0030928123742341995,-0.013663394376635551,-12.083878517150879
1.7294979234462784e+18,0.012682323344051838,0.0023613956291228533,-12.09157943725586
1.7294979234552786e+18,0.029754942283034325,-0.08067876845598221,-11.988863945007324
1.7294979234642788e+18,-0.04701446741819382,-0.009169746190309525,-12.008925437927246
1.729497923470279e+18,-0.02935914136469364,0.00880160741508007,-11.950396537780762
1.729497923479279e+18,-0.03462137281894684,-0.005822919309139252,-11.892425537109375
1.7294979234882793e+18,0.05386070907115936,0.026644641533493996,-11.795218467712402
1.7294979234942794e+18,-0.013925286009907722,0.026690641418099403,-11.777939796447754
1.7294979235032796e+18,0.004986104555428028,0.05927998572587967,-11.751301765441895
1.7294979235092797e+18,-0.019329627975821495,-0.0047636860981583595,-11.76388168334961
1.72949792351828e+18,0.000250215467531234,0.06354478001594543,-11.621898651123047
1.72949792352728e+18,-0.07883258908987045,-0.0010124403052031994,-11.63971996307373
1.7294979235332803e+18,-0.00362669606693089,0.02810496836900711,-11.658387184143066
1.7294979235422804e+18,0.0016016728477552533,-0.03154567629098892,-11.57135009765625
1.7294979235512806e+18,0.017384404316544533,-0.07093935459852219,-11.528043746948242
1.729497923563281e+18,-0.02026408538222313,0.014866774901747704,-11.511796951293945
1.7294979235752812e+18,-0.0333792045712471,-0.018425917252898216,-11.41562557220459
1.7294979235872814e+18,-0.02316206693649292,0.0004710984358098358,-11.369819641113281
1.7294979235962816e+18,0.05830388143658638,0.035560183227062225,-11.316178321838379
1.7294979236052818e+18,0.024241309612989426,-0.002748954575508833,-11.393767356872559
1.729497923611282e+18,-0.015967678278684616,-0.012464748695492744,-11.261382102966309
1.729497923620282e+18,0.05961010232567787,-0.06743493676185608,-11.298848152160645
1.7294979236292823e+18,0.033881764858961105,-0.012319381348788738,-11.238143920898438
1.7294979236382825e+18,0.017388584092259407,-0.019687900319695473,-11.191329002380371
1.7294979236472827e+18,0.03052571415901184,0.02635619044303894,-11.257776260375977
1.7294979236532828e+18,-0.06604532152414322,0.004986376501619816,-11.19448471069336
1.729497923662283e+18,-0.0017247532960027456,-0.04849589988589287,-11.122669219970703
1.7294979236712832e+18,0.06229459494352341,-0.02310876175761223,-11.078853607177734
1.7294979236772833e+18,0.0032056099735200405,-0.08286011964082718,-11.133125305175781
1.7294979236862835e+18,0.05723010003566742,0.08482861518859863,-11.074029922485352
1.7294979236952837e+18,0.017671018838882446,0.018489370122551918,-11.071045875549316
1.729497923704284e+18,0.02783828228712082,-0.04196467623114586,-10.948457717895508
1.729497923713284e+18,0.04394811764359474,-0.03403192013502121,-11.007770538330078
1.7294979237222843e+18,-0.03810674697160721,0.011523494496941566,-10.956658363342285
1.7294979237282844e+18,-0.023438669741153717,0.005838513374328613,-10.981810569763184
1.7294979237372846e+18,0.018427735194563866,0.03779160976409912,-10.927867889404297
1.7294979237462848e+18,-0.04051994904875755,0.02789629064500332,-10.907044410705566
1.729497923755285e+18,0.047260962426662445,-0.052438896149396896,-10.866658210754395
1.729497923761285e+18,-0.006928880233317614,0.04460959881544113,-10.893994331359863
1.7294979237702853e+18,-0.04125822335481644,0.051366981118917465,-10.775218963623047
1.7294979237792855e+18,-0.061701737344264984,0.0650005042552948,-10.785335540771484
1.7294979237882857e+18,-0.019981756806373596,-0.08670938014984131,-10.802351951599121
1.729497923797286e+18,-0.01587667502462864,0.024016832932829857,-10.771092414855957
1.729497923806286e+18,-0.016364840790629387,-0.09945853799581528,-10.753509521484375
1.7294979238122862e+18,0.0003114316496066749,0.005826771259307861,-10.76887321472168
1.7294979238212864e+18,-0.018527299165725708,0.03465498238801956,-10.71192741394043
1.7294979238302866e+18,0.027301307767629623,0.09698395431041718,-10.594878196716309
1.7294979238392868e+18,-0.039501987397670746,-0.017393825575709343,-10.63410758972168
1.729497923848287e+18,0.01710502803325653,0.10356967896223068,-10.625947952270508
1.7294979238572872e+18,-0.04323218762874603,0.004188183695077896,-10.616521835327148
1.7294979238632873e+18,0.04310029372572899,-0.027629783377051353,-10.579793930053711
1.7294979238722875e+18,-0.0497983917593956,-0.03725218400359154,-10.570099830627441
1.7294979238812877e+18,0.02403939887881279,0.007170637138187885,-10.575361251831055
1.7294979238902879e+18,-0.055243778973817825,-0.08754495531320572,-10.510151863098145
1.729497923896288e+18,0.014367306604981422,-0.0803394541144371,-10.508489608764648
1.7294979239052882e+18,0.04427134990692139,-0.023731442168354988,-10.514506340026855
1.7294979239142884e+18,0.015044448897242546,0.08372118324041367,-10.465115547180176
1.7294979239232886e+18,-0.007309306878596544,0.022556576877832413,-10.508787155151367
1.7294979239292887e+18,0.06504829972982407,0.08167833089828491,-10.536943435668945
1.729497923938289e+18,-0.04691736772656441,0.017783690243959427,-10.480940818786621
1.729497923947289e+18,0.041540779173374176,-0.09241631627082825,-10.54741096496582
1.7294979239562893e+18,0.010674353688955307,0.05168455094099045,-10.435152053833008
1.7294979239622894e+18,-0.06095237284898758,0.02975313551723957,-10.37111759185791
1.7294979239712896e+18,-0.00019842811161652207,0.02404860034584999,-10.430582046508789
1.7294979239802898e+18,-0.046440064907073975,-0.004429267719388008,-10.33992862701416
1.72949792398629e+18,0.01052931696176529,-0.06596943736076355,-10.394991874694824
1.72949792399529e+18,-0.01849289983510971,0.005696859210729599,-10.345841407775879
1.7294979240042903e+18,0.03433951735496521,-0.03441958501935005,-10.359972953796387
1.7294979240132905e+18,-0.0062117562629282475,0.006725143641233444,-10.343537330627441
1.7294979240192906e+18,0.0018784439889714122,-0.06576758623123169,-10.429913520812988
1.7294979240282908e+18,0.049920324236154556,0.021999433636665344,-10.377801895141602
1.729497924040291e+18,-0.05851428210735321,0.06913948804140091,-10.294177055358887
1.7294979240492913e+18,0.057241037487983704,-0.035180576145648956,-10.30743408203125
1.7294979240582915e+18,-0.004367064218968153,0.024273212999105453,-10.278618812561035
1.7294979240672916e+18,0.005332845728844404,-0.05774194374680519,-10.243708610534668
1.7294979240732918e+18,-0.09667269140481949,-0.008184719830751419,-10.306679725646973
1.729497924082292e+18,0.10462696105241776,-0.004104290157556534,-10.173802375793457
1.7294979240912922e+18,-0.08016955107450485,0.1117069348692894,-10.32579231262207
1.7294979240972923e+18,-0.0041434988379478455,-0.054183296859264374,-10.233426094055176
1.7294979241062925e+18,-0.05437055230140686,-0.009628182277083397,-10.136285781860352
1.7294979241152927e+18,0.015068554319441319,0.018541613593697548,-10.211138725280762
1.7294979241212928e+18,0.002800363814458251,-0.004809923470020294,-10.222790718078613
1.729497924130293e+18,0.08038368076086044,-0.016494624316692352,-10.134572982788086
1.729497924136293e+18,0.003292613662779331,0.07185080647468567,-10.154312133789062
1.7294979241452933e+18,0.05617430433630943,-0.03842775151133537,-10.202601432800293
1.7294979241542935e+18,0.07857787609100342,-0.023602580651640892,-10.249361038208008
1.7294979241632937e+18,0.0149272121489048,-0.006964241154491901,-10.14555549621582
1.7294979241692938e+18,-0.017212893813848495,0.05307402461767197,-10.138456344604492
1.729497924178294e+18,0.05504981428384781,0.02924707718193531,-10.20877456665039
1.7294979241872942e+18,-0.03141986206173897,0.016333207488059998,-10.134076118469238
1.7294979241932943e+18,-0.08307551592588425,-0.03754124045372009,-10.202959060668945
1.7294979242022945e+18,0.004046678077429533,-0.020516283810138702,-10.067317008972168
1.7294979242112947e+18,-0.08238362520933151,0.027528051286935806,-10.035675048828125
1.729497924220295e+18,0.1297122687101364,-0.03172765299677849,-10.10377025604248
1.729497924226295e+18,-0.0026338393799960613,0.08656742423772812,-10.052029609680176
1.7294979242352952e+18,-0.04166470840573311,-0.04759056866168976,-10.024977684020996
1.7294979242442954e+18,-0.046317100524902344,0.05026138573884964,-10.013931274414062
1.7294979242532956e+18,-0.07273494452238083,-0.008934165351092815,-10.098731994628906
1.7294979242622958e+18,-0.06056497246026993,-0.007580726873129606,-10.066579818725586
1.729497924271296e+18,0.011119124479591846,-0.021043697372078896,-10.062302589416504
1.729497924277296e+18,0.030714895576238632,0.003261957550421357,-10.008326530456543
1.7294979242862963e+18,0.046130526810884476,-0.020192516967654228,-9.960739135742188
1.7294979242952965e+18,0.029517892748117447,-0.017386164516210556,-9.97252368927002
1.7294979243042967e+18,-0.011443627066910267,0.039470426738262177,-10.009880065917969
1.7294979243102968e+18,-0.013583949767053127,0.003183185588568449,-10.032173156738281
1.729497924319297e+18,-0.0650542676448822,0.010614648461341858,-9.97225570678711
1.7294979243282972e+18,0.00874727126210928,-0.015783777460455894,-10.000895500183105
1.7294979243342973e+18,-0.015778755769133568,-0.0036025664303451777,-9.989907264709473
1.7294979243432975e+18,-0.026779640465974808,0.01271261740475893,-9.915360450744629
1.7294979243522977e+18,-0.025452326983213425,0.09337761998176575,-9.979208946228027
1.729497924361298e+18,0.0670413076877594,-0.008991899900138378,-9.934678077697754
1.729497924367298e+18,0.008069437928497791,-0.010994544252753258,-9.886963844299316
1.7294979243762982e+18,-0.005912528373301029,0.059365760535001755,-9.92385196685791
1.7294979243852984e+18,-0.01034504733979702,-0.07329868525266647,-10.039915084838867
1.7294979243912986e+18,0.00944798719137907,0.050516579300165176,-9.924089431762695
1.7294979244002988e+18,-0.0503745935857296,-0.03143231198191643,-9.955035209655762
1.729497924409299e+18,-0.017161132767796516,0.007568671368062496,-9.965169906616211
1.729497924415299e+18,0.11943265795707703,0.00035450494033284485,-9.876259803771973
1.7294979244242993e+18,0.05621931329369545,0.004403079394251108,-9.930621147155762
1.7294979244332995e+18,0.02655118703842163,-0.003989158198237419,-9.940317153930664
1.7294979244422996e+18,-0.0033889124169945717,-0.018951939418911934,-9.895233154296875
1.7294979244482998e+18,-0.034484993666410446,-0.055709708482027054,-9.936610221862793
1.7294979244573e+18,0.03664728254079819,-0.0020151189528405666,-9.946146965026855
1.7294979244663002e+18,0.026607265695929527,0.02462637983262539,-9.8302640914917
1.7294979244723003e+18,0.04661756008863449,-0.003005804494023323,-9.92782211303711
1.7294979244813005e+18,0.02156074531376362,-0.0027569495141506195,-9.872869491577148
1.7294979244903007e+18,-0.05123259499669075,0.01692887581884861,-9.832087516784668
1.7294979244963008e+18,0.009245327673852444,-0.039616428315639496,-9.902182579040527
1.729497924505301e+18,-0.014617928303778172,0.04285251349210739,-9.908833503723145
1.7294979245143012e+18,0.03986618295311928,0.07975268363952637,-9.909262657165527
1.7294979245203013e+18,0.012122693471610546,-0.0023312713019549847,-9.890458106994629
1.7294979245293015e+18,-0.03938229754567146,-0.021469512954354286,-9.872806549072266
1.7294979245383017e+18,0.04009021073579788,0.022068683058023453,-9.817923545837402
1.729497924547302e+18,-0.052238352596759796,0.06675829738378525,-9.850714683532715
1.729497924553302e+18,0.006823594216257334,-0.04945625737309456,-9.869945526123047
1.7294979245623022e+18,-0.035889968276023865,-0.03440277650952339,-9.826141357421875
1.7294979245713024e+18,-0.002079752506688237,-0.006333041004836559,-9.849492073059082
1.7294979245803026e+18,0.01645941659808159,0.06219932809472084,-9.739526748657227
1.7294979245863027e+18,-0.01335761696100235,-0.030143950134515762,-9.903042793273926
1.729497924595303e+18,-0.022211875766515732,0.036642733961343765,-9.828587532043457
1.729497924604303e+18,-0.056782495230436325,0.059535104781389236,-9.845345497131348
1.7294979246103032e+18,-0.013462075963616371,-0.08658215403556824,-9.90109634399414
1.7294979246193034e+18,-0.05341167002916336,0.04801321029663086,-9.773576736450195
1.7294979246283036e+18,-0.05703561007976532,0.031991876661777496,-9.847578048706055
1.7294979246343037e+18,0.0431264191865921,0.06593860685825348,-9.74692153930664
1.729497924643304e+18,0.009366611018776894,0.005552117247134447,-9.843551635742188
1.7294979246523041e+18,0.06452324986457825,0.0024497888516634703,-9.795778274536133
1.7294979246673044e+18,-0.01755492016673088,0.012973261997103691,-9.739408493041992
1.7294979246763046e+18,-0.04481399059295654,0.07065191864967346,-9.716470718383789
1.729497924688305e+18,0.009530914016067982,0.08713223785161972,-9.791777610778809
1.729497924697305e+18,0.008114052005112171,0.01943659409880638,-9.806941986083984
1.7294979247033052e+18,-0.00901559554040432,0.05257738381624222,-9.748520851135254
1.7294979247123054e+18,-0.055194105952978134,0.010034210979938507,-9.789456367492676
1.7294979247213056e+18,-0.006975860334932804,0.009940494783222675,-9.830225944519043
1.7294979247303058e+18,-0.022383753210306168,0.012282246723771095,-9.799050331115723
1.729497924736306e+18,0.01456618681550026,0.03357041999697685,-9.866185188293457
1.729497924745306e+18,-0.022517379373311996,0.05690111219882965,-9.797006607055664
1.7294979247543063e+18,0.013350321911275387,-0.059731025248765945,-9.846778869628906
1.7294979247603064e+18,0.03036097250878811,-0.002847537398338318,-9.74604320526123
1.7294979247693066e+18,0.0386202372610569,-0.013940810225903988,-9.800132751464844
1.7294979247783068e+18,0.037227630615234375,-0.09115075320005417,-9.83025074005127
1.729497924787307e+18,-0.005784865468740463,0.039821866899728775,-9.797289848327637
1.7294979247963072e+18,0.04933987557888031,0.01513472106307745,-9.759981155395508
1.7294979248023073e+18,-0.02401399426162243,0.022821959108114243,-9.76508903503418
1.7294979248113075e+18,0.02913946844637394,0.07867307960987091,-9.772522926330566
1.7294979248203077e+18,-0.06102580577135086,-0.01239061914384365,-9.82778549194336
1.729497924829308e+18,-0.12340253591537476,0.02388625778257847,-9.843893051147461
1.729497924838308e+18,-0.04109034314751625,0.024151789024472237,-9.83388900756836
1.7294979248443082e+18,0.04906048998236656,-0.061486609280109406,-9.830728530883789
1.7294979248533084e+18,0.014465171843767166,0.015392852015793324,-9.759428977966309
1.7294979248623086e+18,-0.07058411836624146,-0.051024265587329865,-9.856964111328125
1.7294979248683087e+18,0.0035570100881159306,-0.019030019640922546,-9.781753540039062
1.729497924877309e+18,-0.013351776637136936,-0.048075057566165924,-9.659037590026855
1.729497924886309e+18,0.03425471484661102,0.05886669084429741,-9.723067283630371
1.7294979248923092e+18,-0.08523737639188766,0.06304191052913666,-9.803114891052246
1.7294979249013094e+18,0.04156579077243805,0.032822560518980026,-9.718629837036133
1.7294979249073096e+18,0.052939146757125854,-0.06228305399417877,-9.725197792053223
1.7294979249163098e+18,0.06087383255362511,0.026935121044516563,-9.750615119934082
1.72949792492531e+18,-0.0437091588973999,-0.04142957925796509,-9.809609413146973
1.7294979249343101e+18,0.05668557807803154,-0.0036522657610476017,-9.70968246459961
1.7294979249433103e+18,0.016621146351099014,-0.05856800079345703,-9.723724365234375
1.7294979249493105e+18,-0.005847385618835688,-0.029483700171113014,-9.691481590270996
1.7294979249583107e+18,0.013638028874993324,0.03360878303647041,-9.773091316223145
1.7294979249643108e+18,0.03164972737431526,0.013286834582686424,-9.82750129699707
1.729497924973311e+18,-0.011339672841131687,-0.032920390367507935,-9.686697959899902
1.7294979249823112e+18,-0.03957566246390343,-0.00760909728705883,-9.868138313293457
1.7294979249943114e+18,0.010400411672890186,0.01870509423315525,-9.681615829467773
1.7294979250003116e+18,0.021066468209028244,0.009045948274433613,-9.7703218460083
1.7294979250093117e+18,-0.02294336073100567,0.016301823779940605,-9.760744094848633
1.729497925018312e+18,0.002677897922694683,0.08299392461776733,-9.669998168945312
1.729497925027312e+18,0.009402137249708176,-0.07503317296504974,-9.739066123962402
1.7294979250333123e+18,-0.0408732108771801,-0.005028219893574715,-9.776473045349121
1.7294979250423124e+18,0.016482051461935043,-0.053735170513391495,-9.700396537780762
1.7294979250513126e+18,0.04082296043634415,0.005446465685963631,-9.901177406311035
1.7294979250603128e+18,-0.012066089548170567,0.05138362571597099,-9.882939338684082
1.729497925066313e+18,0.027410583570599556,0.04826166108250618,-9.92042350769043
1.7294979250753132e+18,0.03404579311609268,-0.03130921721458435,-9.826863288879395
1.7294979250813133e+18,-0.06442911922931671,0.07525455206632614,-9.855291366577148
1.7294979250903135e+18,0.023691315203905106,0.010249719023704529,-9.809639930725098
1.7294979250993137e+18,-0.013941880315542221,-0.03861066699028015,-9.863630294799805
1.7294979251053138e+18,-0.011966446414589882,0.034471407532691956,-9.843469619750977
1.729497925114314e+18,0.028909210115671158,0.024450520053505898,-9.781949996948242
1.7294979251233142e+18,-0.03159968927502632,0.00017196133558172733,-9.776247024536133
1.7294979251293143e+18,0.03659166768193245,0.027631737291812897,-9.79666805267334
1.7294979251383145e+18,0.009343034587800503,-0.020184436812996864,-9.847391128540039
1.7294979251473147e+18,-0.040334880352020264,-0.021812736988067627,-9.746325492858887
1.7294979251533148e+18,0.03135393187403679,-0.04527714475989342,-9.821977615356445
1.729497925162315e+18,0.00793549232184887,0.06369545310735703,-9.73944091796875
1.7294979251713152e+18,-0.05561482533812523,-0.005877017509192228,-9.852279663085938
1.7294979251803154e+18,-0.05961063131690025,-0.017677562311291695,-9.757207870483398
1.7294979251863155e+18,0.03995039686560631,-0.04305838793516159,-9.746363639831543
1.7294979251953157e+18,-0.022669948637485504,-0.004915792495012283,-9.917839050292969
1.729497925204316e+18,-0.025948837399482727,0.04115177318453789,-9.796062469482422
1.729497925210316e+18,0.0229223370552063,-0.050943829119205475,-9.763626098632812
1.7294979252193162e+18,-0.06691691279411316,-0.0649745985865593,-9.729103088378906
1.7294979252283164e+18,0.04731719568371773,0.050728633999824524,-9.867091178894043
1.7294979252373166e+18,-0.026234902441501617,-0.08149369060993195,-9.78868579864502
1.7294979252433167e+18,-0.0849127396941185,-0.04038289189338684,-9.788225173950195
1.729497925252317e+18,-0.017696887254714966,0.01059493888169527,-9.762189865112305
1.729497925261317e+18,-0.01149659138172865,0.0629882887005806,-9.777448654174805
1.7294979252673172e+18,0.07943073660135269,-0.1266654133796692,-9.696388244628906
1.7294979252763174e+18,0.12559692561626434,0.010026684030890465,-9.812456130981445
1.7294979252823176e+18,-0.03618546947836876,0.026504604145884514,-9.8265962600708
1.7294979252913178e+18,-0.04015678912401199,0.04038560017943382,-9.735488891601562
1.729497925300318e+18,0.043492261320352554,-0.033913951367139816,-9.847990036010742
1.7294979253093181e+18,-0.05861183628439903,0.002034079749137163,-9.685466766357422
1.7294979253153183e+18,-0.11348526924848557,-0.046218398958444595,-9.782122611999512
1.7294979253243185e+18,-0.0061036027036607265,-0.042020875960588455,-9.738212585449219
1.7294979253303186e+18,-0.0023702834732830524,0.0333646684885025,-9.766267776489258
1.7294979253393188e+18,-0.03118559904396534,0.02469618432223797,-9.72607421875
1.729497925348319e+18,-0.02833586558699608,0.032880958169698715,-9.775253295898438
1.729497925354319e+18,0.11054817587137222,0.011349922977387905,-9.80066204071045
1.7294979253633193e+18,0.007491764612495899,-0.004655439872294664,-9.762730598449707
1.7294979253723195e+18,-0.07554361969232559,-0.00807571318000555,-9.751373291015625
1.7294979253783196e+18,0.025017760694026947,0.0138296689838171,-9.770206451416016
1.7294979253873198e+18,0.015192058868706226,-0.0921672135591507,-9.776939392089844
1.72949792539632e+18,-0.013679180294275284,-0.034293197095394135,-9.749602317810059
1.7294979254023201e+18,-0.038705576211214066,0.043836601078510284,-9.743271827697754
1.7294979254143204e+18,-0.017292508855462074,-0.08187619596719742,-9.695804595947266
1.7294979254263206e+18,-0.0005441030371002853,-0.022081812843680382,-9.819764137268066
1.7294979254323208e+18,-0.012412391602993011,-0.048925768584012985,-9.702190399169922
1.729497925441321e+18,0.016305427998304367,0.04916926100850105,-9.74721908569336
1.7294979254503212e+18,0.00019720211275853217,-0.06839103996753693,-9.659550666809082
1.7294979254593213e+18,0.05330663174390793,-0.05468729883432388,-9.856527328491211
1.7294979254653215e+18,-0.04703503102064133,0.0020794339943677187,-9.779513359069824
1.7294979254743217e+18,0.04890170320868492,0.11231382936239243,-9.72911548614502
1.7294979254833219e+18,0.0475444458425045,0.033173609524965286,-9.743121147155762
1.729497925492322e+18,-0.01824781857430935,-0.0025448696687817574,-9.794172286987305
1.7294979255013222e+18,-0.03993874788284302,-0.0038077428471297026,-9.735025405883789
1.7294979255073224e+18,0.002380039542913437,-0.02544061839580536,-9.739810943603516
1.7294979255163226e+18,0.019766926765441895,-0.012430211529135704,-9.727043151855469
1.7294979255223227e+18,-0.0067540379241108894,0.03749040514230728,-9.831721305847168
1.729497925531323e+18,-0.005571703426539898,-0.018513571470975876,-9.772597312927246
1.729497925540323e+18,0.05222732201218605,0.0010075124446302652,-9.68426513671875
1.7294979255493233e+18,-0.017131369560956955,0.061095792800188065,-9.744471549987793
1.7294979255553234e+18,0.033496957272291183,0.004950688220560551,-9.745962142944336
1.7294979255643236e+18,0.0750238299369812,0.0006547923549078405,-9.688959121704102
1.7294979255733238e+18,0.00993073545396328,-0.005223463289439678,-9.74993896484375
1.729497925582324e+18,-0.015962965786457062,-0.020337898284196854,-9.73351001739502
1.7294979255913242e+18,0.08921049535274506,0.0787293016910553,-9.812410354614258
1.7294979256003244e+18,0.011907147243618965,0.009004096500575542,-9.736483573913574
1.7294979256063245e+18,-0.0603286437690258,-0.018057433888316154,-9.76230525970459
1.7294979256153247e+18,-0.001242783386260271,-0.004054064862430096,-9.742246627807617
1.7294979256243249e+18,0.011411506682634354,-0.050096768885850906,-9.740339279174805
1.729497925630325e+18,0.026627201586961746,-0.005242155399173498,-9.679579734802246
1.7294979256393252e+18,0.05450223386287689,0.059548042714595795,-9.726334571838379
1.7294979256483254e+18,-0.0032073885668069124,0.0555599108338356,-9.694826126098633
1.7294979256543255e+18,0.05582725256681442,-0.008250477723777294,-9.776240348815918
1.7294979256633257e+18,0.0009517042199149728,-0.06529128551483154,-9.647001266479492
1.729497925672326e+18,0.014116223901510239,0.05942393094301224,-9.763140678405762
1.729497925681326e+18,0.0029464506078511477,-0.007921994663774967,-9.66418743133545
1.7294979256873262e+18,0.10389504581689835,0.01512493658810854,-9.705751419067383
1.7294979256963264e+18,-0.03644273057579994,-0.06960983574390411,-9.798389434814453
1.7294979257053266e+18,0.0020936797372996807,-0.036177776753902435,-9.732813835144043
1.7294979257143268e+18,0.060608573257923126,-0.07251568883657455,-9.72982120513916
1.729497925720327e+18,0.05646070837974548,0.010422169230878353,-9.701136589050293
1.729497925729327e+18,-0.04507025331258774,0.03262636810541153,-9.735705375671387
1.7294979257383273e+18,-0.007074226625263691,-0.06849676370620728,-9.701308250427246
1.7294979257473275e+18,0.10568220168352127,-0.0519440583884716,-9.833520889282227
1.7294979257563277e+18,-0.011271996423602104,0.015770375728607178,-9.767885208129883
1.7294979257623278e+18,-0.018747592344880104,-0.012572265230119228,-9.678717613220215
1.729497925771328e+18,-0.10681209713220596,0.04589225351810455,-9.684946060180664
1.7294979257803282e+18,0.05852290615439415,-0.08407409489154816,-9.765507698059082
1.7294979257863283e+18,0.09551713615655899,0.0267796590924263,-9.735296249389648
1.7294979257953285e+18,0.06248457357287407,0.039950378239154816,-9.758088111877441
1.7294979258043287e+18,0.03696039319038391,0.05610549822449684,-9.84556770324707
1.729497925813329e+18,-0.05090833455324173,0.011866048909723759,-9.794872283935547
1.729497925822329e+18,0.02657015435397625,-0.015323128551244736,-9.814358711242676
1.7294979258283292e+18,-0.010155687108635902,-0.04794960841536522,-9.660910606384277
1.7294979258373294e+18,-0.03525806590914726,-0.017262663692235947,-9.812135696411133
1.7294979258463296e+18,-0.036863140761852264,0.03316514194011688,-9.669154167175293
1.7294979258553298e+18,-0.029253164306282997,-0.06742449104785919,-9.742539405822754
1.72949792586433e+18,-0.07050399482250214,-0.006277887616306543,-9.808789253234863
1.72949792587033e+18,-0.034550637006759644,0.002074694260954857,-9.714380264282227
1.7294979258793303e+18,0.05404025316238403,0.033921051770448685,-9.70882797241211
1.7294979258883305e+18,0.010792790912091732,0.07539168000221252,-9.811257362365723
1.7294979258973307e+18,-0.02755986899137497,0.05455856770277023,-9.716104507446289
1.7294979259033308e+18,0.03989902138710022,-0.05964627489447594,-9.740723609924316
1.729497925912331e+18,0.050461381673812866,0.04748813062906265,-9.744291305541992
1.7294979259213312e+18,-0.02349807694554329,0.024210868403315544,-9.745499610900879
1.7294979259303314e+18,-0.04485592246055603,0.004632758442312479,-9.697408676147461
1.7294979259363315e+18,0.05914968252182007,-0.015160675160586834,-9.704197883605957
1.7294979259453317e+18,0.07084378600120544,0.014345912262797356,-9.674838066101074
1.729497925954332e+18,-0.021694902330636978,0.09634865820407867,-9.737997055053711
1.729497925963332e+18,0.0063352156430482864,-0.056425631046295166,-9.71875
1.7294979259723323e+18,-0.005777748767286539,-0.006897429935634136,-9.73701000213623
1.7294979259843325e+18,-0.04332254081964493,-0.04551808908581734,-9.712163925170898
1.7294979259903327e+18,-0.03561229631304741,0.049614012241363525,-9.728981971740723
1.7294979259993329e+18,-0.05658319219946861,-0.016698675230145454,-9.747917175292969
1.729497926005333e+18,0.005363687872886658,0.07991804927587509,-9.725597381591797
1.7294979260143332e+18,0.03433986380696297,0.02342935837805271,-9.703790664672852
1.7294979260233334e+18,0.06330913305282593,-0.02158658765256405,-9.644828796386719
1.7294979260293335e+18,0.012244008481502533,0.02793452888727188,-9.738832473754883
1.7294979260383337e+18,0.02942451648414135,0.06504695862531662,-9.728623390197754
1.7294979260443338e+18,-0.04691169783473015,0.004269574768841267,-9.800326347351074
1.729497926053334e+18,-0.030294258147478104,0.032957158982753754,-9.858278274536133
1.7294979260623342e+18,0.03727269172668457,-0.028213901445269585,-9.68256664276123
1.7294979260683343e+18,0.04705118387937546,0.11159787327051163,-9.705822944641113
1.7294979260773345e+18,-0.0476304367184639,-0.033324483782052994,-9.72956657409668
1.7294979260863347e+18,-0.01045389287173748,-0.08257906883955002,-9.72575569152832
1.729497926095335e+18,-0.002701455494388938,0.049886420369148254,-9.775365829467773
1.729497926104335e+18,0.021059850230813026,-0.024625593796372414,-9.732942581176758
1.7294979261103352e+18,0.006606999784708023,0.028356067836284637,-9.768684387207031
1.7294979261193354e+18,0.022260205820202827,-0.019315049052238464,-9.772981643676758
1.7294979261253356e+18,0.006453156936913729,-0.004848879296332598,-9.747023582458496
1.7294979261343357e+18,0.017449142411351204,-0.044432081282138824,-9.820198059082031
1.729497926143336e+18,-0.020610075443983078,0.04276891052722931,-9.702466011047363
1.729497926149336e+18,-0.05018620938062668,-0.03296719491481781,-9.740863800048828
1.7294979261583363e+18,-0.048130135983228683,-0.043480098247528076,-9.773981094360352
1.7294979261673364e+18,0.04959920421242714,-0.002316355938091874,-9.79438304901123
1.7294979261763366e+18,0.018277734518051147,-0.12714500725269318,-9.753334999084473
1.7294979261853368e+18,0.019278116524219513,0.03005734644830227,-9.721368789672852
1.729497926191337e+18,-0.00904524140059948,0.116780586540699,-9.836344718933105
1.7294979262003372e+18,-0.05874941498041153,0.015709055587649345,-9.742469787597656
1.7294979262093373e+18,-0.011289797723293304,-0.010910296812653542,-9.814977645874023
1.7294979262183375e+18,-0.0014730582479387522,0.014446317218244076,-9.733664512634277
1.7294979262273377e+18,0.010224621742963791,0.056482743471860886,-9.66662883758545
1.7294979262333379e+18,0.013735962100327015,0.012891987338662148,-9.738643646240234
1.729497926242338e+18,-0.029169969260692596,0.06502838432788849,-9.696881294250488
1.7294979262513382e+18,0.05552845820784569,-0.025362621992826462,-9.713674545288086
1.7294979262573384e+18,0.07033462077379227,-0.023830462247133255,-9.654215812683105
1.7294979262663386e+18,0.05281614884734154,-0.012309606187045574,-9.727701187133789
1.7294979262753388e+18,0.04693843424320221,0.058274030685424805,-9.724607467651367
1.729497926281339e+18,0.04996291175484657,0.07275506108999252,-9.762020111083984
1.729497926290339e+18,0.04726243391633034,0.022511836141347885,-9.736089706420898
1.7294979262963392e+18,0.041918762028217316,-0.0370517335832119,-9.766423225402832
1.7294979263053394e+18,-0.01615428365767002,0.0395282544195652,-9.784759521484375
1.7294979263143396e+18,0.0723399966955185,-0.009803889319300652,-9.741973876953125
1.7294979263203397e+18,0.05017661303281784,-0.03620906546711922,-9.754558563232422
1.72949792632934e+18,-0.07155060023069382,-0.03659319877624512,-9.820816040039062
1.72949792633834e+18,-0.042984601110219955,0.010163886472582817,-9.750822067260742
1.7294979263473403e+18,-0.0019747656770050526,-0.022547518834471703,-9.831300735473633
1.7294979263533404e+18,-0.01345974113792181,0.04345915466547012,-9.763153076171875
1.7294979263623406e+18,0.038699958473443985,-0.028983544558286667,-9.707743644714355
1.7294979263713408e+18,-0.039929963648319244,-0.026868274435400963,-9.80738353729248
1.729497926380341e+18,-0.010857479646801949,-0.04131663590669632,-9.786064147949219
1.729497926386341e+18,0.012092821300029755,0.031098080798983574,-9.736867904663086
1.7294979263953413e+18,0.006823552772402763,-0.044831790030002594,-9.83057975769043
1.7294979264013414e+18,0.010833078064024448,-0.03299790248274803,-9.851251602172852
1.7294979264103416e+18,0.025981009006500244,-0.020925242453813553,-9.719417572021484
1.7294979264193418e+18,-0.012948393821716309,0.06848925352096558,-9.742871284484863
1.729497926428342e+18,-0.0045442781411111355,0.015273157507181168,-9.75606918334961
1.7294979264343421e+18,-0.05600259080529213,0.0646037608385086,-9.745505332946777
1.7294979264433423e+18,-0.08041251450777054,0.05591414123773575,-9.82470989227295
1.7294979264523425e+18,-0.009083724580705166,0.047816596925258636,-9.760074615478516
1.7294979264583427e+18,0.01604745350778103,0.030496682971715927,-9.759455680847168
1.7294979264673428e+18,0.02242419123649597,0.01198775414377451,-9.778255462646484
1.729497926476343e+18,-0.06709792464971542,-0.002747803693637252,-9.759943008422852
1.7294979264853432e+18,-0.007052041590213776,0.03164929151535034,-9.754817962646484
1.7294979264943434e+18,-0.004987495951354504,-0.025142118334770203,-9.749593734741211
1.7294979265003436e+18,0.046949587762355804,-0.08362846821546555,-9.748079299926758
1.7294979265093437e+18,-0.03765203431248665,-0.02905312180519104,-9.796955108642578
1.729497926518344e+18,0.04651375114917755,-0.0097018638625741,-9.753576278686523
1.729497926524344e+18,0.016736071556806564,0.018054109066724777,-9.76976203918457
1.7294979265363443e+18,-0.06330100446939468,0.06471659243106842,-9.763883590698242
1.7294979265423444e+18,0.029674837365746498,-0.0069405571557581425,-9.807650566101074
1.7294979265513446e+18,0.016773877665400505,-0.00435158796608448,-9.73908805847168
1.7294979265603448e+18,-0.011532589793205261,-0.08191920816898346,-9.68887710571289
1.729497926566345e+18,-0.009443553164601326,0.00015203564544208348,-9.743291854858398
1.7294979265753452e+18,-0.009943654760718346,-0.04568677395582199,-9.704368591308594
1.7294979265843453e+18,0.009367965161800385,0.013829534873366356,-9.879481315612793
1.7294979265933455e+18,-0.04419110342860222,-0.0437445268034935,-9.810942649841309
1.7294979265993457e+18,0.07196453213691711,0.020055735483765602,-9.738306045532227
1.7294979266083459e+18,-0.10015971213579178,-0.04226125404238701,-9.754739761352539
1.729497926620346e+18,0.06255507469177246,-0.04085497930645943,-9.757855415344238
1.7294979266293463e+18,-0.006482912227511406,-0.02016896940767765,-9.742789268493652
1.7294979266383465e+18,0.03944798931479454,-0.08550644665956497,-9.769125938415527
1.7294979266473467e+18,-0.12442974746227264,0.0501740425825119,-9.823551177978516
1.7294979266533468e+18,-0.0316956490278244,-0.056038204580545425,-9.833267211914062
1.729497926662347e+18,0.06956911087036133,-0.011236289516091347,-9.79955768585205
1.7294979266713472e+18,-0.02102559804916382,0.005181142129004002,-9.711577415466309
1.7294979266803474e+18,-0.058990493416786194,0.00459690997377038,-9.812763214111328
1.7294979266893476e+18,0.0017964659491553903,-0.04629981890320778,-9.763774871826172
1.7294979266953477e+18,-0.04509434103965759,0.06321454048156738,-9.68209457397461
1.729497926704348e+18,0.036717966198921204,0.0053129554726183414,-9.82690715789795
1.729497926713348e+18,-0.033022161573171616,-0.012395786121487617,-9.775139808654785
1.7294979267223483e+18,0.02762225829064846,0.0715019553899765,-9.750720977783203
1.7294979267283484e+18,0.03884578123688698,0.012630376033484936,-9.819229125976562
1.7294979267373486e+18,0.039312295615673065,0.027184154838323593,-9.751714706420898
1.7294979267463488e+18,0.047786787152290344,0.02434212528169155,-9.784466743469238
1.729497926755349e+18,-0.030685577541589737,-0.020549338310956955,-9.773414611816406
1.729497926761349e+18,0.013730713166296482,-0.043877217918634415,-9.861725807189941
1.7294979267703493e+18,0.08092222362756729,-0.046380531042814255,-9.813202857971191
1.7294979267763494e+18,-0.052115339785814285,-0.0683455839753151,-9.82449722290039
1.7294979267853496e+18,-0.005299114156514406,-0.039986200630664825,-9.776471138000488
1.7294979267943498e+18,-0.011304541490972042,0.026964355260133743,-9.735053062438965
1.72949792680035e+18,-0.05305631086230278,0.09873170405626297,-9.853300094604492
1.7294979268093501e+18,0.002954751718789339,0.01891862042248249,-9.811470031738281
1.7294979268183503e+18,0.07570312917232513,-0.03680705651640892,-9.776473045349121
1.7294979268243505e+18,0.010669130831956863,-0.012354588136076927,-9.768088340759277
1.7294979268333507e+18,0.01434189360588789,0.0016323545714840293,-9.805105209350586
1.7294979268423508e+18,0.022262440994381905,0.02674735337495804,-9.739583969116211
1.729497926851351e+18,-0.08160591125488281,0.004064197186380625,-9.750041007995605
1.7294979268603512e+18,-0.023200897499918938,0.05393638461828232,-9.754060745239258
1.7294979268663514e+18,0.01779184676706791,0.018152112141251564,-9.782316207885742
1.7294979268753516e+18,0.029076481238007545,-0.017343571409583092,-9.851876258850098
1.7294979268843517e+18,0.05125029385089874,0.0022730734199285507,-9.736170768737793
1.7294979268903519e+18,0.003929210361093283,-0.0016824103659018874,-9.79688835144043
1.729497926899352e+18,0.04995758831501007,-0.01554656308144331,-9.837982177734375
1.7294979269083523e+18,0.0259261317551136,-0.01007517147809267,-9.797011375427246
1.7294979269143524e+18,-0.03507864475250244,0.0057474118657410145,-9.75388240814209
1.7294979269233526e+18,-0.05704458802938461,0.04383827745914459,-9.717550277709961
1.7294979269323528e+18,-0.023160090669989586,0.026921389624476433,-9.854223251342773
1.729497926938353e+18,0.014111295342445374,0.006976471282541752,-9.73812484741211
1.729497926947353e+18,-0.0010836980072781444,-0.019630761817097664,-9.79078197479248
1.7294979269563533e+18,-0.04719150438904762,-0.025861887261271477,-9.780543327331543
1.7294979269623534e+18,-0.049220237880945206,-0.01911088265478611,-9.804776191711426
1.7294979269713536e+18,-0.03517400473356247,0.06566273421049118,-9.793355941772461
1.7294979269803538e+18,0.01981387659907341,-0.06929270923137665,-9.821634292602539
1.729497926986354e+18,0.012107832357287407,-0.04038604721426964,-9.762456893920898
1.729497926995354e+18,0.0056136604398489,0.03789156675338745,-9.77093505859375
1.7294979270043543e+18,-0.02277679741382599,0.013432611711323261,-9.796629905700684
1.7294979270133545e+18,0.023214515298604965,-0.07798934727907181,-9.77614974975586
1.7294979270193546e+18,0.008691428229212761,-0.013018869794905186,-9.731104850769043
1.7294979270283548e+18,-0.02527378499507904,-0.025998536497354507,-9.743919372558594
1.729497927040355e+18,0.0141315758228302,0.04255859926342964,-9.721508026123047
1.7294979270493553e+18,-0.06724992394447327,-0.027740783989429474,-9.806767463684082
1.7294979270553554e+18,0.015610710717737675,-0.012616993859410286,-9.856269836425781
1.7294979270643556e+18,-0.02419508993625641,0.038996390998363495,-9.822328567504883
1.7294979270733558e+18,0.010761355049908161,0.004155293572694063,-9.80269718170166
1.729497927082356e+18,0.010514821857213974,-0.00875734630972147,-9.793625831604004
1.729497927088356e+18,-0.03017173334956169,0.005171259865164757,-9.756341934204102
1.7294979270973563e+18,0.006951270159333944,-0.06609165668487549,-9.793516159057617
1.7294979271033564e+18,0.053010568022727966,0.013248365372419357,-9.824442863464355
1.7294979271123566e+18,0.052878618240356445,0.021136118099093437,-9.787699699401855
1.7294979271213568e+18,-0.011238057166337967,-0.09905420988798141,-9.814970970153809
1.729497927130357e+18,-0.006076347548514605,0.09886942058801651,-9.778989791870117
1.729497927136357e+18,0.024549396708607674,0.07681737840175629,-9.789543151855469
1.7294979271453573e+18,-0.02807854488492012,-0.0047149755991995335,-9.819005966186523
1.7294979271543575e+18,-0.05736363306641579,-0.007852691225707531,-9.83900260925293
1.7294979271603576e+18,-0.046308476477861404,-0.009568294510245323,-9.819857597351074
1.7294979271693578e+18,-0.06178631633520126,-0.002890998963266611,-9.802512168884277
1.729497927178358e+18,-0.04918023571372032,0.035438116639852524,-9.81528377532959
1.7294979271873582e+18,-0.003011157503351569,-0.02233227714896202,-9.781176567077637
1.7294979271963584e+18,-0.01605682261288166,-0.04279124364256859,-9.78140926361084
1.7294979272053586e+18,0.009994443506002426,0.07669033855199814,-9.764739990234375
1.7294979272143588e+18,-0.09441894292831421,0.002869892166927457,-9.74439525604248
1.729497927223359e+18,-0.04429492726922035,0.007320672273635864,-9.770183563232422
1.729497927229359e+18,-0.011533002369105816,0.048459094017744064,-9.764979362487793
1.7294979272383593e+18,-0.019119668751955032,-0.012181723490357399,-9.81365966796875
1.7294979272473595e+18,-0.026773162186145782,0.016114190220832825,-9.799934387207031
1.7294979272563597e+18,-0.016838431358337402,-0.03369567170739174,-9.78467845916748
1.7294979272623598e+18,-0.0863601341843605,0.060717444866895676,-9.885119438171387
1.72949792727136e+18,-0.10495030879974365,0.028206614777445793,-9.847739219665527
1.7294979272803602e+18,0.0070512183010578156,0.043793004006147385,-9.725973129272461
1.7294979272863603e+18,0.02442854270339012,-0.021558979526162148,-9.768969535827637
1.7294979272953605e+18,-0.029525354504585266,0.05103978142142296,-9.786782264709473
1.7294979273043607e+18,-0.06345487385988235,-0.01676912233233452,-9.8746976852417
1.729497927313361e+18,-0.05190695449709892,-0.062226828187704086,-9.714558601379395
1.729497927319361e+18,0.06677840650081635,0.029190635308623314,-9.791482925415039
1.7294979273283612e+18,-0.054659076035022736,0.03760387375950813,-9.85152530670166
1.7294979273373614e+18,0.007232593838125467,0.011078045703470707,-9.851607322692871
1.7294979273463616e+18,0.00522942841053009,0.004441265016794205,-9.799588203430176
1.7294979273553618e+18,-0.0042398851364851,-0.033760763704776764,-9.77502727508545
1.729497927364362e+18,0.01878155581653118,-0.1169988289475441,-9.794806480407715
1.7294979273733622e+18,0.0011100831907242537,-0.026543041691184044,-9.730331420898438
1.7294979273823624e+18,-0.001241224934346974,-0.024192804470658302,-9.772258758544922
1.7294979273913626e+18,-0.06551767885684967,-0.0014915615320205688,-9.827258110046387
1.7294979273973627e+18,0.07044431567192078,0.07813674211502075,-9.84650707244873
1.729497927406363e+18,0.0073246401734650135,0.018898628652095795,-9.806902885437012
1.729497927415363e+18,0.008442246355116367,0.012511244043707848,-9.750018119812012
1.7294979274213632e+18,0.01521126925945282,-0.054846279323101044,-9.852781295776367
1.7294979274303634e+18,0.07443214952945709,-0.03788771480321884,-9.803582191467285
1.7294979274393636e+18,0.03534046187996864,0.03187611699104309,-9.78908920288086
1.7294979274483638e+18,0.0554891899228096,-0.03506037965416908,-9.834781646728516
1.729497927454364e+18,-0.029234163463115692,0.023856814950704575,-9.844639778137207
1.729497927463364e+18,0.010604004375636578,-0.0913747251033783,-9.740876197814941
1.7294979274723643e+18,-0.006616326980292797,0.008223447017371655,-9.808791160583496
1.7294979274783644e+18,-0.052808742970228195,-0.01136812660843134,-9.845053672790527
1.7294979274873646e+18,0.0201726034283638,-0.01691131852567196,-9.770148277282715
1.7294979274963648e+18,-0.04165348783135414,0.01537937019020319,-9.735685348510742
1.729497927505365e+18,-0.016667841002345085,-0.007174982689321041,-9.794779777526855
1.7294979275143652e+18,0.041486624628305435,-0.03376224637031555,-9.766390800476074
1.7294979275203653e+18,0.06252408772706985,0.013369540683925152,-9.869100570678711
1.7294979275293655e+18,-0.03257783129811287,-0.03205389901995659,-9.766569137573242
1.7294979275383657e+18,0.022296929731965065,0.0032315365970134735,-9.79022216796875
1.729497927547366e+18,-0.04943903535604477,0.07074893265962601,-9.782547950744629
1.729497927556366e+18,-0.013965023681521416,0.03433949500322342,-9.778223991394043
1.7294979275623662e+18,-0.045478250831365585,-0.007350762840360403,-9.812699317932129
1.7294979275713664e+18,-0.04999230057001114,-0.12390783429145813,-9.743168830871582
1.7294979275803666e+18,0.029477734118700027,-0.006359519436955452,-9.82132339477539
1.7294979275893668e+18,-0.00428341468796134,-0.01810472272336483,-9.803592681884766
1.729497927595367e+18,-0.02732076123356819,-0.07284918427467346,-9.833244323730469
1.729497927604367e+18,-0.0006737197400070727,0.023052234202623367,-9.870505332946777
1.7294979276133673e+18,0.005812566727399826,0.013737594708800316,-9.819108963012695
1.7294979276223675e+18,0.09228140115737915,-0.010233147069811821,-9.815258026123047
1.7294979276283676e+18,0.019939903169870377,0.039769478142261505,-9.80705738067627
1.7294979276373678e+18,0.05412203446030617,0.05302742123603821,-9.832646369934082
1.729497927646368e+18,0.0474226176738739,-0.04782809317111969,-9.856017112731934
1.7294979276553682e+18,0.026036571711301804,0.05424218252301216,-9.778233528137207
1.7294979276643684e+18,0.000988071784377098,-0.047294508665800095,-9.818116188049316
1.7294979276703685e+18,-0.0388253778219223,0.05674072727560997,-9.735957145690918
1.7294979276793687e+18,-0.0122523233294487,-0.015994906425476074,-9.8283052444458
1.7294979276853688e+18,0.031545691192150116,-0.02404724434018135,-9.874676704406738
1.729497927694369e+18,0.003948131576180458,-6.183527875691652e-05,-9.77217960357666
1.7294979277033692e+18,-0.022822260856628418,0.05523812770843506,-9.8248291015625
1.7294979277093693e+18,-0.013135693967342377,0.0013064497616142035,-9.807140350341797
1.7294979277183695e+18,-0.023506592959165573,-0.005190329626202583,-9.726463317871094
1.7294979277273697e+18,-0.012904761359095573,-0.028362056240439415,-9.810523986816406
1.7294979277333699e+18,-0.09140054136514664,0.0757487341761589,-9.799673080444336
1.72949792774237e+18,-0.022936731576919556,0.0013239296386018395,-9.805780410766602
1.7294979277483702e+18,-0.0333184115588665,0.0023060336243361235,-9.818075180053711
1.7294979277573704e+18,0.02030317299067974,0.02075456827878952,-9.848682403564453
1.7294979277663706e+18,-0.024163691326975822,-0.057291291654109955,-9.800200462341309
1.7294979277723707e+18,-0.0731922835111618,0.04049370065331459,-9.741523742675781
1.729497927781371e+18,-0.000105582395917736,0.04937615990638733,-9.801465034484863
1.729497927790371e+18,0.010143688879907131,0.01938510127365589,-9.737394332885742
1.7294979277993713e+18,-0.0023880659136921167,-0.048983681946992874,-9.790655136108398
1.7294979278053714e+18,0.010068297386169434,0.008890070952475071,-9.863282203674316
1.7294979278143716e+18,-0.05609651654958725,0.05345815792679787,-9.80575942993164
1.7294979278233718e+18,0.028638523072004318,-0.057644322514534,-9.798311233520508
1.729497927832372e+18,-0.008945468813180923,0.047055866569280624,-9.842334747314453
1.7294979278413722e+18,0.03561205416917801,-0.03310409188270569,-9.831555366516113
1.7294979278503724e+18,0.021485479548573494,-0.0405442900955677,-9.768689155578613
1.7294979278593725e+18,-0.03206460550427437,0.0012861620634794235,-9.675451278686523
1.7294979278683727e+18,0.016370344907045364,-0.0528060644865036,-9.766942024230957
1.729497927877373e+18,0.027964629232883453,-0.026555007323622704,-9.819025993347168
1.729497927886373e+18,0.03062405437231064,-0.04701150581240654,-9.801177978515625
1.7294979278953733e+18,0.04461022466421127,-0.04857916757464409,-9.79434585571289
1.7294979279043735e+18,-0.04844001308083534,0.011975275352597237,-9.78994369506836
1.7294979279103736e+18,0.06920986622571945,0.04065399616956711,-9.731173515319824
1.7294979279193738e+18,-0.045929521322250366,0.05660310387611389,-9.777714729309082
1.729497927928374e+18,0.0019229057943448424,0.012911602854728699,-9.738259315490723
1.7294979279373742e+18,0.010610923171043396,0.047963012009859085,-9.837896347045898
1.7294979279463744e+18,-0.07996799051761627,-0.006122371647506952,-9.854881286621094
1.7294979279523745e+18,-0.03123289719223976,0.014185686595737934,-9.817928314208984
1.7294979279613747e+18,0.000856158381793648,0.005633288528770208,-9.82966423034668
1.729497927970375e+18,0.029016969725489616,0.062145642936229706,-9.843161582946777
1.729497927979375e+18,0.0152006596326828,0.015515008941292763,-9.80971908569336
1.7294979279883753e+18,0.11548944562673569,-0.025134697556495667,-9.721376419067383
1.7294979279943754e+18,-0.04239810258150101,-0.04827171936631203,-9.76894474029541
1.7294979280033756e+18,0.018987813964486122,0.037277791649103165,-9.808255195617676
1.7294979280123758e+18,-0.04030277580022812,0.024322770535945892,-9.839364051818848
1.729497928021376e+18,0.03841562941670418,-0.00499914214015007,-9.796059608459473
1.729497928027376e+18,0.06390080600976944,-0.07738689333200455,-9.805560111999512
1.7294979280363763e+18,-0.0031568522099405527,-0.030385879799723625,-9.775601387023926
1.7294979280453765e+18,-0.04579079523682594,-0.011544158682227135,-9.783280372619629
1.7294979280543767e+18,-0.03505486994981766,-0.04982241988182068,-9.827009201049805
1.7294979280603768e+18,0.004653791896998882,0.10041003674268723,-9.807947158813477
1.729497928069377e+18,0.0387040413916111,0.002434806665405631,-9.850326538085938
1.7294979280783772e+18,0.007831046357750893,-0.03282081335783005,-9.773059844970703
1.7294979280873774e+18,-0.09596593677997589,-0.033733852207660675,-9.765176773071289
1.7294979280963776e+18,-0.04815328121185303,-0.0261845700442791,-9.81643295288086
1.7294979281023777e+18,0.022591177374124527,-0.03251632675528526,-9.767738342285156
1.729497928111378e+18,-0.02612527273595333,0.04357750713825226,-9.872161865234375
1.729497928120378e+18,0.005446015857160091,0.007693738676607609,-9.801870346069336
1.7294979281293783e+18,0.02155952714383602,-0.005428050644695759,-9.821542739868164
1.7294979281353784e+18,-0.010170426219701767,-0.05608140304684639,-9.812323570251465
1.7294979281443786e+18,-0.037233855575323105,-0.019390210509300232,-9.89766788482666
1.7294979281533788e+18,0.0012948500225320458,0.018699685111641884,-9.835519790649414
1.729497928162379e+18,-0.002395216142758727,-0.022805416956543922,-9.84715747833252
1.7294979281713792e+18,-0.016843276098370552,0.028793606907129288,-9.13400936126709
1.7294979281773793e+18,0.0588250607252121,0.007412530481815338,-8.536638259887695
1.7294979281863795e+18,0.05132424831390381,-0.029085639864206314,-8.318684577941895
1.7294979281953797e+18,0.09140205383300781,-0.015315229073166847,-8.259000778198242
1.7294979282013798e+18,0.04885709658265114,-0.015199221670627594,-8.92623519897461
1.72949792821038e+18,0.11259592324495316,0.06070844084024429,-11.32542610168457
1.7294979282163802e+18,0.0639815405011177,0.10360873490571976,-11.670489311218262
1.7294979282253804e+18,0.03999055176973343,0.0787612721323967,-11.685608863830566
1.7294979282343805e+18,-0.00576377660036087,0.15930309891700745,-11.761653900146484
1.7294979282403807e+18,0.022634446620941162,0.04453796148300171,-11.715432167053223
1.7294979282493809e+18,0.09653154015541077,0.06296475976705551,-11.702553749084473
1.729497928258381e+18,0.07342269271612167,0.011093631386756897,-11.242792129516602
1.7294979282673812e+18,0.05090046674013138,0.12593965232372284,-10.855019569396973
1.7294979282763814e+18,-0.004255764186382294,0.07078418135643005,-10.569847106933594
1.7294979282823816e+18,0.11954175680875778,0.006882816553115845,-10.501822471618652
1.729497928297382e+18,0.028778772801160812,0.09286640584468842,-10.372647285461426
1.729497928306382e+18,0.05607578903436661,0.056854113936424255,-10.300006866455078
1.7294979283123822e+18,0.01511538028717041,0.03672665357589722,-10.128968238830566
1.7294979283213824e+18,0.03479630872607231,0.11719009280204773,-9.808202743530273
1.7294979283303826e+18,0.07538829743862152,0.0703795775771141,-9.716333389282227
1.7294979283363827e+18,0.09296219795942307,0.07697370648384094,-9.761009216308594
1.729497928345383e+18,0.06517413258552551,0.08491994440555573,-9.664170265197754
1.729497928354383e+18,0.08336952328681946,-0.05929117649793625,-9.527931213378906
1.7294979283603832e+18,-0.039761267602443695,0.0534992441534996,-9.391923904418945
1.7294979283693834e+18,0.01533910445868969,0.05226912349462509,-9.466833114624023
1.7294979283753836e+18,0.10021626949310303,0.07336869835853577,-9.3993558883667
1.7294979283843837e+18,0.11968698352575302,0.06801889836788177,-9.09978199005127
1.729497928393384e+18,0.012772483751177788,0.008379768580198288,-9.05162525177002
1.7294979284023841e+18,0.03792938217520714,0.0395582914352417,-9.00795841217041
1.7294979284083843e+18,0.031973909586668015,0.0987100675702095,-9.043203353881836
1.7294979284173844e+18,0.039408326148986816,-0.03300239145755768,-9.058095932006836
1.7294979284293847e+18,0.05646205693483353,0.024881400167942047,-8.897558212280273
1.729497928438385e+18,0.041114598512649536,0.006621154490858316,-8.679234504699707
1.729497928447385e+18,0.04419147968292236,0.01319131813943386,-8.623536109924316
1.7294979284563853e+18,0.06556393951177597,0.05080287903547287,-8.705974578857422
1.7294979284653855e+18,0.0038268459029495716,-0.03454502299427986,-8.696769714355469
1.7294979284743857e+18,0.0017193083185702562,0.05202256143093109,-8.68544864654541
1.7294979284803858e+18,0.022553957998752594,-0.03300507739186287,-8.539849281311035
1.729497928489386e+18,-0.06313438713550568,0.02150653302669525,-8.38682746887207
1.729497928495386e+18,0.001516489777714014,0.006206427700817585,-8.461579322814941
1.7294979285043863e+18,0.0373375341296196,0.020294005051255226,-8.516549110412598
1.7294979285133865e+18,-0.017635462805628777,-0.026520686224102974,-8.612166404724121
1.7294979285223867e+18,0.012482436373829842,0.0004860316403210163,-8.561643600463867
1.7294979285283868e+18,-0.03089751861989498,-0.0965695008635521,-8.61279582977295
1.729497928537387e+18,-0.009822980500757694,-0.026983680203557014,-8.56204891204834
1.7294979285463872e+18,-0.05400075018405914,-0.0040809400379657745,-8.462571144104004
1.7294979285523873e+18,-0.013399251736700535,0.02634309232234955,-8.525182723999023
1.7294979285613875e+18,0.04454096406698227,-0.03417956456542015,-8.538634300231934
1.7294979285703877e+18,0.03573552519083023,-0.06682194769382477,-8.535097122192383
1.7294979285763878e+18,0.07003705203533173,-0.008655039593577385,-8.606794357299805
1.729497928585388e+18,-0.06546856462955475,-0.008637151680886745,-8.601544380187988
1.7294979285943882e+18,-0.031075743958353996,-0.020632078871130943,-8.570158958435059
1.7294979286003884e+18,-0.03820158541202545,-0.07130397111177444,-8.651388168334961
1.7294979286093885e+18,0.02376127615571022,-0.008244696073234081,-8.522937774658203
1.7294979286183887e+18,-0.025823673233389854,-0.047466352581977844,-8.487391471862793
1.7294979286243889e+18,-0.0223772544413805,0.04799042269587517,-8.546317100524902
1.729497928633389e+18,-0.0005605323240160942,-0.033977095037698746,-8.524534225463867
1.7294979286423892e+18,-0.027820680290460587,0.03515583649277687,-8.561695098876953
1.7294979286543895e+18,0.005924375727772713,-0.0057935588993132114,-8.58338451385498
1.7294979286633897e+18,-0.0805932804942131,-0.028623374179005623,-8.589141845703125
1.72949792867239e+18,-0.022809358313679695,-0.03063499741256237,-8.678445816040039
1.72949792867839e+18,-0.006667046807706356,0.0665869489312172,-8.534716606140137
1.7294979286873902e+18,-0.04030907526612282,0.03432224318385124,-8.678820610046387
1.7294979286963904e+18,0.0179911982268095,-0.016954835504293442,-8.558411598205566
1.7294979287023905e+18,0.014739332720637321,0.014461150392889977,-8.607268333435059
1.7294979287113907e+18,-0.0322873592376709,0.019810274243354797,-8.653441429138184
1.7294979287173908e+18,0.019934093579649925,-0.0626770406961441,-8.723723411560059
1.729497928726391e+18,-0.047906458377838135,0.03385666012763977,-8.649519920349121
1.7294979287353912e+18,-0.023264581337571144,-0.003446160349994898,-8.542734146118164
1.7294979287413914e+18,0.03192022815346718,-0.016571998596191406,-8.706507682800293
1.7294979287503916e+18,0.07557521760463715,0.02076076529920101,-8.77678394317627
1.7294979287563917e+18,0.02796825021505356,0.040883809328079224,-8.768067359924316
1.729497928765392e+18,0.10071450471878052,0.0510091707110405,-8.824287414550781
1.729497928774392e+18,0.014059888198971748,-0.02820477820932865,-8.761614799499512
1.7294979287803922e+18,0.009424105286598206,0.022169269621372223,-8.737735748291016
1.7294979287893924e+18,0.020225225016474724,0.0037994920276105404,-8.74646282196045
1.7294979287983926e+18,0.017781563103199005,0.0723574236035347,-8.802270889282227
1.7294979288043927e+18,0.023210886865854263,-0.007200245279818773,-8.78497314453125
1.729497928813393e+18,0.00458746450021863,0.05627924203872681,-8.76156997680664
1.729497928822393e+18,-0.05504545569419861,-0.028373250737786293,-8.900392532348633
1.7294979288283932e+18,-0.031022194772958755,0.012633482925593853,-8.846638679504395
1.7294979288373934e+18,0.038277387619018555,-0.055142369121313095,-8.891803741455078
1.7294979288463936e+18,-0.05724600702524185,-0.014723792672157288,-8.900886535644531
1.7294979288523937e+18,-0.02705102041363716,-0.016458852216601372,-8.892882347106934
1.729497928861394e+18,0.051268890500068665,-0.019942743703722954,-8.922060012817383
1.729497928870394e+18,0.07854064553976059,-0.068796806037426,-8.925929069519043
1.7294979288763942e+18,-0.003629900049418211,-0.05022286996245384,-8.979620933532715
1.7294979288853944e+18,-0.030199728906154633,-0.019458413124084473,-8.985374450683594
1.7294979288943946e+18,-0.010267352685332298,0.0010704339947551489,-8.958416938781738
1.7294979289033948e+18,0.07056927680969238,-0.024312563240528107,-9.016437530517578
1.729497928909395e+18,-0.0228580329567194,0.03523383289575577,-8.997038841247559
1.7294979289183951e+18,-0.08546220511198044,-0.018940715119242668,-9.079140663146973
1.7294979289273953e+18,-0.0019153840839862823,0.013738301582634449,-8.943572998046875
1.7294979289333955e+18,-0.061109237372875214,0.010352259501814842,-8.924861907958984
1.7294979289423956e+18,0.026984618976712227,-0.009407062083482742,-8.765951156616211
1.7294979289513958e+18,0.03379402682185173,-0.02775256708264351,-8.895681381225586
1.729497928960396e+18,0.018937664106488228,0.014236871153116226,-8.83923053741455
1.7294979289663962e+18,0.03243180364370346,0.05544775351881981,-9.651754379272461
1.7294979289753964e+18,0.011743910610675812,0.010208307765424252,-10.365839958190918
1.7294979289843965e+18,-0.028605107218027115,-0.0016509266570210457,-10.320221900939941
1.7294979289933967e+18,0.006260601803660393,0.023627085611224174,-10.25601863861084
1.729497929002397e+18,0.0042810384184122086,0.037008486688137054,-10.280844688415527
1.729497929011397e+18,-0.028447061777114868,-0.03346883878111839,-10.243511199951172
1.7294979290173972e+18,0.09285958111286163,-0.011529708281159401,-10.216795921325684
1.7294979290263974e+18,0.017158737406134605,-0.0367049016058445,-10.14903736114502
1.7294979290323976e+18,-0.06804246455430984,-0.03458276391029358,-10.08443546295166
1.7294979290413978e+18,0.03802892565727234,-0.03980506584048271,-10.10377311706543
1.729497929050398e+18,0.050480715930461884,-0.02004079893231392,-10.07653522491455
1.7294979290653983e+18,-0.026868712157011032,0.05725482851266861,-9.816963195800781
1.7294979290743985e+18,0.03921327739953995,0.05718380585312843,-9.674516677856445
1.7294979290833987e+18,-0.009781315922737122,-0.013733439147472382,-9.661391258239746
1.7294979290923988e+18,-0.026429589837789536,-0.033121369779109955,-9.683942794799805
1.729497929101399e+18,-0.06883381307125092,0.04850824177265167,-9.708671569824219
1.7294979291103992e+18,0.03559376299381256,-0.02257966622710228,-9.546818733215332
1.7294979291253996e+18,-0.05109122395515442,-0.011531107127666473,-9.604729652404785
1.7294979291313997e+18,0.013031824491918087,-0.0036990344524383545,-9.592220306396484
1.7294979291403999e+18,-0.07929126918315887,0.052026696503162384,-9.60673713684082
1.7294979291464e+18,0.024848101660609245,0.029346218332648277,-9.651771545410156
1.7294979291554002e+18,-0.00668434239923954,0.07265818864107132,-9.492701530456543
1.7294979291644004e+18,0.08884469419717789,-0.06299804896116257,-9.440570831298828
1.7294979291734006e+18,-0.060562752187252045,-0.007560361176729202,-9.347065925598145
1.7294979291824008e+18,0.038450270891189575,0.04485737904906273,-9.384645462036133
1.729497929191401e+18,-0.04176637530326843,0.03946131095290184,-9.35285472869873
1.7294979292004012e+18,0.0790550634264946,0.056667618453502655,-9.407671928405762
1.7294979292064013e+18,-0.0015567373484373093,0.008101092651486397,-9.408843040466309
1.7294979292154015e+18,0.038999684154987335,0.04493078961968422,-9.340635299682617
1.7294979292244017e+18,0.059191301465034485,0.02692503295838833,-9.35653305053711
1.7294979292304018e+18,-0.025826137512922287,0.1900423765182495,-9.340860366821289
1.729497929239402e+18,0.034881774336099625,0.028133511543273926,-9.39205265045166
1.7294979292484022e+18,-0.022373788058757782,0.058513276278972626,-9.204919815063477
1.7294979292574024e+18,0.004196273162961006,0.08805447816848755,-9.274084091186523
1.7294979292664026e+18,-0.016413267701864243,0.07190275192260742,-9.266877174377441
1.7294979292724027e+18,0.1008937656879425,0.003581136465072632,-9.227631568908691
1.729497929281403e+18,0.044437989592552185,0.03550608456134796,-9.241686820983887
1.729497929290403e+18,0.04639327526092529,0.08967140316963196,-9.228713035583496
