timestamp,gyro_x,gyro_y,gyro_z
1.7294940541287347e+18,-0.0019618303049355745,0.0007634657667949796,0.0011274387361481786
1.729494054137735e+18,0.0006948838126845658,0.0005878811934962869,-0.0027760483790189028
1.729494054146735e+18,0.00028528276016004384,0.002236277563497424,-0.0014178104465827346
1.7294940541527352e+18,-0.0026413521263748407,-0.0041289543733000755,-3.679641667986289e-05
1.7294940541587354e+18,-0.0019240028923377395,-0.0005387387936934829,-0.001594105502590537
1.7294940541677356e+18,0.0006890195072628558,-0.0020402478985488415,-0.0004615893994923681
1.7294940541707356e+18,0.0028429413214325905,-0.0002938260731752962,0.0020964383147656918
1.7294940541797358e+18,-0.0017323658103123307,-0.0013128712307661772,-0.0010224631987512112
1.729494054188736e+18,-0.000510333979036659,0.0009758829837664962,0.0007094778120517731
1.729494054194736e+18,0.0005765328533016145,0.00010788304643938318,0.0013977037742733955
1.7294940542037363e+18,-0.0014027259312570095,0.002275113482028246,-0.00029421248473227024
1.7294940542127365e+18,0.0012521127937361598,4.972739770892076e-05,0.0011098264949396253
1.7294940542187366e+18,0.0009002713486552238,0.000494070234708488,-0.001952335936948657
1.7294940542247368e+18,0.0023464947007596493,-0.0004822249466087669,-0.0026960945688188076
1.729494054230737e+18,-0.0017899872036650777,-0.0007663322612643242,0.0017006639391183853
1.729494054236737e+18,-0.003043945413082838,-0.0010446899104863405,0.001766943372786045
1.7294940542457372e+18,0.002813727129250765,0.0011025157291442156,0.0023585553281009197
1.7294940542547374e+18,-0.0007119329529814422,0.0032534070778638124,-0.0003708314325194806
1.7294940542607375e+18,0.0011064406717196107,-0.00120278459507972,-0.00010268086771247908
1.7294940542697377e+18,-0.00198727915994823,0.001098587061278522,-0.0010686683235689998
1.729494054278738e+18,0.0019744504243135452,0.000917470024432987,0.003287290455773473
1.729494054284738e+18,-0.0018905350007116795,0.0008818870410323143,0.0010692677460610867
1.7294940542907382e+18,0.0001586063444847241,0.0020153990481048822,-0.0008361577056348324
1.7294940542967383e+18,0.0005618779105134308,-0.0007806486682966352,-0.0017703227931633592
1.7294940543057385e+18,0.00043827248737215996,0.0012241137446835637,-0.003715959144756198
1.7294940543147387e+18,-0.0008291112608276308,-0.0006190107669681311,-0.0009134740685112774
1.7294940543207388e+18,0.000487266544951126,-0.0019295054953545332,0.0021111145615577698
1.729494054323739e+18,0.00011221088061574847,0.0028625724371522665,-0.0001937740744324401
1.729494054329739e+18,-0.0009781315457075834,0.000525334500707686,-0.000946183456107974
1.7294940543357391e+18,2.6955936846206896e-05,0.0016047778772190213,0.0002593424287624657
1.7294940543417393e+18,0.002669262234121561,0.0016582610551267862,-0.00084464973770082
1.7294940543507395e+18,0.0026119849644601345,-0.000500435009598732,0.0003143252106383443
1.7294940543597396e+18,-0.0013610770693048835,-0.0011974270455539227,0.0012686458649113774
1.7294940543657398e+18,0.0017244321061298251,0.0005156703409738839,-0.0017904099076986313
1.72949405437174e+18,0.0023220034781843424,-0.000167545149452053,-0.0010810298845171928
1.72949405438074e+18,0.0010918710613623261,-0.001495929667726159,0.0010621935361996293
1.7294940543837402e+18,-2.5975972675951198e-05,0.0007473336881957948,-0.00015129170787986368
1.7294940543927404e+18,-0.002438376424834132,-0.0010575292399153113,0.00013498087355401367
1.7294940543987405e+18,-0.0031083773355931044,0.0010833037085831165,-0.001368822413496673
1.7294940544047406e+18,0.0017871448071673512,-0.0004652280767913908,-0.00010749526700237766
1.7294940544137408e+18,0.0020195478573441505,0.001605334342457354,-0.0004503738891799003
1.729494054422741e+18,0.00165654462762177,0.0008912173216231167,0.0007258139667101204
1.7294940544317412e+18,0.0020957293454557657,0.0010853101266548038,0.0027003565337508917
1.7294940544407414e+18,0.0006568764219991863,0.0017102693673223257,0.0010468978434801102
1.7294940544497416e+18,0.0021988539956510067,0.004004715941846371,0.00039915647357702255
1.7294940544557417e+18,-0.000625931890681386,-0.0005134653765708208,0.0024038602132350206
1.7294940544617418e+18,0.00011744087532861158,0.0014455798082053661,0.0005222850595600903
1.729494054467742e+18,0.0021631568670272827,-0.0033340936060994864,-0.0030671218410134315
1.7294940544767421e+18,0.0025458650197833776,0.001985411159694195,-0.0032178815454244614
1.7294940544827423e+18,0.001671460224315524,-0.00041101951501332223,0.0024227777030318975
1.7294940544917425e+18,-8.553115912945941e-05,0.00026306341169402003,0.0006776992813684046
1.7294940545007427e+18,0.0033669027034193277,-0.002241323934867978,-0.0006791495834477246
1.7294940545097428e+18,-0.00020544273138511926,0.0005619344301521778,0.00012266023259144276
1.729494054515743e+18,-0.0023003967944532633,-0.00022593408357352018,0.0009927256032824516
1.7294940545247432e+18,-0.0012811170890927315,-0.0002743776421993971,-0.0010138575453311205
1.7294940545337434e+18,0.0008508253959007561,-0.0038595169316977262,-0.0002615085104480386
1.7294940545427436e+18,-0.0010094313183799386,-0.0014572377549484372,-0.0025536930188536644
1.7294940545517437e+18,0.00026297266595065594,-0.0015717564383521676,-0.0015303943073377013
1.729494054560744e+18,-0.0006824206793680787,0.00023600053100381047,0.0004767629725392908
1.729494054563744e+18,0.0021141928154975176,-0.0017478923546150327,-0.0006686354172416031
1.7294940545727442e+18,0.0029018931090831757,0.004170689266175032,-1.1540873856574763e-05
1.7294940545787443e+18,0.0013885468943044543,0.0013624831335619092,0.0018175787990912795
1.7294940545877445e+18,0.0008417475037276745,-0.0014365194365382195,-0.0014406009577214718
1.7294940545937446e+18,-0.0008616450941190124,0.0011393055319786072,0.0008519444381818175
1.7294940546027448e+18,-0.0002294016012456268,-0.0009580918122082949,-0.0008199869189411402
1.729494054611745e+18,-0.00022015577997080982,-0.0021643294021487236,0.0025836913846433163
1.7294940546207452e+18,-0.0014508626190945506,-0.003837485099211335,-0.0003791383933275938
1.7294940546297454e+18,-0.000969286251347512,0.0005470392061397433,0.0009236049954779446
1.7294940546387456e+18,-0.0006074191187508404,0.0020294496789574623,0.00022480332700069994
1.7294940546477458e+18,0.0006145362858660519,0.003506996901705861,-0.0012856852263212204
1.729494054656746e+18,0.0001394327700836584,0.0006267338758334517,-0.0023901003878563643
1.7294940546657462e+18,0.0030882840510457754,0.0008754894370213151,0.0013725373428314924
1.7294940546747464e+18,-0.0016636713407933712,-0.0005901462282054126,0.0017438683426007628
1.7294940546837466e+18,0.00046509355888701975,0.0009644165984354913,-0.00046252983156591654
1.7294940546927468e+18,0.0023659495636820793,-0.0009598621400073171,-0.002549647120758891
1.729494054701747e+18,-0.0004986777203157544,0.0015551690012216568,-0.0007239735568873584
1.7294940547107471e+18,0.0005001993267796934,-0.0013712533982470632,0.0026960927061736584
1.7294940547197473e+18,-0.0017058271914720535,-0.0007066967082209885,-0.0024841430131345987
1.7294940547287475e+18,0.0008228005608543754,0.0005724872462451458,0.002803730545565486
1.7294940547377477e+18,0.0009370713960379362,-0.0005022381665185094,0.0015233112499117851
1.7294940547437478e+18,0.0012769373133778572,1.3351184861676302e-05,-0.002770864637568593
1.729494054752748e+18,0.00014807684055995196,0.0017251871759071946,-0.0018850922351703048
1.7294940547617482e+18,0.00021894431847613305,-0.0015376278897747397,0.002248436911031604
1.7294940547707484e+18,-0.002177248941734433,-0.0005080755800008774,-0.0007574738701805472
1.7294940547797486e+18,0.0030218730680644512,0.002993740374222398,-0.00224907323718071
1.7294940547887488e+18,0.0006295542698353529,-0.0015750844031572342,0.0014376913895830512
1.729494054797749e+18,0.0013855717843398452,0.0009419940761290491,-0.0008908239542506635
1.7294940548067492e+18,-0.0007907843100838363,0.00015668984269723296,0.001027254038490355
1.7294940548127493e+18,-0.0005966603639535606,-0.002463503275066614,0.00019212231563869864
1.7294940548217495e+18,0.0018273865571245551,0.00045550704817287624,-0.00136263994500041
1.7294940548307497e+18,0.0021464440505951643,0.0010033933212980628,-0.0061257886700332165
1.7294940548367498e+18,-0.002699631731957197,-0.0010048237163573503,0.0023493352346122265
1.72949405484575e+18,-0.00029292123508639634,-0.0019585327245295048,3.990433833678253e-05
1.7294940548547502e+18,0.0007330522057600319,-0.0005864810082130134,-0.0010294419480487704
1.7294940548637504e+18,-0.0037275943905115128,-0.00042774356552399695,-0.0009502519969828427
1.7294940548727506e+18,0.00417721550911665,0.0002230461104772985,0.00037107180105522275
1.7294940548787507e+18,-0.0008027262520045042,-0.0007359285955317318,-0.0016282793367281556
1.729494054887751e+18,-0.00017603453306946903,0.0018301606178283691,7.448740507243201e-05
1.729494054893751e+18,0.0003042869793716818,0.00036025335430167615,-0.002414173446595669
1.7294940549027512e+18,-0.00012456296826712787,-0.0015550701646134257,-0.00414583133533597
1.7294940549087514e+18,-0.0016609685262665153,0.0006034843972884119,6.095321805332787e-05
1.7294940549177516e+18,-0.002353013027459383,0.0005080595146864653,0.0019370083464309573
1.7294940549237517e+18,-0.0005021193064749241,-0.0024099918082356453,0.00022304269077721983
1.7294940549297518e+18,-0.0010474825976416469,-0.0012950359378010035,-0.0013659604592248797
1.729494054938752e+18,0.0015140592586249113,0.0014664448099210858,0.0013404815690591931
1.7294940549477522e+18,-0.0006867821211926639,0.0035045796539634466,-0.0001466476242057979
1.7294940549537523e+18,-0.002572257537394762,0.0013819118030369282,0.00015117262955754995
1.7294940549597524e+18,0.0035940278321504593,-0.001777528552338481,-0.0007851152331568301
1.7294940549687526e+18,-4.581015309668146e-05,-0.0020710015669465065,-0.0010301806032657623
1.7294940549747528e+18,0.0012942187022417784,0.0007720599533058703,0.0021620909683406353
1.729494054980753e+18,0.0015871489886194468,-0.0020367105025798082,-1.537666867079679e-05
1.729494054986753e+18,0.0010794277768582106,0.0015885008033365011,0.0024950820952653885
1.7294940549927532e+18,-0.000914808246307075,0.0023677346762269735,0.00142611691262573
1.7294940550017533e+18,0.000598495127633214,-0.001380999106913805,-0.002363001462072134
1.7294940550077535e+18,-0.0012990438845008612,-0.0002267191739520058,0.001574621070176363
1.7294940550137536e+18,-0.0010727130575105548,-0.0022370745427906513,0.002284231362864375
1.7294940550197537e+18,0.0015942318132147193,-0.0014697848819196224,0.00012236254406161606
1.7294940550257539e+18,-0.0024916117545217276,-0.0015602940693497658,-0.00044156936928629875
1.729494055034754e+18,0.0003531058318912983,0.0011068236781284213,0.00027573114493861794
1.7294940550407542e+18,0.0013724203454330564,-0.0010190651519224048,-0.0002925168664660305
1.7294940550467543e+18,-0.0005302881472744048,0.00245681288652122,-0.0010233704233542085
1.7294940550557545e+18,-0.0004405977379065007,0.0006689301808364689,0.0019129150314256549
1.7294940550617546e+18,-0.0008716349839232862,0.001574045862071216,0.0008387822308577597
1.7294940550677548e+18,0.0007493919692933559,-0.00137821095995605,-0.0020127652678638697
1.729494055073755e+18,0.00024877782561816275,-0.0012806988088414073,0.0015039767604321241
1.729494055082755e+18,0.0006161670316942036,-0.00019480384071357548,0.0009878630517050624
1.7294940550887552e+18,-0.0002358251076657325,-0.0006485207704827189,-0.002467136364430189
1.7294940550977554e+18,-0.000936051772441715,0.0006891281809657812,-0.0002304076770087704
1.7294940551037555e+18,0.001986294286325574,0.004381957463920116,0.0009022566955536604
1.7294940551127557e+18,-0.0010759357828646898,-0.0010485785314813256,-0.0014989518094807863
1.7294940551187558e+18,-0.0025262131821364164,0.002076845383271575,0.00026111846091225743
1.729494055124756e+18,-0.0016966303810477257,-0.000815457315184176,-0.001649583107791841
1.729494055130756e+18,-0.0007445591618306935,0.0005972701474092901,0.0013767480850219727
1.7294940551367562e+18,0.0014297132147476077,-0.0008055868675000966,-0.000770155806094408
1.7294940551427564e+18,-0.0006850042846053839,0.0002447222941555083,0.0005573334055952728
1.7294940551487565e+18,-4.8241610784316435e-05,-0.0020124604925513268,0.0005731576820835471
1.7294940551547566e+18,-0.0012907530181109905,-0.002316283993422985,0.001140938838943839
1.7294940551607567e+18,-0.0014216883573681116,0.002372289076447487,-0.0015710050938650966
1.7294940551667569e+18,0.002071073278784752,-0.0009954582201316953,-0.0010421902406960726
1.729494055175757e+18,0.0003060706949327141,0.0006428533233702183,-0.00013068440603092313
1.7294940551817572e+18,0.00015038184938021004,-0.001621600124053657,-0.00014569137420039624
1.7294940551877573e+18,-0.000635526841506362,0.0034439004957675934,-0.0011348308762535453
1.7294940551967575e+18,7.994324550963938e-05,0.0005760343046858907,0.0004144385748077184
1.7294940552057577e+18,-0.0008484857389703393,-0.001379018765874207,0.0004128245636820793
1.7294940552117578e+18,0.0011959216790273786,-0.0002611275704111904,-0.0009446960175409913
1.729494055220758e+18,-0.00011056859511882067,0.000503960472997278,0.00016119373321998864
1.7294940552267581e+18,0.00046059858868829906,-0.002403836464509368,-0.00023383887310046703
1.7294940552327583e+18,-0.0006107552326284349,-0.00354348705150187,0.0005729899858124554
1.7294940552387584e+18,0.0014301512856036425,-0.0010601459071040154,-0.0013399289455264807
1.7294940552447585e+18,0.001044313539750874,0.0009825322777032852,0.0007736280094832182
1.7294940552507587e+18,-0.0014374494785442948,0.0010657295351848006,-0.0008974030497483909
1.7294940552597588e+18,0.0028478449676185846,0.0009053973481059074,7.289765198947862e-05
1.729494055262759e+18,-0.0009514956618659198,-0.001226231106556952,-0.0024506552144885063
1.729494055271759e+18,-0.0007060473435558379,-0.0020542116835713387,-0.0012471951777115464
1.7294940552777592e+18,-0.0013509730342775583,-0.0010323524475097656,-0.002180548384785652
1.7294940552867594e+18,-0.0019946976099163294,0.000371101894415915,0.0003124919312540442
1.7294940552957596e+18,0.002389337634667754,-0.0005751418648287654,4.390288086142391e-05
1.7294940553017597e+18,-0.0029839712660759687,-0.002051323652267456,-0.000492391234729439
1.7294940553077599e+18,0.001486594439484179,-0.0024810086470097303,0.0010822982294484973
1.72949405531376e+18,0.0009504883200861514,0.00213838298805058,-0.002590486779808998
1.7294940553227602e+18,0.0017928264569491148,-0.0004262486763764173,0.0020796204917132854
1.7294940553287603e+18,0.0010239245602861047,0.002087201690301299,0.0015849185874685645
1.7294940553347604e+18,-0.0018654451705515385,0.000459319562651217,0.0018152701668441296
1.7294940553407606e+18,0.0012827046448364854,0.0008451852481812239,0.002269456861540675
1.7294940553467607e+18,0.0005822582170367241,0.00046751287300139666,0.0029138862155377865
1.7294940553527608e+18,-0.00018711923621594906,0.0028173215687274933,-0.000986620900221169
1.729494055358761e+18,-0.0024942841846495867,-0.00040141830686479807,-0.00043531128903850913
1.729494055364761e+18,-0.0017059205565601587,-0.00012191607675049454,-0.00010125747212441638
1.7294940553707612e+18,0.0004895697929896414,0.0011179657885804772,-0.0016338437562808394
1.7294940553797614e+18,-0.0008399709477089345,0.0012871426297351718,-0.000387729553040117
1.7294940553887616e+18,-0.0006482757744379342,-0.0015346973668783903,0.0005485151777975261
1.7294940553917617e+18,0.000337526056682691,0.001276266062632203,-0.002910312730818987
1.7294940554007619e+18,0.00048487409367226064,0.0019927446264773607,-0.004015260376036167
1.729494055406762e+18,0.0023315215948969126,0.001962371403351426,0.0021904646418988705
1.7294940554157622e+18,-0.00039635083521716297,0.00099299312569201,-0.00027506615151651204
1.7294940554217623e+18,-5.8881360018858686e-05,0.00014167172776069492,-0.001806969870813191
1.7294940554307625e+18,0.00043222238309681416,0.0016520529752597213,0.0005559910205192864
1.7294940554397627e+18,-0.00011406352859921753,-0.00048379856161773205,0.0002749291597865522
1.729494055448763e+18,-0.002042230451479554,-0.000487753888592124,0.004034518729895353
1.729494055454763e+18,-0.0018440693384036422,0.00176838762126863,0.004792585503309965
1.7294940554637632e+18,-0.0012569221435114741,-0.0015962878242135048,-0.0008141216239891946
1.7294940554697633e+18,0.0031061640474945307,0.0012728073634207249,-0.0009494349360466003
1.7294940554757635e+18,-0.000281863467535004,0.0036195977590978146,-0.000998197472654283
1.7294940554817636e+18,0.0023425044491887093,-0.0010530691361054778,0.002496873727068305
1.7294940554907638e+18,0.00013605697313323617,0.0011506607988849282,-0.004704023711383343
1.729494055496764e+18,-0.00039763731183484197,0.0035158495884388685,-0.0009943387703970075
1.729494055502764e+18,6.520590977743268e-05,0.000802090740762651,0.0008565975585952401
1.7294940555117642e+18,0.0002303356013726443,0.0004005825612694025,-0.0011097273090854287
1.7294940555177644e+18,-0.0002783535164780915,-0.0008029991877265275,-0.0005920481053180993
1.7294940555267645e+18,-0.0010807961225509644,-0.0033945993054658175,0.00025869926321320236
1.7294940555327647e+18,0.0005759057239629328,0.001777867553755641,4.281767178326845e-05
1.7294940555387648e+18,0.00026720811729319394,0.002565191127359867,0.002654784359037876
1.729494055547765e+18,0.002129889093339443,-5.854611299582757e-05,-0.0004620703693944961
1.7294940555567652e+18,0.0005182370659895241,9.142838098341599e-05,-0.0017289356328547
1.7294940555627653e+18,9.174640581477433e-05,-0.002210472710430622,-5.951676212134771e-05
1.7294940555717655e+18,0.0009978293674066663,0.00015424216690007597,-0.0021810538601130247
1.7294940555807657e+18,0.0027221350464969873,0.0006920404848642647,-0.0022489053662866354
1.7294940555867658e+18,-0.0005290404078550637,-0.00020903038966935128,-0.0008917091181501746
1.729494055592766e+18,0.0007340862066484988,-0.0022120140492916107,-0.002399708842858672
1.7294940556017661e+18,0.0014339282643049955,0.0005999099230393767,0.0014554905937984586
1.7294940556077663e+18,0.0024817390367388725,-0.0008224414777942002,0.0001723072782624513
1.7294940556167665e+18,0.0016535144532099366,0.0011190278455615044,0.0006014162208884954
1.7294940556227666e+18,0.002132877241820097,-7.967078272486106e-05,0.0011541388230398297
1.7294940556287667e+18,-0.00045221837353892624,0.001523209037259221,8.56469850987196e-05
1.7294940556347668e+18,-0.0013263197615742683,0.00033944760798476636,-0.001754743279889226
1.729494055643767e+18,-0.0013071129797026515,-0.0014181265141814947,0.0008314446895383298
1.7294940556497672e+18,-0.0005932511994615197,0.0015623338986188173,-0.0007097078487277031
1.7294940556557673e+18,-0.0028997899498790503,-0.00011464169074315578,0.00019341291044838727
1.7294940556647675e+18,0.001244336017407477,0.0005470386240631342,-0.0010843442287296057
1.7294940556677676e+18,0.0012057949788868427,-0.0013516007456928492,0.0021644539665430784
1.7294940556737677e+18,0.000901262101251632,-0.00011049615568481386,-0.0012733235489577055
1.7294940556797678e+18,0.0026122122071683407,0.00018437148537486792,-0.0016431129770353436
1.729494055685768e+18,0.0016642617993056774,0.005040463525801897,-0.002577567007392645
1.729494055691768e+18,-0.0012440960854291916,-0.0019943853840231895,-0.0017727689119055867
1.7294940556977682e+18,0.00032549843308515847,0.0018448353512212634,2.312561082362663e-05
1.7294940557037683e+18,-0.0011681978357955813,-0.0008715404546819627,0.0011669609230011702
1.7294940557097684e+18,0.0030480653513222933,0.0013387443032115698,-0.0029375297017395496
1.7294940557157686e+18,-0.0021152456756681204,0.0004979610093869269,0.001080622081644833
1.7294940557217687e+18,1.2064370821462944e-05,-0.0002715764276217669,-0.00041717171552591026
1.7294940557277688e+18,-0.0009633051813580096,0.0004697331169154495,0.0018517064163461328
1.729494055736769e+18,0.001746577792800963,-0.00021214909793343395,-0.00036339613143354654
1.7294940557427692e+18,0.0016460394253954291,-0.0011698664166033268,-0.002009819494560361
1.7294940557487693e+18,-0.0014569240156561136,-0.000665304425638169,-0.0007588425651192665
1.7294940557547694e+18,0.0028841421008110046,-0.002813242143020034,-0.0001930685539264232
1.7294940557607695e+18,-0.0014242404140532017,-0.0008826111443340778,-0.0014806139515712857
1.7294940557697697e+18,-0.000524260918609798,0.0001370403915643692,-0.000502845854498446
1.7294940557757699e+18,0.0022539012134075165,-0.0018517466960474849,-0.0012394040822982788
1.72949405578177e+18,0.001003407989628613,-0.00018312637985218316,0.0001306364283664152
1.72949405578777e+18,-0.00034922704799100757,-0.0009114103158935905,0.0015259396750479937
1.7294940557937702e+18,0.0014009947190061212,-0.0005304327351041138,-0.00015244033420458436
1.7294940557997704e+18,0.002519115572795272,0.0010598732624202967,-0.0006472361856140196
1.7294940558087706e+18,-0.001660563750192523,0.001509044668637216,0.001696498366072774
1.7294940558147707e+18,-0.00033178014564327896,-0.00047025474486872554,-0.0022607643622905016
1.7294940558207708e+18,2.727758874243591e-05,0.0008473144844174385,-0.0013024103827774525
1.729494055829771e+18,0.0023930598981678486,-0.0018453141674399376,-0.00046164117520675063
1.7294940558357711e+18,0.002138075651600957,0.0013447575038298965,0.0015123579651117325
1.7294940558417713e+18,-0.00071850506355986,-0.00033839771640487015,-0.001324992161244154
1.7294940558477714e+18,0.0015824645524844527,-0.0029604416340589523,-0.002283769194036722
1.7294940558537715e+18,-0.000860314816236496,-0.0001757716527208686,-0.0002916987577918917
1.7294940558597716e+18,0.002043038373813033,0.0006892436649650335,-9.080105883185752e-06
1.7294940558657718e+18,0.0004135495109949261,0.000861749576870352,0.00414199847728014
1.729494055871772e+18,-0.002052668482065201,0.0006730264285579324,0.00030806101858615875
1.729494055880772e+18,-5.658065128955059e-05,0.003491931362077594,0.0011938338866457343
1.7294940558867722e+18,0.004097141791135073,-0.0005674010026268661,-0.00038320437306538224
1.7294940558927724e+18,0.002814636565744877,-0.00041929460712708533,-0.001605444704182446
1.7294940559017725e+18,-0.002367650391533971,-0.00268876226618886,0.0037825715262442827
1.7294940559107727e+18,0.0015584833454340696,0.0013475536834448576,0.0030611332040280104
1.7294940559167729e+18,-0.002207862911745906,0.0053732311353087425,-0.0012984599452465773
1.729494055922773e+18,0.00011777121108025312,-0.0010947065893560648,0.0018874927191063762
1.7294940559317732e+18,-0.001942983129993081,0.0005267129745334387,0.001418617437593639
1.7294940559377733e+18,0.004530505742877722,-0.0018097179709002376,-0.0018226278480142355
1.7294940559437734e+18,0.0008290199912153184,0.0011113777291029692,0.001031493186019361
1.7294940559527736e+18,-0.0021979378070682287,0.0002431043394608423,-0.0017825153190642595
1.7294940559587738e+18,-0.002745121717453003,0.0017416573828086257,0.0008005821146070957
1.729494055964774e+18,0.0018558858428150415,0.0013876000884920359,-0.0014123957371339202
1.729494055970774e+18,0.0014850107254460454,-0.0016879690811038017,0.00010596297943266109
1.7294940559767741e+18,-0.0011075956281274557,0.002642745617777109,5.5542364862049e-05
1.7294940559827743e+18,-0.00023314057034440339,-0.0014809940475970507,-0.0036362018436193466
1.7294940559887744e+18,-0.00026147940661758184,0.0020447978749871254,-0.0008243655902333558
1.7294940559947745e+18,0.0006944115157239139,0.0011819250648841262,-0.002644993830472231
1.7294940560007747e+18,-0.0010436050361022353,-0.0014599364949390292,-0.0009768505115061998
1.7294940560067748e+18,0.0003686013224069029,0.001982208341360092,0.00041438970947638154
1.729494056012775e+18,-0.000852117023896426,0.0011892279144376516,-0.0020568231120705605
1.729494056018775e+18,-0.0014525953447446227,-0.0024418355897068977,-0.0011040695244446397
1.7294940560247752e+18,0.0008134074159897864,0.0011488066520541906,0.0005015705246478319
1.7294940560307753e+18,-0.031704749912023544,-0.07597728073596954,-0.0008005591225810349
1.7294940560367754e+18,-0.07055316865444183,-0.17663651704788208,-0.0007034293957985938
1.7294940560427756e+18,-0.1116759404540062,-0.27802544832229614,0.0006213432643562555
1.7294940560487757e+18,-0.15389196574687958,-0.37304821610450745,-0.00024789743474684656
1.7294940560547758e+18,-0.18736082315444946,-0.45147863030433655,-0.0019385102204978466
1.729494056063776e+18,-0.2031354010105133,-0.5123122334480286,0.0004693659720942378
1.7294940560727762e+18,-0.18568040430545807,-0.5017765760421753,-0.0008298011962324381
1.7294940560787763e+18,-0.1635981649160385,-0.46979284286499023,-0.001715817372314632
1.7294940560877765e+18,-0.13405445218086243,-0.4220002591609955,0.0018010037019848824
1.7294940560937766e+18,-0.11890029162168503,-0.40383368730545044,0.00042353750905022025
1.7294940560997768e+18,-0.11385972797870636,-0.3977755606174469,9.059868170879781e-05
1.729494056105777e+18,-0.12693558633327484,-0.40315207839012146,-0.002463375451043248
1.729494056111777e+18,-0.13710717856884003,-0.41671469807624817,0.0016543656820431352
1.7294940561177772e+18,-0.1553020477294922,-0.43483594059944153,0.002912700641900301
1.7294940561267773e+18,-0.1693601757287979,-0.4520018994808197,0.0006419384153559804
1.7294940561327775e+18,-0.16796213388442993,-0.4438224136829376,-0.0009744026465341449
1.7294940561387776e+18,-0.15421439707279205,-0.42850548028945923,0.0024251150898635387
1.7294940561447777e+18,-0.1329561024904251,-0.3930673599243164,-0.0008622633176855743
1.7294940561507779e+18,-0.11057637631893158,-0.36233919858932495,0.0011812502052634954
1.729494056159778e+18,-0.08202734589576721,-0.31068429350852966,0.0008099201368167996
1.7294940561657782e+18,-0.06755030900239944,-0.2798174321651459,0.001489032176323235
1.7294940561717783e+18,-0.055730607360601425,-0.2324293553829193,0.0018223425140604377
1.7294940561777784e+18,-0.05803018435835838,-0.21939851343631744,-0.0008821022929623723
1.7294940561837786e+18,-0.05332834646105766,-0.18530043959617615,0.001934548607096076
1.7294940561897787e+18,-0.058064717799425125,-0.17708192765712738,-0.000683724822010845
1.7294940561957788e+18,-0.06044789031147957,-0.17369312047958374,0.0031799599528312683
1.729494056201779e+18,-0.06312958896160126,-0.1644304245710373,-0.00023432890884578228
1.729494056207779e+18,-0.054862432181835175,-0.15649351477622986,0.0022520343773066998
1.7294940562137792e+18,-0.04761070758104324,-0.1436723917722702,0.0020024601835757494
1.7294940562227794e+18,-0.027005774900317192,-0.11864383518695831,0.001953394850715995
1.7294940562257795e+18,-0.021675778552889824,-0.10797223448753357,0.0018769954331219196
1.7294940562347796e+18,-0.0014966032467782497,-0.07101305574178696,0.0005980433197692037
1.7294940562407798e+18,0.004259960725903511,-0.04379751533269882,-0.0007153697079047561
1.72949405624678e+18,0.009509611874818802,-0.025714900344610214,0.005973078776150942
1.72949405625278e+18,0.01571362093091011,-0.0023460458032786846,0.0013718976406380534
1.7294940562617802e+18,0.010235762223601341,0.02008519135415554,0.004690170753747225
1.7294940562677804e+18,0.012059803120791912,0.03150022029876709,0.004015711136162281
1.7294940562737805e+18,0.01138613186776638,0.04607193171977997,0.000987307750619948
1.7294940562827807e+18,0.015875395387411118,0.05970199406147003,0.0006890636286698282
1.7294940562887808e+18,0.027355942875146866,0.0721624568104744,0.0004417177988216281
1.729494056294781e+18,0.03273121267557144,0.08359859883785248,0.0016013107961043715
1.729494056303781e+18,0.04512709379196167,0.10681668668985367,-0.0006424356251955032
1.7294940563067812e+18,0.04989124462008476,0.11413326114416122,0.0007454940350726247
1.7294940563157814e+18,0.0536060705780983,0.1329338103532791,0.0038279546424746513
1.7294940563217815e+18,0.054295942187309265,0.14844274520874023,-0.00027930259238928556
1.7294940563277816e+18,0.05323300138115883,0.15815788507461548,0.0006295281345956028
1.7294940563337818e+18,0.05221402272582054,0.16383734345436096,-0.0013080104254186153
1.729494056339782e+18,0.05167030915617943,0.16933070123195648,0.003031236818060279
1.729494056345782e+18,0.05228892341256142,0.17694570124149323,0.0011639484437182546
1.7294940563517821e+18,0.05447185039520264,0.179316908121109,0.003005216596648097
1.7294940563607823e+18,0.05644660443067551,0.18537715077400208,0.0017574831144884229
1.7294940563667825e+18,0.05987062305212021,0.18997925519943237,-0.0016470523551106453
1.7294940563757827e+18,0.06765280663967133,0.19388988614082336,0.0015032155206426978
1.7294940563817828e+18,0.07266078889369965,0.19846653938293457,0.002067615045234561
1.729494056390783e+18,0.0712222307920456,0.2018524706363678,-0.00010398490121588111
1.729494056396783e+18,0.07062721252441406,0.2057601362466812,0.0011656878050416708
1.7294940564057833e+18,0.06495381891727448,0.20411819219589233,-0.0006823275471106172
1.7294940564117834e+18,0.061735741794109344,0.20788376033306122,0.0012823768192902207
1.7294940564207836e+18,0.056055307388305664,0.2020985335111618,0.0011187875643372536
1.7294940564267837e+18,0.05892011895775795,0.20274822413921356,-0.0005257558077573776
1.729494056432784e+18,0.05881230905652046,0.20184358954429626,-8.503266144543886e-06
1.729494056441784e+18,0.06193821132183075,0.1988537311553955,-0.0005326744285412133
1.7294940564507843e+18,0.06706209480762482,0.19786155223846436,0.002829385921359062
1.7294940564597844e+18,0.06655624508857727,0.1953594833612442,5.445050192065537e-05
1.7294940564687846e+18,0.06417876482009888,0.19329962134361267,0.0013111429288983345
1.7294940564777848e+18,0.060907721519470215,0.1893947869539261,0.0005514228250831366
1.729494056483785e+18,0.058876290917396545,0.18686507642269135,-0.0001642029674258083
1.7294940564927852e+18,0.05329721048474312,0.17956218123435974,0.0013465969823300838
1.7294940565017853e+18,0.051399871706962585,0.17693564295768738,0.0006949113449081779
1.7294940565107855e+18,0.05275687202811241,0.16835446655750275,-0.0023261227179318666
1.7294940565167857e+18,0.0561845526099205,0.16870088875293732,0.001098795561119914
1.7294940565257859e+18,0.05351116508245468,0.16344761848449707,0.0026748250238597393
1.729494056534786e+18,0.05307142436504364,0.1579904407262802,0.002373791765421629
1.7294940565437862e+18,0.05221404880285263,0.15282173454761505,-0.001370890997350216
1.7294940565497864e+18,0.049935195595026016,0.1464937925338745,-0.000460045033833012
1.7294940565617866e+18,0.04209979623556137,0.14361914992332458,-0.001372412545606494
1.7294940565677868e+18,0.042260702699422836,0.14044050872325897,0.0004967818967998028
1.729494056576787e+18,0.04429290071129799,0.1375320702791214,0.001376892440021038
1.7294940565857871e+18,0.044612400233745575,0.12910574674606323,0.00039001760887913406
1.7294940565947873e+18,0.041307155042886734,0.12304281443357468,0.0005578012205660343
1.7294940566037875e+18,0.03761153668165207,0.11873497813940048,-0.0015555541031062603
1.7294940566127877e+18,0.035456620156764984,0.11530894041061401,-0.0003007447812706232
1.729494056621788e+18,0.03236369416117668,0.11192471534013748,-8.623568282928318e-05
1.729494056630788e+18,0.03397611156105995,0.11118864268064499,-0.0002442958066239953
1.7294940566397883e+18,0.03495888411998749,0.10324230790138245,-0.0015601718332618475
1.7294940566487885e+18,0.035312362015247345,0.09962005913257599,0.001492310082539916
1.7294940566577887e+18,0.031573884189128876,0.0968012809753418,0.0004322810855228454
1.7294940566667889e+18,0.031858570873737335,0.09347008913755417,0.0005674526328220963
1.729494056675789e+18,0.030800148844718933,0.08748132735490799,-0.0007878880714997649
1.7294940566847892e+18,0.03163463622331619,0.08717765659093857,1.1350493878126144e-05
1.7294940566937894e+18,0.029228519648313522,0.08545359969139099,-6.075022974982858e-05
1.7294940567027896e+18,0.028908709064126015,0.08250255137681961,0.001140169333666563
1.7294940567087898e+18,0.027022231370210648,0.07877831161022186,-0.004953496158123016
1.72949405671779e+18,0.026545759290456772,0.07513774931430817,-0.00020550499903038144
1.7294940567267901e+18,0.024330634623765945,0.0730525329709053,-0.0029325783252716064
1.7294940567387904e+18,0.02566351369023323,0.07084274291992188,-0.003263043239712715
1.7294940567477906e+18,0.024197911843657494,0.06982486695051193,0.00045295897871255875
1.7294940567597908e+18,0.023636825382709503,0.06792104989290237,-0.0023156036622822285
1.729494056768791e+18,0.027268068864941597,0.06586524844169617,0.0001132570905610919
1.7294940567747912e+18,0.02407320775091648,0.06690814346075058,1.784181222319603e-05
1.7294940567807913e+18,0.024715442210435867,0.0659494549036026,-0.0015106119681149721
1.7294940567867914e+18,0.02267809771001339,0.06549245864152908,-0.0047031729482114315
1.7294940567957916e+18,0.02080049179494381,0.05866807699203491,-0.002515412401407957
1.7294940568047918e+18,0.02108040452003479,0.059975072741508484,-0.0014708804665133357
1.729494056816792e+18,0.018820473924279213,0.056982770562171936,0.00046704604756087065
1.7294940568257923e+18,0.021368034183979034,0.054875411093235016,0.0012244278332218528
1.7294940568377925e+18,0.01602291502058506,0.05334049090743065,-0.0007099463255144656
1.7294940568467927e+18,0.017126817256212234,0.05632694438099861,-0.0010774439433589578
1.729494056855793e+18,0.02060050331056118,0.054075028747320175,-0.00019717903342097998
1.729494056864793e+18,0.017801854759454727,0.050928644835948944,-0.002952790353447199
1.7294940568737933e+18,0.01677127741277218,0.04987937584519386,-0.002838974818587303
1.7294940568857935e+18,0.016038499772548676,0.051280561834573746,-0.001410336815752089
1.7294940568917937e+18,0.015783920884132385,0.05361967161297798,-0.0025607289280742407
1.7294940569007939e+18,0.014683333225548267,0.05060898885130882,-0.0019657930824905634
1.729494056909794e+18,0.022294363006949425,0.050986211746931076,0.000421529752202332
1.7294940569187942e+18,0.01824745535850525,0.04835175722837448,-0.0038173948414623737
1.7294940569277944e+18,0.020197099074721336,0.04741999879479408,-0.00038223143201321363
1.7294940569367946e+18,0.016005417332053185,0.041386742144823074,-0.0034586135298013687
1.729494056948795e+18,0.015378774143755436,0.04337618127465248,-0.0018520699813961983
1.729494056957795e+18,0.013169461861252785,0.04334215447306633,-0.0014504746068269014
1.7294940569667953e+18,0.015631645917892456,0.043823931366205215,-0.003931573126465082
1.7294940569787955e+18,0.01961667090654373,0.03929084166884422,-0.003852497786283493
1.7294940569877957e+18,0.019092468544840813,0.040753837674856186,-0.003428197233006358
1.729494056996796e+18,0.01936119794845581,0.03934173285961151,-0.0013649100437760353
1.7294940570087962e+18,0.019966036081314087,0.042351916432380676,-0.0029021832160651684
1.7294940570177964e+18,0.01818932220339775,0.039749421179294586,-0.005679531488567591
1.7294940570327967e+18,0.01751215010881424,0.03960385546088219,-0.002321407897397876
1.729494057044797e+18,0.019441334530711174,0.037853799760341644,-0.0016161712119355798
1.7294940570567972e+18,0.015993019565939903,0.036840952932834625,-0.004392420873045921
1.7294940570657974e+18,0.014043623581528664,0.029624175280332565,0.0002800456713885069
1.7294940570777976e+18,0.013795217499136925,0.03095085918903351,-0.004309474490582943
1.729494057089798e+18,0.012721036560833454,0.035045966506004333,-0.003406854346394539
1.7294940571047982e+18,0.012694424949586391,0.03443161025643349,-0.0046762991696596146
1.7294940571167985e+18,0.014931907877326012,0.03275221586227417,-0.0018895543180406094
1.7294940571287987e+18,0.01403201837092638,0.030886759981513023,-0.0039512342773377895
1.729494057140799e+18,0.013631920330226421,0.02972092665731907,-0.005562516860663891
1.7294940571527992e+18,0.008797460235655308,0.028321227058768272,-0.0024195704609155655
1.7294940571617994e+18,0.008814821019768715,0.02713770791888237,0.00015218323096632957
1.7294940571737997e+18,0.005990452133119106,0.02741132862865925,-0.0026455270126461983
1.7294940571858e+18,0.00793545227497816,0.032138630747795105,-0.001895757857710123
1.7294940571948e+18,0.005984175018966198,0.03098052367568016,-0.0005349423736333847
1.7294940572038003e+18,0.007830962538719177,0.026035692542791367,-0.002707395702600479
1.7294940572158006e+18,0.005471196491271257,0.028608720749616623,-0.0015915872063487768
1.7294940572248008e+18,0.003271038644015789,0.02372114360332489,-0.004520554561167955
1.729494057236801e+18,0.001539880409836769,0.02431606687605381,-0.004880860447883606
1.7294940572458012e+18,0.00032177241519093513,0.023972900584340096,-0.004781187046319246
1.7294940572548014e+18,0.005035466980189085,0.02412438951432705,-0.0028278985992074013
1.7294940572638016e+18,0.0054345582611858845,0.022763216868042946,-0.0028158314526081085
1.7294940572698017e+18,0.008102682419121265,0.02003605104982853,-0.005131193902343512
1.729494057278802e+18,0.008752579800784588,0.015643728896975517,-0.00472619105130434
1.7294940572908022e+18,0.002298805397003889,0.01694606989622116,-0.0022165977861732244
1.7294940572998024e+18,0.004274067468941212,0.018592365086078644,-0.0041605704464018345
1.7294940573088026e+18,0.003320923540741205,0.020729759708046913,-0.0032765499781817198
1.7294940573178028e+18,0.005862545222043991,0.025365881621837616,-0.0019047296373173594
1.729494057329803e+18,0.006967873312532902,0.01978887990117073,-0.0031430863309651613
1.7294940573418033e+18,0.004292948171496391,0.01657627336680889,-0.0034965029917657375
1.7294940573478034e+18,0.0008920372929424047,0.01450379379093647,-0.00451505696401
1.7294940573598036e+18,0.002797650173306465,0.010117506608366966,-0.0009538894519209862
1.729494057371804e+18,0.004072640556842089,0.01511912327259779,-0.005422388203442097
1.7294940573868042e+18,0.002891738433390856,0.017684493213891983,-0.002852414967492223
1.7294940573988045e+18,0.005507361143827438,0.015614988282322884,-0.0036959999706596136
1.7294940574108047e+18,0.003325275843963027,0.013572861440479755,-0.00271407887339592
1.729494057419805e+18,0.005372888874262571,0.01290855836123228,-0.002297349739819765
1.7294940574318052e+18,0.0005262501072138548,0.006665351800620556,-0.004297090228646994
1.7294940574438054e+18,0.0011327689280733466,0.009224104695022106,-0.0023133992217481136
1.7294940574558057e+18,0.004068166948854923,0.009814939461648464,-0.002708990126848221
1.729494057464806e+18,0.004767186939716339,0.011389571242034435,-0.00585898756980896
1.7294940574768061e+18,0.00532059371471405,0.011618874967098236,-0.003144154790788889
1.7294940574858063e+18,0.0021202261559665203,0.007916468195617199,-0.006494635716080666
1.7294940574948065e+18,0.0017172485822811723,0.0073605808429419994,-0.004165920894593
1.7294940575038067e+18,0.0035746018402278423,0.00538435997441411,-0.0016453508287668228
1.729494057515807e+18,0.00462608877569437,0.007186134345829487,-0.003749943571165204
1.7294940575248072e+18,0.003080888884142041,0.006831038743257523,-0.0021698307245969772
1.7294940575368074e+18,0.0008850160520523787,0.004812848754227161,-0.0031943623907864094
1.7294940575488077e+18,0.002527165925130248,0.002164907054975629,-0.006779988296329975
1.7294940575578079e+18,0.0018346646102145314,-0.002692139707505703,-0.0033134277909994125
1.7294940575698081e+18,7.600977551192045e-05,-0.0029101576656103134,-0.00290343863889575
1.7294940575788083e+18,0.001383141498081386,-0.0021921065635979176,-0.004518559668213129
1.7294940575878085e+18,0.0016019544564187527,-0.0008292661514133215,-0.0026033029425889254
1.7294940575998088e+18,-0.00039735535392537713,-0.0009566139196977019,-0.004493474029004574
1.729494057608809e+18,0.0034989649429917336,0.0027857967652380466,-0.003585184458643198
1.7294940576208092e+18,0.0010876285377889872,0.000717679038643837,-0.003461668733507395
1.7294940576298094e+18,0.003530282061547041,-0.005499289371073246,-0.0038357055746018887
1.7294940576358095e+18,-0.00011983077274635434,-0.0045949677005410194,-0.004864559508860111
1.7294940576448097e+18,-0.0018437642138451338,-0.003941580653190613,-0.0071774497628211975
1.72949405765381e+18,-0.0012614167062565684,-0.0033631743863224983,-0.0023383668158203363
1.72949405766281e+18,-0.0006509936647489667,-0.004507117904722691,-0.0018365925643593073
1.7294940576718103e+18,-0.0030602391343563795,-0.003080568742007017,-0.0035403212532401085
1.7294940576808105e+18,-0.0002790953149087727,-0.005650808103382587,-0.006561352871358395
1.7294940576898107e+18,0.0008861700189299881,-0.006025480106472969,-0.004251557402312756
1.729494057701811e+18,0.0011807926930487156,-0.00991256907582283,-0.00564957782626152
1.7294940577108111e+18,-0.0032693343237042427,-0.010752900503575802,-0.006464468315243721
1.7294940577198113e+18,0.0022302824072539806,-0.005584554746747017,-0.0019822302274405956
1.7294940577288115e+18,0.0008945243898779154,-0.005667372141033411,-0.0050374181009829044
1.7294940577378117e+18,-0.0007630590116605163,-0.006601066794246435,-0.006296472158282995
1.729494057749812e+18,-0.0031045435462146997,-0.0040586101822555065,-0.003853337373584509
1.729494057755812e+18,-0.001063565257936716,-0.008276980370283127,-0.003215346485376358
1.7294940577648123e+18,-0.0021724561229348183,-0.012059984728693962,-0.004360456485301256
1.7294940577768125e+18,-0.0023932107724249363,-0.011592717841267586,-0.0030742352828383446
1.7294940577828127e+18,-0.0017674446571618319,-0.009449165314435959,-0.008280770853161812
1.7294940577918129e+18,-0.0032358586322516203,-0.008135968819260597,-0.007457607425749302
1.729494057803813e+18,4.14741225540638e-06,-0.009664315730333328,-0.005318362731486559
1.7294940578128133e+18,-0.006449819076806307,-0.008294874802231789,-0.004808527883142233
1.7294940578218135e+18,-0.0034352887887507677,-0.01007030252367258,-0.0047658407129347324
1.7294940578308137e+18,-0.0013263607397675514,-0.011122063733637333,-0.003953094128519297
1.729494057839814e+18,-0.003268966916948557,-0.0068249693140387535,-0.0058285146951675415
1.729494057848814e+18,-0.0034780025016516447,-0.006794186774641275,-0.004500707145780325
1.7294940578578143e+18,-0.0013097727205604315,-0.007488534785807133,-0.0034744672011584044
1.7294940578668145e+18,-0.0056598070077598095,-0.007573172450065613,-0.0038194640073925257
1.7294940578758147e+18,-0.005929259583353996,-0.0103459432721138,-0.004448580089956522
1.7294940578848148e+18,-0.004483114928007126,-0.013366999104619026,-0.004663823638111353
1.729494057893815e+18,-0.005807429552078247,-0.006980048026889563,-0.004474090877920389
1.7294940579028152e+18,-0.004112779628485441,-0.00893169641494751,-0.002161794574931264
1.7294940579118154e+18,-0.0031857348512858152,-0.009790006093680859,-0.00564712006598711
1.7294940579208156e+18,-0.005009243730455637,-0.009931571781635284,-0.003342091105878353
1.7294940579298158e+18,-0.002095614792779088,-0.00756771769374609,-0.005031670443713665
1.729494057938816e+18,-0.0006941481260582805,-0.008470488712191582,-0.003457491984590888
1.7294940579478162e+18,8.521787822246552e-05,-0.0069893961772322655,-0.003539425553753972
1.7294940579568164e+18,-0.0025121476501226425,-0.005292803049087524,-0.0032670884393155575
1.7294940579658166e+18,-0.002455467823892832,-0.00976150669157505,-0.005952846258878708
1.7294940579748168e+18,-0.005548497661948204,-0.012707789428532124,-0.0035813190042972565
1.729494057983817e+18,-0.0045411111786961555,-0.013062193058431149,-0.0016428406815975904
1.7294940579928172e+18,-0.0051724109798669815,-0.012688450515270233,-0.0036502107977867126
1.7294940580018173e+18,-0.0001776872668415308,-0.01414659433066845,-0.003918740898370743
1.7294940580108175e+18,-0.001156620099209249,-0.014713883399963379,-0.007237066514790058
1.7294940580198177e+18,0.004157049581408501,-0.011693296022713184,-0.0030836667865514755
1.729494058028818e+18,0.0011910516768693924,-0.017008204013109207,-0.0036984290927648544
1.729494058037818e+18,-0.004242363851517439,-0.013879243284463882,-0.005033227149397135
1.7294940580468183e+18,-0.005062648560851812,-0.017661673948168755,-0.004101347643882036
1.7294940580558185e+18,-0.00883619673550129,-0.019697491079568863,-0.0017914730124175549
1.7294940580648187e+18,-0.0043291449546813965,-0.01986604370176792,-0.005991035141050816
1.729494058073819e+18,-0.00047602111590094864,-0.020862694829702377,-0.003158031729981303
1.729494058082819e+18,0.003143810434266925,-0.019460879266262054,-0.0028906199149787426
1.7294940580918193e+18,0.0028437685687094927,-0.017022494226694107,-0.0038149834144860506
1.7294940581038195e+18,-0.0024874683003872633,-0.020062416791915894,-0.004631220828741789
1.7294940581128197e+18,-0.005048994440585375,-0.01881815493106842,-0.004205248784273863
1.7294940581188198e+18,-0.007266638800501823,-0.024625705555081367,-0.005864887032657862
1.72949405813082e+18,-0.00648537976667285,-0.02369382418692112,-0.0047096554189920425
1.7294940581398203e+18,-0.005662684328854084,-0.02287588082253933,-0.003904388751834631
1.7294940581458204e+18,-0.0027645037043839693,-0.022546079009771347,-0.006342830136418343
1.7294940581548206e+18,0.00045313325244933367,-0.02371620014309883,-0.004056892823427916
1.7294940581638208e+18,-0.004139314405620098,-0.02157479338347912,-0.006200214847922325
1.729494058175821e+18,-0.00513005955144763,-0.022258497774600983,-0.0028644839767366648
1.7294940581878213e+18,-0.009197307750582695,-0.02344515174627304,-0.0038138958625495434
1.7294940581968215e+18,-0.006666988134384155,-0.022905763238668442,-0.0025659240782260895
1.7294940582058217e+18,-0.008739938959479332,-0.02392319031059742,-0.00405023992061615
1.729494058214822e+18,-0.0039104497991502285,-0.02413761615753174,-0.001758022466674447
1.729494058223822e+18,-0.002486963989213109,-0.024281587451696396,-0.0065187616273760796
1.7294940582358223e+18,-0.005024923477321863,-0.023564016446471214,-0.0032449979335069656
1.7294940582448225e+18,-0.005466915667057037,-0.024908317252993584,-0.006781263276934624
1.7294940582538227e+18,-0.007222716696560383,-0.025973398238420486,-0.004243035335093737
1.729494058265823e+18,-0.010195782408118248,-0.02145695686340332,-0.005335882306098938
1.7294940582748232e+18,-0.005724133457988501,-0.022596877068281174,-0.004421381279826164
1.7294940582838234e+18,-0.005340540315955877,-0.028733033686876297,-0.005387712270021439
1.7294940582928236e+18,-0.003201703540980816,-0.02697448804974556,-6.300699897110462e-05
1.7294940583018237e+18,-0.005890466272830963,-0.027161799371242523,-0.0024048835039138794
1.729494058313824e+18,-0.0026614100206643343,-0.027308063581585884,-0.0034311090130358934
1.7294940583228242e+18,-0.005686081014573574,-0.021776463836431503,-0.003982203081250191
1.7294940583318244e+18,-0.004031658638268709,-0.02676353231072426,-0.00440776813775301
1.7294940583438246e+18,-0.0035389719996601343,-0.026321757584810257,-0.0036520948633551598
1.7294940583528248e+18,-0.0008023194968700409,-0.026277266442775726,-0.004444248508661985
1.729494058364825e+18,-0.003811650676652789,-0.025625137612223625,0.0026655164547264576
1.7294940583738253e+18,0.005340601317584515,-0.03147478029131889,-0.003332052379846573
1.7294940583828255e+18,0.024728726595640182,-0.03670128062367439,-0.01620563119649887
1.7294940583918257e+18,0.03325612470507622,-0.042676039040088654,-0.022151071578264236
1.7294940584008259e+18,0.03617171570658684,-0.04070980101823807,-0.02563447318971157
1.729494058409826e+18,0.03315393626689911,-0.042323481291532516,-0.02165115624666214
1.7294940584188262e+18,0.0222941804677248,-0.03901417553424835,-0.02367868833243847
1.7294940584308265e+18,0.010180029086768627,-0.036097895354032516,-0.024297446012496948
1.7294940584398267e+18,0.00982704758644104,-0.03374136611819267,-0.02690754644572735
1.729494058448827e+18,0.013673856854438782,-0.03694038838148117,-0.027809176594018936
1.729494058457827e+18,0.02278851345181465,-0.03759849816560745,-0.02519863285124302
1.7294940584668273e+18,0.02665647305548191,-0.03613961488008499,-0.029041491448879242
1.7294940584758275e+18,0.028234397992491722,-0.0369475781917572,-0.028140641748905182
1.7294940584848276e+18,0.019944649189710617,-0.031262680888175964,-0.02828104794025421
1.7294940584938278e+18,0.009866086766123772,-0.03060252219438553,-0.02804737165570259
1.729494058502828e+18,0.0012480333680287004,-0.02971138432621956,-0.026943549513816833
1.7294940585118282e+18,0.00195071951020509,-0.029554545879364014,-0.025379367172718048
1.7294940585208284e+18,0.0032265428453683853,-0.029306115582585335,-0.02705719694495201
1.7294940585268285e+18,0.008540299721062183,-0.028130600228905678,-0.02952120080590248
1.7294940585358287e+18,0.010073540732264519,-0.03038131259381771,-0.025649728253483772
1.729494058544829e+18,0.01020576898008585,-0.02812100201845169,-0.026059119030833244
1.729494058550829e+18,0.006854473613202572,-0.025756079703569412,-0.025344764813780785
1.7294940585568292e+18,0.0010817853035405278,-0.027829695492982864,-0.02482592687010765
1.7294940585628293e+18,-0.006040115375071764,-0.02609560266137123,-0.024055691435933113
1.7294940585718295e+18,-0.009958948008716106,-0.025484571233391762,-0.02488793432712555
1.7294940585778296e+18,-0.013903548009693623,-0.02449146844446659,-0.022508341819047928
1.7294940585868298e+18,-0.010835032910108566,-0.022169791162014008,-0.022729303687810898
1.72949405859583e+18,-0.009825175628066063,-0.022383326664566994,-0.01971748284995556
1.7294940586048302e+18,-0.006937309633940458,-0.02557510882616043,-0.01955711469054222
1.7294940586138304e+18,-0.008570115081965923,-0.022442659363150597,-0.017826994881033897
1.7294940586228306e+18,-0.013151288963854313,-0.020189935341477394,-0.014839918352663517
1.7294940586318308e+18,-0.016273709014058113,-0.021493786945939064,-0.016338741406798363
1.729494058640831e+18,-0.02045903354883194,-0.018197722733020782,-0.014880506321787834
1.7294940586498312e+18,-0.02698204107582569,-0.017862120643258095,-0.015731938183307648
1.7294940586588314e+18,-0.027129104360938072,-0.018285183236002922,-0.011764139868319035
1.7294940586678316e+18,-0.02166450023651123,-0.021305592730641365,-0.007046129554510117
1.7294940586768317e+18,-0.021756011992692947,-0.02020092122256756,-0.003596625290811062
1.729494058685832e+18,-0.018532119691371918,-0.01661330834031105,-0.0022168136201798916
1.7294940586978322e+18,-0.021624166518449783,-0.017324086278676987,-0.0012023687595501542
1.7294940587068324e+18,-0.01983346976339817,-0.01695779152214527,-0.0027907900512218475
1.7294940587128325e+18,-0.02165987715125084,-0.019777700304985046,0.0036613736301660538
1.7294940587218327e+18,-0.02697916328907013,-0.016086863353848457,0.0030720136128365993
1.729494058730833e+18,-0.025550810620188713,-0.01815870776772499,0.005714038386940956
1.729494058736833e+18,-0.02515592984855175,-0.017501702532172203,0.007849800400435925
1.7294940587428332e+18,-0.022307856008410454,-0.011870326474308968,0.009144741110503674
1.7294940587518333e+18,-0.020729653537273407,-0.01559160090982914,0.015357582829892635
1.7294940587608335e+18,-0.022211594507098198,-0.01517194788902998,0.014907296746969223
1.7294940587698337e+18,-0.02354641631245613,-0.02036256343126297,0.018269043415784836
1.729494058778834e+18,-0.023184845224022865,-0.022370031103491783,0.020033538341522217
1.729494058787834e+18,-0.02719125524163246,-0.020943650975823402,0.021764231845736504
1.7294940587968343e+18,-0.027564778923988342,-0.020422207191586494,0.026141373440623283
1.7294940588058345e+18,-0.02579006552696228,-0.021230628713965416,0.028059182688593864
1.7294940588148347e+18,-0.020316464826464653,-0.024241173639893532,0.028396252542734146
1.729494058823835e+18,-0.020358840003609657,-0.022936871275305748,0.032043855637311935
1.729494058832835e+18,-0.019279126077890396,-0.019496604800224304,0.0367916114628315
1.7294940588418353e+18,-0.020685365423560143,-0.02350791171193123,0.03738202154636383
1.7294940588508355e+18,-0.024279560893774033,-0.01993071846663952,0.03885391727089882
1.7294940588568356e+18,-0.023496655747294426,-0.017563488334417343,0.044464319944381714
1.7294940588628357e+18,-0.022975748404860497,-0.01788073405623436,0.04596725106239319
1.729494058871836e+18,-0.022251244634389877,-0.01678190380334854,0.04686570167541504
1.729494058880836e+18,-0.016867853701114655,-0.018163317814469337,0.051732033491134644
1.7294940588868362e+18,-0.017180602997541428,-0.01834743656218052,0.051497165113687515
1.7294940588958364e+18,-0.01364727970212698,-0.01936899498105049,0.05334525182843208
1.7294940589018365e+18,-0.013594279065728188,-0.019928205758333206,0.05760685354471207
1.7294940589108367e+18,-0.014285089448094368,-0.023057272657752037,0.05839978903532028
1.729494058919837e+18,-0.019138799980282784,-0.022568512707948685,0.0633225366473198
1.729494058928837e+18,-0.022374849766492844,-0.022071165964007378,0.06742359697818756
1.7294940589348372e+18,-0.020119816064834595,-0.022956889122724533,0.06809676438570023
1.7294940589438374e+18,-0.01947145164012909,-0.019319992512464523,0.06893078982830048
1.7294940589528376e+18,-0.01813810132443905,-0.023612001910805702,0.07558221369981766
1.7294940589588378e+18,-0.0166604146361351,-0.019139545038342476,0.0764438807964325
1.729494058967838e+18,-0.016095278784632683,-0.020234445109963417,0.07985644042491913
1.7294940589768381e+18,-0.014178876765072346,-0.018125245347619057,0.08086822926998138
1.7294940589858383e+18,-0.02021811529994011,-0.019323915243148804,0.08534403145313263
1.7294940589948385e+18,-0.013746713288128376,-0.021380869671702385,0.08941904455423355
1.7294940590008387e+18,-0.022644534707069397,-0.020097430795431137,0.08973471820354462
1.7294940590098388e+18,-0.01669078692793846,-0.020788243040442467,0.09266376495361328
1.729494059018839e+18,-0.016171447932720184,-0.01987467333674431,0.0937718003988266
1.7294940590278392e+18,-0.018052272498607635,-0.024508703500032425,0.09604210406541824
1.7294940590338394e+18,-0.018821537494659424,-0.019626157358288765,0.09880700707435608
1.7294940590428396e+18,-0.020508211106061935,-0.01831524260342121,0.10121969878673553
1.7294940590488397e+18,-0.018373535946011543,-0.017501451075077057,0.1072278544306755
1.7294940590578399e+18,-0.022118745371699333,-0.015793781727552414,0.10999743640422821
1.72949405906684e+18,-0.01968398131430149,-0.018282020464539528,0.10802885890007019
1.7294940590728402e+18,-0.02282852865755558,-0.015477749519050121,0.11334984004497528
1.7294940590788403e+18,-0.020573817193508148,-0.019290748983621597,0.11147630959749222
1.7294940590878405e+18,-0.019257165491580963,-0.021287286654114723,0.11558059602975845
1.7294940590968407e+18,-0.0166291706264019,-0.018293285742402077,0.11874327808618546
1.7294940591028408e+18,-0.016715392470359802,-0.01898885704576969,0.12318721413612366
1.729494059111841e+18,-0.01811474934220314,-0.02078952267765999,0.12181545048952103
1.7294940591178412e+18,-0.019364910200238228,-0.01971408724784851,0.12706021964550018
1.7294940591268413e+18,-0.020938986912369728,-0.01841934584081173,0.12984757125377655
1.7294940591358415e+18,-0.021240990608930588,-0.017284387722611427,0.1313142031431198
1.7294940591478418e+18,-0.01889732852578163,-0.01990199089050293,0.13232755661010742
1.729494059156842e+18,-0.01832675375044346,-0.01721511408686638,0.13717198371887207
1.7294940591688422e+18,-0.011749312281608582,-0.01671823300421238,0.14065884053707123
1.7294940591808425e+18,-0.012616470456123352,-0.016073651611804962,0.1433200091123581
1.7294940591898427e+18,-0.014316716231405735,-0.019543537870049477,0.1457993984222412
1.729494059201843e+18,-0.01851830445230007,-0.01857263594865799,0.14614935219287872
1.7294940592108431e+18,-0.014500774443149567,-0.018084485083818436,0.1491076499223709
1.7294940592228434e+18,-0.01387354638427496,-0.01703568547964096,0.1520497351884842
1.7294940592318436e+18,-0.014104604721069336,-0.017789054661989212,0.15615147352218628
1.7294940592438438e+18,-0.008628730662167072,-0.015189649537205696,0.1570194959640503
1.729494059252844e+18,-0.009665261022746563,-0.01702837273478508,0.15800613164901733
1.7294940592618442e+18,-0.011379409581422806,-0.01577448844909668,0.16271448135375977
1.7294940592708444e+18,-0.012525384314358234,-0.020182078704237938,0.16252635419368744
1.7294940592798446e+18,-0.01460582111030817,-0.019737154245376587,0.16040445864200592
1.7294940592888448e+18,-0.01317204162478447,-0.01966373808681965,0.16175907850265503
1.729494059300845e+18,-0.013433936983346939,-0.017598697915673256,0.16286322474479675
1.7294940593098452e+18,-0.012130511924624443,-0.017542764544487,0.16766206920146942
1.7294940593158454e+18,-0.01326716598123312,-0.017915863543748856,0.16656138002872467
1.7294940593278456e+18,-0.015381129458546638,-0.016665199771523476,0.17170026898384094
1.7294940593368458e+18,-0.012769194319844246,-0.02039729803800583,0.1697728931903839
1.729494059342846e+18,-0.014108645729720592,-0.018187547102570534,0.16663657128810883
1.729494059348846e+18,-0.0177709199488163,-0.019552232697606087,0.16927748918533325
1.7294940593578463e+18,-0.012755591422319412,-0.019440272822976112,0.17244583368301392
1.7294940593668465e+18,-0.010427858680486679,-0.01630951650440693,0.1701171100139618
1.7294940593728466e+18,-0.012073018588125706,-0.015177024528384209,0.1698932647705078
1.7294940593818468e+18,-0.010480665601789951,-0.012800393626093864,0.17141078412532806
1.729494059390847e+18,-0.00764830457046628,-0.012122739106416702,0.1691155582666397
1.729494059396847e+18,-0.013087262399494648,-0.009634086862206459,0.1681908816099167
1.7294940594058473e+18,-0.014338999055325985,-0.012118280865252018,0.16645118594169617
1.7294940594148475e+18,-0.01613459177315235,-0.015395095571875572,0.16956260800361633
1.7294940594208476e+18,-0.016075560823082924,-0.015167977660894394,0.1658909171819687
1.729494059432848e+18,-0.010497109964489937,-0.011100823059678078,0.16690517961978912
1.729494059438848e+18,-0.007958123460412025,-0.012286768294870853,0.16938291490077972
1.7294940594508483e+18,-0.006065362598747015,-0.009196655824780464,0.1681308001279831
1.7294940594568484e+18,-0.007184406276792288,-0.008270000107586384,0.17092418670654297
1.7294940594658486e+18,-0.009930823929607868,-0.009078803472220898,0.1643199920654297
1.7294940594778488e+18,-0.010681785643100739,-0.011216023936867714,0.1640748828649521
1.729494059486849e+18,-0.011609816923737526,-0.013199163600802422,0.16212788224220276
1.7294940594988493e+18,-0.009588719345629215,-0.009959856979548931,0.15993177890777588
1.7294940595078495e+18,-0.007834401912987232,-0.011844830587506294,0.16218286752700806
1.7294940595168497e+18,-0.0055169700644910336,-0.011783404275774956,0.1597670316696167
1.72949405952885e+18,-0.0074951560236513615,-0.011108065955340862,0.15442532300949097
1.72949405953785e+18,-0.007214823272079229,-0.012178032658994198,0.15412378311157227
1.7294940595498504e+18,-0.011028271168470383,-0.012401126325130463,0.1531827449798584
1.7294940595588506e+18,-0.007640789728611708,-0.010110233910381794,0.15175661444664001
1.7294940595678508e+18,-0.006651603151112795,-0.00941567961126566,0.1475825011730194
1.729494059579851e+18,-0.005671187769621611,-0.01118886936455965,0.14635291695594788
1.7294940595888512e+18,-0.008243359625339508,-0.014181969687342644,0.1438247114419937
1.7294940595978514e+18,-0.008275856263935566,-0.010293410159647465,0.14279115200042725
1.7294940596068516e+18,-0.009465537033975124,-0.010704291984438896,0.13932371139526367
1.7294940596158518e+18,-0.010487442836165428,-0.01079469732940197,0.1345234513282776
1.729494059627852e+18,-0.010835506021976471,-0.010777582414448261,0.1325286477804184
1.7294940596398523e+18,-0.008156951516866684,-0.009299598634243011,0.13086892664432526
1.7294940596488525e+18,-0.007585558108985424,-0.012962903827428818,0.12699221074581146
1.7294940596608527e+18,-0.007877170108258724,-0.016564302146434784,0.12511248886585236
1.729494059672853e+18,-0.017517808824777603,-0.042113520205020905,0.12048345059156418
1.7294940596848532e+18,-0.02272067777812481,-0.06731415539979935,0.11878857761621475
1.7294940596938534e+18,-0.022465471178293228,-0.07988885790109634,0.11479102075099945
1.7294940597058537e+18,-0.01585037261247635,-0.06814185529947281,0.11365784704685211
1.729494059717854e+18,-0.016012229025363922,-0.052090488374233246,0.10847998410463333
1.7294940597298542e+18,-0.023535212501883507,-0.04286526143550873,0.10494206845760345
1.7294940597418545e+18,-0.02619064413011074,-0.0501752570271492,0.10258083790540695
1.7294940597508547e+18,-0.03211945295333862,-0.05751042068004608,0.10217370837926865
1.7294940597598548e+18,-0.027331305667757988,-0.06485196948051453,0.10124736279249191
1.729494059768855e+18,-0.02778441272675991,-0.06472402811050415,0.09677378088235855
1.7294940597808553e+18,-0.021927207708358765,-0.05468963086605072,0.0934443324804306
1.7294940597898555e+18,-0.020545898005366325,-0.04910999536514282,0.09264714270830154
1.7294940598018557e+18,-0.021737394854426384,-0.04297809302806854,0.08862338215112686
1.729494059810856e+18,-0.022153612226247787,-0.04396740347146988,0.08594713360071182
1.7294940598198561e+18,-0.025238092988729477,-0.044327765703201294,0.08581333607435226
1.7294940598288563e+18,-0.025994377210736275,-0.044765815138816833,0.08518116921186447
1.7294940598378565e+18,-0.02320907823741436,-0.04391434043645859,0.08026683330535889
1.7294940598468567e+18,-0.021321937441825867,-0.04151739552617073,0.07774331420660019
1.729494059858857e+18,-0.018356194719672203,-0.0341571569442749,0.07944265753030777
1.7294940598678572e+18,-0.017511019483208656,-0.030848007649183273,0.07681305706501007
1.7294940598768573e+18,-0.014608832076191902,-0.02730923891067505,0.07504166662693024
1.7294940598858575e+18,-0.017229272052645683,-0.02831386774778366,0.07496095448732376
1.7294940598948577e+18,-0.01894345134496689,-0.02641192078590393,0.06899387389421463
1.7294940599008579e+18,-0.019185004755854607,-0.026000656187534332,0.07120213657617569
1.729494059906858e+18,-0.01942886784672737,-0.027937863022089005,0.07024228572845459
1.729494059912858e+18,-0.021786486729979515,-0.02512814663350582,0.07177600264549255
1.7294940599248584e+18,-0.016107898205518723,-0.018354060128331184,0.06543610990047455
1.7294940599308585e+18,-0.014100782573223114,-0.01614471897482872,0.06639651954174042
1.7294940599398587e+18,-0.012575770728290081,-0.013228231109678745,0.06165548041462898
1.729494059948859e+18,-0.009641648270189762,-0.011992409825325012,0.06196695938706398
1.729494059957859e+18,-0.012710977345705032,-0.013405261561274529,0.060029804706573486
1.7294940599668593e+18,-0.011724268086254597,-0.01547103002667427,0.06111036613583565
1.7294940599758595e+18,-0.010651721619069576,-0.009112111292779446,0.05825037136673927
1.7294940599818596e+18,-0.011837858706712723,-0.008614126592874527,0.0602511502802372
1.7294940599908598e+18,-0.006900127977132797,-0.006940826773643494,0.05518684536218643
1.72949405999686e+18,-0.008373956196010113,-0.003208079608157277,0.05714494735002518
1.72949406000586e+18,-0.005962014198303223,-0.003640467766672373,0.053230319172143936
1.7294940600178604e+18,-0.00574512779712677,-0.006620698142796755,0.051946524530649185
1.7294940600268605e+18,-0.009175429120659828,-0.00839844811707735,0.05115986615419388
1.7294940600358607e+18,-0.009346548467874527,-0.00634445995092392,0.05043410137295723
1.729494060044861e+18,-0.004524834454059601,-0.003670141566544771,0.0502922385931015
1.729494060053861e+18,-0.00662088580429554,-0.0033271857537329197,0.05166313424706459
1.7294940600628613e+18,-0.002858755411580205,-0.002633522730320692,0.04705928638577461
1.7294940600718615e+18,-0.0039483667351305485,-0.00445567024871707,0.0464298389852047
1.7294940600808617e+18,-0.006415124051272869,-0.0034593380987644196,0.045643024146556854
1.729494060089862e+18,-0.001999852480366826,0.0021113520488142967,0.04349229484796524
1.7294940601018621e+18,0.0009196526370942593,0.00019465963123366237,0.040798887610435486
1.7294940601108623e+18,0.0007072356529533863,0.0008531856583431363,0.03987433761358261
1.7294940601198625e+18,-0.0011701962212100625,0.004325579386204481,0.04114648327231407
1.7294940601288627e+18,-0.003588406601920724,0.003409062745049596,0.03960643336176872
1.729494060137863e+18,-0.005284813232719898,0.001354286796413362,0.03791569545865059
1.729494060146863e+18,-0.003754093311727047,-0.0021436784882098436,0.04050450026988983
1.7294940601528632e+18,0.0007788208895362914,0.0023809177801012993,0.03866582363843918
1.7294940601648635e+18,0.0026585664600133896,-0.0016496318858116865,0.03343909978866577
1.7294940601738637e+18,0.002911435207352042,-0.0028127313125878572,0.03370899707078934
1.729494060182864e+18,0.002379736630246043,-0.0013170752208679914,0.030968882143497467
1.729494060194864e+18,-0.00047081636148504913,0.0021669126581400633,0.033075425773859024
1.7294940602038643e+18,0.0012783710844814777,0.002436527516692877,0.03255359083414078
1.7294940602128645e+18,0.0007617271039634943,0.0033259461633861065,0.03337844833731651
1.7294940602218647e+18,0.005969031248241663,0.008152551017701626,0.027967918664216995
1.729494060230865e+18,0.0073580266907811165,0.006496043875813484,0.028096435591578484
1.729494060239865e+18,0.004038848914206028,0.007251371629536152,0.02947356551885605
1.7294940602488653e+18,0.003684822702780366,0.0018242134246975183,0.027126718312501907
1.7294940602608655e+18,0.002418101765215397,0.005881630349904299,0.027063604444265366
1.7294940602698657e+18,0.0024917148984968662,0.009069611318409443,0.024855714291334152
1.729494060278866e+18,0.005721102934330702,0.007045738399028778,0.026380978524684906
1.729494060287866e+18,0.007303767371922731,0.0069046104326844215,0.02587362378835678
1.7294940602968663e+18,0.009884513914585114,0.005496475845575333,0.021682623773813248
1.7294940603058665e+18,0.008696804754436016,0.007021261379122734,0.021597854793071747
1.7294940603118666e+18,0.007887483574450016,0.01063019409775734,0.023897135630249977
1.7294940603208668e+18,0.0036273382138460875,0.011824727058410645,0.021426307037472725
1.729494060329867e+18,0.006445545237511396,0.010945773683488369,0.01897471398115158
1.7294940603388672e+18,0.0045799147337675095,0.008028981275856495,0.020202236250042915
1.7294940603448673e+18,0.00791679136455059,0.0091464938595891,0.017299393191933632
1.7294940603508675e+18,0.004848673474043608,0.006552115082740784,0.01906706392765045
1.7294940603568676e+18,0.011865831911563873,0.007102878298610449,0.023041240870952606
1.7294940603628677e+18,0.009913342073559761,0.009898731485009193,0.020201075822114944
1.7294940603688678e+18,0.008933083154261112,0.009117708541452885,0.019368980079889297
1.729494060377868e+18,0.008832037448883057,0.008738717995584011,0.019539227709174156
1.7294940603838682e+18,0.008427915163338184,0.01318016555160284,0.016909508034586906
1.7294940603898683e+18,0.013235848397016525,0.013493661768734455,0.016702843829989433
1.7294940603988685e+18,0.013286927714943886,0.01492180023342371,0.01818268559873104
1.7294940604048686e+18,0.009918714873492718,0.013852696865797043,0.016747387126088142
1.7294940604108687e+18,0.011403772979974747,0.017336010932922363,0.017165472730994225
1.7294940604168689e+18,0.011051292531192303,0.015538346022367477,0.013757565058767796
1.729494060422869e+18,0.012841509655117989,0.013329417444765568,0.015287528745830059
1.729494060428869e+18,0.013089019805192947,0.014820738695561886,0.013280355371534824
1.7294940604348692e+18,0.009841706603765488,0.013637472875416279,0.015884675085544586
1.7294940604438694e+18,0.01603134348988533,0.01591004803776741,0.014643645845353603
1.7294940604498696e+18,0.013546532019972801,0.016912704333662987,0.011697094887495041
1.7294940604588698e+18,0.017736585810780525,0.019363418221473694,0.013531344942748547
1.72949406046787e+18,0.019473910331726074,0.016948742792010307,0.013669796288013458
1.7294940604768701e+18,0.01656612753868103,0.01678827963769436,0.00963853020220995
1.7294940604828703e+18,0.017051978036761284,0.017468173056840897,0.010298902168869972
1.7294940604918705e+18,0.014118034392595291,0.014424816705286503,0.012589160352945328
1.7294940605008707e+18,0.014075390994548798,0.017035769298672676,0.01051091868430376
1.7294940605098708e+18,0.01267335657030344,0.019496534019708633,0.010947066359221935
1.729494060518871e+18,0.017292426899075508,0.02128024771809578,0.00854749046266079
1.7294940605278712e+18,0.01959369331598282,0.022237228229641914,0.009787973947823048
1.7294940605368714e+18,0.014722097665071487,0.021478593349456787,0.010650062002241611
1.7294940605458716e+18,0.015585734508931637,0.019031532108783722,0.01002470776438713
1.7294940605518717e+18,0.013583902269601822,0.019644293934106827,0.007324778474867344
1.729494060560872e+18,0.011646120809018612,0.01748010329902172,0.007664550561457872
1.729494060566872e+18,0.012679110281169415,0.019427595660090446,0.00875134114176035
1.7294940605758723e+18,0.012054531835019588,0.021947182714939117,0.008225946687161922
1.7294940605878725e+18,0.016958558931946754,0.02308783493936062,0.007098158821463585
1.7294940605968727e+18,0.019317882135510445,0.026617703959345818,0.0064606512896716595
1.729494060605873e+18,0.019671492278575897,0.02263914979994297,0.0064607178792357445
1.729494060614873e+18,0.016456030309200287,0.019488638266921043,0.004591954406350851
1.7294940606238733e+18,0.01708107627928257,0.02205623872578144,0.00757420901209116
1.7294940606298734e+18,0.01839601807296276,0.016305483877658844,0.00721601489931345
1.7294940606388736e+18,0.013600599020719528,0.02308780513703823,0.004659287631511688
1.7294940606508739e+18,0.016646023839712143,0.020131392404437065,0.008326872251927853
1.729494060656874e+18,0.017877018079161644,0.01948476769030094,0.006987137719988823
1.7294940606658742e+18,0.019328296184539795,0.018861036747694016,0.00615285336971283
1.7294940606748744e+18,0.018569620326161385,0.019056720659136772,0.004236696287989616
1.7294940606838746e+18,0.022480376064777374,0.021670082584023476,0.005066656973212957
1.7294940606898747e+18,0.01632550358772278,0.01987437531352043,0.00314777297899127
1.729494060701875e+18,0.01787201315164566,0.016907593235373497,0.0021449169144034386
1.7294940607108751e+18,0.017727918922901154,0.0155694130808115,0.0023506134748458862
1.7294940607198753e+18,0.01708231493830681,0.018636859953403473,0.005390303209424019
1.7294940607288755e+18,0.016868989914655685,0.019401581957936287,0.0028424649499356747
1.7294940607348756e+18,0.01915276236832142,0.01954415999352932,0.0025516673922538757
1.7294940607438758e+18,0.02201073057949543,0.0232248418033123,0.005552208051085472
1.729494060752876e+18,0.02184554561972618,0.023358119651675224,0.0034926121588796377
1.7294940607648763e+18,0.023510241881012917,0.025492865592241287,0.0018883049488067627
1.7294940607738765e+18,0.018192226067185402,0.029036128893494606,0.0044502802193164825
1.7294940607828767e+18,0.023968614637851715,0.02693537250161171,0.003778140526264906
1.7294940607888768e+18,0.01589924655854702,0.02907758764922619,0.0023719221353530884
1.729494060797877e+18,0.014760354533791542,0.026405951008200645,-0.00028222426772117615
1.729494060803877e+18,0.0184535700827837,0.026352660730481148,-0.0014584171585738659
1.7294940608128773e+18,0.024433210492134094,0.027769850566983223,-3.0184106435626745e-05
1.7294940608218775e+18,0.026907674968242645,0.02825038507580757,-0.001028150087222457
1.7294940608308777e+18,0.0242781862616539,0.02924513630568981,0.000622112478595227
1.729494060839878e+18,0.02407809905707836,0.026836998760700226,0.001192011870443821
1.729494060848878e+18,0.021878991276025772,0.030472828075289726,-0.0010694589000195265
1.7294940608578783e+18,0.021632108837366104,0.029885809868574142,0.00010650831973180175
1.7294940608668785e+18,0.023103011772036552,0.03182581067085266,0.000326155946822837
1.7294940608758787e+18,0.0199714507907629,0.029911376535892487,-0.0012991921976208687
1.7294940608848788e+18,0.025025922805070877,0.02924346923828125,-0.0019415727583691478
1.729494060893879e+18,0.024466879665851593,0.02991623803973198,-0.00040991342393681407
1.7294940609028792e+18,0.026761090382933617,0.028100747615098953,-0.0003623971133492887
1.7294940609118794e+18,0.02241324447095394,0.027297258377075195,-0.001959326211363077
1.7294940609208796e+18,0.025754151865839958,0.02875581569969654,-0.002588757313787937
1.7294940609298798e+18,0.025431571528315544,0.028366826474666595,0.0010695889359340072
1.72949406094188e+18,0.026881001889705658,0.030801922082901,0.0007577158976346254
1.7294940609508803e+18,0.024536626413464546,0.029068635776638985,-0.0010497728362679482
1.7294940609568804e+18,0.029826931655406952,0.030794817954301834,-5.910499021410942e-05
1.7294940609688806e+18,0.0258694589138031,0.027899140492081642,0.0007486266549676657
1.7294940609778808e+18,0.029730068519711494,0.030745860189199448,0.0007685476448386908
1.729494060983881e+18,0.025349793955683708,0.03157753497362137,-0.004459069110453129
1.7294940609928812e+18,0.026445426046848297,0.02970152534544468,-0.004672772251069546
1.7294940610018813e+18,0.025891881436109543,0.027524210512638092,0.00033898744732141495
1.7294940610108815e+18,0.021023768931627274,0.027791794389486313,-0.0030193477869033813
1.7294940610198817e+18,0.022322503849864006,0.03083576261997223,-0.002096694428473711
1.729494061028882e+18,0.02575419284403324,0.02837967313826084,-0.0035982420668005943
1.729494061037882e+18,0.027198554947972298,0.03439542278647423,-0.004975505173206329
1.7294940610468823e+18,0.026792028918862343,0.03548948094248772,-0.002224257215857506
1.7294940610528824e+18,0.03007325530052185,0.03925108164548874,-7.836660370230675e-05
1.7294940610618826e+18,0.024906577542424202,0.03575366362929344,-0.002691902220249176
1.729494061073883e+18,0.023289084434509277,0.03307478874921799,-0.005442853085696697
1.729494061082883e+18,0.01880190148949623,0.036836761981248856,-0.0040963152423501015
1.7294940610888832e+18,0.01976170763373375,0.036079782992601395,-0.004354963079094887
1.7294940610978834e+18,0.02314300835132599,0.032780177891254425,-0.00467896182090044
1.7294940611068836e+18,0.02482423186302185,0.03248308598995209,-0.004065277986228466
1.7294940611158838e+18,0.024945799261331558,0.028046749532222748,-0.002375754527747631
1.729494061124884e+18,0.025868205353617668,0.031258221715688705,-0.002319562714546919
1.7294940611338842e+18,0.02228287234902382,0.02787526696920395,-0.0021584697533398867
1.7294940611428844e+18,0.022006535902619362,0.02936498075723648,-0.003730578813701868
1.7294940611518845e+18,0.01968180388212204,0.027541568502783775,-0.003111522179096937
1.7294940611608847e+18,0.022764354944229126,0.028847577050328255,-0.005042232573032379
1.729494061169885e+18,0.021877847611904144,0.029058855026960373,-0.0026522378902882338
1.729494061178885e+18,0.023560602217912674,0.028903279453516006,-0.0050824424251914024
1.7294940611848852e+18,0.022577447816729546,0.03005150705575943,-0.006450916640460491
1.7294940611938854e+18,0.02390812709927559,0.028079373762011528,-0.0046262480318546295
1.7294940612028856e+18,0.025353677570819855,0.026984913274645805,-0.006027480587363243
1.7294940612118858e+18,0.024616125971078873,0.02663424238562584,-0.0069701033644378185
1.729494061220886e+18,0.023891746997833252,0.02871163748204708,-0.006115012336522341
1.7294940612298862e+18,0.02426629513502121,0.02689082734286785,-0.0055890073999762535
1.7294940612388864e+18,0.02457929402589798,0.02647208794951439,-0.005358174443244934
1.7294940612508867e+18,0.025603847578167915,0.027176644653081894,-0.004054907709360123
1.7294940612568868e+18,0.023604921996593475,0.02771356888115406,-0.001787194749340415
1.729494061268887e+18,0.026108810678124428,0.026275547221302986,-0.005384358577430248
1.7294940612778872e+18,0.022865988314151764,0.024791987612843513,-0.003523816354572773
1.7294940612868874e+18,0.022263478487730026,0.019574221223592758,-0.0023407444823533297
1.7294940612958876e+18,0.018555618822574615,0.026109211146831512,-0.00679061422124505
1.7294940613048878e+18,0.021927177906036377,0.024379348382353783,-0.006925083696842194
1.729494061313888e+18,0.023219402879476547,0.025943193584680557,-0.007285146974027157
1.7294940613228882e+18,0.023975670337677002,0.02374560944736004,-0.005247771739959717
1.7294940613318884e+18,0.024512741714715958,0.02583794668316841,-0.00758857186883688
1.7294940613438886e+18,0.021408451721072197,0.021124936640262604,-0.006346787791699171
1.7294940613528888e+18,0.017092827707529068,0.019796477630734444,-0.003410645294934511
1.729494061361889e+18,0.019373532384634018,0.016563795506954193,-0.006031247787177563
1.7294940613708892e+18,0.023811712861061096,0.022722972556948662,-0.007659214083105326
1.7294940613828895e+18,0.024266764521598816,0.026495996862649918,-0.0059134261682629585
1.7294940613918897e+18,0.026160992681980133,0.03090856224298477,-0.008070439100265503
1.72949406140389e+18,0.023535676300525665,0.02582528069615364,-0.007524332031607628
1.72949406141289e+18,0.021126165986061096,0.02349855750799179,-0.005513940472155809
1.7294940614248904e+18,0.016722382977604866,0.023071222007274628,-0.007303836289793253
1.7294940614338906e+18,0.015685725957155228,0.020820586010813713,-0.004756101407110691
1.7294940614458908e+18,0.016658009961247444,0.027291517704725266,-0.006942380219697952
1.729494061454891e+18,0.019721437245607376,0.022065525874495506,-0.005605932790786028
1.7294940614668913e+18,0.025108933448791504,0.025304384529590607,-0.00651168217882514
1.7294940614788915e+18,0.022773824632167816,0.028927402570843697,-0.005293835885822773
1.7294940614878917e+18,0.021741855889558792,0.025199532508850098,-0.006926246918737888
1.729494061499892e+18,0.01672280579805374,0.023560596629977226,-0.005422570742666721
1.7294940615088922e+18,0.014334342442452908,0.021333714947104454,-0.00505494000390172
1.7294940615208924e+18,0.017458442598581314,0.02061525359749794,-0.006225409917533398
1.7294940615328927e+18,0.0197307076305151,0.0221719928085804,-0.004685169085860252
1.729494061544893e+18,0.021700574085116386,0.018931901082396507,-0.005468613002449274
1.7294940615568932e+18,0.024859707802534103,0.02434464357793331,-0.0062039690092206
1.7294940615688934e+18,0.017705067992210388,0.025581810623407364,-0.007706731092184782
1.7294940615778936e+18,0.013144167140126228,0.02362947352230549,-0.004724245984107256
1.729494061589894e+18,0.015399646013975143,0.017920056357979774,-0.006405058316886425
1.729494061598894e+18,0.018610801547765732,0.01979522593319416,-0.004585163667798042
1.7294940616078943e+18,0.022365029901266098,0.01881514862179756,-0.005927297752350569
1.7294940616168945e+18,0.02433379925787449,0.019434677436947823,-0.004905692767351866
1.7294940616258947e+18,0.023806067183613777,0.02144123800098896,-0.004496349021792412
1.7294940616348948e+18,0.01829136349260807,0.017193809151649475,-0.007698911242187023
1.729494061643895e+18,0.016201140359044075,0.016099078580737114,-0.0051788524724543095
1.7294940616528952e+18,0.010831935331225395,0.01724933087825775,-0.004097143653780222
1.7294940616618954e+18,0.009984360076487064,0.016724299639463425,-0.005544950254261494
1.7294940616708956e+18,0.016042964532971382,0.013550389558076859,-0.006959896069020033
1.7294940616798958e+18,0.01343383826315403,0.016199233010411263,-0.004226731136441231
1.729494061688896e+18,0.02035154588520527,0.013311799615621567,-0.0037149612326174974
1.7294940616978962e+18,0.015012561343610287,0.0148524921387434,-0.005215218290686607
1.7294940617068964e+18,0.010588513687252998,0.014179768040776253,-0.005451640579849482
1.7294940617158966e+18,0.0059008244425058365,0.012057004496455193,-0.0066542550921440125
1.7294940617248968e+18,0.008457251824438572,0.01131009217351675,-0.005322011187672615
1.729494061733897e+18,0.0066451216116547585,0.007833557203412056,-0.006047484464943409
1.7294940617428972e+18,0.008274896070361137,0.013216452673077583,-0.006124122999608517
1.7294940617518973e+18,0.010928655043244362,0.011548202484846115,-0.006101655773818493
1.7294940617638976e+18,0.012224100530147552,0.014012740924954414,-0.00666353665292263
1.7294940617728978e+18,0.01222398690879345,0.012706753797829151,-0.008831800892949104
1.729494061784898e+18,0.00532173365354538,0.009553016163408756,-0.005561656318604946
1.7294940617938982e+18,0.0037846663035452366,0.009356056340038776,-0.006034844554960728
1.7294940618028984e+18,0.007275604177266359,0.007897144183516502,-0.007737381849437952
1.7294940618148987e+18,0.007860977202653885,0.009521326050162315,-0.005071013700217009
1.729494061823899e+18,0.00905601866543293,0.009342143312096596,-0.0068497369065880775
1.729494061829899e+18,0.010002544149756432,0.00992510374635458,-0.007559908553957939
1.7294940618388992e+18,0.0041243587620556355,0.013054803013801575,-0.00617571547627449
1.7294940618478994e+18,0.0009558745659887791,0.009334094822406769,-0.00770358182489872
1.7294940618538995e+18,0.0009073814726434648,0.009330700151622295,-0.0077554830349981785
1.7294940618628997e+18,2.792617306113243e-05,0.010128568857908249,-0.005345217417925596
1.7294940618719e+18,0.0017578203696757555,0.007548515684902668,-0.004947293549776077
1.7294940618779e+18,0.002000802895054221,0.0088833998888731,-0.006271934602409601
1.7294940618869002e+18,-0.0007108742720447481,0.006503095384687185,-0.004680254030972719
1.7294940618959004e+18,0.0014717229641973972,0.006811513565480709,-0.005554483737796545
1.7294940619049006e+18,0.002513675484806299,0.005992571823298931,-0.007978742010891438
1.729494061919901e+18,0.003540715901181102,0.007235289551317692,-0.007440483197569847
1.729494061928901e+18,-0.00015129835810512304,0.005536697339266539,-0.00614085141569376
1.7294940619379013e+18,-0.00022084049123805016,0.007315121125429869,-0.005802533123642206
1.7294940619439014e+18,0.0012120513711124659,0.005594943184405565,-0.006616044323891401
1.7294940619529016e+18,0.00175110949203372,0.006143268197774887,-0.007249247748404741
1.7294940619589018e+18,0.0011057769879698753,0.006166425067931414,-0.006474429741501808
1.729494061967902e+18,0.0008586507756263018,0.005157236009836197,-0.004752186127007008
1.7294940619769021e+18,0.00036051200004294515,0.002605610992759466,-0.00657025258988142
1.7294940619829023e+18,0.000448173115728423,0.004055898170918226,-0.007657548412680626
1.7294940619919025e+18,-0.0027565890923142433,0.0013230397598817945,-0.003502323990687728
1.7294940620039027e+18,0.0015574110439047217,0.00400927709415555,-0.00793713890016079
1.729494062012903e+18,0.00042368355207145214,0.004435558803379536,-0.003930641338229179
1.729494062021903e+18,-0.00015115935821086168,0.0014698617160320282,-0.005450709722936153
1.7294940620309033e+18,0.00010977976489812136,0.0034382122103124857,-0.006661963649094105
1.7294940620369034e+18,-0.0064293681643903255,0.0033474271185696125,-0.002940214006230235
1.7294940620459036e+18,-0.0016618676017969847,-0.0008112007053568959,-0.004690877627581358
1.7294940620549038e+18,0.00031512894202023745,-0.0011373019078746438,-0.004072960931807756
1.729494062060904e+18,-0.002512689447030425,-0.0020210982766002417,-0.003590300679206848
1.7294940620699041e+18,-0.0038295479025691748,-0.003563049715012312,-0.0035817234311252832
1.7294940620759043e+18,-0.0029735765419900417,-0.0013406373327597976,-0.006942317821085453
1.7294940620849044e+18,-0.0043075233697891235,-0.001637923764064908,-0.002867885399609804
1.7294940620939046e+18,-0.0042198821902275085,-0.0032288827933371067,-0.007625952363014221
1.7294940620999048e+18,-0.003823758102953434,-0.0039015947841107845,-0.002051455667242408
1.729494062108905e+18,-0.003883476136252284,-0.0014201474841684103,-0.004564141854643822
1.7294940621179052e+18,-0.0037163649685680866,-0.002710541943088174,-0.005260606296360493
1.7294940621239053e+18,-0.00571557879447937,-0.004556033294647932,-0.006221717223525047
1.7294940621329055e+18,-0.004763564094901085,-0.00619439035654068,-0.004337549675256014
1.7294940621419057e+18,-0.004662561230361462,-0.005310932639986277,-0.006957561243325472
1.7294940621479058e+18,-0.0004972319584339857,-0.0043287090957164764,-0.003993520978838205
1.729494062156906e+18,-0.00531565397977829,-0.0043097552843391895,-0.004937159363180399
1.729494062162906e+18,-0.0036567114293575287,-0.006440930068492889,-0.0041197519749403
1.7294940621719063e+18,-0.006229139864444733,-0.0018200223566964269,-0.0018648018594831228
1.7294940621809065e+18,-0.004789532162249088,-0.004607703071087599,-0.0058861845172941685
1.7294940621959068e+18,-0.006521387025713921,-0.0038104169070720673,-0.0023411789443343878
1.729494062204907e+18,-0.0048662940971553326,-0.0024335493799299,-0.0056653399951756
1.7294940622139072e+18,-0.004067602101713419,-0.0034883206244558096,-0.005239349324256182
1.7294940622199073e+18,-0.005169913172721863,-0.007134498097002506,-0.006861663423478603
1.7294940622289075e+18,-0.011486997827887535,-0.005555282346904278,-0.003791721072047949
1.7294940622379077e+18,-0.01150430366396904,-0.005000485107302666,-0.0023577844258397818
1.729494062246908e+18,-0.007914943620562553,-0.007428978104144335,-0.005493441596627235
1.729494062252908e+18,-0.007291656918823719,-0.007272836286574602,-0.0015619269106537104
1.7294940622619082e+18,-0.009744442068040371,-0.00551984179764986,-0.004508341662585735
1.7294940622679084e+18,-0.0072598084807395935,-0.008739866316318512,-0.005122896749526262
1.7294940622769085e+18,-0.009491966105997562,-0.007155692204833031,-0.007259530480951071
1.7294940622859087e+18,-0.008841005153954029,-0.009726560674607754,-0.0048311809077858925
1.7294940622919089e+18,-0.01077208947390318,-0.006546774413436651,-0.0045496271923184395
1.729494062300909e+18,-0.011116977781057358,-0.007405221927911043,-0.004533688072115183
1.7294940623099092e+18,-0.012903489172458649,-0.00977038498967886,-0.003310751635581255
1.7294940623159094e+18,-0.015861283987760544,-0.015566698275506496,-0.0027476840186864138
1.7294940623249096e+18,-0.014517787843942642,-0.010549215599894524,-0.004856833256781101
1.7294940623309097e+18,-0.014853310771286488,-0.008372037671506405,-0.004870394244790077
1.72949406233991e+18,-0.014948470517992973,-0.009283562190830708,-0.005783368833363056
1.72949406234891e+18,-0.015653811395168304,-0.008068395778536797,-0.0031452137045562267
1.7294940623549102e+18,-0.01616767607629299,-0.007441086694598198,-0.0036566820926964283
1.7294940623639104e+18,-0.015756985172629356,-0.009672226384282112,-0.004952810239046812
1.7294940623729106e+18,-0.013668081723153591,-0.008241617120802402,-0.0034432567190378904
1.7294940623789107e+18,-0.015037933364510536,-0.013739028014242649,-0.0018831354100257158
1.729494062387911e+18,-0.012711189687252045,-0.012050973251461983,-0.00448160246014595
1.729494062396911e+18,-0.015503588132560253,-0.008337111212313175,-0.002562485169619322
1.7294940624059113e+18,-0.012044182047247887,-0.007588587701320648,-0.0053777373395860195
1.7294940624149115e+18,-0.01440555602312088,-0.01080603152513504,-0.0022186085116118193
1.7294940624209116e+18,-0.011400661431252956,-0.010335301980376244,-0.005651623476296663
1.7294940624299118e+18,-0.013955446891486645,-0.009518184699118137,-0.0041134972125291824
1.729494062435912e+18,-0.012999255210161209,-0.014417130500078201,-0.0028295358642935753
1.729494062444912e+18,-0.014924210496246815,-0.014190543442964554,-0.0059271445497870445
1.7294940624539123e+18,-0.01610913686454296,-0.012547013349831104,-0.00307527300901711
1.7294940624599124e+18,-0.014244952239096165,-0.009866778738796711,-0.0065276469103991985
1.7294940624689126e+18,-0.012283467687666416,-0.013386599719524384,-0.0062230434268713
1.7294940624779128e+18,-0.014372508972883224,-0.01275148056447506,-0.004908796865493059
1.729494062486913e+18,-0.011395953595638275,-0.01189240999519825,-0.004530549515038729
1.7294940624929132e+18,-0.008588320575654507,-0.015147590078413486,2.4718698114156723e-05
1.7294940625019133e+18,-0.008631697855889797,-0.018124712631106377,-0.004620656371116638
1.7294940625109135e+18,-0.013174219988286495,-0.015262934379279613,-0.0053728073835372925
1.7294940625169137e+18,-0.01303730346262455,-0.0159564521163702,-0.004483829718083143
1.7294940625259139e+18,-0.011420576833188534,-0.01377115584909916,-0.004484348464757204
1.729494062534914e+18,-0.014784886501729488,-0.014497778378427029,-0.004218773916363716
1.7294940625409142e+18,-0.011158867739140987,-0.016008242964744568,-0.006036905571818352
1.7294940625499144e+18,-0.011551872827112675,-0.014705340377986431,-0.0021738510113209486
1.7294940625589146e+18,-0.014182103797793388,-0.014631636440753937,-0.004320322535932064
1.7294940625679148e+18,-0.010360502637922764,-0.019424155354499817,-0.003962636925280094
1.729494062573915e+18,-0.013272283598780632,-0.01652180403470993,-0.0023495000787079334
1.729494062582915e+18,-0.016683043912053108,-0.014869485050439835,-0.00454729562625289
1.7294940625889152e+18,-0.013749482110142708,-0.019120650365948677,-0.0024905013851821423
1.7294940625979154e+18,-0.015510886907577515,-0.016250543296337128,-0.004018843173980713
1.7294940626039155e+18,-0.013834496960043907,-0.01293189637362957,-0.0005843327380716801
1.7294940626129157e+18,-0.011190632358193398,-0.013259242288768291,-0.002351381815969944
1.729494062621916e+18,-0.0140483183786273,-0.012857981957495213,-0.005173263605684042
1.729494062627916e+18,-0.01483074389398098,-0.016241850331425667,-0.003869276028126478
1.7294940626369162e+18,-0.013342992402613163,-0.01832263357937336,-0.004475157242268324
1.7294940626489165e+18,-0.013376811519265175,-0.018419023603200912,-0.0013173550833016634
1.7294940626549166e+18,-0.014937201514840126,-0.019959988072514534,-0.0052641648799180984
1.7294940626639168e+18,-0.013883210718631744,-0.01807984709739685,-0.003161477856338024
1.729494062672917e+18,-0.01203575637191534,-0.014272194355726242,-0.004856336396187544
1.729494062678917e+18,-0.013088039122521877,-0.014726145192980766,-0.005792646203190088
1.7294940626879173e+18,-0.009565919637680054,-0.014056338928639889,-0.006765433587133884
1.7294940626939174e+18,-0.011844579130411148,-0.016753816977143288,-0.005020817741751671
1.7294940627029176e+18,-0.010246331803500652,-0.01651596464216709,-0.0036619475577026606
1.7294940627089178e+18,-0.009787152521312237,-0.018676593899726868,-0.006567943841218948
1.729494062720918e+18,-0.011356979608535767,-0.01852267235517502,-0.0016310005448758602
1.7294940627299182e+18,-0.01267402432858944,-0.01549495104700327,-0.0037914772983640432
1.7294940627389184e+18,-0.01459421031177044,-0.014651327393949032,-0.0053187101148068905
1.7294940627449185e+18,-0.01084902137517929,-0.016042597591876984,-0.0016810507513582706
1.7294940627539187e+18,-0.010250216349959373,-0.019046930596232414,-0.0015363728161901236
1.729494062762919e+18,-0.013654761016368866,-0.0194868091493845,-0.004764671437442303
1.729494062768919e+18,-0.012745128944516182,-0.01741865836083889,-0.007539461366832256
1.7294940627779192e+18,-0.011688871309161186,-0.019502008333802223,-0.005048144608736038
1.7294940627899195e+18,-0.010413480922579765,-0.020034601911902428,-0.005697960965335369
1.7294940627959196e+18,-0.010013864375650883,-0.021843871101737022,-0.004113988950848579
1.7294940628049198e+18,-0.010370573960244656,-0.019832497462630272,-0.002685238141566515
1.72949406281092e+18,-0.00894496962428093,-0.019228504970669746,-0.004314706195145845
1.7294940628199201e+18,-0.009658324532210827,-0.018784835934638977,-0.0038329476956278086
1.7294940628259203e+18,-0.008533325046300888,-0.017998268827795982,-0.001657563727349043
1.7294940628349204e+18,-0.009223341010510921,-0.017027007415890694,-0.00796788465231657
1.7294940628409206e+18,-0.012727458029985428,-0.01743888668715954,-0.005765363574028015
1.7294940628499208e+18,-0.011576147750020027,-0.01853768341243267,-0.003219154430553317
1.729494062858921e+18,-0.011563991196453571,-0.02060829848051071,-0.0026318267919123173
1.729494062864921e+18,-0.01629660278558731,-0.02499266527593136,-0.003934748005121946
1.7294940628739213e+18,-0.009409422054886818,-0.020821554586291313,-0.003242580685764551
1.7294940628799214e+18,-0.007795593701303005,-0.020352378487586975,-0.0017178172711282969
1.7294940628889216e+18,-0.006065887864679098,-0.018234677612781525,-0.00431637279689312
1.7294940628949217e+18,-0.0077946363016963005,-0.01845671981573105,-0.0029568197205662727
1.729494062903922e+18,-0.011287638917565346,-0.022204771637916565,-0.005536774173378944
1.729494062912922e+18,-0.012258319184184074,-0.020172154530882835,-0.0016796044073998928
1.7294940629189222e+18,-0.01589682698249817,-0.020053880289196968,-0.004187612794339657
1.7294940629279224e+18,-0.013035357929766178,-0.023129843175411224,-0.005215052515268326
1.7294940629369226e+18,-0.014464076608419418,-0.02135915495455265,-0.0025269249454140663
1.7294940629459228e+18,-0.011996409855782986,-0.019325673580169678,-0.0036834198981523514
1.729494062951923e+18,-0.012936709448695183,-0.015471146441996098,-0.004008120391517878
1.7294940629609231e+18,-0.014966810122132301,-0.014851292595267296,-0.003288686042651534
1.7294940629699233e+18,-0.011899136006832123,-0.017785556614398956,-0.003768267808482051
1.7294940629789235e+18,-0.016758056357502937,-0.016584599390625954,-0.0032224550377577543
1.7294940629879237e+18,-0.01626664586365223,-0.01812705211341381,-0.005056798458099365
1.7294940629939238e+18,-0.016179580241441727,-0.017059501260519028,-0.005858073476701975
1.729494063002924e+18,-0.013456106185913086,-0.014659373089671135,-0.0043390365317463875
1.7294940630119242e+18,-0.011714063584804535,-0.01623040996491909,-0.003065101569518447
1.7294940630179244e+18,-0.014636661857366562,-0.01828794553875923,-0.0024956841953098774
1.7294940630299246e+18,-0.010387363843619823,-0.013759554363787174,-0.0029348558746278286
1.7294940630389248e+18,-0.01316163595765829,-0.01396603137254715,-0.002554296050220728
1.729494063047925e+18,-0.012553321197628975,-0.012951452285051346,-0.0023213750682771206
1.729494063053925e+18,-0.013647714629769325,-0.013284383341670036,-0.0029859240166842937
1.7294940630629253e+18,-0.01567678339779377,-0.016225753352046013,-0.004726027138531208
1.7294940630719255e+18,-0.013522292487323284,-0.01472900528460741,-0.0025830757804214954
1.7294940630779256e+18,-0.016151368618011475,-0.020037509500980377,-0.0025668577291071415
1.7294940630869258e+18,-0.014203309081494808,-0.018456023186445236,-0.0051665231585502625
1.729494063092926e+18,-0.013450205326080322,-0.01824239268898964,-0.0028055058792233467
1.7294940631019261e+18,-0.010278998874127865,-0.017434360459446907,-0.006083973683416843
1.7294940631109263e+18,-0.010470189154148102,-0.014970580115914345,-0.003026125021278858
1.7294940631169265e+18,-0.010860882699489594,-0.016688844189047813,-0.0007758829742670059
1.7294940631259267e+18,-0.013579790480434895,-0.017120525240898132,-0.0021100519225001335
1.7294940631349268e+18,-0.014194698072969913,-0.01988462172448635,-0.003251852234825492
1.729494063140927e+18,-0.020670738071203232,-0.01935940608382225,-0.003426392562687397
1.7294940631499272e+18,-0.020154017955064774,-0.02210649847984314,-0.0022380563896149397
1.7294940631559273e+18,-0.01721159927546978,-0.022916529327630997,-0.0019339603604748845
1.7294940631649275e+18,-0.016331035643815994,-0.019832752645015717,-0.0024372809566557407
1.7294940631739277e+18,-0.013388581573963165,-0.021439651027321815,-0.003233139170333743
1.7294940631799278e+18,-0.014962959103286266,-0.018802175298333168,-0.005922192707657814
1.729494063188928e+18,-0.02059389278292656,-0.01598549447953701,-0.004153269808739424
1.729494063194928e+18,-0.01742946356534958,-0.015388591215014458,-0.0005406104028224945
1.7294940632039283e+18,-0.01983507163822651,-0.014073843136429787,-0.0016999616054818034
1.7294940632159286e+18,-0.01838107779622078,-0.015536416321992874,-0.0015376150840893388
1.7294940632219287e+18,-0.019182628020644188,-0.020603545010089874,-0.0037728678435087204
1.729494063230929e+18,-0.018215037882328033,-0.017682995647192,-0.0028763506561517715
1.729494063236929e+18,-0.011307086795568466,-0.017632950097322464,-0.003974240738898516
1.7294940632459292e+18,-0.013426021672785282,-0.017849544063210487,-0.0019926228560507298
1.7294940632549294e+18,-0.018186775967478752,-0.01636344939470291,-0.0019805997144430876
1.7294940632639296e+18,-0.01833435706794262,-0.012952146120369434,-0.002464625285938382
1.7294940632729298e+18,-0.020723355934023857,-0.01183303538709879,-0.0011170797515660524
1.72949406328793e+18,-0.019757816568017006,-0.01551327295601368,-0.0025917121674865484
1.7294940632939302e+18,-0.02070683054625988,-0.013348675332963467,-0.0057152374647557735
1.7294940633029304e+18,-0.013814488425850868,-0.015504416078329086,-0.006204438395798206
1.7294940633119306e+18,-0.016138112172484398,-0.017683401703834534,0.0007987199351191521
1.7294940633209308e+18,-0.015133721753954887,-0.015690211206674576,-0.005766458809375763
1.729494063329931e+18,-0.017442330718040466,-0.013013329356908798,-0.001179124228656292
1.7294940633359311e+18,-0.01999524049460888,-0.012581966817378998,-0.002542781876400113
1.7294940633449313e+18,-0.018283072859048843,-0.011772839352488518,0.00027534784749150276
1.7294940633539315e+18,-0.020595936104655266,-0.015318719670176506,0.0006041848100721836
1.7294940633599316e+18,-0.01723858341574669,-0.01666342094540596,-0.005645023658871651
1.7294940633689318e+18,-0.017883870750665665,-0.01810336858034134,-0.0037438482977449894
1.729494063377932e+18,-0.017173411324620247,-0.01687377505004406,-0.001788190333172679
1.7294940633869322e+18,-0.010895062237977982,-0.012516912072896957,-0.0009759318782016635
1.7294940633959324e+18,-0.013605788350105286,-0.010537714697420597,-0.0004190655890852213
1.7294940634049326e+18,-0.01505609042942524,-0.015522144734859467,-0.002680537523701787
1.7294940634109327e+18,-0.016439808532595634,-0.013658178970217705,-0.0042082322761416435
1.729494063419933e+18,-0.017030617222189903,-0.015845617279410362,-0.0013970555737614632
1.729494063428933e+18,-0.017815634608268738,-0.014926102943718433,-0.0023517559748142958
1.7294940634379333e+18,-0.020203927531838417,-0.013864369131624699,-0.0005115661770105362
1.7294940634469335e+18,-0.017772052437067032,-0.014524240046739578,-0.002009643940255046
1.7294940634529336e+18,-0.019300909712910652,-0.011250116862356663,-0.004560850560665131
1.7294940634619338e+18,-0.013468027114868164,-0.011939792893826962,-0.0019274523947387934
1.729494063470934e+18,-0.013447814621031284,-0.010738719254732132,-0.0019214744679629803
1.7294940634799342e+18,-0.016363942995667458,-0.010787785053253174,-0.0053548142313957214
1.7294940634889344e+18,-0.017793860286474228,-0.0113373389467597,-0.002148908097296953
1.7294940634949345e+18,-0.015176362358033657,-0.01400203537195921,-0.0027445063460618258
1.7294940635039347e+18,-0.017277512699365616,-0.01475460547953844,-0.0033048614859580994
1.729494063512935e+18,-0.015674203634262085,-0.009508195333182812,0.00017747562378644943
1.729494063518935e+18,-0.016375694423913956,-0.013449669815599918,-0.0018862267024815083
1.7294940635279352e+18,-0.015094070695340633,-0.016173146665096283,-0.0019886724185198545
1.7294940635369354e+18,-0.014555299654603004,-0.013039594516158104,-0.0007610042812302709
1.7294940635429356e+18,-0.009546227753162384,-0.014368712902069092,-0.0032556194346398115
1.7294940635519357e+18,-0.010127299465239048,-0.01591387949883938,-0.0028373301029205322
1.729494063560936e+18,-0.012118726968765259,-0.011968309991061687,-0.0036307694390416145
1.729494063566936e+18,-0.010131984949111938,-0.014722011983394623,-0.005031387321650982
1.7294940635759363e+18,-0.013935593888163567,-0.010019006207585335,-0.004844737704843283
1.7294940635849364e+18,-0.01388758048415184,-0.010055236518383026,-0.0037972498685121536
1.7294940635939366e+18,-0.012160807847976685,-0.010793525725603104,-0.0034701498225331306
1.7294940635999368e+18,-0.01300990954041481,-0.011727891862392426,-0.001326192868873477
1.729494063608937e+18,-0.006490853149443865,-0.012329855933785439,-0.0008191800443455577
1.7294940636179372e+18,-0.006992536596953869,-0.012379546649754047,-0.000297131366096437
1.7294940636269373e+18,-0.005286762490868568,-0.01325143687427044,-0.0028790216892957687
1.7294940636359375e+18,-0.00839995313435793,-0.01150139793753624,-0.0020526277367025614
1.7294940636449377e+18,-0.012587957084178925,-0.012664170935750008,-0.001437127124518156
1.7294940636509379e+18,-0.011844835244119167,-0.012051397003233433,-0.0012105616042390466
1.729494063659938e+18,-0.017593789845705032,-0.011869962327182293,-0.0027099456638097763
1.7294940636689382e+18,-0.015326702035963535,-0.013716072775423527,-0.0012853045482188463
1.7294940636779384e+18,-0.011808037757873535,-0.010087212547659874,-0.0023776707239449024
1.7294940636869386e+18,-0.009463729336857796,-0.010018344037234783,-0.0018037210684269667
1.7294940636959388e+18,-0.006189907900989056,-0.013739364221692085,-0.0035935076884925365
1.729494063701939e+18,-0.0067788115702569485,-0.010176539421081543,-0.0007906255777925253
1.7294940637109391e+18,-0.00847715139389038,-0.00798218697309494,-0.0032368884421885014
1.7294940637199393e+18,-0.009696557186543941,-0.010824138298630714,-0.0020185888279229403
1.7294940637289395e+18,-0.009209060110151768,-0.007945519872009754,0.00046429410576820374
1.7294940637349396e+18,-0.012952158227562904,-0.010939957574009895,-0.004001886583864689
1.7294940637439398e+18,-0.008323956280946732,-0.007194725796580315,-0.0002702721394598484
1.72949406375294e+18,-0.005122099071741104,-0.010245751589536667,-0.0057014892809093
1.7294940637589402e+18,-0.005644144490361214,-0.009240557439625263,-0.00025976309552788734
1.7294940637679404e+18,-0.008707709610462189,-0.005063386633992195,-0.0024984804913401604
1.7294940637769405e+18,-0.006269632373005152,-0.008046304807066917,-0.001138938358053565
1.7294940637859407e+18,-0.007648227270692587,-0.00717472517862916,-0.0009616975439712405
1.729494063794941e+18,-0.0058484626933932304,-0.0022629806771874428,-8.638482540845871e-05
1.729494063803941e+18,-0.00590989226475358,-0.0023933323100209236,-0.0009155807783827186
1.7294940638099412e+18,-0.0062505584210157394,-0.004419728647917509,-0.003744367975741625
1.7294940638219415e+18,-0.007190230768173933,-0.007905669510364532,-0.00171637162566185
1.7294940638279416e+18,-0.005545073188841343,-0.005669210106134415,-0.002019130624830723
1.7294940638369418e+18,-0.0038330359384417534,-0.004863464739173651,-0.002370471367612481
1.729494063845942e+18,-0.004220844712108374,-0.0024566843640059233,-0.001679184497334063
1.7294940638549422e+18,-0.0014784124214202166,-0.002521328628063202,0.0015671339351683855
1.7294940638639424e+18,-0.006481795571744442,0.0013684735167771578,-0.001079178648069501
1.7294940638699425e+18,-0.0039973086677491665,-0.004832535982131958,-0.003347262740135193
1.7294940638789427e+18,-0.004732636734843254,-0.0013780869776383042,-0.002770807361230254
1.729494063887943e+18,-0.005100889131426811,-0.0013887505047023296,-0.0025357038248330355
1.729494063896943e+18,-0.0032146668527275324,-0.0027492991648614407,-0.0022576500196009874
1.7294940639059433e+18,-0.0024425960145890713,-0.0006141903577372432,-0.00026742671616375446
1.7294940639119434e+18,-0.000804289011284709,-0.0025632104370743036,7.22294207662344e-05
1.7294940639209436e+18,-0.002434378257021308,-0.0004665103042498231,-0.0003995854640379548
1.7294940639299438e+18,-0.005535464268177748,0.0019085686653852463,-0.0030123195610940456
1.729494063935944e+18,-0.00567470770329237,0.0016221798723563552,-0.0009322883561253548
1.729494063944944e+18,-0.006470882333815098,0.0004231270868331194,-0.0025570187717676163
1.7294940639509443e+18,-0.008233973756432533,-0.000973205198533833,0.00017992150969803333
1.7294940639599444e+18,-0.003048039274290204,-0.0023252496030181646,-0.0020890114828944206
1.7294940639689446e+18,-0.00416915537789464,-0.003953166771680117,-0.0027526337653398514
1.7294940639749448e+18,-0.003975783009082079,-0.0022587724961340427,0.0007376013090834022
1.729494063983945e+18,-0.0016771432710811496,-0.0008386026602238417,-0.0014978760154917836
1.7294940639929452e+18,-0.0028258960228413343,-0.0015209707198664546,0.0013120078947395086
1.7294940639989453e+18,-0.00638124905526638,-0.0019358148565515876,0.0018636982422322035
1.7294940640079455e+18,-0.0031869951635599136,-0.002296510385349393,0.0014684984926134348
1.7294940640169457e+18,-0.0067626312375068665,-0.0024664774537086487,-0.001434059115126729
1.7294940640229458e+18,-0.00442124530673027,-0.0026000007055699825,-0.004360339604318142
1.729494064034946e+18,-0.002510990481823683,-0.005433474201709032,-0.0019713251385837793
1.7294940640409462e+18,-0.0007284788880497217,-0.006706787273287773,-0.0011918391101062298
1.7294940640499464e+18,-0.003911803942173719,-0.007184955757111311,0.0005303667858242989
1.7294940640559465e+18,-0.004709875676780939,-0.005254797171801329,-0.0011778248008340597
1.7294940640649467e+18,-0.0034769128542393446,-0.005454546771943569,-0.0028642683755606413
1.729494064073947e+18,-0.004355485551059246,-0.004650449845939875,-0.005417971406131983
1.729494064079947e+18,-0.0051260716281831264,-0.0030581417959183455,-0.0021942309103906155
1.7294940640889472e+18,-0.00566878542304039,-0.0037032931577414274,-0.0003762097330763936
1.7294940640979474e+18,-0.007187129929661751,-0.0057138861157000065,-0.0009227597038261592
1.7294940641039475e+18,-0.0074280183762311935,-0.005913824308663607,-7.016351446509361e-07
1.7294940641129477e+18,-0.004200118128210306,-0.007610124535858631,-0.0005201430758461356
1.7294940641189478e+18,-0.004189839120954275,-0.007880354300141335,-0.0034792814403772354
1.729494064127948e+18,-0.0010030365083366632,-0.004682515282183886,-0.0036579989828169346
1.7294940641369482e+18,-0.002204746473580599,-0.0023914650082588196,-0.0014247405342757702
1.7294940641459484e+18,-0.004648976493626833,-0.004442755598574877,-0.0015254918253049254
1.7294940641519485e+18,-0.006780135910958052,-0.0033419011160731316,5.63059002161026e-05
1.7294940641609487e+18,-0.004361392464488745,-0.0037505929358303547,8.109374903142452e-06
1.7294940641669489e+18,-0.00517613161355257,-0.0035906299017369747,9.54681308940053e-05
1.729494064175949e+18,-0.0013201468391343951,-0.0016244454309344292,-0.001642643939703703
1.7294940641849492e+18,0.0035217576660215855,-0.0027397307567298412,-0.003552630078047514
1.7294940641939494e+18,0.0036250834818929434,-0.0036955797113478184,-0.0004270952777005732
1.7294940641999496e+18,0.00167179259005934,-0.007213549688458443,0.0013977617491036654
1.7294940642089498e+18,0.001028465572744608,-0.003981319256126881,-0.0016866824589669704
1.72949406421495e+18,0.0005012943292967975,-0.002952813170850277,0.00032865675166249275
1.72949406422395e+18,-0.0026826229877769947,-3.9201462641358376e-05,-0.0014647631905972958
1.7294940642329503e+18,-0.0011254304554313421,0.0014567564940080047,-0.0004230584600009024
1.7294940642419505e+18,-0.0001235043746419251,0.0023270011879503727,-0.002720633987337351
1.7294940642479506e+18,0.0012012035585939884,-0.0006386358290910721,-0.0031325952149927616
1.7294940642569508e+18,0.003193899290636182,-0.0014472821494564414,0.0003782181302085519
1.729494064268951e+18,0.0009671603329479694,-0.003133913269266486,0.0003263156395405531
1.7294940642749512e+18,0.004080357030034065,-0.0037921974435448647,0.00017419469077140093
1.7294940642839514e+18,0.0019893439020961523,-0.001246762229129672,-0.002987184328958392
1.7294940642929516e+18,-0.0029759197495877743,0.00019466911908239126,-0.0015702710952609777
1.7294940643019517e+18,-0.0016651543555781245,0.0005050667678005993,-0.0026511545293033123
1.729494064310952e+18,0.0013064376544207335,0.0011723011266440153,0.00012797839008271694
1.7294940643199521e+18,0.004591978620737791,-0.0004938781494274735,-0.002857118844985962
1.7294940643289523e+18,0.002418114570900798,-0.0015692450106143951,0.0005421763053163886
1.7294940643379525e+18,0.0031382825691252947,0.0019154406618326902,0.0008100022096186876
1.7294940643469527e+18,0.0044634100049734116,0.002163742668926716,-0.0008949805633164942
1.7294940643529528e+18,0.00028167455457150936,0.0022043478675186634,-0.0006049932562746108
1.729494064361953e+18,-0.00027045863680541515,0.0024559148587286472,-0.0002869083546102047
1.7294940643709532e+18,0.0006594413425773382,0.002645996166393161,-0.0030522122979164124
1.7294940643799534e+18,0.0029057664796710014,0.001888450002297759,-0.00017633201787248254
1.7294940643889536e+18,0.0020384625531733036,0.002446430269628763,-0.004230216611176729
1.7294940643949537e+18,0.004247240722179413,-0.0006812195060774684,-0.001625619363039732
1.729494064403954e+18,0.00916033424437046,-0.0023873811587691307,-0.00234592380002141
1.729494064412954e+18,0.009237462654709816,-0.0017770142294466496,-0.00044884870294481516
1.7294940644189542e+18,0.004545045085251331,0.001987599302083254,0.0007593202171847224
1.7294940644279544e+18,0.008626163005828857,0.0004700083227362484,-0.0017029214650392532
1.7294940644369546e+18,0.006585033610463142,0.00011051492765545845,-0.0009903089376166463
1.7294940644459548e+18,0.007210863288491964,0.00178105803206563,0.0014449661830440164
1.729494064451955e+18,0.006800346076488495,-0.0004152236506342888,-0.0016404680209234357
1.7294940644609551e+18,0.005889649037271738,0.0008214075351133943,6.287603173404932e-05
1.7294940644699553e+18,0.00984798464924097,-0.0033144475892186165,-0.0006432505324482918
1.7294940644789555e+18,0.010498828254640102,0.006311883218586445,-3.6978162825107574e-06
1.7294940644849556e+18,0.009654962457716465,0.004698697943240404,0.0014213989488780499
1.7294940644939558e+18,0.008553221821784973,0.0069415876641869545,0.00023122213315218687
1.729494064502956e+18,0.004988081753253937,0.004602082073688507,0.0005667565856128931
1.7294940645089562e+18,0.005330301355570555,0.005210254341363907,-0.0025267191231250763
1.7294940645179564e+18,0.007993957959115505,0.003723676549270749,-0.002621763851493597
1.7294940645269565e+18,0.006118977442383766,0.0021841335110366344,-0.0005268175737001002
1.7294940645359567e+18,0.007808574475347996,0.003361997427418828,-0.0003261773381382227
1.7294940645419569e+18,0.006454248912632465,0.0028487201780080795,0.0001916710752993822
1.729494064550957e+18,0.010225266218185425,0.007755196653306484,-0.0009080145973712206
1.7294940645599572e+18,0.00924921128898859,0.010143688879907131,-0.0020137832034379244
1.7294940645689574e+18,0.012768348678946495,0.00930450577288866,-0.0016246367013081908
1.7294940645749576e+18,0.013563627377152443,0.009903975762426853,-0.0007262320723384619
1.7294940645839578e+18,0.011011872440576553,0.009371144697070122,-0.0002940648118965328
1.729494064589958e+18,0.010914157144725323,0.007528479211032391,-0.0020098090171813965
1.729494064598958e+18,0.007714195642620325,0.0033836541697382927,-0.0001009027473628521
1.7294940646079583e+18,0.007057280279695988,0.0004970231093466282,0.0027550100348889828
1.7294940646139584e+18,0.008632712066173553,0.0014297710731625557,4.839664325118065e-05
1.7294940646229586e+18,0.009996465407311916,0.004243599250912666,-0.0014725668588653207
1.7294940646289587e+18,0.007917883805930614,0.007420111447572708,-0.0015173889696598053
1.729494064637959e+18,0.010102500207722187,0.0065415166318416595,-0.0014204951003193855
1.729494064646959e+18,0.00876852311193943,0.0073687913827598095,-0.00043122301576659083
1.7294940646529592e+18,0.008619608357548714,0.006237855646759272,-0.0018485849723219872
1.7294940646619594e+18,0.011114858090877533,0.006552752107381821,-0.0015810385812073946
1.7294940646709596e+18,0.008025885559618473,0.005339200608432293,-0.0033848085440695286
1.7294940646799598e+18,0.00929196085780859,0.004757610149681568,-0.0007722964510321617
1.72949406468596e+18,0.011354767717421055,0.0006529209204018116,-0.0017414444591850042
1.72949406469496e+18,0.010585881769657135,0.007128994911909103,-0.0004334578989073634
1.7294940647039603e+18,0.010324958711862564,0.00528955552726984,-0.0033204806968569756
1.7294940647099604e+18,0.00991425383836031,0.0036205248907208443,-0.0018095902632921934
1.7294940647189606e+18,0.009319394826889038,0.00372924841940403,-0.0025872180704027414
1.7294940647279608e+18,0.006541230250149965,0.007617710158228874,-0.0021148051600903273
1.729494064733961e+18,0.00884215533733368,0.007018445525318384,0.001818118616938591
1.7294940647429612e+18,0.009199576452374458,0.007735825143754482,-0.00033511262154206634
1.7294940647519613e+18,0.007076252717524767,0.007532388903200626,-0.0016122006345540285
1.7294940647579615e+18,0.008089723996818066,0.004200218245387077,-0.0024385079741477966
1.7294940647669617e+18,0.004155219066888094,0.005410674028098583,-0.002459930721670389
1.7294940647759619e+18,0.006041922606527805,0.002911791205406189,-0.001180444611236453
1.729494064784962e+18,0.007756272330880165,0.00894662830978632,-0.001165232970379293
1.7294940647909622e+18,0.024311045184731483,0.04554564505815506,-0.00268571893684566
1.7294940647999624e+18,0.17400524020195007,0.42078304290771484,-0.010006713680922985
1.7294940648089626e+18,0.3319876790046692,0.9136345386505127,-0.01846548728644848
1.7294940648179628e+18,0.48396486043930054,1.367561936378479,-0.02803529053926468
1.729494064826963e+18,0.8280712366104126,1.6576505899429321,-0.03699405863881111
1.7294940648359631e+18,1.3300658464431763,1.7687795162200928,-0.04720384627580643
1.7294940648449633e+18,1.7893431186676025,1.693325161933899,-0.054569393396377563
1.7294940648539635e+18,2.2418875694274902,1.5681699514389038,-0.056338246911764145
1.7294940648629637e+18,2.6096131801605225,1.49057137966156,-0.06269044429063797
1.729494064871964e+18,2.809096097946167,1.4952219724655151,-0.0748215913772583
1.729494064877964e+18,2.8552629947662354,1.5383588075637817,-0.08315613865852356
1.7294940648899643e+18,2.814707040786743,1.6451820135116577,-0.09968137741088867
1.7294940648989645e+18,2.745494842529297,1.662903904914856,-0.11296158283948898
1.7294940649049646e+18,2.718997001647949,1.6279783248901367,-0.11896516382694244
1.7294940649139648e+18,2.714611768722534,1.5129185914993286,-0.13211070001125336
1.729494064922965e+18,2.7372288703918457,1.368772268295288,-0.14277592301368713
1.729494064928965e+18,2.7404987812042236,1.2728891372680664,-0.14947091042995453
1.7294940649379653e+18,2.6856319904327393,1.1631712913513184,-0.15842141211032867
1.7294940649469655e+18,2.558743476867676,1.097838044166565,-0.16721612215042114
1.7294940649559657e+18,2.363264322280884,1.0516360998153687,-0.1799784004688263
1.729494064964966e+18,2.15299916267395,1.0039536952972412,-0.18301811814308167
1.729494064970966e+18,2.032287836074829,0.9623582363128662,-0.1865161806344986
1.7294940649799662e+18,1.8822306394577026,0.8692286014556885,-0.1935489922761917
1.7294940649889664e+18,1.778239369392395,0.7566134333610535,-0.20486140251159668
1.7294940649979666e+18,1.6843990087509155,0.6440463066101074,-0.20542918145656586
1.7294940650069668e+18,1.5766220092773438,0.546466588973999,-0.21422749757766724
1.729494065012967e+18,1.4867950677871704,0.48989489674568176,-0.21359145641326904
1.729494065021967e+18,1.3109493255615234,0.4276798963546753,-0.21776577830314636
1.7294940650309673e+18,1.1335393190383911,0.3793151080608368,-0.2202025055885315
1.7294940650369674e+18,1.0145914554595947,0.34595274925231934,-0.22779016196727753
1.7294940650459676e+18,0.8768773674964905,0.29457759857177734,-0.22774600982666016
1.7294940650549678e+18,0.7831553816795349,0.23047290742397308,-0.23084042966365814
1.729494065063968e+18,0.7163963913917542,0.17458149790763855,-0.23587214946746826
1.7294940650729682e+18,0.6507817506790161,0.11605965346097946,-0.23552563786506653
1.7294940650819684e+18,0.5711545348167419,0.07127326726913452,-0.24225495755672455
1.7294940650879685e+18,0.4984663426876068,0.0440155528485775,-0.2421950399875641
1.7294940650969687e+18,0.3789149820804596,0.007016835734248161,-0.24491843581199646
1.729494065105969e+18,0.2564507722854614,-0.02340034395456314,-0.24370086193084717
1.729494065114969e+18,0.1556299924850464,-0.05323770269751549,-0.24198982119560242
1.7294940651209692e+18,0.10561205446720123,-0.07649972289800644,-0.24679480493068695
1.7294940651329695e+18,0.045163147151470184,-0.1172061637043953,-0.244598388671875
1.7294940651389696e+18,0.02373216673731804,-0.1393240988254547,-0.2447924017906189
1.7294940651479698e+18,-0.009828256443142891,-0.16367751359939575,-0.24582912027835846
1.72949406515397e+18,-0.03835849463939667,-0.17853617668151855,-0.24490031599998474
1.72949406516297e+18,-0.09887020289897919,-0.19666984677314758,-0.2430417239665985
1.7294940651719703e+18,-0.16577434539794922,-0.2126591056585312,-0.24517278373241425
1.7294940651809705e+18,-0.22809149324893951,-0.22804826498031616,-0.2426443248987198
1.7294940651869706e+18,-0.26490718126296997,-0.23854056000709534,-0.24508732557296753
1.7294940651959708e+18,-0.30176863074302673,-0.24839481711387634,-0.24163778126239777
1.729494065204971e+18,-0.31296369433403015,-0.26126766204833984,-0.24131648242473602
1.7294940652109711e+18,-0.31906548142433167,-0.26827868819236755,-0.24108648300170898
1.7294940652199713e+18,-0.3280187249183655,-0.2797671854496002,-0.23928950726985931
1.7294940652289715e+18,-0.35137543082237244,-0.29094377160072327,-0.23843564093112946
1.7294940652349716e+18,-0.37343525886535645,-0.2982243001461029,-0.2360122948884964
1.7294940652439718e+18,-0.4038383364677429,-0.30648690462112427,-0.23411746323108673
1.729494065252972e+18,-0.4301892817020416,-0.3116452991962433,-0.2322918176651001
1.7294940652589722e+18,-0.4351712465286255,-0.3084667921066284,-0.23106049001216888
1.7294940652679724e+18,-0.4375207722187042,-0.30586403608322144,-0.22605165839195251
1.7294940652769725e+18,-0.4345000982284546,-0.3043811619281769,-0.22695116698741913
1.7294940652829727e+18,-0.43228012323379517,-0.3078611195087433,-0.22525876760482788
1.7294940652919729e+18,-0.440244197845459,-0.30897828936576843,-0.22161613404750824
1.729494065300973e+18,-0.44979551434516907,-0.31907957792282104,-0.21609853208065033
1.7294940653069732e+18,-0.4651760160923004,-0.32507434487342834,-0.21793513000011444
1.7294940653159734e+18,-0.47935032844543457,-0.32479217648506165,-0.21331842243671417
1.7294940653219735e+18,-0.484272301197052,-0.3271752595901489,-0.2091887891292572
1.7294940653309737e+18,-0.47922125458717346,-0.32334545254707336,-0.20394422113895416
1.729494065339974e+18,-0.47367122769355774,-0.3189863860607147,-0.20371952652931213
1.729494065345974e+18,-0.46551933884620667,-0.3106258511543274,-0.1979398876428604
1.7294940653549742e+18,-0.45898380875587463,-0.31394273042678833,-0.19718842208385468
1.7294940653639744e+18,-0.45579689741134644,-0.3174114525318146,-0.19047294557094574
1.7294940653699745e+18,-0.46187061071395874,-0.32215139269828796,-0.18870680034160614
1.7294940653789747e+18,-0.4644152820110321,-0.3197544515132904,-0.18295545876026154
1.729494065387975e+18,-0.47286227345466614,-0.3203585147857666,-0.17904092371463776
1.729494065393975e+18,-0.46794331073760986,-0.3216940760612488,-0.17682954668998718
1.7294940654029752e+18,-0.4621807634830475,-0.31537991762161255,-0.17424948513507843
1.7294940654119754e+18,-0.45185932517051697,-0.30782872438430786,-0.1683601289987564
1.7294940654209756e+18,-0.4367944300174713,-0.30581560730934143,-0.1630198359489441
1.7294940654269757e+18,-0.42924338579177856,-0.301381915807724,-0.15877734124660492
1.729494065435976e+18,-0.4194910228252411,-0.2932151257991791,-0.152507483959198
1.729494065444976e+18,-0.4110109210014343,-0.2919449210166931,-0.1483115404844284
1.7294940654509763e+18,-0.41328737139701843,-0.28998619318008423,-0.14713716506958008
1.7294940654599764e+18,-0.4147259294986725,-0.29026585817337036,-0.14339719712734222
1.7294940654689766e+18,-0.4214395582675934,-0.2921864092350006,-0.1355491429567337
1.7294940654749768e+18,-0.42259731888771057,-0.29669854044914246,-0.13098974525928497
1.729494065483977e+18,-0.4201200604438782,-0.29748591780662537,-0.1301680952310562
1.7294940654929772e+18,-0.4116784334182739,-0.29382821917533875,-0.12454705685377121
1.7294940655019773e+18,-0.4043399393558502,-0.29170262813568115,-0.11799133569002151
1.7294940655109775e+18,-0.3905743658542633,-0.27902743220329285,-0.1136271134018898
1.7294940655199777e+18,-0.37583497166633606,-0.27551648020744324,-0.10868458449840546
1.729494065528978e+18,-0.3717063367366791,-0.2745356261730194,-0.10379821062088013
1.729494065534978e+18,-0.3718481659889221,-0.27232447266578674,-0.09866411238908768
1.7294940655439782e+18,-0.3748098313808441,-0.2752836048603058,-0.09365275502204895
1.7294940655529784e+18,-0.37690985202789307,-0.2737303078174591,-0.08638755232095718
1.7294940655589786e+18,-0.3747633695602417,-0.27559223771095276,-0.08388587832450867
1.7294940655679788e+18,-0.36557167768478394,-0.2708085775375366,-0.08018429577350616
1.729494065573979e+18,-0.3576960861682892,-0.27088573575019836,-0.07660331577062607
1.729494065582979e+18,-0.35220590233802795,-0.2652644217014313,-0.07104077190160751
