timestamp,accel_x,accel_y,accel_z
1.7294974893910188e+18,-0.044247765094041824,0.02304873615503311,-9.858027458190918
1.729497489400019e+18,0.050190337002277374,-0.019316257908940315,-9.782793998718262
1.7294974894090191e+18,0.02760916016995907,-0.06251063942909241,-9.772024154663086
1.7294974894180193e+18,-0.007940876297652721,-0.02611750178039074,-9.821199417114258
1.7294974894240195e+18,0.07957788556814194,0.03711847588419914,-9.895723342895508
1.7294974894330196e+18,0.05068808048963547,0.02781800553202629,-9.70927906036377
1.7294974894420198e+18,0.008064480498433113,-0.03906451165676117,-9.80167007446289
1.72949748944802e+18,0.04352515935897827,-0.1087246909737587,-9.809554100036621
1.7294974894570202e+18,-0.03369886055588722,-0.006275615654885769,-9.76742935180664
1.7294974894660204e+18,-0.013723653741180897,0.05489160120487213,-9.786389350891113
1.7294974894720205e+18,-0.09725161641836166,0.04460560530424118,-9.799690246582031
1.7294974894810207e+18,-0.003095362102612853,-0.0009336486109532416,-9.838052749633789
1.7294974894900209e+18,0.052196234464645386,0.05312790349125862,-9.839913368225098
1.729497489499021e+18,0.02461971901357174,0.04222312569618225,-9.825474739074707
1.7294974895080212e+18,0.024244962260127068,-0.07507304102182388,-9.822919845581055
1.7294974895170214e+18,-0.029963944107294083,-0.029288066551089287,-9.831160545349121
1.7294974895260216e+18,-0.012001484632492065,-0.09206696599721909,-9.787623405456543
1.7294974895350218e+18,-0.03568434342741966,-0.016641244292259216,-9.880547523498535
1.729497489541022e+18,0.060991283506155014,-0.06970898807048798,-9.843868255615234
1.7294974895500221e+18,-0.07589321583509445,-0.05705651268362999,-9.82763957977295
1.7294974895590223e+18,0.0028440668247640133,-0.004313153680413961,-9.690903663635254
1.7294974895680225e+18,-0.006205264013260603,-0.02213231474161148,-9.82358455657959
1.7294974895770227e+18,-0.058106742799282074,-0.029888514429330826,-9.84661865234375
1.729497489586023e+18,0.022824760526418686,-0.09045484662055969,-9.808697700500488
1.729497489592023e+18,-0.06567120552062988,0.006320517975836992,-9.7114839553833
1.7294974896010232e+18,-0.04841961711645126,0.001429778872989118,-9.845598220825195
1.7294974896130235e+18,-0.0006377552635967731,0.007649065926671028,-9.792659759521484
1.7294974896220237e+18,-0.09829604625701904,-0.002189739141613245,-9.861144065856934
1.7294974896280238e+18,-0.028030244633555412,0.009987766854465008,-9.75369930267334
1.729497489637024e+18,-0.02016373723745346,0.05727091431617737,-9.815655708312988
1.7294974896460242e+18,-0.051702696830034256,0.06903324276208878,-9.798515319824219
1.7294974896550244e+18,0.07122310250997543,0.051224738359451294,-9.821675300598145
1.7294974896640246e+18,0.029120927676558495,-0.041462186723947525,-9.751272201538086
1.7294974896730248e+18,-0.026768958196043968,0.03961062431335449,-9.787836074829102
1.729497489682025e+18,-0.028445754200220108,-0.07311549037694931,-9.83341121673584
1.7294974896910252e+18,0.021841488778591156,0.09603050351142883,-9.803424835205078
1.7294974897000253e+18,-0.07422994077205658,-0.008186672814190388,-9.755709648132324
1.7294974897120256e+18,0.0907563641667366,-0.008438949473202229,-9.833163261413574
1.7294974897210258e+18,0.03538425639271736,-0.03864656388759613,-9.797099113464355
1.729497489733026e+18,0.042322542518377304,-0.06672799587249756,-9.870220184326172
1.7294974897420262e+18,0.05368952080607414,-0.020065858960151672,-9.819110870361328
1.7294974897480264e+18,-0.061514414846897125,-0.016308952122926712,-9.773797035217285
1.7294974897570266e+18,-0.00394263444468379,-0.09231828153133392,-9.858573913574219
1.7294974897660268e+18,0.07044384628534317,0.018443934619426727,-9.768513679504395
1.729497489775027e+18,-0.0037891638930886984,0.050992779433727264,-9.732322692871094
1.7294974897840271e+18,0.04615769907832146,0.04472667723894119,-9.807744026184082
1.7294974897930273e+18,-0.06466063857078552,-0.011857857927680016,-9.764686584472656
1.7294974898020275e+18,-0.01643487997353077,0.019077429547905922,-9.804190635681152
1.7294974898110277e+18,-0.028887847438454628,-0.02440495602786541,-9.75086784362793
1.729497489820028e+18,-0.0445367693901062,-0.01508613582700491,-9.813384056091309
1.729497489829028e+18,0.0319785550236702,0.1062508150935173,-9.774540901184082
1.7294974898380283e+18,0.04522057995200157,0.031111668795347214,-9.816399574279785
1.7294974898440284e+18,-0.01817050389945507,0.059946365654468536,-9.82071304321289
1.7294974898530286e+18,0.046822622418403625,0.06202566996216774,-9.818317413330078
1.7294974898620288e+18,0.0055680531077086926,0.024512136355042458,-9.914499282836914
1.729497489871029e+18,-0.08041959255933762,0.02893231436610222,-9.832847595214844
1.7294974898800292e+18,-0.046784285455942154,-0.0034735428635030985,-9.764586448669434
1.7294974898920294e+18,0.020379070192575455,-0.03185874968767166,-9.807062149047852
1.7294974899010296e+18,-0.016714926809072495,-0.006252704653888941,-9.725366592407227
1.7294974899100298e+18,0.05229676514863968,-0.045766621828079224,-9.84587574005127
1.72949748991903e+18,-0.026052173227071762,0.039353907108306885,-9.740978240966797
1.7294974899280302e+18,-0.02746037021279335,0.019958285614848137,-9.884284019470215
1.7294974899370304e+18,-0.04106433317065239,-0.011048835702240467,-9.854665756225586
1.7294974899460306e+18,-0.0415257103741169,0.011908471584320068,-9.807085990905762
1.7294974899550308e+18,-0.0286184661090374,0.007454598322510719,-9.814835548400879
1.729497489964031e+18,0.006214758846908808,0.007846756838262081,-9.825207710266113
1.7294974899730312e+18,0.012229186482727528,0.024446481838822365,-9.815075874328613
1.7294974899850314e+18,-0.021735168993473053,-0.011307003907859325,-9.878135681152344
1.7294974899940316e+18,-0.023070337250828743,0.034447722136974335,-9.804430961608887
1.7294974900030318e+18,0.013467625714838505,-0.02356583997607231,-9.878963470458984
1.729497490012032e+18,-0.04727320745587349,-0.04116959124803543,-9.816277503967285
1.7294974900210322e+18,0.021328821778297424,-0.0070458464324474335,-9.837102890014648
1.7294974900300324e+18,0.007618111092597246,-0.07703368365764618,-9.831527709960938
1.7294974900390326e+18,-0.010334029793739319,0.01892848126590252,-9.813197135925293
1.7294974900480328e+18,-0.04864131286740303,0.05900612100958824,-9.776192665100098
1.729497490057033e+18,-0.07197276502847672,0.11179997771978378,-9.780055046081543
1.7294974900660332e+18,-0.016146617010235786,0.02796771563589573,-9.798408508300781
1.7294974900750333e+18,-0.030294084921479225,0.01778445392847061,-9.71500015258789
1.7294974900840335e+18,-0.03444855660200119,0.008524085395038128,-9.791716575622559
1.7294974900930337e+18,0.07269611209630966,0.07210355252027512,-9.679839134216309
1.729497490102034e+18,0.01504831574857235,-0.013212591409683228,-9.734646797180176
1.729497490111034e+18,0.03377909958362579,0.016665019094944,-9.797162055969238
1.7294974901200343e+18,-0.012798778712749481,-0.09998045116662979,-9.79112434387207
1.7294974901320346e+18,0.01888272352516651,-0.0030254600569605827,-9.848612785339355
1.7294974901410348e+18,-0.06131919100880623,-0.08246927708387375,-9.83887004852295
1.729497490150035e+18,0.010220183059573174,0.017435450106859207,-9.82075309753418
1.7294974901590351e+18,-0.06649616360664368,0.056190941482782364,-9.822460174560547
1.7294974901680353e+18,0.06313036382198334,0.0563393272459507,-9.793121337890625
1.7294974901770355e+18,-0.016779974102973938,-0.031138380989432335,-9.856208801269531
1.7294974901830356e+18,0.022142354398965836,0.010617583058774471,-9.803593635559082
1.729497490195036e+18,0.020274817943572998,0.05272435024380684,-9.781951904296875
1.729497490204036e+18,0.02964271605014801,0.0926268920302391,-9.807474136352539
1.7294974902130363e+18,0.016696646809577942,-0.008450984954833984,-9.800621032714844
1.7294974902190364e+18,-0.0016330042853951454,-0.019937314093112946,-9.795769691467285
1.7294974902280366e+18,0.07641981542110443,0.04360731691122055,-9.76754379272461
1.7294974902370368e+18,0.007307004649192095,0.023658813908696175,-9.82303237915039
1.729497490246037e+18,-0.028522847220301628,-0.021536223590373993,-9.785140037536621
1.7294974902550372e+18,-0.03202032297849655,0.06415598839521408,-9.844741821289062
1.7294974902640374e+18,0.05999116227030754,0.050063204020261765,-9.827483177185059
1.7294974902730376e+18,0.0180799700319767,-0.023059604689478874,-9.768351554870605
1.7294974902820378e+18,-0.0028555840253829956,-0.0026514772325754166,-9.783561706542969
1.729497490288038e+18,-0.035944242030382156,-0.04474830627441406,-9.842545509338379
1.729497490297038e+18,-0.02263944037258625,-0.06839793920516968,-9.878772735595703
1.7294974903060383e+18,0.05320310965180397,-0.012345378287136555,-9.802412986755371
1.7294974903150385e+18,0.001972101628780365,-0.029472369700670242,-9.827752113342285
1.7294974903240387e+18,0.03802455961704254,-0.0010979135986417532,-9.909224510192871
1.729497490336039e+18,-0.02314257249236107,0.052186816930770874,-9.762826919555664
1.729497490345039e+18,0.014852695167064667,0.0012645742390304804,-9.827163696289062
1.7294974903540393e+18,0.03590664640069008,0.01649842970073223,-9.730894088745117
1.7294974903630395e+18,0.0006859541172161698,0.07940308004617691,-9.839015007019043
1.7294974903720397e+18,0.03629299998283386,0.08529923111200333,-9.830784797668457
1.7294974903810399e+18,0.009701221249997616,0.009622329846024513,-9.765239715576172
1.72949749038704e+18,-0.03957279399037361,0.012185716070234776,-9.830337524414062
1.7294974903960402e+18,-0.027860939502716064,-0.035693537443876266,-9.875110626220703
1.7294974904050404e+18,-0.011199318803846836,0.0550486221909523,-9.754483222961426
1.7294974904140406e+18,-0.036814332008361816,0.00856040045619011,-9.700006484985352
1.7294974904230408e+18,0.1016683354973793,0.011877021752297878,-9.84292221069336
1.729497490432041e+18,0.0898829773068428,-0.05622340366244316,-9.855719566345215
1.7294974904410412e+18,0.009877834469079971,-0.002232212806120515,-9.855607032775879
1.7294974904500413e+18,-0.03706151619553566,0.03825588896870613,-9.834834098815918
1.7294974904590415e+18,-0.0025732300709933043,0.021038925275206566,-9.867918014526367
1.7294974904680417e+18,-0.06308642029762268,0.011102685704827309,-9.671550750732422
1.729497490477042e+18,-0.03141728416085243,0.040944308042526245,-9.86446762084961
1.729497490486042e+18,-0.016212044283747673,-0.00022907684615347534,-9.852362632751465
1.7294974904950423e+18,-0.044611360877752304,-0.01592705398797989,-9.79623031616211
1.7294974905040425e+18,0.008648775517940521,0.014512061141431332,-9.827959060668945
1.7294974905130427e+18,0.015232177451252937,-0.030728932470083237,-9.806109428405762
1.729497490525043e+18,0.05366428196430206,0.023529181256890297,-9.81473445892334
1.7294974905340431e+18,0.05641133338212967,0.05599569156765938,-9.884149551391602
1.7294974905430433e+18,0.056502729654312134,-0.05595473200082779,-9.790699005126953
1.7294974905520435e+18,0.015230673365294933,0.02756514959037304,-9.760577201843262
1.7294974905580436e+18,-0.05180793255567551,-0.00010097413905896246,-9.819802284240723
1.7294974905670438e+18,-0.030287770554423332,0.056937798857688904,-9.807469367980957
1.729497490576044e+18,0.0009906049817800522,0.02547537162899971,-9.774643898010254
1.7294974905850442e+18,-0.039316680282354355,-0.03765895590186119,-9.878576278686523
1.7294974905940444e+18,0.036879219114780426,0.01988428644835949,-9.769303321838379
1.7294974906030446e+18,0.02096024714410305,0.03377765789628029,-9.783279418945312
1.7294974906120448e+18,0.03154105320572853,0.0034045407082885504,-9.892155647277832
1.729497490621045e+18,0.02458799071609974,-0.0031021973118185997,-9.777216911315918
1.7294974906330452e+18,-0.07648254185914993,-0.0006053446559235454,-9.794784545898438
1.7294974906420454e+18,-0.11774776130914688,-0.005147673189640045,-9.874641418457031
1.7294974906510456e+18,-0.051739100366830826,-0.003049019956961274,-9.810274124145508
1.729497490669046e+18,-0.01747523620724678,-0.03782723844051361,-9.80167007446289
1.7294974906810463e+18,0.03445412963628769,-0.04347052425146103,-9.746594429016113
1.7294974906900465e+18,0.0532817505300045,-0.07101587951183319,-9.887402534484863
1.7294974906990467e+18,-0.00027141033206135035,0.018637217581272125,-9.827184677124023
1.729497490711047e+18,-0.06096307188272476,0.028339849784970284,-9.787575721740723
1.729497490720047e+18,-0.01773543655872345,0.03166372328996658,-9.780922889709473
1.7294974907290473e+18,0.06420044600963593,0.03539859503507614,-9.788652420043945
1.7294974907410476e+18,0.005440520588308573,-0.03165677562355995,-9.725845336914062
1.7294974907500477e+18,-0.04154520109295845,0.03744174912571907,-9.897435188293457
1.729497490759048e+18,0.044744428247213364,0.034194137901067734,-9.842761039733887
1.729497490768048e+18,0.057920198887586594,-0.021069083362817764,-9.83242416381836
1.7294974907770483e+18,0.02727837860584259,-0.05349768325686455,-9.836621284484863
1.7294974907860485e+18,-0.06088671088218689,0.055511023849248886,-9.797222137451172
1.7294974907950487e+18,-0.03967204689979553,-0.02963266894221306,-9.772083282470703
1.729497490804049e+18,-0.07673109322786331,-0.04287378489971161,-9.766518592834473
1.729497490813049e+18,-0.007096986286342144,0.012507675215601921,-9.792177200317383
1.7294974908250493e+18,-0.00983402319252491,0.03878605738282204,-9.73793888092041
1.7294974908340495e+18,-0.1204596757888794,0.021872323006391525,-9.867375373840332
1.7294974908430497e+18,-0.04758182168006897,-0.05026353895664215,-9.7343111038208
1.72949749085205e+18,0.055140309035778046,-0.01337882038205862,-9.824823379516602
1.7294974908640502e+18,0.07245858013629913,0.04346538335084915,-9.799260139465332
1.7294974908730504e+18,0.0122370645403862,-0.04327604919672012,-9.78711986541748
1.7294974908820506e+18,0.006128640379756689,0.01514265313744545,-9.823052406311035
1.7294974908910508e+18,0.04604851454496384,-0.02525540068745613,-9.798493385314941
1.729497490900051e+18,-0.04774027690291405,-0.009035882540047169,-9.771489143371582
1.7294974909120512e+18,0.0109865702688694,-0.06609772145748138,-9.849212646484375
1.7294974909210514e+18,0.0006097586592659354,0.01529933325946331,-9.800627708435059
1.7294974909300516e+18,-0.020892184227705002,-0.031674087047576904,-9.805913925170898
1.7294974909390518e+18,-0.08007622510194778,0.027182895690202713,-9.742462158203125
1.729497490951052e+18,-0.002156751463189721,-0.06776793301105499,-9.814713478088379
1.7294974909600522e+18,0.020610863342881203,-0.004038200713694096,-9.813769340515137
1.7294974909690524e+18,0.00813539419323206,-0.05384916812181473,-9.812926292419434
1.7294974909780526e+18,-0.0377495251595974,-0.0006924541667103767,-9.72458267211914
1.7294974909870528e+18,-5.567438711295836e-05,-0.008934172801673412,-9.753747940063477
1.729497490999053e+18,-0.10039424896240234,-0.06233402341604233,-9.758193016052246
1.7294974910080532e+18,0.030778976157307625,-0.009826790541410446,-9.793390274047852
1.7294974910170534e+18,0.026117760688066483,-0.041714370250701904,-9.740790367126465
1.7294974910260536e+18,-0.002926293760538101,0.04352125898003578,-9.816899299621582
1.7294974910350538e+18,0.07748367637395859,0.0009124072385020554,-9.769598007202148
1.729497491044054e+18,-0.002681335899978876,-0.04365748167037964,-9.81169319152832
1.7294974910530542e+18,-0.049853481352329254,-0.013123871758580208,-9.909354209899902
1.7294974910620544e+18,0.03595120087265968,0.04807049781084061,-9.84972858428955
1.7294974910710546e+18,-0.046431608498096466,0.0302334763109684,-9.813559532165527
1.7294974910800548e+18,0.038025595247745514,-0.05561799556016922,-9.868741989135742
1.729497491089055e+18,-0.009114866144955158,-0.013800985179841518,-9.834214210510254
1.7294974910980552e+18,-0.020221756771206856,0.02669914811849594,-9.77210521697998
1.7294974911070554e+18,-0.007810880430042744,-0.01052431482821703,-9.773609161376953
1.7294974911160556e+18,0.06802116334438324,0.017061738297343254,-9.849903106689453
1.7294974911250557e+18,0.07529366761445999,-0.002306827111169696,-9.82778263092041
1.729497491134056e+18,-0.10003998875617981,0.01795712113380432,-9.885984420776367
1.7294974911430561e+18,0.014830263331532478,0.04371718317270279,-9.762201309204102
1.7294974911520563e+18,0.01743495836853981,0.018732627853751183,-9.752431869506836
1.7294974911610565e+18,0.032672010362148285,0.09075183421373367,-9.78494644165039
1.7294974911700567e+18,0.045420531183481216,-0.026935486122965813,-9.79484748840332
1.729497491179057e+18,-0.01711614988744259,0.0017581988358870149,-9.760218620300293
1.729497491188057e+18,-0.048917144536972046,0.06764096766710281,-9.825186729431152
1.7294974911970573e+18,0.08000072091817856,-0.06117013096809387,-9.863539695739746
1.7294974912060575e+18,0.053151242434978485,0.04749524965882301,-9.791345596313477
1.7294974912150577e+18,0.006057575345039368,-0.07221999019384384,-9.792217254638672
1.7294974912210578e+18,-0.01772373914718628,0.06777969002723694,-9.76370906829834
1.729497491230058e+18,0.010566312819719315,0.08122043311595917,-9.834688186645508
1.7294974912390582e+18,0.048766713589429855,-0.07160773128271103,-9.77996826171875
1.7294974912480584e+18,0.055090632289648056,-0.005819426849484444,-9.858649253845215
1.7294974912570586e+18,-0.010019583627581596,0.022844893857836723,-9.835556030273438
1.7294974912660588e+18,-0.025192607194185257,-0.04692906513810158,-9.819599151611328
1.729497491275059e+18,0.05343620851635933,0.03743460401892662,-9.824044227600098
1.7294974912840591e+18,0.12205785512924194,0.0460260771214962,-9.800867080688477
1.7294974912930593e+18,0.02156994305551052,0.03600086271762848,-9.745490074157715
1.7294974912990595e+18,-0.03409974277019501,0.015503907576203346,-9.727819442749023
1.7294974913080596e+18,-0.008289548568427563,0.03312702849507332,-9.807048797607422
1.7294974913170598e+18,-0.0615261010825634,-0.08478466421365738,-9.81002426147461
1.72949749132606e+18,-0.025708211585879326,-0.09326345473527908,-9.840456008911133
1.7294974913350602e+18,0.07237045466899872,0.05276884138584137,-9.760409355163574
1.7294974913440604e+18,0.002815858693793416,-0.039710287004709244,-9.775017738342285
1.7294974913500605e+18,-0.02895108051598072,0.03311274200677872,-9.739140510559082
1.7294974913590607e+18,0.06034017354249954,-0.0552697628736496,-9.78250789642334
1.729497491368061e+18,0.016303762793540955,0.030101235955953598,-9.77750015258789
1.729497491377061e+18,0.02187933586537838,0.020389482378959656,-9.81573486328125
1.7294974913860613e+18,0.00534357875585556,0.06505017727613449,-9.858186721801758
1.7294974913950615e+18,0.04703783616423607,-0.03689003363251686,-9.801451683044434
1.7294974914010616e+18,-0.019294550642371178,-0.028787728399038315,-9.818402290344238
1.7294974914100618e+18,-0.008561210706830025,0.004824255593121052,-9.710095405578613
1.729497491419062e+18,0.014191522262990475,0.08235644549131393,-9.89222240447998
1.7294974914280622e+18,-0.046522319316864014,0.0071264575235545635,-9.818796157836914
1.7294974914340623e+18,0.011238026432693005,-0.030985737219452858,-9.79036808013916
1.7294974914430625e+18,-0.04844221845269203,-0.01092420145869255,-9.80439567565918
1.7294974914520627e+18,-0.07200760394334793,0.04463982582092285,-9.860200881958008
1.7294974914580628e+18,-0.01089796144515276,-0.07224901765584946,-9.808616638183594
1.729497491467063e+18,-0.001291432767175138,-0.03578190132975578,-9.879902839660645
1.7294974914730632e+18,-0.04150356352329254,-0.04434879496693611,-9.71722412109375
1.7294974914820634e+18,0.028238756582140923,-0.029022861272096634,-9.819539070129395
1.7294974914910636e+18,-0.06434338539838791,0.01644439995288849,-9.857776641845703
1.7294974915000637e+18,0.012046449817717075,0.0037567324470728636,-9.753155708312988
1.729497491506064e+18,0.018557265400886536,0.025637302547693253,-9.863836288452148
1.729497491515064e+18,0.00937171746045351,-0.04710409790277481,-9.852705955505371
1.7294974915210642e+18,0.040303438901901245,0.026339078322052956,-9.76309871673584
1.729497491554065e+18,0.07063466310501099,-0.0602867528796196,-9.834068298339844
1.729497491563065e+18,0.012424652464687824,-0.011749809607863426,-9.809520721435547
1.7294974915690652e+18,0.026411347091197968,0.06013042479753494,-9.888894081115723
1.7294974915780654e+18,-0.026558473706245422,-0.08378583192825317,-9.833538055419922
1.7294974915870656e+18,0.01995610073208809,-0.0002858184161596,-9.791166305541992
1.7294974915960658e+18,0.03467460721731186,-0.04516113921999931,-9.843840599060059
1.729497491605066e+18,0.030560636892914772,0.004308565519750118,-9.761324882507324
1.729497491611066e+18,-0.023059654980897903,-0.036763932555913925,-9.821534156799316
1.7294974916200663e+18,0.019101224839687347,0.057962093502283096,-9.700986862182617
1.7294974916290665e+18,0.03840840980410576,0.009461253881454468,-9.841680526733398
1.7294974916380667e+18,0.04964952543377876,-0.046690359711647034,-9.75056266784668
1.7294974916440668e+18,0.0556565523147583,0.014917931519448757,-9.842238426208496
1.729497491653067e+18,0.057733554393053055,-0.0068108211271464825,-9.81081485748291
1.7294974916620672e+18,-0.03231032192707062,-0.029296107590198517,-9.775117874145508
1.7294974916680673e+18,0.01684981770813465,0.07802819460630417,-9.811874389648438
1.7294974916770675e+18,0.03117544949054718,0.04132598638534546,-9.790000915527344
1.7294974916860677e+18,0.012637820094823837,-0.045907989144325256,-9.856244087219238
1.729497491695068e+18,-0.014087101444602013,-0.002053317381069064,-9.767687797546387
1.729497491701068e+18,-0.053319744765758514,0.0053345924243330956,-9.724024772644043
1.7294974917100682e+18,-0.007907477207481861,-0.022592324763536453,-9.817748069763184
1.7294974917190684e+18,-0.026404861360788345,-0.008294027298688889,-9.903441429138184
1.7294974917280686e+18,0.011100174859166145,-0.05557509511709213,-9.849000930786133
1.7294974917370688e+18,0.03515736013650894,-0.021084807813167572,-9.83155345916748
1.729497491743069e+18,0.07961525768041611,0.05225174501538277,-9.899373054504395
1.729497491752069e+18,-0.010951212607324123,-0.061688415706157684,-9.880167007446289
1.7294974917610693e+18,0.04512287303805351,-0.03337554633617401,-9.791216850280762
1.7294974917700695e+18,-0.03768673166632652,-0.012064636684954166,-9.85400390625
1.7294974917790697e+18,0.0877067819237709,-0.03468017652630806,-9.79740047454834
1.7294974917850698e+18,0.028238743543624878,0.045415300875902176,-9.837038040161133
1.72949749179407e+18,-0.06908146291971207,-0.02854304015636444,-9.872708320617676
1.7294974918060703e+18,0.029551487416028976,0.01404138095676899,-9.823686599731445
1.7294974918120704e+18,-0.024009762331843376,0.026556309312582016,-9.934682846069336
1.7294974918210706e+18,0.037202365696430206,0.05735047161579132,-9.866864204406738
1.7294974918300708e+18,-0.08217276632785797,-0.03890429809689522,-9.927361488342285
1.729497491839071e+18,-0.026420218870043755,0.06854535639286041,-9.874017715454102
1.729497491845071e+18,-0.04389182850718498,-0.08174975961446762,-9.934789657592773
1.7294974918540713e+18,0.012437289580702782,0.03145654499530792,-9.988730430603027
1.7294974918630715e+18,-0.049930982291698456,-0.016839997842907906,-10.036544799804688
1.7294974918720717e+18,0.006609469652175903,0.015604744665324688,-10.044756889343262
1.7294974918810719e+18,0.009928523562848568,-0.038679689168930054,-10.045991897583008
1.729497491887072e+18,-0.05544878542423248,-0.002551465295255184,-9.908509254455566
1.7294974918960722e+18,0.10831943899393082,-0.014109572395682335,-10.041736602783203
1.7294974919050724e+18,-0.0634002685546875,0.050778213888406754,-10.029414176940918
1.7294974919140726e+18,0.06072498485445976,-0.011470629833638668,-10.140351295471191
1.7294974919230728e+18,-0.04971146956086159,0.008686142042279243,-10.09986686706543
1.729497491929073e+18,0.014923983253538609,-0.10260643810033798,-10.10083293914795
1.729497491938073e+18,0.05412985384464264,-0.07242562621831894,-10.103469848632812
1.7294974919470733e+18,-0.0413317047059536,-0.019485753029584885,-10.153288841247559
1.7294974919530734e+18,0.03630468249320984,-0.013304224237799644,-10.25271987915039
1.7294974919620736e+18,-0.007271410431712866,-0.03560662642121315,-10.419272422790527
1.7294974919710738e+18,0.053882189095020294,0.04470663145184517,-10.443028450012207
1.729497491980074e+18,-0.06971023976802826,-0.042942777276039124,-10.496265411376953
1.729497491986074e+18,0.0007804647320881486,-0.025470539927482605,-10.56800365447998
1.7294974919980744e+18,-0.005988745484501123,-0.011596090160310268,-10.529401779174805
1.7294974920070746e+18,0.04203599691390991,0.047318559139966965,-10.461145401000977
1.7294974920130747e+18,-0.06465301662683487,0.024641215801239014,-10.527454376220703
1.729497492022075e+18,0.0029283775947988033,-0.018452098593115807,-10.535893440246582
1.729497492031075e+18,0.02000315673649311,0.00454114330932498,-10.52497386932373
1.7294974920400753e+18,-0.04476146399974823,-0.022928155958652496,-10.599712371826172
1.7294974920490755e+18,-0.057289183139801025,-0.021075265482068062,-10.546850204467773
1.7294974920580756e+18,0.03181706368923187,-0.013682414777576923,-10.616694450378418
1.7294974920670758e+18,0.10658343881368637,0.018514905124902725,-10.613446235656738
1.729497492076076e+18,-0.04473748803138733,-0.02734706923365593,-10.640385627746582
1.7294974920850762e+18,-0.010804729536175728,-0.022697746753692627,-10.486127853393555
1.7294974920940764e+18,0.021435920149087906,0.07283526659011841,-10.531659126281738
1.7294974921000765e+18,-0.010946695692837238,0.037770528346300125,-10.614458084106445
1.7294974921090767e+18,-0.026686644181609154,0.06982390582561493,-10.544759750366211
1.729497492118077e+18,0.013499579392373562,0.03531518578529358,-10.552593231201172
1.729497492124077e+18,0.006563260685652494,0.0209323912858963,-10.581335067749023
1.7294974921330772e+18,-0.011476832441985607,0.005725453142076731,-10.604817390441895
1.7294974921420774e+18,0.03500835970044136,-0.002802575007081032,-10.615044593811035
1.7294974921480776e+18,-0.0009360634721815586,-0.013014424592256546,-10.622565269470215
1.7294974921570778e+18,-0.005507000721991062,-0.07072742283344269,-10.67142391204834
1.729497492166078e+18,0.03401939198374748,-0.010718291625380516,-10.662561416625977
1.7294974921750781e+18,-0.02056870236992836,-0.02968464605510235,-10.57490348815918
1.7294974921840783e+18,0.016633138060569763,0.030560016632080078,-10.564509391784668
1.7294974921900785e+18,-0.016950460150837898,-0.024616481736302376,-10.630012512207031
1.7294974921990787e+18,0.11072476208209991,0.03315114602446556,-10.56741714477539
1.7294974922080788e+18,0.045902326703071594,0.06313899159431458,-10.660852432250977
1.729497492214079e+18,0.011431904509663582,-0.0356205478310585,-10.614211082458496
1.7294974922230792e+18,-0.019558563828468323,0.015171787701547146,-10.521431922912598
1.7294974922290793e+18,-0.04194219410419464,0.042794905602931976,-10.570631980895996
1.7294974922380795e+18,-0.03914957121014595,0.0892275869846344,-10.607073783874512
1.7294974922470797e+18,-0.05039600282907486,0.06060280278325081,-10.603458404541016
1.72949749225608e+18,-0.02188216708600521,0.05948784947395325,-10.540980339050293
1.72949749226208e+18,0.024164937436580658,-0.06154949963092804,-10.594342231750488
1.7294974922710802e+18,-0.05618639290332794,-0.025374894961714745,-10.581698417663574
1.7294974922800804e+18,-0.03171287477016449,0.03382011130452156,-10.523200988769531
1.7294974922860805e+18,0.08588223904371262,0.07325620949268341,-10.634143829345703
1.7294974922950807e+18,0.05844566226005554,-0.02371635101735592,-10.61826229095459
1.729497492304081e+18,0.02696283347904682,0.0423247292637825,-10.616289138793945
1.729497492313081e+18,-0.055079568177461624,-0.06803297251462936,-10.587512016296387
1.7294974923190812e+18,0.026841912418603897,-0.02400786429643631,-10.652922630310059
1.7294974923280814e+18,0.029238659888505936,0.11542465537786484,-10.582488059997559
1.7294974923340815e+18,0.043886713683605194,-0.020931938663125038,-10.556476593017578
1.7294974923430817e+18,-0.021043967455625534,0.10677269846200943,-10.593369483947754
1.7294974923490819e+18,-0.0508948415517807,0.032794058322906494,-10.606395721435547
1.729497492358082e+18,-0.07879305630922318,0.0005625511985272169,-10.710025787353516
1.7294974923670822e+18,-0.009678605012595654,0.058214135468006134,-10.66251277923584
1.7294974923730824e+18,-0.038762081414461136,0.01811988465487957,-10.628198623657227
1.7294974923820826e+18,3.356253728270531e-05,0.004869322292506695,-10.617033958435059
1.7294974923910828e+18,0.02531822957098484,-0.04943621903657913,-10.639891624450684
1.729497492400083e+18,-0.0219514649361372,0.01973855495452881,-10.59068775177002
1.7294974924090831e+18,0.0351116843521595,0.01735074631869793,-10.581304550170898
1.7294974924150833e+18,0.015446921810507774,0.023661041632294655,-10.648298263549805
1.7294974924240835e+18,0.09088422358036041,-0.030294889584183693,-10.638605117797852
1.7294974924330836e+18,0.02339961938560009,0.03882526606321335,-10.64029312133789
1.7294974924390838e+18,0.0646306723356247,0.04091058671474457,-10.590797424316406
1.729497492448084e+18,-0.01747445948421955,0.004890431649982929,-10.565977096557617
1.7294974924570842e+18,-0.020537523552775383,-0.018053770065307617,-10.619956016540527
1.7294974924660844e+18,-0.009695608168840408,-0.030695542693138123,-10.6393461227417
1.7294974924750845e+18,0.011693328619003296,-0.014069931581616402,-10.654328346252441
1.7294974924810847e+18,-0.009766941890120506,0.02847612276673317,-10.647953033447266
1.7294974924900849e+18,0.05502628907561302,-0.05190493166446686,-10.559758186340332
1.729497492499085e+18,0.02357666939496994,0.002686654683202505,-10.523241996765137
1.7294974925080852e+18,0.05000514164566994,0.00788287352770567,-10.647311210632324
1.7294974925170854e+18,-0.06001397222280502,0.03760683164000511,-10.586602210998535
1.7294974925290857e+18,0.02223207615315914,-0.07325473427772522,-10.651571273803711
1.729497492541086e+18,-0.08643689006567001,-0.025498734787106514,-10.623952865600586
1.7294974925500861e+18,-0.035953089594841,-0.03064454346895218,-10.567837715148926
1.7294974925560863e+18,-0.01807345077395439,0.012367850169539452,-10.566652297973633
1.7294974925650865e+18,-0.0016510703135281801,0.01681908406317234,-10.617264747619629
1.7294974925740867e+18,-0.019737467169761658,0.012905292212963104,-10.56605052947998
1.7294974925800868e+18,-0.03487648814916611,0.10510297119617462,-10.57399845123291
1.729497492589087e+18,0.042750269174575806,0.048160653561353683,-10.598456382751465
1.7294974925980872e+18,0.02005641721189022,-0.003400950226932764,-10.598601341247559
1.7294974926040873e+18,0.007588038221001625,0.024068525061011314,-10.663837432861328
1.7294974926130875e+18,-0.0184213574975729,0.0760364755988121,-10.510529518127441
1.7294974926220877e+18,0.0027283085510134697,-0.011237609200179577,-10.63078498840332
1.7294974926310879e+18,-0.018228061497211456,-0.010677340440452099,-10.583283424377441
1.729497492637088e+18,0.0012408655602484941,0.006657886318862438,-10.624605178833008
1.7294974926460882e+18,0.0166423711925745,-0.01964557357132435,-10.655834197998047
1.7294974926550884e+18,0.021220235154032707,0.012447269633412361,-10.582447052001953
1.7294974926610885e+18,0.02160005271434784,0.01298938412219286,-10.595038414001465
1.7294974926700887e+18,-0.027579961344599724,0.038088031113147736,-10.642728805541992
1.729497492679089e+18,-0.07640402019023895,-0.06909327208995819,-10.555082321166992
1.729497492688089e+18,0.01494795735925436,-0.024607637897133827,-10.70940113067627
1.7294974926940892e+18,-0.05509807541966438,0.057636559009552,-10.593940734863281
1.7294974927030894e+18,-0.03727816045284271,0.04362722486257553,-10.630367279052734
1.7294974927120896e+18,-0.05543779954314232,0.015782229602336884,-10.569069862365723
1.7294974927210898e+18,-0.048570290207862854,-0.026330024003982544,-10.595027923583984
1.72949749273009e+18,0.033821966499090195,-0.02745938114821911,-10.472229957580566
1.72949749273609e+18,-0.08448734134435654,-0.07324938476085663,-10.574054718017578
1.7294974927450903e+18,0.09939990937709808,0.011730458587408066,-10.625134468078613
1.7294974927540905e+18,0.08038116991519928,-0.039550550282001495,-10.640344619750977
1.7294974927630907e+18,0.011785684153437614,0.020127635449171066,-10.609190940856934
1.729497492772091e+18,0.028392869979143143,-0.010409743525087833,-10.651054382324219
1.729497492778091e+18,0.03610016778111458,-0.027624892070889473,-10.630131721496582
1.7294974927870912e+18,-0.0030162299517542124,0.031160559505224228,-10.54471492767334
1.7294974927930913e+18,-0.02776380442082882,0.004968779161572456,-10.478348731994629
1.7294974928020915e+18,0.03066287562251091,0.08106791228055954,-10.55607795715332
1.7294974928110917e+18,-0.014939788728952408,-0.027087148278951645,-10.590106010437012
1.729497492820092e+18,-0.04240639507770538,-0.009922108612954617,-10.603201866149902
1.729497492826092e+18,-0.04706896096467972,-0.04806773364543915,-10.497533798217773
1.7294974928350922e+18,0.03350776433944702,-0.049849480390548706,-10.567279815673828
1.7294974928440924e+18,-0.06935686618089676,0.0639551505446434,-10.567519187927246
1.7294974928500925e+18,-0.016203872859477997,-0.049312468618154526,-10.530352592468262
1.7294974928590927e+18,0.0054900129325687885,0.0473143607378006,-10.554808616638184
1.729497492868093e+18,0.04267096891999245,0.016643473878502846,-10.567946434020996
1.729497492877093e+18,0.00040593562880530953,0.02118556946516037,-10.600415229797363
1.7294974928830932e+18,-0.02022140845656395,0.06550554186105728,-10.54534912109375
1.7294974928920934e+18,-0.0051185935735702515,-0.00816557090729475,-10.565823554992676
1.7294974929010936e+18,0.03130359947681427,0.03798849135637283,-10.504096031188965
1.7294974929100938e+18,-0.02464239113032818,0.09704195708036423,-10.511929512023926
1.729497492919094e+18,0.023889947682619095,-0.01888512447476387,-10.620402336120605
1.7294974929250941e+18,-0.055917344987392426,-0.02892824448645115,-10.520548820495605
1.7294974929340943e+18,-0.06639029085636139,0.05869007110595703,-10.586288452148438
1.7294974929430945e+18,0.01287633553147316,0.03457501903176308,-10.526948928833008
1.7294974929520947e+18,-0.05179606378078461,0.01944328099489212,-10.594817161560059
1.729497492961095e+18,-0.07173941284418106,0.024783039465546608,-10.605539321899414
1.729497492967095e+18,-0.01839470863342285,-0.050757996737957,-10.482766151428223
1.7294974929760952e+18,0.0747053399682045,0.013496768660843372,-10.483854293823242
1.7294974929880955e+18,-0.04092597961425781,-0.03143450990319252,-10.50422191619873
1.7294974929970957e+18,0.05142844468355179,-0.04676658660173416,-10.593133926391602
1.729497493006096e+18,-0.0010331043740734458,0.06144600361585617,-10.536974906921387
1.729497493015096e+18,0.02882567048072815,0.035847052931785583,-10.483636856079102
1.7294974930240963e+18,0.053894951939582825,-0.08154811710119247,-10.478424072265625
1.7294974930330964e+18,0.04181893169879913,-0.01995118521153927,-10.51297378540039
1.7294974930420966e+18,0.030947839841246605,0.08081226795911789,-10.604151725769043
1.7294974930510968e+18,-0.07580514997243881,0.024750884622335434,-10.57298755645752
1.729497493057097e+18,0.06437213718891144,-0.00320538692176342,-10.555633544921875
1.7294974930660972e+18,0.00206801132299006,0.08232688903808594,-10.588035583496094
1.7294974930750973e+18,-0.054784588515758514,-0.053657546639442444,-10.60955810546875
1.7294974930840975e+18,-0.002418860560283065,0.06624901294708252,-10.513216972351074
1.7294974930930977e+18,-0.0027508472558110952,0.07502933591604233,-10.442752838134766
1.729497493102098e+18,0.030326493084430695,-0.024029193446040154,-10.67187786102295
1.729497493111098e+18,0.017495712265372276,0.0671207532286644,-10.543856620788574
1.7294974931200983e+18,-0.013347232714295387,0.013399658724665642,-10.46489143371582
1.7294974931260984e+18,0.0135807441547513,-0.03342306613922119,-10.518451690673828
1.7294974931380987e+18,0.009698819369077682,0.013413863256573677,-10.541906356811523
1.7294974931440988e+18,-0.08180155605077744,0.03734354302287102,-10.507621765136719
1.729497493153099e+18,-0.04409061744809151,-0.04096727818250656,-10.45799732208252
1.7294974931620992e+18,0.01235755905508995,0.0057615539990365505,-10.501733779907227
1.7294974931710994e+18,0.08347142487764359,0.043420255184173584,-10.454598426818848
1.7294974931800996e+18,-0.013705730438232422,0.025057854130864143,-10.447099685668945
1.7294974931860997e+18,0.005200827959924936,0.0005108785117045045,-10.415630340576172
1.7294974931951e+18,-0.0484122633934021,-0.06804794818162918,-10.488953590393066
1.7294974932041e+18,-0.04037728160619736,-0.03094352036714554,-10.525644302368164
1.7294974932131003e+18,0.005592680536210537,-0.015485499985516071,-10.453733444213867
1.7294974932221005e+18,-0.07786666601896286,0.008251662366092205,-10.487608909606934
1.7294974932311007e+18,0.0023237313143908978,-0.08711200952529907,-10.523337364196777
1.7294974932401009e+18,-0.0951332151889801,-0.0015741168754175305,-10.495464324951172
1.729497493249101e+18,-0.053262047469615936,-0.020054219290614128,-10.49410343170166
1.7294974932581012e+18,-0.024914536625146866,0.01261897198855877,-10.516189575195312
1.7294974932641014e+18,-0.03527216613292694,-0.008722097612917423,-10.529488563537598
1.7294974932731016e+18,0.030175670981407166,0.018602726981043816,-10.597030639648438
1.7294974932821018e+18,-0.03312021493911743,0.036162421107292175,-10.475140571594238
1.729497493291102e+18,0.024599330499768257,0.06751426309347153,-10.42890453338623
1.729497493297102e+18,-0.09138540178537369,0.024333467707037926,-10.417501449584961
1.7294974933061023e+18,0.04778308793902397,0.007296936586499214,-10.382519721984863
1.7294974933151025e+18,0.016645345836877823,-0.054180219769477844,-10.447382926940918
1.7294974933241027e+18,0.0144838597625494,-0.017404833808541298,-10.336356163024902
1.7294974933301028e+18,0.038613878190517426,-0.025924967601895332,-10.361340522766113
1.729497493339103e+18,-0.045773882418870926,-0.03470858186483383,-10.348039627075195
1.7294974933481032e+18,0.042720258235931396,-0.03757268935441971,-10.284567832946777
1.7294974933571034e+18,0.013178101740777493,0.007068975828588009,-10.27556324005127
1.7294974933661036e+18,0.0022968726698309183,0.025388209149241447,-10.174391746520996
1.7294974933751037e+18,-0.024776499718427658,-0.04097864776849747,-10.25084400177002
1.7294974933811039e+18,0.006056541111320257,-0.03761991485953331,-10.270903587341309
1.729497493390104e+18,-0.02350839041173458,0.014622421935200691,-10.146533012390137
1.7294974933991043e+18,-0.018286116421222687,-0.0032093352638185024,-10.147661209106445
1.7294974934081044e+18,-0.03450658172369003,0.03356928005814552,-10.167853355407715
1.7294974934141046e+18,0.015795517712831497,0.059287186712026596,-10.179581642150879
1.7294974934231048e+18,-0.006756375078111887,0.03712175786495209,-10.13607120513916
1.729497493432105e+18,0.0018239780329167843,0.021938074380159378,-10.044928550720215
1.7294974934411052e+18,0.0021092661190778017,-0.008867628872394562,-10.015629768371582
1.7294974934501053e+18,0.053272854536771774,0.03608256205916405,-10.01284408569336
1.7294974934591055e+18,0.06897809356451035,0.08989547193050385,-9.931078910827637
1.7294974934681057e+18,0.039965853095054626,0.0037690617609769106,-9.97100830078125
1.729497493477106e+18,0.07089469581842422,0.0035577663220465183,-9.857178688049316
1.729497493486106e+18,0.07161574065685272,0.023636989295482635,-9.913372993469238
1.7294974934951063e+18,0.07210205495357513,-0.039120420813560486,-9.819441795349121
1.7294974935011064e+18,-0.006842870730906725,-0.0434555783867836,-9.8673734664917
1.7294974935131067e+18,0.021817125380039215,0.01259811781346798,-9.801280975341797
1.7294974935191068e+18,0.03456635773181915,-0.05680719017982483,-9.773359298706055
1.729497493528107e+18,-0.014075751416385174,-0.06048450991511345,-9.750651359558105
1.7294974935371072e+18,0.034617215394973755,0.052324384450912476,-9.817501068115234
1.7294974935461074e+18,0.03277767077088356,0.002215804299339652,-9.754858016967773
1.7294974935521075e+18,-0.011173758655786514,0.005404619500041008,-9.699834823608398
1.7294974935611077e+18,0.06022131070494652,0.0058649214915931225,-9.625391006469727
1.729497493570108e+18,-0.026981737464666367,0.019974879920482635,-9.617337226867676
1.729497493579108e+18,-0.01957528293132782,-0.05372310057282448,-9.621256828308105
1.7294974935881083e+18,0.058611348271369934,-0.024027716368436813,-9.662224769592285
1.7294974935971085e+18,0.025177039206027985,-0.022443551570177078,-9.664650917053223
1.7294974936061087e+18,0.028759857639670372,0.028782298788428307,-9.646929740905762
1.7294974936151089e+18,-0.022426046431064606,-0.03794609382748604,-9.71440601348877
1.729497493624109e+18,-0.06535166501998901,-0.07654598355293274,-9.671303749084473
1.7294974936331092e+18,-0.031510476022958755,-0.03030627965927124,-9.55750560760498
1.7294974936421094e+18,-0.03583671897649765,0.012655355967581272,-9.68782901763916
1.7294974936511096e+18,0.011148054152727127,0.08354930579662323,-9.687479972839355
1.7294974936601098e+18,-0.00482705095782876,0.0070563629269599915,-9.686688423156738
1.72949749366911e+18,-0.005542656406760216,-0.08078154921531677,-9.663134574890137
1.7294974936781102e+18,0.028388651087880135,0.04141497239470482,-9.64816951751709
1.7294974936871104e+18,-0.029086848720908165,-0.015851425006985664,-9.686201095581055
1.7294974936961106e+18,-0.03702250123023987,0.02012767270207405,-9.655531883239746
1.7294974937051108e+18,0.04936587065458298,-0.00046721199760213494,-9.619768142700195
1.729497493714111e+18,-0.007628541439771652,-0.0386027917265892,-9.646224975585938
1.7294974937231112e+18,-0.05057932808995247,0.031090814620256424,-9.6043062210083
1.7294974937321114e+18,-0.029829123988747597,0.001256339717656374,-9.62624740600586
1.7294974937411116e+18,-0.096791572868824,0.02801516465842724,-9.638822555541992
1.7294974937501117e+18,0.02422177791595459,-0.0013406071811914444,-9.62432861328125
1.729497493759112e+18,-0.020832180976867676,0.006898354738950729,-9.651030540466309
1.729497493768112e+18,-0.12135744094848633,-0.03422187268733978,-9.596447944641113
1.7294974937771123e+18,-0.011091295629739761,0.009363963268697262,-9.587675094604492
1.7294974937861125e+18,-0.006201325450092554,0.026428621262311935,-9.590361595153809
1.7294974937951127e+18,-0.003292878856882453,-0.0077987536787986755,-9.598909378051758
1.7294974938011128e+18,0.06121433153748512,-0.06361284106969833,-9.652716636657715
1.729497493810113e+18,0.0023542263079434633,-0.03735871985554695,-9.644255638122559
1.7294974938191132e+18,-0.06585067510604858,0.02029411308467388,-9.545893669128418
1.7294974938281134e+18,-0.0177755244076252,-0.03859580308198929,-9.616276741027832
1.7294974938371136e+18,-0.012254592031240463,-0.03139064833521843,-9.659619331359863
1.7294974938461138e+18,0.022232240065932274,-0.05600127577781677,-9.573322296142578
1.729497493855114e+18,0.022718138992786407,0.0011588066117838025,-9.573640823364258
1.7294974938641142e+18,0.020190397277474403,0.027536259964108467,-9.60543155670166
1.7294974938731144e+18,-0.051023464649915695,0.06965306401252747,-9.605443954467773
1.7294974938851146e+18,-0.040224235504865646,0.040717609226703644,-9.654804229736328
1.7294974938941148e+18,-0.0008567676413804293,0.023814940825104713,-9.551811218261719
1.729497493900115e+18,-0.051332566887140274,-0.014887717552483082,-9.58853530883789
1.7294974939091151e+18,-0.017705660313367844,-0.0017024432308971882,-9.658807754516602
1.7294974939181153e+18,0.02151147648692131,0.011795649304986,-9.577954292297363
1.7294974939271155e+18,-0.02825658582150936,-0.05011606216430664,-9.606635093688965
1.7294974939361157e+18,-0.016592804342508316,0.004691950511187315,-9.641921043395996
1.7294974939421158e+18,-0.03132385015487671,-0.0034911110997200012,-9.599627494812012
1.729497493951116e+18,-0.038586147129535675,0.009318774566054344,-9.588777542114258
1.7294974939601162e+18,0.020650714635849,0.05842796713113785,-9.657455444335938
1.7294974939661164e+18,0.015386443585157394,0.006504740100353956,-9.514869689941406
1.7294974939751165e+18,-0.054284192621707916,0.015803620219230652,-9.571125984191895
1.7294974939841167e+18,-0.03872551769018173,0.03382623568177223,-9.645276069641113
1.729497493993117e+18,-0.04275594651699066,0.05017625913023949,-9.603338241577148
1.729497494002117e+18,-0.012185048311948776,0.03381987288594246,-9.641067504882812
1.7294974940111173e+18,0.050957776606082916,0.05879984050989151,-9.570369720458984
1.7294974940201175e+18,-0.00037298546521924436,-0.049792274832725525,-9.57990837097168
1.7294974940261176e+18,-0.08022596687078476,-0.046864621341228485,-9.629629135131836
1.7294974940351178e+18,-0.03615313395857811,0.0015042214654386044,-9.577618598937988
1.729497494041118e+18,0.0043991077691316605,-0.03708305582404137,-9.608375549316406
1.7294974940501181e+18,0.026306146755814552,0.021975038573145866,-9.615659713745117
1.7294974940591183e+18,-0.016993427649140358,-0.05748438835144043,-9.556886672973633
1.7294974940681185e+18,-0.016915593296289444,0.008810337632894516,-9.543638229370117
1.7294974940771187e+18,0.017984719946980476,0.020842254161834717,-9.518834114074707
1.729497494086119e+18,-0.04675211384892464,-0.06558956950902939,-9.589818000793457
1.729497494092119e+18,0.02933470904827118,-0.03967517241835594,-9.645659446716309
1.7294974941011192e+18,-0.05676884949207306,-0.07275067269802094,-9.652949333190918
1.7294974941101194e+18,-0.01517817284911871,-0.027350150048732758,-9.552764892578125
1.7294974941191196e+18,0.017454572021961212,0.019816048443317413,-9.608243942260742
1.7294974941251197e+18,0.02228705957531929,-0.009971313178539276,-9.610793113708496
1.72949749413712e+18,-0.007635659538209438,0.01864437945187092,-9.574137687683105
1.7294974941431201e+18,0.01827780343592167,-0.0029979064129292965,-9.613760948181152
1.7294974941521203e+18,0.045494791120290756,0.021677467972040176,-9.506098747253418
1.7294974941611205e+18,0.01395902968943119,0.0005038115195930004,-9.550480842590332
1.7294974941701207e+18,-0.09430790692567825,-0.029403017833828926,-9.467269897460938
1.729497494179121e+18,0.04459984600543976,0.05401626601815224,-9.510652542114258
1.729497494188121e+18,0.03668714314699173,0.00159229408018291,-9.483088493347168
1.7294974941971213e+18,0.005370310507714748,-0.05248786509037018,-9.579686164855957
1.7294974942061215e+18,0.04545525088906288,-0.00726675521582365,-9.56751537322998
1.7294974942121216e+18,0.05209500715136528,0.014834919944405556,-9.61699390411377
1.7294974942211218e+18,0.007269503548741341,0.03438330069184303,-9.47017765045166
1.729497494230122e+18,0.004296927712857723,0.0067601981572806835,-9.566880226135254
1.7294974942391222e+18,0.017239678651094437,-0.035938818007707596,-9.558051109313965
1.7294974942451223e+18,-0.021662482991814613,0.004131190944463015,-9.505170822143555
1.7294974942541225e+18,0.05698968842625618,-0.045111846178770065,-9.532073020935059
1.7294974942631227e+18,0.03851940110325813,-0.0015186227392405272,-9.574819564819336
1.729497494272123e+18,-0.019913865253329277,-0.0038661002181470394,-9.607856750488281
1.729497494281123e+18,-0.05430319905281067,-0.026675689965486526,-9.597683906555176
1.7294974942901233e+18,0.014042993076145649,-0.0016942248912528157,-9.516960144042969
1.7294974942961234e+18,-0.047423772513866425,-0.03399013727903366,-9.538482666015625
1.7294974943051236e+18,-0.016543898731470108,0.02566232718527317,-9.591328620910645
1.7294974943141238e+18,-0.06912963092327118,0.028529377654194832,-9.515583038330078
1.729497494323124e+18,0.034784335643053055,0.022674880921840668,-9.515380859375
1.729497494329124e+18,0.013739993795752525,0.08637324720621109,-9.499953269958496
1.7294974943381243e+18,0.019134512171149254,0.061432741582393646,-9.521743774414062
1.7294974943471245e+18,-0.030677102506160736,0.0690399780869484,-9.489706993103027
1.7294974943531246e+18,-0.02925455942749977,0.0710788145661354,-9.48477554321289
1.7294974943621248e+18,-0.01787789724767208,-0.055768780410289764,-9.503724098205566
1.729497494371125e+18,-0.043197955936193466,-0.03553961217403412,-9.483134269714355
1.7294974943801252e+18,-0.048089928925037384,-0.004536416847258806,-9.586492538452148
1.7294974943891254e+18,0.06562169641256332,-0.027302179485559464,-9.550751686096191
1.7294974943981256e+18,-0.06719288975000381,-0.025544455274939537,-9.493803977966309
1.7294974944041257e+18,-0.016504531726241112,0.0027023302391171455,-9.516212463378906
1.729497494413126e+18,-0.04449894279241562,0.020827367901802063,-9.58615493774414
1.729497494419126e+18,-0.015188352204859257,-0.0420369952917099,-9.586249351501465
1.7294974944281262e+18,0.031226197257637978,0.05180209502577782,-9.527434349060059
1.7294974944371264e+18,0.0006622906075790524,0.07526096701622009,-9.489216804504395
1.7294974944461266e+18,0.07815949618816376,-0.01692136563360691,-9.586688995361328
1.7294974944521267e+18,-0.016809580847620964,-0.012871555052697659,-9.450798034667969
1.729497494461127e+18,-0.04811405763030052,-0.026641227304935455,-9.462810516357422
1.729497494470127e+18,-0.005298732779920101,-0.05931956321001053,-9.481180191040039
1.7294974944761272e+18,-0.07636290788650513,-0.03340034931898117,-9.50142765045166
1.7294974944851274e+18,0.014177197590470314,0.041439518332481384,-9.480746269226074
1.7294974944941276e+18,0.03897332027554512,-0.02069682627916336,-9.565850257873535
1.7294974945001277e+18,0.0713193342089653,-0.024288956075906754,-9.595703125
1.729497494509128e+18,0.04375438764691353,0.0130190160125494,-9.506062507629395
1.729497494518128e+18,0.04692791402339935,0.05886403098702431,-9.476982116699219
1.7294974945241283e+18,-3.3711345167830586e-05,0.03775237873196602,-9.480340957641602
1.7294974945331284e+18,0.035693712532520294,0.10295518487691879,-9.50169563293457
1.7294974945421286e+18,0.04241081699728966,-0.11504364758729935,-9.444782257080078
1.7294974945511288e+18,0.00024914913228712976,-0.04742627963423729,-9.50119686126709
1.729497494560129e+18,-0.0756494551897049,0.04458492249250412,-9.535785675048828
1.7294974945691292e+18,0.05941464751958847,-0.019369659945368767,-9.547649383544922
1.7294974945751293e+18,0.08793658018112183,-0.01607026718556881,-9.50846004486084
1.7294974945841295e+18,0.09604142606258392,-0.005051912274211645,-9.482297897338867
1.7294974945931297e+18,0.008592972531914711,-0.050430651754140854,-9.512796401977539
1.7294974945991299e+18,0.008748747408390045,0.08594969660043716,-9.483097076416016
1.72949749460813e+18,0.058560341596603394,1.7032376490533352e-05,-9.511582374572754
1.7294974946171302e+18,-0.06628571450710297,0.027911119163036346,-9.439603805541992
1.7294974946261304e+18,-0.06630290299654007,0.010142646729946136,-9.476948738098145
1.7294974946321306e+18,0.032106202095746994,0.0771198496222496,-9.500631332397461
1.7294974946411308e+18,-0.046298135071992874,0.032651159912347794,-9.51606559753418
1.729497494650131e+18,-0.041653674095869064,0.02030935510993004,-9.435944557189941
1.7294974946591311e+18,-0.11020702868700027,-0.09455415606498718,-9.409416198730469
1.7294974946651313e+18,-0.0401645302772522,0.004504331853240728,-9.536299705505371
1.7294974946741315e+18,0.04309573397040367,0.024030737578868866,-9.515542030334473
1.7294974946831316e+18,0.0018943639006465673,0.022604765370488167,-9.452973365783691
1.7294974946921318e+18,-0.006552349776029587,-0.05234091356396675,-9.468088150024414
1.729497494698132e+18,-0.042259592562913895,-0.026182249188423157,-9.503159523010254
1.7294974947071322e+18,-0.00732410978525877,0.029956037178635597,-9.458283424377441
1.7294974947161324e+18,-0.02385900355875492,0.004000144079327583,-9.411845207214355
1.7294974947221325e+18,-0.038301318883895874,0.006240524351596832,-9.438135147094727
1.7294974947311327e+18,-0.04070145636796951,-0.02434036321938038,-9.45517349243164
1.7294974947401329e+18,0.038961105048656464,0.007262926083058119,-9.479703903198242
1.729497494746133e+18,0.011647780425846577,-0.01608254201710224,-9.480778694152832
1.7294974947551332e+18,0.02662474848330021,0.01568855531513691,-9.432360649108887
1.7294974947641334e+18,-0.08991632610559464,0.0282367505133152,-9.447311401367188
1.7294974947731336e+18,-0.02680598944425583,-0.026435602456331253,-9.434656143188477
1.7294974947791337e+18,-0.022699547931551933,0.044658113270998,-9.485264778137207
1.729497494788134e+18,0.01677270047366619,-0.005349299870431423,-9.488837242126465
1.729497494797134e+18,0.017787262797355652,0.06017798185348511,-9.505897521972656
1.7294974948031342e+18,-0.02454720251262188,0.03708890080451965,-9.46597957611084
1.7294974948121344e+18,0.001931992475874722,0.052432261407375336,-9.469297409057617
1.7294974948211346e+18,0.045527469366788864,0.007668532431125641,-9.483322143554688
1.7294974948301348e+18,-0.015017477795481682,0.041238147765398026,-9.443751335144043
1.729497494839135e+18,0.0021702121011912823,-0.03854165971279144,-9.462830543518066
1.729497494845135e+18,-0.00858796015381813,-0.02799525484442711,-9.507564544677734
1.7294974948541353e+18,0.0176287479698658,-0.04917517676949501,-9.35262393951416
1.7294974948631355e+18,-0.01038365252315998,-0.03195144608616829,-9.382787704467773
1.7294974948691356e+18,-0.02378740720450878,0.09827826917171478,-9.392556190490723
1.7294974948781358e+18,-0.018073055893182755,-0.021599115803837776,-9.451902389526367
1.729497494884136e+18,-0.02919062040746212,0.009714220650494099,-9.435997009277344
1.7294974948931361e+18,-0.03382641822099686,-0.010504716075956821,-9.513583183288574
1.7294974949021363e+18,0.034662071615457535,0.010147199034690857,-9.4537992477417
1.7294974949081364e+18,0.05927291512489319,0.04893476888537407,-9.442790985107422
1.7294974949171366e+18,-0.012273828499019146,0.01310791540890932,-9.437344551086426
1.7294974949261368e+18,-0.058014001697301865,0.008207944221794605,-9.472954750061035
1.729497494935137e+18,-0.019397035241127014,0.057662419974803925,-9.430673599243164
1.7294974949441372e+18,0.05088680610060692,0.02751038782298565,-9.404897689819336
1.7294974949501373e+18,-0.0036964488681405783,-0.01849021017551422,-9.423828125
1.7294974949591375e+18,-0.023208610713481903,0.09469913691282272,-9.324554443359375
1.7294974949681377e+18,-0.0182814784348011,0.06589845567941666,-9.453283309936523
1.7294974949741379e+18,0.021221062168478966,-0.048315808176994324,-9.445712089538574
1.729497494983138e+18,-0.03330158814787865,0.10868516564369202,-9.483685493469238
1.7294974949921382e+18,-0.05849923938512802,0.029852168634533882,-9.426977157592773
1.7294974949981384e+18,0.04809759557247162,-0.014733592048287392,-9.477681159973145
1.7294974950071386e+18,-0.07027341425418854,-0.06145818904042244,-9.408740997314453
1.7294974950161388e+18,0.04026538133621216,-0.0617402046918869,-9.365966796875
1.729497495025139e+18,-0.02301936037838459,0.10022582113742828,-9.322737693786621
1.7294974950341391e+18,0.005244167521595955,0.061059724539518356,-9.31881046295166
1.7294974950401393e+18,0.04453099146485329,-0.07339846342802048,-9.232739448547363
1.7294974950491395e+18,0.03982989862561226,-0.05145799741148949,-9.239033699035645
1.7294974950581396e+18,-0.026572341099381447,0.014181315898895264,-9.212318420410156
1.7294974950671398e+18,0.026599284261465073,-0.02424626052379608,-9.259124755859375
1.72949749507314e+18,-0.024223461747169495,-0.05088327080011368,-9.244702339172363
1.7294974950821402e+18,0.05316082760691643,0.03387031331658363,-9.105944633483887
1.7294974950911404e+18,-0.13070844113826752,0.014897635206580162,-9.171382904052734
1.7294974951001405e+18,0.039073120802640915,0.04541775956749916,-9.138642311096191
1.7294974951091407e+18,-0.03460752218961716,0.013283129781484604,-9.214325904846191
1.729497495118141e+18,0.02522154152393341,-0.03712789714336395,-9.086319923400879
1.729497495124141e+18,-0.02354293130338192,0.0005412144819274545,-9.099225997924805
1.7294974951331412e+18,-0.023407818749547005,0.03329582139849663,-9.021105766296387
1.7294974951421414e+18,-0.0914355143904686,-0.003403856884688139,-9.100415229797363
1.7294974951481416e+18,0.0058762370608747005,-0.0027535550761967897,-8.961469650268555
1.7294974951571418e+18,0.04788358882069588,-0.038012392818927765,-8.929521560668945
1.729497495166142e+18,-0.0019090987043455243,0.04949095845222473,-9.042516708374023
1.7294974951751421e+18,0.04084600508213043,0.0036053042858839035,-8.941057205200195
1.7294974951841423e+18,-0.009997803717851639,0.049230094999074936,-8.814888000488281
1.7294974951901425e+18,0.1049502044916153,-0.03513915091753006,-8.908853530883789
1.7294974951991427e+18,0.00905165821313858,-0.015582302585244179,-8.762622833251953
1.7294974952081428e+18,-0.04946649819612503,0.044325269758701324,-8.822519302368164
1.729497495217143e+18,-0.014986451715230942,-0.08205454051494598,-8.779582977294922
1.7294974952231432e+18,0.07095927000045776,-0.0063565196469426155,-8.732759475708008
1.7294974952321434e+18,-0.024482842534780502,-0.0056254626251757145,-8.71923828125
1.7294974952411436e+18,-0.011343717575073242,-0.04407120496034622,-8.725354194641113
1.7294974952471437e+18,0.049608346074819565,0.007908427156507969,-8.690672874450684
1.729497495256144e+18,0.04255635663866997,-0.03989790007472038,-8.641555786132812
1.729497495265144e+18,-0.04322785139083862,0.03390379622578621,-8.629549980163574
1.7294974952741443e+18,-0.056290507316589355,-0.005684230010956526,-8.552891731262207
1.7294974952801444e+18,-0.04774792864918709,0.0671599730849266,-8.680213928222656
1.7294974952891446e+18,0.005513060837984085,-0.024421697482466698,-8.60822582244873
1.7294974952981448e+18,-0.04469192028045654,-0.022872107103466988,-8.686005592346191
1.729497495307145e+18,-0.031855423003435135,0.02557123638689518,-8.695048332214355
1.7294974953161452e+18,0.030593927949666977,-0.0027028624899685383,-8.724618911743164
1.7294974953221453e+18,-0.02740173041820526,0.02365756593644619,-8.66740894317627
1.7294974953341455e+18,0.10106409341096878,0.03743064031004906,-8.737895011901855
1.7294974953401457e+18,0.023198222741484642,-0.04464345425367355,-13.888236045837402
1.7294974953491459e+18,0.006286547519266605,0.0207708440721035,-15.774168968200684
1.729497495358146e+18,0.01485039759427309,0.03787195682525635,-16.09870147705078
1.7294974953671462e+18,-0.03440600261092186,0.039639316499233246,-16.251691818237305
1.7294974953761464e+18,-0.06383341550827026,0.06348850578069687,-16.227022171020508
1.7294974953851466e+18,-0.07620175182819366,-0.0055932654067873955,-16.084951400756836
1.7294974953941468e+18,0.05408453941345215,-0.05079701170325279,-16.02452278137207
1.729497495400147e+18,-0.04051513224840164,-0.04723219946026802,-15.90434455871582
1.7294974954091471e+18,0.03541228175163269,0.012441106140613556,-15.701321601867676
1.7294974954181473e+18,0.03414125740528107,-0.032407574355602264,-15.739680290222168
1.7294974954271475e+18,0.04029083624482155,-0.07369011640548706,-15.603322982788086
1.7294974954331476e+18,-0.061283085495233536,-0.10695435106754303,-15.448464393615723
1.729497495445148e+18,-0.018546530976891518,-0.06468136608600616,-15.234410285949707
1.729497495454148e+18,-0.04240532964468002,0.05622638016939163,-15.115228652954102
1.7294974954601482e+18,-0.0439375564455986,-0.00034408795181661844,-14.993399620056152
1.7294974954691484e+18,-0.017508184537291527,-0.012480002827942371,-14.943028450012207
1.7294974954781486e+18,0.055963922291994095,0.0790020227432251,-14.802282333374023
1.7294974954871488e+18,0.01359692681580782,-0.09023328125476837,-14.634557723999023
1.729497495496149e+18,-0.026684952899813652,0.002691524336114526,-14.540416717529297
1.7294974955051492e+18,-0.009338532574474812,0.04063722491264343,-14.410833358764648
1.7294974955141494e+18,0.00769897922873497,0.015110423788428307,-14.44082260131836
1.7294974955231496e+18,-0.0648772343993187,0.0002807304263114929,-14.265396118164062
1.7294974955321498e+18,-0.02418266423046589,0.031765490770339966,-14.104765892028809
1.72949749553815e+18,0.04778038337826729,-0.02438056655228138,-13.982852935791016
1.72949749554715e+18,0.016241610050201416,-0.003998656757175922,-13.932962417602539
1.7294974955561503e+18,0.01195347961038351,0.04406416788697243,-13.873876571655273
1.7294974955651505e+18,-0.022652089595794678,0.0580531507730484,-13.727127075195312
1.7294974955741507e+18,0.0240660198032856,-0.02582632564008236,-13.648462295532227
1.7294974955801508e+18,-0.0722271129488945,-0.02736886776983738,-13.595636367797852
1.729497495589151e+18,-0.001373833860270679,0.033991631120443344,-13.477740287780762
1.7294974955981512e+18,0.002214055974036455,-0.037867654114961624,-13.406271934509277
1.7294974956071514e+18,-0.02374044433236122,0.05588465556502342,-13.356386184692383
1.7294974956131515e+18,0.08862713724374771,0.010780178010463715,-13.264028549194336
1.7294974956221517e+18,-0.011532990261912346,0.0005005815764889121,-13.159567832946777
1.7294974956311519e+18,0.025460824370384216,0.014560329727828503,-13.088960647583008
1.729497495640152e+18,-0.07675673812627792,0.060316696763038635,-12.942739486694336
1.7294974956491523e+18,0.023573175072669983,-0.005266978871077299,-12.926146507263184
1.7294974956551524e+18,0.0568036288022995,-0.03993428871035576,-12.987170219421387
1.7294974956641526e+18,-0.01621203124523163,-0.07280731946229935,-12.83304500579834
1.7294974956731528e+18,0.04045916348695755,-0.028479326516389847,-12.812384605407715
1.729497495682153e+18,-0.0016850554384291172,-0.06440331041812897,-12.733038902282715
1.729497495688153e+18,-0.05877475440502167,-0.03682418167591095,-12.616790771484375
1.7294974956971533e+18,-0.016200928017497063,-0.03701521083712578,-12.633259773254395
1.7294974957061535e+18,-0.05838753655552864,0.0495128333568573,-12.485501289367676
1.7294974957121536e+18,0.040351927280426025,0.018437597900629044,-12.514766693115234
1.7294974957211538e+18,0.022481977939605713,0.000807606615126133,-12.405333518981934
1.729497495730154e+18,0.0173666812479496,-0.004313579294830561,-12.294742584228516
1.7294974957391542e+18,-0.02090228907763958,-0.0177155751734972,-12.271221160888672
1.7294974957451543e+18,0.10794861614704132,-0.03579127788543701,-12.217516899108887
1.7294974957541545e+18,-0.020855139940977097,0.01376248337328434,-12.206610679626465
1.7294974957631547e+18,-0.003917051013559103,-0.03315558284521103,-12.084083557128906
1.729497495772155e+18,-0.008031563833355904,0.015744637697935104,-12.03704833984375
1.729497495778155e+18,-0.005782029591500759,0.02299487218260765,-12.131014823913574
1.7294974957871552e+18,-0.01907980442047119,-0.075619637966156,-12.005341529846191
1.7294974957931553e+18,-0.05919744074344635,-0.014779394492506981,-12.010398864746094
1.7294974958021555e+18,-0.04435405135154724,-0.021694660186767578,-11.98255729675293
1.7294974958111557e+18,-0.006732354871928692,-0.031688228249549866,-11.876496315002441
1.7294974958171558e+18,0.027168195694684982,0.03258902579545975,-11.808355331420898
1.729497495826156e+18,-0.08699233084917068,-0.005934740416705608,-11.781405448913574
1.7294974958351562e+18,0.027181796729564667,-0.052080605179071426,-11.845273971557617
1.7294974958441564e+18,0.028052186593413353,0.00713769719004631,-11.72677993774414
1.7294974958501565e+18,0.027317039668560028,0.024492915719747543,-11.741032600402832
1.7294974958591567e+18,8.55873804539442e-06,0.10724050551652908,-11.675729751586914
1.729497495868157e+18,0.028383862227201462,0.03430963307619095,-11.652192115783691
1.729497495877157e+18,-0.02554740197956562,-0.08529259264469147,-11.53613567352295
1.7294974958861573e+18,-0.03636721521615982,-0.007916206493973732,-11.579246520996094
1.7294974958951575e+18,-0.010826042853295803,0.04360613971948624,-11.475862503051758
1.7294974959011576e+18,0.05888796225190163,-0.033522628247737885,-11.479543685913086
1.7294974959101578e+18,0.03240495175123215,0.06112255901098251,-11.427350044250488
1.729497495919158e+18,-0.0219194907695055,-0.010429076850414276,-11.438055038452148
1.7294974959281582e+18,-0.03631380945444107,0.05067753791809082,-11.373297691345215
1.7294974959341583e+18,0.005724728107452393,-0.04785197228193283,-11.334684371948242
1.7294974959431585e+18,0.046116314828395844,0.018290318548679352,-11.295378684997559
1.7294974959521587e+18,0.026388082653284073,-0.07300073653459549,-11.308626174926758
1.729497495961159e+18,0.06891646236181259,0.046525511890649796,-11.217259407043457
1.729497495967159e+18,-0.0011761001078411937,0.0316222682595253,-11.174582481384277
1.7294974959761592e+18,0.012296557426452637,0.005880242679268122,-11.235543251037598
1.7294974959851594e+18,-0.021386995911598206,-0.003418534994125366,-11.138962745666504
1.7294974959941596e+18,0.003630541730672121,-0.05608011782169342,-11.18741512298584
1.7294974960001597e+18,-0.044795092195272446,0.0461154468357563,-11.108656883239746
1.72949749600916e+18,-0.06085649132728577,-0.004843938630074263,-11.10197639465332
1.72949749601816e+18,-0.03982311487197876,-0.022004656493663788,-11.01392650604248
1.7294974960271603e+18,0.03412698209285736,0.07195039093494415,-11.077263832092285
1.7294974960361605e+18,-0.035656899213790894,0.00772323552519083,-10.941093444824219
1.7294974960451607e+18,-0.01146019622683525,-0.010696464218199253,-11.005455017089844
1.729497496054161e+18,0.026850363239645958,-0.029981544241309166,-10.935218811035156
1.729497496060161e+18,-0.024641767144203186,-0.098162442445755,-10.978577613830566
1.7294974960691612e+18,-0.03861946240067482,-0.041186701506376266,-10.876448631286621
1.7294974960781614e+18,-0.02934330888092518,-0.0614815391600132,-10.971794128417969
1.7294974960841615e+18,0.05219626799225807,0.03798125311732292,-10.828882217407227
1.7294974960931617e+18,0.10047135502099991,-0.03316080570220947,-10.84626293182373
1.729497496102162e+18,-0.025545019656419754,0.022406497970223427,-10.781525611877441
1.729497496108162e+18,-0.0692388266324997,0.08184895664453506,-10.76578140258789
1.7294974961171622e+18,0.013031920418143272,0.009139599278569221,-10.814223289489746
1.7294974961261624e+18,0.0401962585747242,-0.1084885522723198,-10.80150318145752
1.7294974961351626e+18,-0.03733159974217415,-0.04493546485900879,-10.815643310546875
1.7294974961441628e+18,-0.022821525111794472,-0.11554490774869919,-10.710044860839844
1.729497496153163e+18,-0.011462005786597729,0.011629016138613224,-10.714874267578125
1.7294974961591631e+18,0.0070207444950938225,0.033191926777362823,-10.714518547058105
1.7294974961681633e+18,-0.0066464790143072605,-0.04865732789039612,-10.647811889648438
1.7294974961771635e+18,0.04852542281150818,-0.020333344116806984,-10.754016876220703
1.7294974961861637e+18,0.03423677012324333,-0.0013848701491951942,-10.657106399536133
1.729497496195164e+18,0.06480147689580917,0.024594318121671677,-10.576926231384277
1.729497496204164e+18,0.0627707690000534,0.020564010366797447,-10.592395782470703
1.7294974962101642e+18,0.06220218911767006,-0.02104491926729679,-10.550675392150879
1.7294974962191644e+18,-0.046990059316158295,-0.01712420955300331,-10.554047584533691
1.7294974962281646e+18,-0.029328012838959694,-0.05100378394126892,-10.536599159240723
1.7294974962371648e+18,0.029270853847265244,0.0204438678920269,-10.509405136108398
1.729497496243165e+18,-0.00577663816511631,0.023457201197743416,-10.523828506469727
1.729497496252165e+18,-0.004165169317275286,-0.029756464064121246,-10.546298027038574
1.7294974962581652e+18,0.03800428286194801,-0.01761430874466896,-10.458685874938965
1.7294974962671654e+18,0.10339794307947159,0.06377109885215759,-10.509947776794434
1.7294974962761656e+18,-0.022868094965815544,-0.05875428020954132,-10.51965618133545
1.7294974962851658e+18,0.03375173732638359,-0.05250284820795059,-10.444721221923828
1.729497496294166e+18,0.033725373446941376,-0.061689071357250214,-10.40418529510498
1.7294974963001661e+18,-0.04743996635079384,0.03584306687116623,-10.419133186340332
1.7294974963091663e+18,0.008299101144075394,0.05262375622987747,-10.438889503479004
1.7294974963151665e+18,-0.008721409365534782,0.0038595322985202074,-10.410231590270996
1.7294974963241667e+18,0.038947638124227524,-0.022097039967775345,-10.320758819580078
1.7294974963331668e+18,-0.009334728121757507,-0.013615441508591175,-10.3416166305542
1.729497496342167e+18,-0.014442045241594315,-0.0834587961435318,-10.390746116638184
1.7294974963511672e+18,0.012548152357339859,0.0017028705915436149,-10.381685256958008
1.7294974963601674e+18,-0.0537123903632164,-0.028164424002170563,-10.302103996276855
1.7294974963661676e+18,0.035598479211330414,-0.017291788011789322,-10.32497787475586
1.7294974963751677e+18,-0.07335279136896133,-0.031032290309667587,-10.258432388305664
1.729497496384168e+18,0.03202158212661743,-0.0041211871430277824,-10.321150779724121
1.7294974963931681e+18,0.02824222669005394,0.01627330854535103,-10.295639991760254
1.7294974963991683e+18,0.034087102860212326,0.1209401860833168,-10.310534477233887
1.7294974964081684e+18,-0.06702087074518204,-0.060030944645404816,-10.231919288635254
1.7294974964171686e+18,-0.03679853305220604,0.03823784366250038,-10.260722160339355
1.7294974964261688e+18,-0.06017596647143364,0.045044779777526855,-10.21967601776123
1.729497496435169e+18,0.037205908447504044,-0.0020079300738871098,-10.256875991821289
1.7294974964441692e+18,-0.025734299793839455,0.025082360953092575,-10.240748405456543
1.7294974964531694e+18,0.06259306520223618,-0.0006245732074603438,-10.20261287689209
1.7294974964591695e+18,-0.0016999340150505304,-0.04928719624876976,-10.149928092956543
1.7294974964681697e+18,0.019237397238612175,0.004629070404917002,-10.110525131225586
1.72949749647717e+18,-0.007271353155374527,0.09578194469213486,-10.19316577911377
1.72949749648617e+18,-0.06819752603769302,0.046642012894153595,-10.147346496582031
1.7294974964921702e+18,0.0774483010172844,-0.05915934592485428,-10.187500953674316
1.7294974965011704e+18,-0.007374405860900879,-0.04800006374716759,-10.10645866394043
1.7294974965101706e+18,-0.027759166434407234,0.04300476610660553,-10.097667694091797
1.7294974965191708e+18,0.02132244035601616,-0.0018515131669119,-10.092608451843262
1.729497496528171e+18,-0.014239117503166199,-0.04549053683876991,-10.103902816772461
1.7294974965371712e+18,-0.02200293354690075,-0.011294582858681679,-10.064462661743164
1.7294974965461714e+18,0.00705959927290678,0.011222529225051403,-10.051539421081543
1.7294974965521715e+18,-0.008962510153651237,0.030076399445533752,-10.04106616973877
1.7294974965611717e+18,-0.04498981311917305,-0.032430779188871384,-10.030364036560059
1.729497496570172e+18,-0.037542570382356644,0.06669862568378448,-10.047490119934082
1.729497496579172e+18,-0.0321112684905529,-0.056988611817359924,-10.020134925842285
1.7294974965881723e+18,0.038681428879499435,-0.0868784561753273,-10.051032066345215
1.7294974965971725e+18,-0.01517789252102375,-0.011935883201658726,-10.06770133972168
1.7294974966031726e+18,0.058442216366529465,-0.027814015746116638,-10.03046989440918
1.7294974966121728e+18,-0.04401801899075508,-0.029423901811242104,-10.119460105895996
1.729497496621173e+18,-0.0119269248098135,-0.01582390069961548,-10.011026382446289
1.7294974966301732e+18,0.016626650467514992,0.0011865427950397134,-10.095478057861328
1.7294974966361733e+18,-0.015262099914252758,-0.051984142512083054,-10.015040397644043
1.7294974966451735e+18,0.04807396978139877,0.029793811962008476,-10.035568237304688
1.7294974966541737e+18,0.07352858036756516,0.01192284096032381,-9.97846508026123
1.7294974966601738e+18,0.009107157588005066,-0.011541086249053478,-9.938333511352539
1.729497496669174e+18,-0.0033617077860981226,-0.03751650080084801,-9.958657264709473
1.7294974966781742e+18,0.017152193933725357,0.07140081375837326,-10.0007963180542
1.7294974966871744e+18,-0.01702122390270233,0.0011667375219985843,-10.0277099609375
1.7294974966931745e+18,-0.042671527713537216,-0.04004722833633423,-9.989883422851562
1.7294974967021747e+18,0.017079683020710945,0.024753693491220474,-9.954758644104004
1.729497496711175e+18,0.05754470080137253,0.024267977103590965,-9.93936824798584
1.729497496720175e+18,0.004085635766386986,0.04960300773382187,-9.932792663574219
1.7294974967261752e+18,-0.011707876808941364,0.11028795689344406,-9.950224876403809
1.7294974967351754e+18,0.06553097069263458,0.0365162268280983,-9.959773063659668
1.7294974967441756e+18,0.0948881059885025,-0.02056266926229,-10.005454063415527
1.7294974967501757e+18,-0.026085440069437027,-0.040768813341856,-9.921688079833984
1.729497496759176e+18,0.02898816578090191,0.016675101593136787,-9.908455848693848
1.729497496768176e+18,-0.017699915915727615,0.07326964288949966,-9.884603500366211
1.7294974967741763e+18,0.04721338674426079,-0.048739537596702576,-9.87336540222168
1.7294974967831764e+18,0.04425904527306557,-0.00776945473626256,-9.970541954040527
1.7294974967921766e+18,0.01194341853260994,0.0067360177636146545,-9.880044937133789
1.7294974968011768e+18,0.005128593184053898,0.05190298333764076,-9.918898582458496
1.729497496807177e+18,0.028477028012275696,-0.021722067147493362,-9.828405380249023
1.7294974968161772e+18,-0.0035249413922429085,0.02698345296084881,-9.912712097167969
1.7294974968251773e+18,0.0618620440363884,0.011165941134095192,-9.850627899169922
1.7294974968311775e+18,0.037327200174331665,-0.06760933995246887,-9.801668167114258
1.7294974968401777e+18,-0.051358602941036224,-0.08901958167552948,-9.881135940551758
1.7294974968491779e+18,0.07915811240673065,0.026364510878920555,-9.91756534576416
1.729497496858178e+18,0.0189349502325058,0.08976832032203674,-9.878287315368652
1.7294974968671782e+18,-0.01778758503496647,0.03384573757648468,-9.857568740844727
1.7294974968761784e+18,-0.035903628915548325,0.032865989953279495,-9.90058422088623
1.7294974968821786e+18,-0.027067016810178757,0.05572150647640228,-9.922993659973145
1.7294974968911788e+18,0.06091064214706421,0.00941490288823843,-9.784207344055176
1.729497496900179e+18,0.008020900189876556,0.03350089490413666,-9.814773559570312
1.7294974969091791e+18,0.022132037207484245,0.014740358106791973,-9.863279342651367
1.7294974969181793e+18,0.007370134815573692,0.013759837485849857,-9.820289611816406
1.7294974969241795e+18,-0.012987685389816761,0.000684628845192492,-9.827787399291992
1.7294974969331796e+18,0.09296628832817078,0.04170116037130356,-9.854650497436523
1.7294974969421798e+18,-0.006946028675884008,-0.015848597511649132,-9.900261878967285
1.72949749694818e+18,0.060318052768707275,-0.011447764001786709,-9.830373764038086
1.7294974969571802e+18,0.028877750039100647,-0.048628855496644974,-9.752172470092773
1.7294974969661804e+18,-0.047264084219932556,-0.04280298575758934,-9.894956588745117
1.7294974969751805e+18,0.05455155670642853,-0.06911661475896835,-9.801302909851074
1.7294974969811807e+18,-0.0712134912610054,0.005288699641823769,-9.869003295898438
1.7294974969901809e+18,0.01106585469096899,-0.00970304012298584,-9.809611320495605
1.729497496999181e+18,0.018845070153474808,-0.011276152916252613,-9.806150436401367
1.7294974970081812e+18,-0.05577661842107773,-0.025236869230866432,-9.776477813720703
1.7294974970171814e+18,0.013719020411372185,0.029427548870444298,-9.851238250732422
1.7294974970261816e+18,-0.010718590579926968,-0.029938023537397385,-9.874221801757812
1.7294974970351818e+18,-0.06821855157613754,0.009570350870490074,-9.83689022064209
1.729497497041182e+18,0.010683293454349041,-0.020936351269483566,-9.78836727142334
1.7294974970501821e+18,0.0034931327681988478,0.03215403109788895,-9.850815773010254
1.7294974970591823e+18,0.007367785554379225,0.044768914580345154,-9.825128555297852
1.7294974970681825e+18,0.070817731320858,-0.05941753834486008,-9.823325157165527
1.7294974970771827e+18,0.02697591669857502,0.053151048719882965,-9.745911598205566
1.729497497086183e+18,-0.001936117885634303,-0.006089211441576481,-9.741897583007812
1.729497497095183e+18,0.04222213849425316,0.0747126042842865,-9.7853364944458
1.7294974971041833e+18,0.05243281275033951,-0.0699620470404625,-9.755705833435059
1.7294974971131835e+18,-0.011039283126592636,-0.03439433127641678,-9.810694694519043
1.7294974971191836e+18,0.03113297000527382,0.026889696717262268,-9.751982688903809
1.7294974971281838e+18,0.01120212022215128,-0.058146726340055466,-9.76700210571289
1.729497497137184e+18,-0.02420683577656746,0.011988526210188866,-9.807050704956055
1.7294974971461842e+18,0.02288862131536007,-0.023553337901830673,-9.747488975524902
1.7294974971521843e+18,-0.00852927565574646,0.08438368141651154,-9.851114273071289
1.7294974971611845e+18,-0.05465439334511757,0.0263429656624794,-9.71552562713623
1.7294974971701847e+18,0.05230521410703659,-0.02072039432823658,-9.775633811950684
1.729497497179185e+18,-0.010537543334066868,-0.017995670437812805,-9.71806526184082
1.729497497185185e+18,0.0063184043392539024,0.005579987540841103,-9.784331321716309
1.7294974971941852e+18,-0.06294545531272888,0.026702724397182465,-9.690420150756836
1.7294974972031854e+18,-0.029044702649116516,0.03706825524568558,-9.689273834228516
1.7294974972091855e+18,-0.1130109578371048,-0.021823005750775337,-9.804884910583496
1.7294974972181857e+18,0.01383444294333458,-0.007442125119268894,-9.796060562133789
1.729497497227186e+18,-0.017500456422567368,0.05534395948052406,-9.796871185302734
1.729497497236186e+18,-0.016499629244208336,-0.012192949652671814,-9.761762619018555
1.7294974972421862e+18,-0.025270644575357437,0.00425438117235899,-9.756697654724121
1.7294974972511864e+18,-0.011291787028312683,0.01883946731686592,-9.72978687286377
1.7294974972601866e+18,-0.050200268626213074,0.04507814347743988,-9.753705978393555
1.7294974972661868e+18,0.003926536068320274,0.008000269532203674,-9.722664833068848
1.729497497275187e+18,0.03803425282239914,0.04547841474413872,-9.781974792480469
1.7294974972841871e+18,-0.018815016373991966,-0.05445988103747368,-9.731785774230957
1.7294974972901873e+18,-0.03669222816824913,0.023882826790213585,-9.768974304199219
1.7294974972991875e+18,0.013234700076282024,-0.01666831038892269,-9.675030708312988
1.7294974973051876e+18,0.01586524397134781,0.046058885753154755,-9.695084571838379
1.7294974973141878e+18,-0.0011376835172995925,-0.010900992900133133,-9.717294692993164
1.729497497323188e+18,-0.09380290657281876,0.027213307097554207,-9.74083137512207
1.729497497329188e+18,0.05556800961494446,-0.03685559332370758,-9.762950897216797
1.7294974973381883e+18,0.0012419557897374034,-0.0669851303100586,-9.762214660644531
1.7294974973471885e+18,0.016043446958065033,-0.029536187648773193,-9.782074928283691
1.7294974973531886e+18,0.045105431228876114,0.0025388894136995077,-9.696358680725098
1.7294974973621888e+18,0.019674325361847878,-0.03243109583854675,-9.75507640838623
1.729497497371189e+18,-0.057809580117464066,-0.07449859380722046,-9.727038383483887
1.729497497377189e+18,0.016501283273100853,0.09163612872362137,-9.73553466796875
1.7294974973861893e+18,-0.038115669041872025,-0.002867597620934248,-9.7568359375
1.7294974973951895e+18,0.01975434273481369,-0.026857787743210793,-9.824095726013184
1.7294974974011896e+18,-0.002165492856875062,0.07349015027284622,-9.830522537231445
1.7294974974101898e+18,-0.007771669887006283,-0.07200592756271362,-9.800251960754395
1.72949749741619e+18,-0.05592992529273033,-0.01503529492765665,-9.820111274719238
1.7294974974251901e+18,-0.017689164727926254,-0.003223384264856577,-9.83332633972168
1.7294974974341903e+18,-0.02684003859758377,0.019447632133960724,-9.814220428466797
1.7294974974401905e+18,0.010275596752762794,0.02887098677456379,-9.82942008972168
1.7294974974491907e+18,-0.041779857128858566,0.03958379477262497,-9.860315322875977
1.7294974974581908e+18,-0.0008912371704354882,0.031041236594319344,-9.867999076843262
1.729497497464191e+18,0.012217355892062187,0.055078811943531036,-9.771368026733398
1.7294974974761912e+18,0.04606608301401138,0.029741914942860603,-9.79605770111084
1.7294974974821914e+18,-0.05886164307594299,-0.012368869036436081,-9.71542739868164
1.7294974974911916e+18,-0.058975644409656525,-0.07846271246671677,-9.768871307373047
1.7294974975001917e+18,-0.04695280268788338,0.06799010932445526,-9.714674949645996
1.729497497509192e+18,0.03438460826873779,-0.005874336697161198,-9.761504173278809
1.729497497518192e+18,-0.0535375252366066,0.04655488207936287,-9.826188087463379
1.7294974975241923e+18,0.021336998790502548,-0.061560556292533875,-9.813216209411621
1.7294974975331924e+18,-0.006948393769562244,-0.037298087030649185,-9.78207015991211
1.7294974975391926e+18,-0.004265138413757086,-0.016064485535025597,-9.75074577331543
1.7294974975481928e+18,0.00444328086450696,0.03655039519071579,-9.822729110717773
1.729497497557193e+18,0.04445094242691994,-0.003762212349101901,-9.829257011413574
1.729497497563193e+18,-0.030010513961315155,-0.06271534413099289,-9.80760669708252
1.7294974975721933e+18,0.04745873808860779,-0.013869550079107285,-9.794243812561035
1.7294974975781934e+18,-0.02739618346095085,0.07307787239551544,-9.793930053710938
1.7294974975871936e+18,0.041063714772462845,0.009616456925868988,-9.727865219116211
1.7294974975961938e+18,0.0004420925979502499,-0.0443539023399353,-9.75981616973877
1.729497497602194e+18,-0.025749973952770233,-0.012035495601594448,-9.694517135620117
1.729497497611194e+18,0.039228953421115875,-0.0011644629994407296,-9.83584976196289
1.7294974976201943e+18,0.03247906267642975,0.050543881952762604,-9.755657196044922
1.7294974976291945e+18,-0.08597950637340546,-0.041473399847745895,-9.78306770324707
1.7294974976351946e+18,0.006238031201064587,-0.029220569878816605,-9.779722213745117
1.7294974976441948e+18,-0.041672758758068085,-0.10646125674247742,-9.7509765625
1.729497497650195e+18,0.01113163959234953,-0.03230937197804451,-9.68903636932373
1.7294974976591951e+18,-0.05313505232334137,0.03169830143451691,-9.648017883300781
1.7294974976651953e+18,0.019983967766165733,-0.03741539269685745,-9.770075798034668
1.7294974976741955e+18,-0.0674937441945076,0.03327417001128197,-9.717809677124023
1.7294974976831956e+18,-0.018444225192070007,0.058083806186914444,-9.749297142028809
1.7294974976891958e+18,-0.06280133873224258,-0.021324522793293,-9.759306907653809
1.729497497698196e+18,-0.025735817849636078,-0.013894506730139256,-9.693217277526855
1.729497497704196e+18,0.028365613892674446,-0.001153956982307136,-9.820018768310547
1.7294974977131963e+18,-0.003932463005185127,0.06854366511106491,-9.772229194641113
1.7294974977221965e+18,0.0354401096701622,0.03544885665178299,-9.797300338745117
1.7294974977281966e+18,-0.033252403140068054,0.02389567345380783,-9.709147453308105
1.7294974977371968e+18,-0.06968314945697784,-0.037279993295669556,-9.723999977111816
1.729497497746197e+18,0.03603837639093399,-0.05896995961666107,-9.730965614318848
1.729497497752197e+18,-0.0036491136997938156,0.027783818542957306,-9.739628791809082
1.7294974977611973e+18,-0.07946701347827911,0.02286405861377716,-9.719687461853027
1.7294974977701975e+18,0.008188148029148579,0.04533590003848076,-9.76056957244873
1.7294974977761976e+18,0.06458406895399094,0.010498374700546265,-9.75229263305664
1.7294974977851978e+18,-0.022394929081201553,0.06836876273155212,-9.77351188659668
1.729497497794198e+18,-0.0045008002780377865,-0.048158641904592514,-9.7306547164917
1.7294974978001981e+18,0.036102499812841415,-0.03202053904533386,-9.773260116577148
1.7294974978091983e+18,0.04997182637453079,-0.005573566071689129,-9.774864196777344
1.7294974978181985e+18,0.04622684046626091,0.006412920542061329,-9.757567405700684
1.7294974978241987e+18,-0.015946194529533386,-0.02197917364537716,-9.740912437438965
1.7294974978331988e+18,-0.006461334880441427,0.009873091243207455,-9.71633243560791
1.729497497842199e+18,-0.050017163157463074,-0.01868249848484993,-9.786249160766602
1.7294974978481992e+18,0.018899869173765182,-0.032462552189826965,-9.686287879943848
1.7294974978571994e+18,0.05992484837770462,-0.01627926714718342,-9.753284454345703
1.7294974978631995e+18,0.00803815945982933,-0.06553958356380463,-9.704350471496582
1.7294974978721997e+18,-0.009748153388500214,-0.05468607693910599,-9.69518756866455
1.7294974978781998e+18,-0.053359754383563995,-0.050923075526952744,-9.685908317565918
1.7294974978872e+18,-0.031027548015117645,-0.03311178833246231,-9.71328067779541
1.7294974978962002e+18,-0.037420205771923065,-0.07231955975294113,-9.785605430603027
1.7294974979082004e+18,-0.023319866508245468,-0.005249150097370148,-9.820698738098145
1.7294974979172006e+18,0.049982182681560516,-0.016130516305565834,-9.69483470916748
1.7294974979262008e+18,0.09993919730186462,0.021170256659388542,-9.77449893951416
1.729497497932201e+18,-0.039517842233181,0.05402671545743942,-9.7742280960083
1.7294974979412012e+18,-0.037268660962581635,0.0008376262849196792,-9.798011779785156
1.7294974979472013e+18,-0.02898241952061653,-0.05394437536597252,-9.699081420898438
1.7294974979562015e+18,-0.003947951830923557,-0.03945732116699219,-9.726181030273438
1.7294974979652017e+18,-0.010776893235743046,-0.007401492912322283,-9.829668998718262
1.7294974979742019e+18,0.009855970740318298,-0.0027085081674158573,-9.682419776916504
1.729497497980202e+18,-0.02897910587489605,-0.015241741202771664,-9.780495643615723
1.7294974979892022e+18,-0.010057750158011913,0.03520497679710388,-9.73910140991211
1.7294974979982024e+18,-0.005286877509206533,-0.061386846005916595,-9.707837104797363
1.7294974980072026e+18,0.025173459202051163,0.05362603813409805,-9.692497253417969
1.7294974980132027e+18,0.012779610231518745,0.0009411280043423176,-9.651142120361328
1.729497498022203e+18,-0.00754468934610486,0.006100866943597794,-9.71181583404541
1.729497498031203e+18,0.003269572975113988,-0.0016083393711596727,-9.739826202392578
1.7294974980402033e+18,-0.06334633380174637,0.09180087596178055,-9.74760627746582
1.7294974980462034e+18,-0.09938954561948776,-0.04837201163172722,-9.821542739868164
1.7294974980552036e+18,0.00789646152406931,0.0395624078810215,-9.67335033416748
1.7294974980642038e+18,0.051125604659318924,0.016115546226501465,-9.785103797912598
1.729497498070204e+18,-0.003484086599200964,0.007703143171966076,-9.741866111755371
1.729497498079204e+18,0.0174141563475132,-0.06710661947727203,-9.622699737548828
1.7294974980882043e+18,-0.006608112715184689,0.03502894192934036,-9.72211742401123
1.7294974980972045e+18,-0.025876358151435852,-0.019402243196964264,-9.756491661071777
1.7294974981032046e+18,0.017149735242128372,-0.048067569732666016,-9.763513565063477
1.7294974981122048e+18,0.0019519736524671316,-0.0386037677526474,-9.793743133544922
1.729497498121205e+18,0.042797207832336426,0.0327414833009243,-9.822025299072266
1.729497498127205e+18,0.03093503601849079,-0.0035767999943345785,-9.712886810302734
1.7294974981362053e+18,0.01543327048420906,-0.025431716814637184,-9.760037422180176
1.7294974981452055e+18,0.03809891641139984,-0.03183073177933693,-9.755026817321777
1.7294974981512056e+18,0.009990280494093895,-0.02911396138370037,-9.744683265686035
1.7294974981602058e+18,0.052480340003967285,-0.035874973982572556,-9.774264335632324
1.729497498166206e+18,-0.03453864902257919,0.0006024432950653136,-9.760480880737305
1.7294974981752061e+18,0.0088427709415555,-0.03946315497159958,-9.679940223693848
1.7294974981842063e+18,0.019561875611543655,-0.021771619096398354,-9.669376373291016
1.7294974981932065e+18,-0.002862138906493783,-0.06548910588026047,-9.676591873168945
1.7294974982022067e+18,0.012778435833752155,0.007307135500013828,-9.724349021911621
1.7294974982082068e+18,0.0742349848151207,0.05145234614610672,-9.819927215576172
1.729497498220207e+18,-0.0028527039103209972,-0.000748629798181355,-9.747489929199219
1.7294974982292073e+18,0.021691977977752686,-0.008848033845424652,-9.824630737304688
1.7294974982382075e+18,-0.09863139688968658,0.058153048157691956,-9.794342041015625
1.7294974982472077e+18,0.0016801186138764024,0.057482969015836716,-9.838189125061035
1.729497498256208e+18,-0.05480989068746567,-0.005667215213179588,-9.763753890991211
1.729497498265208e+18,-0.010482690297067165,-0.10447534173727036,-9.735363960266113
1.7294974982712082e+18,-0.018694981932640076,-0.02413412742316723,-9.69870662689209
1.7294974982802084e+18,-0.028975438326597214,-0.06886647641658783,-9.774690628051758
1.7294974982892086e+18,0.05471986159682274,0.003333700355142355,-9.729205131530762
1.7294974982982088e+18,0.01864028349518776,0.06694527715444565,-9.717744827270508
1.729497498304209e+18,-0.04006410017609596,-0.03329697623848915,-9.841638565063477
1.729497498313209e+18,0.023259390145540237,0.0025646486319601536,-9.780951499938965
1.7294974983222093e+18,-0.029500041157007217,-0.006203038152307272,-9.7485933303833
1.7294974983282094e+18,0.041434336453676224,-0.0615505576133728,-9.7269868850708
1.7294974983372096e+18,0.024372510612010956,0.01572769321501255,-9.726917266845703
1.7294974983462098e+18,0.019382990896701813,0.05400795862078667,-9.7485933303833
1.72949749835221e+18,-0.034642089158296585,-0.01916639320552349,-9.741582870483398
1.72949749836121e+18,-0.003116576001048088,-0.065083809196949,-9.740754127502441
1.7294974983702103e+18,-0.050029441714286804,0.025040116161108017,-9.673243522644043
1.7294974983792105e+18,0.06318283826112747,0.0023312936536967754,-9.783141136169434
1.7294974983852106e+18,0.025034744292497635,0.014144987799227238,-9.807242393493652
1.7294974983942108e+18,-0.053752604871988297,0.06727946549654007,-9.761484146118164
1.729497498403211e+18,-0.08079688251018524,0.017040038481354713,-9.70899772644043
1.7294974984122112e+18,-0.003934631589800119,0.010816464200615883,-9.696584701538086
1.7294974984182113e+18,-0.02538852021098137,0.04261104390025139,-9.747577667236328
1.7294974984272115e+18,0.002923782682046294,0.025133270770311356,-9.738898277282715
1.7294974984362117e+18,-0.05324319005012512,-0.01198609173297882,-9.813823699951172
1.729497498445212e+18,-0.005843195132911205,-0.017185350880026817,-9.77425479888916
1.729497498454212e+18,0.09488440304994583,-0.046781718730926514,-9.795257568359375
1.7294974984602122e+18,0.013155718334019184,-0.033896807581186295,-9.818675994873047
1.7294974984722125e+18,0.031756769865751266,-0.0028923070058226585,-9.857465744018555
1.7294974984812127e+18,0.020235545933246613,-0.046713706105947495,-9.714468002319336
1.7294974984872128e+18,-0.1004040315747261,0.07310125231742859,-9.657978057861328
1.729497498496213e+18,-0.002776161301881075,-0.026778429746627808,-9.80716323852539
1.7294974985052132e+18,0.018325062468647957,-0.04613310098648071,-9.722101211547852
1.7294974985142134e+18,0.017152803018689156,0.010469244793057442,-9.804299354553223
1.7294974985232136e+18,-0.004506128840148449,0.028216253966093063,-9.757404327392578
1.7294974985322138e+18,0.03077651374042034,0.02986164391040802,-9.80700969696045
1.729497498538214e+18,0.0312538780272007,0.10450181365013123,-9.751348495483398
1.729497498547214e+18,0.042287036776542664,-0.029357872903347015,-9.799593925476074
1.7294974985562143e+18,0.012688753195106983,0.015248182229697704,-9.781835556030273
1.7294974985652145e+18,0.04604132100939751,-0.08424793928861618,-9.737617492675781
1.7294974985742147e+18,0.04964631423354149,-0.08372596651315689,-9.740059852600098
1.7294974985802148e+18,0.0004917159676551819,-0.06905584782361984,-9.801548957824707
1.729497498589215e+18,-0.018963748589158058,-0.002934382762759924,-9.728930473327637
1.7294974985982152e+18,0.03895893692970276,-0.07472095638513565,-9.892961502075195
1.7294974986072154e+18,-0.007509235758334398,0.042422227561473846,-9.779280662536621
1.7294974986132155e+18,-0.049311019480228424,0.029301142320036888,-9.749695777893066
1.7294974986222157e+18,0.08667197078466415,-0.0471276119351387,-9.743025779724121
1.7294974986312159e+18,0.11764668673276901,0.021744100376963615,-9.763128280639648
1.729497498640216e+18,-0.03159869834780693,0.018780719488859177,-9.73367691040039
1.7294974986492163e+18,-0.002288231160491705,-0.04186829552054405,-9.795618057250977
1.7294974986552164e+18,0.031505562365055084,0.018701961264014244,-9.669594764709473
1.7294974986642166e+18,-0.041924476623535156,-0.07398930937051773,-9.647239685058594
1.7294974986732168e+18,0.06102188304066658,-0.02687106281518936,-9.743342399597168
1.729497498682217e+18,-0.0012889003846794367,0.03661902993917465,-9.835555076599121
1.7294974986912172e+18,0.008525179699063301,-0.008665557950735092,-9.825092315673828
1.7294974987002173e+18,-0.0002269839314976707,0.021371444687247276,-9.7151460647583
1.7294974987092175e+18,-0.05275258049368858,-0.045824404805898666,-9.837650299072266
1.7294974987182177e+18,-0.08769090473651886,0.014666005037724972,-9.76757526397705
1.7294974987242179e+18,0.038123153150081635,0.018272407352924347,-9.762178421020508
1.729497498733218e+18,-0.017068028450012207,0.033278144896030426,-9.758590698242188
1.7294974987452183e+18,0.013425271026790142,-0.06197355315089226,-9.80073356628418
1.7294974987512184e+18,-0.013873896561563015,-0.010644466616213322,-9.754182815551758
1.7294974987632187e+18,-0.028922604396939278,-0.03607427328824997,-9.784928321838379
1.729497498772219e+18,0.00028815114637836814,-0.019299905747175217,-9.67713737487793
1.729497498778219e+18,-0.04372206702828407,0.02241528406739235,-9.753825187683105
1.7294974987872192e+18,0.027867961674928665,0.0051221344619989395,-9.898274421691895
1.7294974987962194e+18,-0.026093048974871635,0.006525776349008083,-9.805014610290527
1.7294974988052196e+18,0.040442127734422684,-0.029506705701351166,-9.766736030578613
1.7294974988142198e+18,0.04526711627840996,-0.047945063561201096,-9.70958137512207
1.72949749882322e+18,0.03635425120592117,-0.07024665176868439,-9.764745712280273
1.7294974988322202e+18,-0.0023634564131498337,-0.06941189616918564,-9.6951322555542
1.7294974988412204e+18,0.04439113661646843,0.03774528205394745,-9.76539421081543
1.7294974988502205e+18,-0.00789132434874773,0.0301067978143692,-9.693888664245605
1.7294974988592207e+18,0.02271588146686554,-0.017347529530525208,-9.746333122253418
1.7294974988652209e+18,-0.005120876710861921,0.012694111093878746,-9.77340030670166
1.729497498874221e+18,0.061377160251140594,0.00039578002179041505,-9.679752349853516
1.7294974988832212e+18,-0.01012073177844286,0.027216723188757896,-9.73979663848877
1.7294974988922214e+18,-0.1050008237361908,-0.016748540103435516,-9.749227523803711
1.7294974988982216e+18,0.044669926166534424,-0.04859389737248421,-9.829185485839844
1.7294974989102218e+18,-0.03495987504720688,0.0428495779633522,-9.731735229492188
1.729497498916222e+18,0.07854573428630829,0.11061489582061768,-9.77741527557373
1.7294974989252221e+18,0.10017185658216476,-0.0008990390924736857,-9.773539543151855
1.7294974989342223e+18,-0.0030284286476671696,0.0719899907708168,-9.776256561279297
1.7294974989432225e+18,-0.0018685293616726995,0.016672419384121895,-9.820646286010742
1.7294974989522227e+18,0.019001182168722153,-0.06308495253324509,-9.75436019897461
1.729497498961223e+18,0.04670097678899765,0.03794826567173004,-9.786121368408203
1.729497498970223e+18,0.05541246756911278,0.04599969461560249,-9.776407241821289
1.7294974989762232e+18,0.0008577142143622041,0.08540181070566177,-9.693373680114746
1.7294974989852234e+18,0.005795183125883341,-0.05754604935646057,-9.85247802734375
1.7294974989942236e+18,-0.028488995507359505,0.046915825456380844,-9.817342758178711
1.7294974990032238e+18,-0.002543648239225149,0.04257551580667496,-9.721588134765625
1.729497499012224e+18,-0.04686714708805084,0.0762718990445137,-9.670791625976562
1.7294974990212242e+18,-0.047414738684892654,-0.022037874907255173,-9.818380355834961
1.7294974990272243e+18,0.03086094930768013,0.012587741948664188,-9.77824592590332
1.7294974990362245e+18,-0.059780463576316833,0.037091586738824844,-9.772416114807129
1.7294974990452247e+18,0.036033108830451965,-0.0033849470783025026,-9.847367286682129
1.729497499054225e+18,0.03907574340701103,0.044054437428712845,-9.81063175201416
1.729497499063225e+18,0.017466595396399498,0.009742136113345623,-9.725205421447754
1.7294974990722253e+18,-0.061101384460926056,-0.013137920759618282,-9.854023933410645
1.7294974990812255e+18,-0.07389233261346817,-0.05253949016332626,-9.82988452911377
1.7294974990902257e+18,-0.046532176434993744,-0.02484198659658432,-9.80457878112793
1.7294974990962258e+18,-0.07027337700128555,-0.022166214883327484,-9.829157829284668
1.729497499105226e+18,-0.027716014534235,-0.02750585786998272,-9.784111022949219
1.7294974991142262e+18,-0.019131479784846306,0.04073794186115265,-9.691789627075195
1.7294974991232264e+18,0.11100530624389648,-0.01329592615365982,-9.807011604309082
1.7294974991322266e+18,0.04462515562772751,-0.027143754065036774,-9.8123140335083
1.7294974991412268e+18,0.04981349781155586,0.005465906113386154,-9.765857696533203
1.729497499147227e+18,0.08129330724477768,0.05893120542168617,-9.78106689453125
1.729497499156227e+18,0.07424136996269226,0.0025080733466893435,-9.753103256225586
1.7294974991682273e+18,0.014438111335039139,0.00842807162553072,-9.806365966796875
1.7294974991832276e+18,0.0014482574770227075,0.067301906645298,-9.794822692871094
1.7294974991922278e+18,0.04692947864532471,0.04182647913694382,-9.731069564819336
1.729497499201228e+18,0.00957212783396244,0.029492951929569244,-9.851494789123535
1.7294974992102282e+18,-0.021793900057673454,0.04034150764346123,-9.746607780456543
1.7294974992192284e+18,-0.06686212867498398,0.022607233375310898,-9.73706340789795
1.7294974992282286e+18,0.06793615967035294,-0.004067951813340187,-9.82973575592041
1.7294974992372288e+18,0.0035676443949341774,0.0659179612994194,-9.780817985534668
1.729497499243229e+18,0.08125105500221252,0.015722664073109627,-9.795709609985352
1.729497499252229e+18,-0.014193243347108364,0.008750254288315773,-9.670327186584473
1.7294974992582292e+18,0.046371009200811386,0.03973572328686714,-9.804869651794434
1.7294974992672294e+18,0.034491974860429764,0.03308422863483429,-9.764634132385254
1.7294974992762296e+18,-0.03495941311120987,-0.042566314339637756,-9.727164268493652
1.7294974992822298e+18,-0.003511762013658881,-0.010636642575263977,-9.778756141662598
1.72949749929123e+18,0.04085410013794899,0.027770960703492165,-9.743616104125977
1.7294974993002301e+18,-0.03959375247359276,-0.04673158749938011,-9.714317321777344
1.7294974993092303e+18,0.08234752714633942,-0.07484635710716248,-9.84702205657959
1.7294974993182305e+18,0.07098186016082764,0.010609018616378307,-9.756049156188965
1.7294974993242307e+18,0.0010677232639864087,-0.022819602862000465,-9.733729362487793
1.7294974993332308e+18,0.06726469844579697,-0.010551071725785732,-9.75916576385498
1.729497499342231e+18,0.00937957689166069,-0.06625062972307205,-9.686741828918457
1.7294974993482312e+18,-0.11557116359472275,0.03437967225909233,-9.796099662780762
1.7294974993572314e+18,-0.01842358708381653,-0.01496213674545288,-9.744773864746094
1.7294974993662316e+18,-0.000952844216953963,-0.03230132907629013,-9.796271324157715
1.7294974993722317e+18,0.014237107709050179,-0.04108291119337082,-9.759519577026367
1.7294974993812319e+18,-0.024029862135648727,-0.013966772705316544,-9.83936882019043
1.729497499390232e+18,-0.018674468621611595,-0.03157946094870567,-9.782381057739258
1.7294974993992323e+18,0.10143925994634628,0.002306486712768674,-9.861106872558594
1.7294974994052324e+18,0.06460094451904297,-0.024841688573360443,-9.7913818359375
1.7294974994142326e+18,-0.05202477052807808,0.004800367634743452,-9.818103790283203
1.7294974994232328e+18,-0.014260029420256615,0.053415413945913315,-9.813810348510742
1.729497499432233e+18,0.03335742652416229,-0.04751738905906677,-9.826645851135254
1.7294974994412332e+18,-0.0063263894990086555,0.036877378821372986,-9.829049110412598
1.7294974994472333e+18,0.008614928461611271,-0.07664580643177032,-9.773951530456543
1.7294974994562335e+18,0.025981081649661064,-0.010078893043100834,-9.810469627380371
1.7294974994652337e+18,-0.0064739566296339035,-0.12591777741909027,-9.779254913330078
1.7294974994742339e+18,0.00768303731456399,0.05989333987236023,-9.745591163635254
1.729497499480234e+18,-0.0046064360067248344,-0.024340197443962097,-9.76524543762207
1.7294974994892342e+18,0.05908150598406792,-0.02903459407389164,-9.75568962097168
1.7294974994982344e+18,0.016174517571926117,-0.023920228704810143,-9.799098014831543
1.7294974995042345e+18,-0.04409118741750717,0.03777960315346718,-9.8754243850708
1.7294974995132347e+18,0.015983283519744873,-0.02094893530011177,-9.74066162109375
1.729497499522235e+18,-0.007440856192260981,0.04697592929005623,-9.756877899169922
1.729497499528235e+18,0.037569720298051834,0.013220388442277908,-9.74773120880127
1.7294974995372352e+18,-0.0022537217009812593,0.022487660869956017,-9.856228828430176
1.7294974995462354e+18,0.026238417252898216,0.04212551563978195,-9.742535591125488
1.7294974995522355e+18,0.030176034197211266,0.020197834819555283,-9.780533790588379
1.7294974995612357e+18,0.046025171875953674,0.02980516478419304,-9.754206657409668
1.729497499570236e+18,-0.019947724416851997,0.029898222535848618,-9.78044319152832
1.729497499576236e+18,-0.030202094465494156,0.031091181561350822,-9.736523628234863
1.7294974995852362e+18,-0.04344635456800461,-0.011941265314817429,-9.792143821716309
1.7294974995942364e+18,0.02857760339975357,-0.06505465507507324,-9.76632308959961
1.7294974996032366e+18,0.019906051456928253,0.005054810084402561,-9.8160982131958
1.7294974996122368e+18,-0.013723805546760559,0.03565602749586105,-9.75845718383789
1.729497499618237e+18,0.011895288713276386,0.04841642081737518,-9.826937675476074
1.729497499627237e+18,-0.028125198557972908,-0.0255558080971241,-9.772660255432129
1.7294974996362373e+18,0.046126533299684525,0.07341746240854263,-9.750555992126465
1.7294974996422374e+18,-0.013499507680535316,-0.08321879804134369,-9.719664573669434
1.7294974996512376e+18,-0.02890748158097267,0.015664679929614067,-9.749985694885254
1.7294974996602378e+18,-0.0392027422785759,-0.023393267765641212,-9.799427032470703
1.729497499669238e+18,-0.049347054213285446,-0.02970166876912117,-9.688918113708496
1.7294974996782382e+18,-0.0022297215182334185,-0.0010375520214438438,-9.698486328125
1.7294974996842383e+18,-0.04884205758571625,0.026219166815280914,-9.757768630981445
1.7294974996932385e+18,-0.021590659394860268,0.022238323464989662,-9.747475624084473
1.7294974997022387e+18,0.011450466699898243,-0.027674240991473198,-9.75944709777832
1.729497499711239e+18,-0.07128024101257324,0.06318410485982895,-9.743243217468262
1.729497499717239e+18,0.00522070936858654,0.002098868601024151,-9.74242877960205
1.7294974997262392e+18,0.022470124065876007,0.06461641192436218,-9.803540229797363
1.7294974997352394e+18,-0.07491221278905869,-0.006964302621781826,-9.807862281799316
1.7294974997442396e+18,-0.014652675949037075,0.08024188131093979,-9.812827110290527
1.7294974997502397e+18,0.010467984713613987,-0.0316503643989563,-9.850422859191895
1.72949749975924e+18,0.016210652887821198,0.03430259972810745,-9.825116157531738
1.72949749976824e+18,-0.014591550454497337,0.029944706708192825,-9.838122367858887
1.7294974997772403e+18,0.0016610178863629699,-0.009760997258126736,-9.824477195739746
1.7294974997862405e+18,-0.08667723089456558,-0.024963663890957832,-9.819077491760254
1.7294974997952407e+18,0.014650920405983925,-0.046006351709365845,-9.803443908691406
1.729497499804241e+18,0.01444012951105833,0.006634574383497238,-9.791975975036621
1.729497499813241e+18,-0.014206629246473312,-0.039527155458927155,-9.833883285522461
1.7294974998192412e+18,0.0008574185776524246,-0.011348655447363853,-9.77621841430664
1.7294974998282414e+18,-0.0674457997083664,0.022092705592513084,-9.795390129089355
1.7294974998372416e+18,0.005538640543818474,-0.04289199039340019,-9.811250686645508
1.7294974998462418e+18,-0.07617662101984024,-0.011980223469436169,-9.809179306030273
1.729497499855242e+18,0.054662272334098816,0.031124642118811607,-9.826666831970215
1.7294974998642422e+18,-0.026061486452817917,-0.016282876953482628,-9.783735275268555
1.7294974998732424e+18,0.015003061853349209,0.026838796213269234,-9.852678298950195
1.7294974998822426e+18,-0.0012866015313193202,-0.04103873670101166,-9.833292007446289
1.7294974998912428e+18,0.05157957971096039,-0.025472229346632957,-9.725560188293457
1.729497499900243e+18,0.005666431970894337,0.02580086886882782,-9.779263496398926
1.7294974999092431e+18,0.05510691553354263,0.03166583552956581,-9.779681205749512
1.7294974999182433e+18,0.046910110861063004,0.040713172405958176,-9.770604133605957
1.7294974999272435e+18,0.075452521443367,-0.018756620585918427,-9.819950103759766
1.7294974999362437e+18,0.063679538667202,-0.036666519939899445,-9.781025886535645
1.729497499945244e+18,0.050097350031137466,-0.08815474808216095,-9.875986099243164
1.729497499954244e+18,-0.023127619177103043,-0.03425106033682823,-9.90565013885498
1.7294974999632443e+18,0.02498050034046173,-0.024472175166010857,-9.81746768951416
1.7294974999692444e+18,-0.03345480561256409,0.0823255106806755,-9.711493492126465
1.7294974999782446e+18,0.11153923720121384,0.09021476656198502,-9.831721305847168
1.7294974999872448e+18,0.06850838661193848,-0.04640621319413185,-9.814072608947754
1.729497499996245e+18,-0.11199577897787094,0.05544295161962509,-9.83597183227539
1.7294975000052452e+18,-0.008995069190859795,0.0066736014559865,-9.783353805541992
1.7294975000112453e+18,-0.05609332025051117,-0.04460347071290016,-9.861706733703613
1.7294975000202455e+18,-0.08898244053125381,-0.0036637159064412117,-9.807538986206055
1.7294975000292457e+18,0.02524162083864212,0.021512512117624283,-9.863083839416504
1.729497500038246e+18,-0.02136584371328354,0.061239320784807205,-9.865921020507812
1.729497500047246e+18,0.017009662464261055,0.05842890962958336,-9.728045463562012
1.7294975000532462e+18,-0.01109360996633768,0.010754403658211231,-9.794611930847168
1.7294975000622464e+18,-0.008479410782456398,-0.014058862812817097,-9.818921089172363
1.7294975000712466e+18,0.04393396154046059,-0.002909734845161438,-9.795997619628906
1.7294975000802468e+18,-0.04897836595773697,-0.0032363322097808123,-9.815800666809082
1.729497500089247e+18,0.017897725105285645,-0.0014064483111724257,-9.72742748260498
1.729497500095247e+18,-0.06690338999032974,0.04987598955631256,-9.909735679626465
1.7294975001042473e+18,0.003101945389062166,-0.008454225957393646,-9.771987915039062
1.7294975001132475e+18,-0.05113451927900314,0.01855805702507496,-9.88596248626709
1.7294975001222477e+18,0.02958577126264572,0.07702092826366425,-9.832648277282715
1.7294975001312479e+18,0.022501491010189056,-0.01781204342842102,-9.765442848205566
1.729497500137248e+18,0.057253941893577576,-0.02351541817188263,-9.765143394470215
1.7294975001462482e+18,-0.0017394626047462225,0.005005079321563244,-9.753522872924805
1.7294975001552484e+18,-0.04027777910232544,0.021000651642680168,-9.800237655639648
1.7294975001612485e+18,0.011432019993662834,-0.008370847441256046,-9.748906135559082
1.7294975001702487e+18,0.012793106958270073,0.019965143874287605,-9.743380546569824
1.729497500179249e+18,0.05844023451209068,0.0366477370262146,-9.799206733703613
1.729497500185249e+18,-0.018669884651899338,0.13503813743591309,-9.907246589660645
1.7294975001942492e+18,3.728213414433412e-05,0.025702064856886864,-9.781998634338379
1.7294975002032494e+18,0.021241668611764908,-0.03177885711193085,-9.844976425170898
1.7294975002122496e+18,0.060845088213682175,0.04150881618261337,-9.872602462768555
1.7294975002182497e+18,0.014201795682311058,0.0025941578205674887,-9.80938720703125
1.72949750022725e+18,0.014793231151998043,0.027527788653969765,-9.742486953735352
1.72949750023625e+18,-0.020667366683483124,-0.002839714754372835,-9.877278327941895
1.7294975002452503e+18,-0.03274153918027878,0.040300361812114716,-9.779354095458984
1.7294975002542505e+18,0.03849819675087929,-0.005265160463750362,-9.69018268585205
1.7294975002632507e+18,-0.025912322103977203,0.030677329748868942,-9.783563613891602
1.729497500272251e+18,-0.05144856125116348,-0.05116964504122734,-9.81960391998291
1.729497500278251e+18,0.015393695794045925,0.04943733289837837,-9.820195198059082
1.7294975002872512e+18,-0.003313593566417694,-0.006305793300271034,-9.766816139221191
1.7294975002962514e+18,-0.020024722442030907,0.005615944974124432,-9.762707710266113
1.7294975003052516e+18,0.005801878869533539,0.01967516914010048,-9.76081371307373
1.7294975003112517e+18,0.04726468399167061,-0.029882676899433136,-9.772881507873535
1.729497500320252e+18,-0.05595637112855911,-0.001625028788112104,-9.759106636047363
1.729497500329252e+18,0.05585414916276932,0.02892381139099598,-9.73980712890625
1.7294975003382523e+18,-0.06993750482797623,0.03691929951310158,-9.704493522644043
1.7294975003472525e+18,0.03863689675927162,0.010014679282903671,-9.858890533447266
1.7294975003532526e+18,-0.04503142833709717,-0.01949736662209034,-9.851972579956055
1.7294975003622528e+18,0.004371725954115391,0.004937001038342714,-9.769408226013184
1.729497500371253e+18,0.07482776045799255,-0.06400065869092941,-9.872547149658203
1.729497500377253e+18,-0.05345236137509346,0.04157780110836029,-9.858139991760254
1.7294975003862533e+18,0.010177790187299252,0.018186846747994423,-9.781550407409668
1.7294975003952535e+18,0.017993982881307602,-0.06936827301979065,-9.802684783935547
1.7294975004012536e+18,-0.006284797564148903,-0.016573026776313782,-9.828798294067383
1.7294975004102538e+18,0.07629060000181198,0.03235264867544174,-9.81892204284668
1.729497500419254e+18,0.03905494883656502,0.08975614607334137,-9.757670402526855
1.7294975004282542e+18,-0.0388280525803566,-0.03406132012605667,-9.816726684570312
1.7294975004372544e+18,-0.003210189286619425,0.013559963554143906,-9.776812553405762
1.7294975004492547e+18,0.010829818435013294,-0.028094034641981125,-9.840046882629395
1.7294975004582548e+18,0.0019496160093694925,0.0008755874587222934,-9.838796615600586
1.729497500464255e+18,-0.021394779905676842,0.035318464040756226,-8.645281791687012
1.7294975004732552e+18,-0.017083540558815002,0.028054166585206985,-8.165802001953125
1.7294975004822554e+18,-0.005562962032854557,0.0783025324344635,-7.721116542816162
1.7294975004882555e+18,0.022023828700184822,0.053196825087070465,-7.51395845413208
1.7294975004972557e+18,0.003388078883290291,0.0471198745071888,-7.493228435516357
1.729497500506256e+18,0.03780414164066315,0.12224247306585312,-7.581930160522461
1.729497500515256e+18,0.05451999604701996,0.11112970858812332,-7.6398797035217285
1.7294975005242563e+18,0.06631089746952057,0.007086526602506638,-7.456180572509766
1.7294975005302564e+18,0.06627141684293747,0.0542365163564682,-7.3002753257751465
1.7294975005392566e+18,0.0331755131483078,-0.04867062717676163,-7.296462059020996
1.7294975005482568e+18,-0.016653986647725105,0.011864997446537018,-6.971363544464111
1.729497500554257e+18,-0.0032449308782815933,0.11760129034519196,-6.974950313568115
1.729497500563257e+18,-0.0009211916476488113,0.06597179919481277,-6.889337539672852
1.7294975005722573e+18,-0.0019113477319478989,0.052136097103357315,-7.051713943481445
1.7294975005782574e+18,-0.036294229328632355,0.12077027559280396,-7.018393039703369
1.7294975005872576e+18,0.06282493472099304,0.0369219109416008,-6.746209144592285
1.7294975005962578e+18,0.031106507405638695,0.10059583187103271,-6.758342742919922
1.729497500602258e+18,-0.010153952986001968,0.03407792001962662,-6.851842403411865
1.729497500611258e+18,0.047591682523489,0.044932346791028976,-6.687038898468018
1.7294975006202583e+18,-0.014626434072852135,0.023987457156181335,-6.587553977966309
1.7294975006292585e+18,-0.014748817309737206,0.07882378995418549,-6.781165599822998
1.7294975006352586e+18,0.015248531475663185,0.05880449712276459,-6.776122093200684
1.7294975006442588e+18,-0.014875808730721474,0.055905599147081375,-6.633065700531006
1.729497500653259e+18,0.04425186291337013,0.015443334355950356,-6.676031589508057
1.7294975006652593e+18,0.07980910688638687,0.003097081556916237,-6.778176784515381
1.7294975006712594e+18,0.0660550445318222,-0.01720220223069191,-6.884224891662598
1.7294975006802596e+18,0.02846997231245041,0.03889518976211548,-7.015284538269043
1.7294975006892598e+18,-0.050695184618234634,0.011554710566997528,-6.965751647949219
1.72949750069826e+18,0.008304508402943611,0.051462359726428986,-6.792274475097656
1.7294975007072602e+18,0.06293913722038269,-0.01723659038543701,-6.723926544189453
1.7294975007132603e+18,0.020985523238778114,0.014058590866625309,-6.654974937438965
1.7294975007222605e+18,-0.04096396639943123,0.021168529987335205,-6.785926818847656
1.7294975007312607e+18,-0.06035105884075165,0.024198759347200394,-6.796217441558838
1.7294975007402609e+18,-0.03305425867438316,0.0009014708921313286,-6.969292640686035
1.729497500749261e+18,-0.005812501534819603,0.04780721291899681,-6.919559001922607
1.7294975007582612e+18,0.02021968923509121,0.027544133365154266,-6.890099048614502
1.7294975007672614e+18,0.013090662658214569,0.08480045199394226,-7.07559061050415
1.7294975007762616e+18,-0.013215177692472935,0.0139657873660326,-6.979326248168945
1.7294975007852618e+18,-0.035060394555330276,-0.004108072258532047,-6.937141418457031
1.729497500794262e+18,-0.047177232801914215,-0.0670725405216217,-7.032965183258057
1.7294975008032622e+18,0.010767475701868534,-0.08590403199195862,-7.099740028381348
1.7294975008092623e+18,0.03238390013575554,0.07013650983572006,-6.306666374206543
1.7294975008182625e+18,-0.0781715139746666,-0.019584327936172485,-5.258121967315674
1.7294975008272627e+18,-0.0545354038476944,-0.03998944163322449,-5.239315032958984
1.729497500836263e+18,0.0687691941857338,0.05617827549576759,-5.249138355255127
1.729497500845263e+18,-0.056542832404375076,0.0785907581448555,-5.460710048675537
1.7294975008542633e+18,-0.00916135311126709,0.01599005237221718,-5.5482563972473145
1.7294975008632635e+18,-0.0007710309000685811,0.03361939266324043,-5.714038848876953
1.7294975008722637e+18,0.0392642617225647,-0.009524725377559662,-5.784465789794922
1.7294975008812639e+18,-0.00860717985779047,0.056179873645305634,-5.883393287658691
1.729497500890264e+18,-0.04476091265678406,0.07009875774383545,-6.110278606414795
1.7294975008992643e+18,0.07769570499658585,-0.012293083593249321,-6.254751682281494
1.7294975009082644e+18,-0.06842444837093353,0.06717987358570099,-6.380675792694092
1.7294975009172646e+18,-0.03753003105521202,-0.05180562287569046,-6.42557954788208
1.7294975009262648e+18,-0.017612429335713387,-0.02394842356443405,-6.551459312438965
1.729497500932265e+18,-0.06344044208526611,-0.01694938912987709,-6.717387676239014
1.7294975009412652e+18,-0.08377169072628021,0.020282724872231483,-6.779340744018555
1.7294975009502653e+18,-0.00011017289943993092,-0.04863569512963295,-6.942544937133789
1.7294975009592655e+18,0.06132141500711441,-0.037944987416267395,-6.959280967712402
1.7294975009682657e+18,-0.04114275798201561,-0.049420539289712906,-7.10218620300293
1.729497500977266e+18,-0.049804702401161194,0.005655432119965553,-7.231693744659424
1.729497500986266e+18,0.10794037580490112,0.004749656654894352,-7.219766616821289
1.7294975009952663e+18,0.03806207701563835,-0.018220752477645874,-7.334428310394287
1.7294975010012664e+18,0.010013287886977196,0.04962480813264847,-7.496873378753662
1.7294975010102666e+18,0.0004242127761244774,-0.0502951517701149,-7.444839954376221
1.7294975010192668e+18,0.04383991286158562,-0.018126389011740685,-7.541010856628418
1.729497501028267e+18,-0.018712656572461128,-0.06343476474285126,-7.619303226470947
1.7294975010372672e+18,0.01778167299926281,0.03971724584698677,-7.777717113494873
1.7294975010432673e+18,0.005197052378207445,0.09401959180831909,-7.800756454467773
1.7294975010522675e+18,0.03929221257567406,0.0057017081417143345,-7.8784260749816895
1.7294975010612677e+18,0.00641412939876318,0.05651019886136055,-7.960109710693359
1.729497501070268e+18,-0.03673071786761284,0.018190426751971245,-7.989687442779541
1.729497501079268e+18,-0.0037144608795642853,0.042038578540086746,-8.08640193939209
1.7294975010882683e+18,0.0645376667380333,0.0181562639772892,-8.136701583862305
1.7294975010972685e+18,0.07050948590040207,-0.04517631605267525,-8.204707145690918
1.7294975011032686e+18,0.009861602447926998,0.03065877966582775,-8.219217300415039
1.7294975011122688e+18,-0.07127930968999863,-0.04739775136113167,-8.263823509216309
1.729497501121269e+18,-0.037340935319662094,0.10261578857898712,-8.411116600036621
1.729497501127269e+18,0.013618633151054382,-0.019086217507719994,-8.424415588378906
1.7294975011362693e+18,-0.051563408225774765,0.012473821640014648,-8.45803451538086
1.7294975011452695e+18,0.07312583923339844,-0.022874364629387856,-8.42378044128418
1.7294975011512696e+18,-0.020357610657811165,0.018925774842500687,-8.497464179992676
1.7294975011602698e+18,0.07482980191707611,-0.055209770798683167,-8.523103713989258
1.72949750116627e+18,-0.009746497496962547,0.047569699585437775,-8.58243179321289
1.7294975011752701e+18,-0.09110558778047562,0.02472042292356491,-8.69796085357666
1.7294975011842703e+18,-0.019899187609553337,-0.002127614803612232,-8.661873817443848
1.7294975011932705e+18,0.052573371678590775,-0.0212782621383667,-8.772065162658691
1.7294975011992707e+18,0.05391911789774895,0.0594799630343914,-8.756043434143066
1.7294975012082708e+18,-0.028525318950414658,0.037608541548252106,-8.841812133789062
1.729497501217271e+18,-0.0046574268490076065,-0.03771750628948212,-8.862922668457031
1.7294975012262712e+18,0.08273009955883026,-0.051206208765506744,-8.797260284423828
1.7294975012322714e+18,0.023249387741088867,0.01974298059940338,-8.864110946655273
1.7294975012412716e+18,-0.01948460564017296,0.0021434109658002853,-8.945850372314453
1.7294975012502717e+18,-0.018680758774280548,-0.017614860087633133,-9.005797386169434
1.729497501259272e+18,0.07927137613296509,0.052064232528209686,-9.019566535949707
1.729497501268272e+18,0.006891485769301653,0.017856087535619736,-8.974635124206543
1.7294975012772723e+18,0.030881265178322792,0.09230219572782516,-9.103354454040527
1.7294975012832724e+18,0.06637303531169891,0.025359520688652992,-9.039338111877441
1.7294975012922726e+18,-0.04206438362598419,0.062005966901779175,-9.18273639678955
1.7294975013012728e+18,-0.006621780805289745,0.06380660086870193,-9.094757080078125
1.729497501310273e+18,0.016708076000213623,0.05319398641586304,-9.106151580810547
1.7294975013162732e+18,-0.06185247004032135,-0.009654708206653595,-9.188921928405762
1.7294975013252733e+18,-0.013871029950678349,0.019854115322232246,-9.323758125305176
1.7294975013342735e+18,0.08976961672306061,0.07921675592660904,-9.239812850952148
1.7294975013402737e+18,0.09040721505880356,0.03665291890501976,-9.286530494689941
1.7294975013492739e+18,0.030869878828525543,0.025427423417568207,-9.27010726928711
1.729497501358274e+18,-0.02874467521905899,0.002146877348423004,-9.369500160217285
1.7294975013672742e+18,0.0017664266051724553,-0.030228160321712494,-9.237873077392578
1.7294975013732744e+18,0.013513431884348392,0.04166391119360924,-9.25904369354248
1.7294975013822746e+18,-0.042439185082912445,0.07690555602312088,-9.324522972106934
1.7294975013912748e+18,-0.057872965931892395,0.018638834357261658,-9.328688621520996
1.729497501400275e+18,0.008095726370811462,-7.550790905952454e-05,-9.391016006469727
1.729497501406275e+18,0.03703460097312927,0.043759800493717194,-9.417943954467773
1.7294975014152753e+18,-0.02090522274374962,0.07073055952787399,-9.434353828430176
1.7294975014242755e+18,0.010739501565694809,0.04491012543439865,-9.500446319580078
1.7294975014302756e+18,-0.0029585985466837883,0.08941246569156647,-9.457999229431152
1.7294975014392758e+18,0.020555127412080765,0.034899868071079254,-9.503072738647461
1.729497501448276e+18,0.05272223427891731,0.08442100882530212,-9.522884368896484
1.7294975014572762e+18,0.009220722131431103,0.07465209066867828,-9.472869873046875
1.7294975014632763e+18,-0.0673520565032959,0.09140628576278687,-9.53604793548584
1.7294975014722765e+18,-0.04112173244357109,0.07501642405986786,-9.502979278564453
1.7294975014812767e+18,0.08724972605705261,0.0511811263859272,-9.57649040222168
1.7294975014902769e+18,0.030822599306702614,0.03906497731804848,-9.529720306396484
1.729497501499277e+18,0.04417193681001663,0.08662323653697968,-9.57597827911377
1.7294975015052772e+18,-0.007394429296255112,-0.024949505925178528,-9.632811546325684
1.7294975015142774e+18,-0.035699374973773956,0.15100865066051483,-9.639280319213867
1.7294975015232776e+18,0.04460326209664345,0.04743264615535736,-9.591221809387207
1.7294975015322778e+18,0.035720936954021454,0.00012814998626708984,-9.666309356689453
1.729497501541278e+18,-0.09428977221250534,0.01976686343550682,-9.719573020935059
