timestamp,gyro_x,gyro_y,gyro_z
1.7294974893910188e+18,-0.0013393711997196078,0.001540725352242589,-0.002430588472634554
1.729497489400019e+18,-0.000254542421316728,-0.0015179301844909787,0.0013149259611964226
1.7294974894090191e+18,-0.0007651771302334964,-0.0013623434351757169,0.0014438143698498607
1.7294974894180193e+18,0.001160939922556281,0.0015249643474817276,-0.0014788092812523246
1.7294974894240195e+18,-0.00038399198092520237,0.0010404756758362055,-0.000910992210265249
1.7294974894330196e+18,0.0002626851783134043,0.0010857420274987817,0.0006721265381202102
1.7294974894420198e+18,0.0005571863730438054,0.0015659297350794077,-0.0016579118091613054
1.72949748944802e+18,-0.0008667056681588292,1.642043389438186e-05,0.0014592165825888515
1.7294974894570202e+18,-0.0005711456178687513,-0.0022832611575722694,-0.0011474934872239828
1.7294974894660204e+18,0.0025972218718379736,-0.00014794900198467076,-0.0002750449057202786
1.7294974894720205e+18,1.4496967196464539e-05,0.0009209141717292368,-0.0024139985907822847
1.7294974894810207e+18,5.1809067372232676e-05,-2.7512516680872068e-05,0.00238575367256999
1.7294974894900209e+18,0.0012064087204635143,-0.0014789039269089699,0.0012722668470814824
1.729497489499021e+18,-0.0021336390636861324,-0.0005041718832217157,-0.0012710416922345757
1.7294974895080212e+18,-0.0021808885503560305,0.0008118152036331594,-0.0002781549992505461
1.7294974895170214e+18,0.002089015208184719,-0.00010124387335963547,0.002043228130787611
1.7294974895260216e+18,-0.0009960170136764646,-0.00022566366533283144,-0.00044503866229206324
1.7294974895350218e+18,0.001236315118148923,0.0015257499180734158,0.001603960175998509
1.729497489541022e+18,-0.001218732912093401,-0.001062465482391417,-0.00385984405875206
1.7294974895500221e+18,-0.0020418057683855295,-0.0004409745743032545,0.004357193596661091
1.7294974895590223e+18,0.002498795511201024,0.0023562053684145212,0.0010477170580998063
1.7294974895680225e+18,0.0017341059865429997,0.0017301766201853752,-0.001541582983918488
1.7294974895770227e+18,-0.001671867910772562,-0.001312626525759697,-0.000754128210246563
1.729497489586023e+18,-0.0010501483920961618,-0.0018204532098025084,-0.0013647833839058876
1.729497489592023e+18,0.0034249380696564913,-0.0024314592592418194,-0.005040133837610483
1.7294974896010232e+18,-0.002856852486729622,-0.0008846072014421225,-0.00037905058707110584
1.7294974896130235e+18,0.0018436671234667301,-0.0010538086062297225,0.0009707013377919793
1.7294974896220237e+18,-0.001576994196511805,0.0018792845075950027,-0.00219911290332675
1.7294974896280238e+18,-0.0006775711663067341,-0.0011481456458568573,0.00202563451603055
1.729497489637024e+18,-0.0009453346719965339,-0.0007791293901391327,-0.0010885883821174502
1.7294974896460242e+18,-6.428370397770777e-05,-0.00047096723574213684,-0.002098845085129142
1.7294974896550244e+18,0.00015334504132624716,0.0018255104077979922,1.9818508008029312e-05
1.7294974896640246e+18,1.192677427752642e-05,-0.000530792458448559,-0.00220534298568964
1.7294974896730248e+18,0.0005464486894197762,-0.0014116703532636166,0.0028464270289987326
1.729497489682025e+18,-0.0004621363477781415,0.0007063666125759482,0.003518798155710101
1.7294974896910252e+18,-0.0014015041524544358,-0.0006396769313141704,-0.0027719042263925076
1.7294974897000253e+18,0.0007808089139871299,0.0036364214029163122,0.00013484410010278225
1.7294974897120256e+18,0.0016866117948666215,0.001014339504763484,-4.732138404506259e-05
1.7294974897210258e+18,0.001666906289756298,-0.0008883941918611526,0.0003460035368334502
1.729497489733026e+18,-0.00018047633056994528,-0.0015803661663085222,0.0012497962452471256
1.7294974897420262e+18,-0.0008241772302426398,0.00021090761583764106,-0.0010746372863650322
1.7294974897480264e+18,-0.0008999708807095885,-0.0022277662064880133,0.0002350231516174972
1.7294974897570266e+18,-9.173923899652436e-05,0.00010389304225100204,-0.00022463619825430214
1.7294974897660268e+18,0.0012051144149154425,0.0006986742373555899,0.0010220351396128535
1.729497489775027e+18,0.0025174503680318594,0.003017159877344966,6.918064900673926e-05
1.7294974897840271e+18,0.0012983010383322835,0.0013098877388983965,0.00016365597548428923
1.7294974897930273e+18,-3.6254554288461804e-05,0.0022263384889811277,-0.00018770676979329437
1.7294974898020275e+18,0.0011098012328147888,0.0004928909474983811,0.003775545861572027
1.7294974898110277e+18,-0.0016668952303007245,0.0014675610000267625,0.001947394572198391
1.729497489820028e+18,-0.0007280871504917741,-0.0008746145176701248,-0.00025863252812996507
1.729497489829028e+18,-0.0014553018845617771,0.0006523794145323336,0.000288361799903214
1.7294974898380283e+18,-0.0022832981776446104,-0.003137379651889205,-4.697879558079876e-05
1.7294974898440284e+18,0.0009095002897083759,-0.0008010673336684704,-0.0035057684872299433
1.7294974898530286e+18,0.00220922171138227,-0.0026411758735775948,-0.00013582462270278484
1.7294974898620288e+18,-0.003295348258689046,-0.0013258344260975718,-0.00034626389970071614
1.729497489871029e+18,0.0007230355404317379,-0.00026012148009613156,-0.00014293583808466792
1.7294974898800292e+18,0.0022844874765723944,0.0015382453566417098,0.0008062190609052777
1.7294974898920294e+18,-0.0003716063220053911,-0.0014560860581696033,0.0027691253926604986
1.7294974899010296e+18,-0.0020165673922747374,0.0008665230707265437,6.0658654547296464e-05
1.7294974899100298e+18,-0.0010621723486110568,0.0026646775659173727,-6.92419707775116e-05
1.72949748991903e+18,-0.0018620396731421351,0.0028312390204519033,0.000197796689462848
1.7294974899280302e+18,-0.0005145682371221483,0.001399293658323586,0.0007514780154451728
1.7294974899370304e+18,0.0009346522856503725,-0.0007057080511003733,-0.0009211463038809597
1.7294974899460306e+18,-0.002517780987545848,-0.0020370464771986008,0.0029310155659914017
1.7294974899550308e+18,-0.0006635166937485337,0.0002767124678939581,-8.97275676834397e-05
1.729497489964031e+18,-0.0005554271047003567,0.00025209959130734205,-0.0014213348040357232
1.7294974899730312e+18,0.0012657273327931762,0.00040788663318380713,-0.0012667728587985039
1.7294974899850314e+18,0.003262466751039028,-0.0017967912135645747,6.317524093901739e-05
1.7294974899940316e+18,0.0005850831512361765,0.00214516744017601,0.0003028388018719852
1.7294974900030318e+18,-0.0009181311470456421,0.0007494553574360907,-0.0008191464003175497
1.729497490012032e+18,0.0010541817173361778,0.0009670034050941467,-0.00023573680664412677
1.7294974900210322e+18,-0.0030132527463138103,0.004196428693830967,-0.0019606086425483227
1.7294974900300324e+18,-0.0014117739629000425,0.0025223875418305397,-0.0016604310367256403
1.7294974900390326e+18,0.0008057848899625242,2.8592570743057877e-05,-0.0003026204649358988
1.7294974900480328e+18,0.0006088975351303816,-0.0013703277800232172,0.00036153258406557143
1.729497490057033e+18,0.001990312710404396,-0.00034914413117803633,-0.0032149492762982845
1.7294974900660332e+18,0.0019319280982017517,-0.002048682188615203,-0.00033258795156143606
1.7294974900750333e+18,0.0010105161927640438,0.00025752963847480714,-0.0023687761276960373
1.7294974900840335e+18,0.0003442908637225628,0.0004483837983570993,-0.0025469455868005753
1.7294974900930337e+18,0.0013860127655789256,0.0016269577899947762,-0.0005812556482851505
1.729497490102034e+18,-0.0005199572187848389,0.00029357135645113885,0.0014378202613443136
1.729497490111034e+18,-0.0005999011918902397,0.0010324367322027683,6.973790732445195e-05
1.7294974901200343e+18,0.003056144341826439,-0.003109586425125599,-0.0005975863896310329
1.7294974901320346e+18,0.0005799763603135943,0.002151844324544072,-0.0016693365760147572
1.7294974901410348e+18,0.0008480461547151208,-0.0011343585792928934,0.00024143258633557707
1.729497490150035e+18,-0.001425473135896027,0.0010025233495980501,-0.0024662965442985296
1.7294974901590351e+18,-0.00028946559177711606,-0.0015303957043215632,-0.0003920352319255471
1.7294974901680353e+18,-0.0009653461165726185,-0.0009044903563335538,0.0012249102583155036
1.7294974901770355e+18,0.0006411157082766294,0.0009791130432859063,0.0015261074295267463
1.7294974901830356e+18,0.0018978869775310159,-0.001710844342596829,0.0009122371557168663
1.729497490195036e+18,7.540282240370288e-05,-0.0010843928903341293,-0.0014200190780684352
1.729497490204036e+18,-0.0024482435546815395,0.00046889460645616055,0.00040424216422252357
1.7294974902130363e+18,-0.003233628813177347,-0.00011412508320063353,-0.004105221945792437
1.7294974902190364e+18,0.0011039015371352434,-0.0026613534428179264,0.0002840527449734509
1.7294974902280366e+18,-0.00180714949965477,-0.0017527722520753741,-0.002203083597123623
1.7294974902370368e+18,-0.00041973526822403073,-0.0017525025177747011,-0.0009547679801471531
1.729497490246037e+18,-0.0023734974674880505,0.0013735205866396427,-0.0011191657977178693
1.7294974902550372e+18,0.0008944122237153351,-0.00031379167921841145,-0.0009390871273353696
1.7294974902640374e+18,0.0012702306266874075,-0.0014808997511863708,-0.0004148476291447878
1.7294974902730376e+18,0.0009758073138073087,0.0014564889715984464,0.002231549471616745
1.7294974902820378e+18,-0.0021062041632831097,-0.0020992145873606205,0.0007710816571488976
1.729497490288038e+18,-0.002241305075585842,-0.003604486584663391,0.0019616407807916403
1.729497490297038e+18,0.0016439496539533138,0.0018380407709628344,0.0024090935476124287
1.7294974903060383e+18,0.0024507399648427963,-0.002550931414589286,0.0012608885299414396
1.7294974903150385e+18,0.0019904726650565863,-0.0016475885640829802,-0.0001549178850837052
1.7294974903240387e+18,0.0014392236480489373,-0.002908197930082679,0.000547849340364337
1.729497490336039e+18,-0.0010046411771327257,0.000865175505168736,-0.0005748665425926447
1.729497490345039e+18,-0.0017409076681360602,-0.003359099617227912,-0.0010854157153517008
1.7294974903540393e+18,-0.00038392405258491635,-0.0006112178671173751,-0.0011213604593649507
1.7294974903630395e+18,0.0024829960893839598,-0.0020697196014225483,-0.00023116625379770994
1.7294974903720397e+18,-0.0022448734380304813,0.0006738048396073282,-0.0009249057620763779
1.7294974903810399e+18,0.0002517417597118765,-0.0002672964765224606,-0.0014680151361972094
1.72949749038704e+18,0.0012727220309898257,-0.0004452336288522929,-0.0005099077825434506
1.7294974903960402e+18,0.0005073387292213738,0.0004302706220187247,0.0001813915150705725
1.7294974904050404e+18,0.0007633198983967304,-1.010411506285891e-05,0.0017024751286953688
1.7294974904140406e+18,-0.0008234135457314551,-0.0004218104004394263,-0.0010278847767040133
1.7294974904230408e+18,0.0007608776795677841,0.0007810567039996386,-0.0024272578302770853
1.729497490432041e+18,0.0010259433183819056,0.0015389721374958754,0.0027990746311843395
1.7294974904410412e+18,-0.0024362807162106037,-0.0018780409591272473,-0.002276358660310507
1.7294974904500413e+18,0.00011371663276804611,-0.00023799636983312666,-0.0012977826409041882
1.7294974904590415e+18,-0.0036314099561423063,0.0005711174453608692,0.00025074955192394555
1.7294974904680417e+18,0.003021248383447528,0.0005895536160096526,0.0001944518880918622
1.729497490477042e+18,-0.0014477743534371257,-0.0022647178266197443,-0.0007573458133265376
1.729497490486042e+18,-0.0007720688590779901,0.0017726249061524868,-0.0002626854693517089
1.7294974904950423e+18,-0.0010006156517192721,0.002864131238311529,0.001480940030887723
1.7294974905040425e+18,-0.0024314478505402803,0.0018804186256602407,0.002036663005128503
1.7294974905130427e+18,0.0005441069370135665,-5.188180148252286e-05,0.0021739026997238398
1.729497490525043e+18,-0.001914225285872817,0.002376140793785453,-0.0014520562253892422
1.7294974905340431e+18,0.004249882884323597,-0.0013835702557116747,0.004638570360839367
1.7294974905430433e+18,-0.0001971321034943685,0.0006574942381121218,0.0001319658913416788
1.7294974905520435e+18,-0.0010561593808233738,0.002289398806169629,0.0002370499278185889
1.7294974905580436e+18,0.0036166966892778873,0.0017654207767918706,-0.0004135897324886173
1.7294974905670438e+18,0.0019039197359234095,-0.00041069340659305453,0.0016026330413296819
1.729497490576044e+18,-0.0019804153125733137,-0.0018728248542174697,0.00013957674673292786
1.7294974905850442e+18,-0.00025135750183835626,0.001917114481329918,-0.0009814356453716755
1.7294974905940444e+18,-7.929660932859406e-05,0.0008705341606400907,-0.0010580556700006127
1.7294974906030446e+18,0.0007335349218919873,-0.0015755021013319492,0.0013493651058524847
1.7294974906120448e+18,-0.00017734862922225147,-0.0009869218338280916,-0.00010101839143317193
1.729497490621045e+18,-0.0021904101595282555,0.001431847340427339,-8.714750583749264e-05
1.7294974906330452e+18,-0.000740223505999893,-0.001696240622550249,-0.0019869098905473948
1.7294974906420454e+18,-0.0002281213237438351,-0.0002009573654504493,-0.0012224820675328374
1.7294974906510456e+18,0.0016218244563788176,-0.0018195461016148329,-0.0017611657967790961
1.729497490669046e+18,-0.0005885635036975145,-0.001551027875393629,-8.107113535515964e-05
1.7294974906810463e+18,0.0013074491871520877,-3.877470953739248e-05,0.0014294260181486607
1.7294974906900465e+18,-0.0012626317329704762,-0.00036270575947128236,-0.00022893973800819367
1.7294974906990467e+18,0.002422972349449992,0.0025682663545012474,-0.0011625513434410095
1.729497490711047e+18,0.0015296995406970382,0.0018482166342437267,-0.0007985448464751244
1.729497490720047e+18,-0.00013080016651656479,-1.6487176253576763e-05,-0.0011884495615959167
1.7294974907290473e+18,0.004399660509079695,0.0014664967311546206,0.003111322410404682
1.7294974907410476e+18,-0.00038114626659080386,0.0006663445383310318,-0.0002494774234946817
1.7294974907500477e+18,0.0002530324854888022,-0.001309253741055727,-0.0022993620950728655
1.729497490759048e+18,-0.0011517060920596123,-0.0015424988232553005,-0.00033971358789131045
1.729497490768048e+18,0.0004794140113517642,0.0023566745221614838,-0.0005468128365464509
1.7294974907770483e+18,-0.00046292334445752203,0.002323765307664871,0.0009077980648726225
1.7294974907860485e+18,-0.003247353481128812,-0.0011236326536163688,-0.00010088011913467199
1.7294974907950487e+18,-0.0007782691973261535,-0.002169790444895625,0.0025208136066794395
1.729497490804049e+18,-0.000405599654186517,0.002738458104431629,0.002012838376685977
1.729497490813049e+18,-0.0018016309477388859,0.00028436974389478564,-0.003476037411019206
1.7294974908250493e+18,-0.0007080602808855474,-4.820406616090622e-07,0.0024786812718957663
1.7294974908340495e+18,0.0014195125550031662,0.001735755824483931,-0.000266709306742996
1.7294974908430497e+18,-0.0009667194681242108,-0.0016642120899632573,0.001535907736979425
1.72949749085205e+18,1.1593127055675723e-05,-0.0003571287670638412,-0.0005171349039301276
1.7294974908640502e+18,0.000702215766068548,-0.0006645550602115691,0.00036191719118505716
1.7294974908730504e+18,0.000254043290624395,0.002449139254167676,0.0029601838905364275
1.7294974908820506e+18,0.0009426554315723479,-0.0007323345053009689,-0.0007615684880875051
1.7294974908910508e+18,-0.0025432866532355547,0.0021227430552244186,0.0005837123026140034
1.729497490900051e+18,0.0009274302865378559,-0.0029177588876336813,-0.00042631026008166373
1.7294974909120512e+18,0.0035390350967645645,0.0034379595890641212,0.0016948471311479807
1.7294974909210514e+18,0.0003848396590910852,0.0005253056297078729,7.139074295992032e-05
1.7294974909300516e+18,-0.0004010509292129427,0.001749850925989449,0.001808765227906406
1.7294974909390518e+18,-0.00036986195482313633,0.0013457817258313298,0.00018185601220466197
1.729497490951052e+18,-2.2545353203895502e-05,0.0007707811309956014,-0.0003482764877844602
1.7294974909600522e+18,0.0006108721136115491,-0.0025748228654265404,0.0005326233804225922
1.7294974909690524e+18,-8.618961146567017e-05,-0.0027407417073845863,0.0005694148712791502
1.7294974909780526e+18,-0.001086374861188233,0.0009186258539557457,0.0007186266593635082
1.7294974909870528e+18,0.0016361224697902799,-0.0005732059944421053,0.0002573941892478615
1.729497490999053e+18,-0.0018351397011429071,0.0003149102267343551,0.0016466508386656642
1.7294974910080532e+18,-0.0023691176902502775,-0.0005920658586546779,0.0020839308854192495
1.7294974910170534e+18,0.003269333392381668,-0.0023495962377637625,-0.0006196348695084453
1.7294974910260536e+18,0.0003224499523639679,0.0022446776274591684,-0.0021058721467852592
1.7294974910350538e+18,-0.00044792096014134586,0.0013594161719083786,0.00034293459611944854
1.729497491044054e+18,0.002340919803828001,-0.0010226520244032145,0.0005382916424423456
1.7294974910530542e+18,-0.0015137798618525267,0.0015801512636244297,-8.944611909100786e-05
1.7294974910620544e+18,-0.001976384548470378,0.001004213816486299,-0.0011378226336091757
1.7294974910710546e+18,-0.0016216040821745992,-0.001194086275063455,-0.0033125272020697594
1.7294974910800548e+18,0.0005494901561178267,0.0006381411221809685,0.000163457021699287
1.729497491089055e+18,0.0012749345041811466,-0.003793952986598015,0.0007653982029296458
1.7294974910980552e+18,0.0005328428815118968,-0.0007279225392267108,0.001015308778733015
1.7294974911070554e+18,0.0009202786022797227,0.0007329327636398375,0.00039166962960734963
1.7294974911160556e+18,0.0013127968413755298,0.002854082966223359,-0.00010219856631010771
1.7294974911250557e+18,0.003380289301276207,0.0004950204165652394,0.0012674949830397964
1.729497491134056e+18,-3.295062197139487e-05,0.0004955705953761935,-0.003639666363596916
1.7294974911430561e+18,-0.0011707323137670755,-0.001130893942900002,-0.0028147827833890915
1.7294974911520563e+18,1.5701569282100536e-05,-0.0006365913432091475,-0.002869754796847701
1.7294974911610565e+18,0.0005826776614412665,-0.0028027775697410107,-0.001387789729051292
1.7294974911700567e+18,0.0013386758510023355,0.0004061713407281786,0.0006737656076438725
1.729497491179057e+18,-0.0030273562297225,-0.000138391405926086,-0.0020349728874862194
1.729497491188057e+18,0.0010288226185366511,-0.00048632785910740495,-7.259432459250093e-05
1.7294974911970573e+18,-0.001612319378182292,0.00017205608310177922,-0.0005599758587777615
1.7294974912060575e+18,0.003208197420462966,-0.0023413689341396093,0.0007551771122962236
1.7294974912150577e+18,0.0009587535751052201,0.0010910836281254888,0.000408367021009326
1.7294974912210578e+18,-0.0013506091199815273,-0.00011632322275545448,-0.0003334486100357026
1.729497491230058e+18,0.003030428197234869,0.001194029813632369,0.0018067563651129603
1.7294974912390582e+18,0.001316154608502984,-0.0003293971240054816,0.000315657292958349
1.7294974912480584e+18,0.0016063102521002293,0.0029817342292517424,-0.0005116353277117014
1.7294974912570586e+18,5.6864857469918206e-05,-0.0008810247527435422,-0.00021814196952618659
1.7294974912660588e+18,0.0009533369448035955,-0.0034385647159069777,0.0004986760905012488
1.729497491275059e+18,0.003506437875330448,-0.0010012643178924918,-0.0013174237683415413
1.7294974912840591e+18,0.001631987513974309,-0.0003504688502289355,0.0012575892033055425
1.7294974912930593e+18,-0.0022376454435288906,-0.0005001026438549161,-0.0010419011814519763
1.7294974912990595e+18,0.0004827644443139434,0.0004117899516131729,-0.001372827566228807
1.7294974913080596e+18,5.5933188747303575e-08,0.0005921624251641333,-0.001627456396818161
1.7294974913170598e+18,0.0002931076451204717,-0.0010596903739497066,0.0006685170810669661
1.72949749132606e+18,0.002027084119617939,0.0005773292505182326,0.00246256310492754
1.7294974913350602e+18,-0.0008688292582519352,1.4920792636985425e-05,-0.001762454048730433
1.7294974913440604e+18,0.001081977621652186,-7.981483213370666e-05,0.00010549630678724498
1.7294974913500605e+18,-0.0005313979927450418,0.0013032674323767424,-0.0011661723256111145
1.7294974913590607e+18,-0.00033937793341465294,-0.000207845339900814,-0.0009283794788643718
1.729497491368061e+18,5.113288807478966e-06,0.0015485725598409772,-0.0015714532928541303
1.729497491377061e+18,-0.002332390286028385,-0.0012039707507938147,-0.002483175601810217
1.7294974913860613e+18,0.00042182370088994503,0.0017611556686460972,-0.001179539947770536
1.7294974913950615e+18,2.5616733182687312e-05,0.0012449831701815128,-0.00038725833292119205
1.7294974914010616e+18,0.0016858282033354044,-0.00042944058077409863,-0.0011811143485829234
1.7294974914100618e+18,-0.00038153762579895556,-0.0025852348189800978,0.00018904669559560716
1.729497491419062e+18,-0.00015596867888234556,-0.000480055547086522,-0.0014037236105650663
1.7294974914280622e+18,0.002874201163649559,-0.0027909469790756702,-0.0020042092073708773
1.7294974914340623e+18,0.00034136505564674735,-0.0010585394920781255,-0.0008444295963272452
1.7294974914430625e+18,0.00028830679366365075,0.0014184375759214163,-0.0008617550483904779
1.7294974914520627e+18,0.00037727609742432833,0.0031122881919145584,0.002112436341121793
1.7294974914580628e+18,-0.002580784959718585,-0.00046907394425943494,-0.00042586566996760666
1.729497491467063e+18,-0.0016085209790617228,-0.0012379451654851437,-0.0014423222746700048
1.7294974914730632e+18,0.0009854029631242156,0.0011062079574912786,-0.002200305461883545
1.7294974914820634e+18,0.0024859718978405,0.0007018838659860194,0.00013383588520810008
1.7294974914910636e+18,-0.0012489337241277099,-0.001317209447734058,0.0005630756495520473
1.7294974915000637e+18,0.000881747342646122,0.001530348090454936,-0.0015098333824425936
1.729497491506064e+18,-0.0006937025464139879,-0.0006319427629932761,-0.0005009499727748334
1.729497491515064e+18,0.001202619168907404,0.0023291294928640127,0.0003055437409784645
1.7294974915210642e+18,-0.0011454406194388866,-0.0009384822915308177,0.0012660529464483261
1.729497491554065e+18,0.0007975458283908665,-0.000548713665921241,-0.0010129252914339304
1.729497491563065e+18,-0.0034699621610343456,0.00047385942889377475,1.324141430814052e-05
1.7294974915690652e+18,-0.002918053651228547,-0.003193282289430499,-0.00037308078026399016
1.7294974915780654e+18,-0.0007705396274104714,-0.0009100969764403999,-0.0008654181729070842
1.7294974915870656e+18,-0.002066161949187517,0.00016023051284719259,-0.0005650231032632291
1.7294974915960658e+18,-0.0013308534398674965,1.9667895685415715e-05,-0.0003874421236105263
1.729497491605066e+18,0.0003357673704158515,0.0007675066590309143,-0.0011962001444771886
1.729497491611066e+18,-0.0021013582590967417,0.0007462381036020815,0.0005851847818121314
1.7294974916200663e+18,-0.0004349225200712681,-0.0007997152279131114,-0.00030504638561978936
1.7294974916290665e+18,0.0010417373850941658,0.0014565484598279,0.0010729908244684339
1.7294974916380667e+18,0.003359433263540268,0.002539707813411951,0.001406955299898982
1.7294974916440668e+18,0.0002797838533297181,0.002224687719717622,0.0018030391074717045
1.729497491653067e+18,0.00018275115871801972,0.002649411791935563,0.0006908942596055567
1.7294974916620672e+18,0.0020610312931239605,0.0026406862307339907,-0.0015184399671852589
1.7294974916680673e+18,-0.0019918119069188833,-0.003658328438177705,-0.00040771698695607483
1.7294974916770675e+18,0.0006778385140933096,0.0009269978036172688,0.0005264290375635028
1.7294974916860677e+18,0.0016910933190956712,0.0006287778378464282,-0.002666453830897808
1.729497491695068e+18,0.0020496100187301636,-0.0026711001992225647,-0.0008641125750727952
1.729497491701068e+18,-0.00039372025639750063,-0.002723706653341651,0.0017261287430301309
1.7294974917100682e+18,-0.0008598156273365021,-4.4834483560407534e-05,0.000775348802562803
1.7294974917190684e+18,0.00028099826886318624,-0.0006084117922000587,0.0019260285189375281
1.7294974917280686e+18,0.0010231939377263188,-0.00046208954881876707,-0.0009209494455717504
1.7294974917370688e+18,-0.000786521122790873,0.001785080530680716,0.0007914399029687047
1.729497491743069e+18,0.0011813683668151498,0.001036114408634603,0.0021367999725043774
1.729497491752069e+18,0.0006642166408710182,0.0006485787453129888,-0.0006111635593697429
1.7294974917610693e+18,0.0009200070053339005,0.00032078256481327116,0.00040668845758773386
1.7294974917700695e+18,-0.0016716227401047945,-0.0007664637523703277,0.0026747090741991997
1.7294974917790697e+18,-0.0014378532068803906,0.0005141707952134311,0.000880416133441031
1.7294974917850698e+18,0.026381628587841988,-0.009276684373617172,0.0015521376626566052
1.72949749179407e+18,0.1941530704498291,-0.05255432426929474,-0.0007045770762488246
1.7294974918060703e+18,0.40445321798324585,-0.11677401512861252,-0.0011950347106903791
1.7294974918120704e+18,0.48058977723121643,-0.1462414264678955,-0.002066663932055235
1.7294974918210706e+18,0.5252076983451843,-0.16112792491912842,0.0023168865591287613
1.7294974918300708e+18,0.47596895694732666,-0.15898314118385315,-0.00046042032772675157
1.729497491839071e+18,0.38746577501296997,-0.14502392709255219,-0.0002531729405745864
1.729497491845071e+18,0.33638766407966614,-0.13356338441371918,0.0015569007955491543
1.7294974918540713e+18,0.29602348804473877,-0.12759923934936523,0.001389798242598772
1.7294974918630715e+18,0.32278501987457275,-0.12833605706691742,-0.00029270219965837896
1.7294974918720717e+18,0.3818169832229614,-0.13608373701572418,-0.003226672299206257
1.7294974918810719e+18,0.4306136965751648,-0.14387911558151245,-0.001738883787766099
1.729497491887072e+18,0.434157133102417,-0.14318875968456268,-0.0012978481827303767
1.7294974918960722e+18,0.39493706822395325,-0.13860982656478882,-0.00045666529331356287
1.7294974919050724e+18,0.3114001154899597,-0.12326674163341522,0.0016079111956059933
1.7294974919140726e+18,0.22250251471996307,-0.1051178053021431,-0.0014185013715177774
1.7294974919230728e+18,0.16479799151420593,-0.09301009029150009,-0.0030621588230133057
1.729497491929073e+18,0.14919157326221466,-0.08203943818807602,0.0005816968623548746
1.729497491938073e+18,0.15879179537296295,-0.07435304671525955,-0.0030396687798202038
1.7294974919470733e+18,0.18013931810855865,-0.06744803488254547,0.0003888332284986973
1.7294974919530734e+18,0.18680314719676971,-0.06396212428808212,0.0016740125138312578
1.7294974919620736e+18,0.16882482171058655,-0.05509265884757042,-0.0019812313839793205
1.7294974919710738e+18,0.11840293556451797,-0.045317620038986206,0.0003149748663417995
1.729497491980074e+18,0.052078839391469955,-0.02963271737098694,0.00023314246209338307
1.729497491986074e+18,0.009247865527868271,-0.024209050461649895,0.000210012833122164
1.7294974919980744e+18,-0.03677661344408989,-0.008403965272009373,-0.0027617919258773327
1.7294974920070746e+18,-0.04378857463598251,-5.24747883901e-06,-0.0020998106338083744
1.7294974920130747e+18,-0.03548196330666542,0.005167614668607712,-0.0014727814123034477
1.729497492022075e+18,-0.021067379042506218,0.01116385031491518,-0.0001053614541888237
1.729497492031075e+18,-0.028371527791023254,0.014158528298139572,-0.00016167480498552322
1.7294974920400753e+18,-0.054693207144737244,0.027139749377965927,-0.0014874300686642528
1.7294974920490755e+18,-0.09616000950336456,0.03244517371058464,-0.0016293034423142672
1.7294974920580756e+18,-0.13681557774543762,0.038519177585840225,0.0006413974333554506
1.7294974920670758e+18,-0.16092512011528015,0.04239610955119133,0.00015328789595514536
1.729497492076076e+18,-0.16014409065246582,0.04849303886294365,0.0017726607620716095
1.7294974920850762e+18,-0.1479996293783188,0.05316392704844475,-0.00044753646943718195
1.7294974920940764e+18,-0.13001231849193573,0.053637899458408356,-0.0011072535999119282
1.7294974921000765e+18,-0.1302577555179596,0.055897995829582214,-0.0014798612101003528
1.7294974921090767e+18,-0.13962562382221222,0.057440780103206635,0.00020845106337219477
1.729497492118077e+18,-0.16105596721172333,0.06126810610294342,0.00020039116498082876
1.729497492124077e+18,-0.17780445516109467,0.06513811647891998,-0.0015569422394037247
1.7294974921330772e+18,-0.1968444436788559,0.06429590284824371,-0.0020372415892779827
1.7294974921420774e+18,-0.19673259556293488,0.06709334999322891,-0.003171167802065611
1.7294974921480776e+18,-0.19089795649051666,0.0676497295498848,-0.0011235231067985296
1.7294974921570778e+18,-0.1753339320421219,0.06989461183547974,-0.0046877204440534115
1.729497492166078e+18,-0.15881435573101044,0.06749626994132996,-0.0005771676078438759
1.7294974921750781e+18,-0.15412214398384094,0.0678369402885437,-0.0020091610495001078
1.7294974921840783e+18,-0.1620919406414032,0.061270348727703094,3.536837175488472e-05
1.7294974921900785e+18,-0.1706143319606781,0.06758694350719452,-0.0009233581367880106
1.7294974921990787e+18,-0.18288388848304749,0.06634306907653809,-0.002579009160399437
1.7294974922080788e+18,-0.18659266829490662,0.06669045984745026,-0.002522823167964816
1.729497492214079e+18,-0.18242546916007996,0.06847074627876282,-0.002546577248722315
1.7294974922230792e+18,-0.16921761631965637,0.0662909746170044,-0.0034558905754238367
1.7294974922290793e+18,-0.15322142839431763,0.06428934633731842,0.001406273921020329
1.7294974922380795e+18,-0.13871034979820251,0.06271971762180328,-0.0019460204057395458
1.7294974922470797e+18,-0.13562726974487305,0.059866052120923996,-0.0032109806779772043
1.72949749225608e+18,-0.14197780191898346,0.05825158208608627,-0.0022364945616573095
1.72949749226208e+18,-0.14589332044124603,0.05579466372728348,-0.0010860752081498504
1.7294974922710802e+18,-0.1524549424648285,0.05668272078037262,-0.001288209343329072
1.7294974922800804e+18,-0.15197350084781647,0.05364949628710747,-5.890137981623411e-05
1.7294974922860805e+18,-0.14320625364780426,0.05381708964705467,0.0023472411558032036
1.7294974922950807e+18,-0.13433964550495148,0.05315583571791649,-0.003254157956689596
1.729497492304081e+18,-0.11775927990674973,0.050955869257450104,-0.0019939527846872807
1.729497492313081e+18,-0.10941829532384872,0.04683538153767586,-0.0013853847049176693
1.7294974923190812e+18,-0.10798991471529007,0.04463596269488335,-0.0007818662561476231
1.7294974923280814e+18,-0.10867047309875488,0.04386163502931595,-0.0003787112655118108
1.7294974923340815e+18,-0.11354344338178635,0.046345751732587814,-0.0007536592893302441
1.7294974923430817e+18,-0.11972105503082275,0.04109806939959526,-0.0011120187118649483
1.7294974923490819e+18,-0.12018758058547974,0.03916482254862785,-0.003014675807207823
1.729497492358082e+18,-0.11235664039850235,0.04073323681950569,-0.002291350858286023
1.7294974923670822e+18,-0.10152463614940643,0.035496313124895096,-0.0017685131169855595
1.7294974923730824e+18,-0.09116903692483902,0.0346204899251461,-0.0029608013574033976
1.7294974923820826e+18,-0.0851600170135498,0.034229643642902374,-0.0019898200407624245
1.7294974923910828e+18,-0.08567778766155243,0.03421175852417946,-0.0030148522928357124
1.729497492400083e+18,-0.08783847093582153,0.033014290034770966,-0.0030706801917403936
1.7294974924090831e+18,-0.09586934000253677,0.03162408247590065,-0.0006879197899252176
1.7294974924150833e+18,-0.0998738631606102,0.03157287463545799,-0.002409370383247733
1.7294974924240835e+18,-0.0955105647444725,0.030971994623541832,-0.003929270431399345
1.7294974924330836e+18,-0.0863696038722992,0.025479743257164955,0.000365022337064147
1.7294974924390838e+18,-0.08071741461753845,0.0265553817152977,-0.003970582969486713
1.729497492448084e+18,-0.0728074312210083,0.024606920778751373,-0.0031690243631601334
1.7294974924570842e+18,-0.07127927988767624,0.02538995072245598,-0.0035677701234817505
1.7294974924660844e+18,-0.06648772209882736,0.0247507244348526,-0.001976445084437728
1.7294974924750845e+18,-0.0747402235865593,0.026241950690746307,-0.0032018269412219524
1.7294974924810847e+18,-0.07308072596788406,0.025406306609511375,-0.004937597084790468
1.7294974924900849e+18,-0.07715313881635666,0.025871995836496353,-0.004630253650248051
1.729497492499085e+18,-0.0731726661324501,0.023770926520228386,-0.0007007073145359755
1.7294974925080852e+18,-0.06951475143432617,0.020781397819519043,-0.0013478761538863182
1.7294974925170854e+18,-0.06257878988981247,0.02537461183965206,-0.0027084480971097946
1.7294974925290857e+18,-0.05638359487056732,0.020374666899442673,-0.0025862478651106358
1.729497492541086e+18,-0.05902545899152756,0.02164684608578682,-0.0017555621452629566
1.7294974925500861e+18,-0.0607125423848629,0.02415563352406025,-0.002008810406550765
1.7294974925560863e+18,-0.06067308038473129,0.023157194256782532,-0.0008748341351747513
1.7294974925650865e+18,-0.05622026324272156,0.020509090274572372,0.0019783866591751575
1.7294974925740867e+18,-0.05738052353262901,0.019211404025554657,-0.002061059232801199
1.7294974925800868e+18,-0.05074812099337578,0.016192292794585228,-0.0010041927453130484
1.729497492589087e+18,-0.04879727587103844,0.016240764409303665,0.0006544553907588124
1.7294974925980872e+18,-0.05274370312690735,0.014464806765317917,-0.000979576725512743
1.7294974926040873e+18,-0.04497675597667694,0.015705665573477745,-0.003454583929851651
1.7294974926130875e+18,-0.04991840198636055,0.015216752886772156,0.000311494804918766
1.7294974926220877e+18,-0.0511920303106308,0.015289396978914738,-0.00037937460001558065
1.7294974926310879e+18,-0.04853016883134842,0.012828747741878033,0.0007121732924133539
1.729497492637088e+18,-0.048277348279953,0.014858070760965347,-0.003296069335192442
1.7294974926460882e+18,-0.046580322086811066,0.012584072537720203,-0.002008807146921754
1.7294974926550884e+18,-0.049536749720573425,0.013445272110402584,9.340350516140461e-06
1.7294974926610885e+18,-0.04682578146457672,0.009793376550078392,-0.0023024464026093483
1.7294974926700887e+18,-0.04799150675535202,0.012264098040759563,-0.003283820115029812
1.729497492679089e+18,-0.04396588355302811,0.0127768125385046,-0.000726961181499064
1.729497492688089e+18,-0.04551122710108757,0.011115897446870804,-0.003172614611685276
1.7294974926940892e+18,-0.04681471735239029,0.013155157677829266,-0.0023672746028751135
1.7294974927030894e+18,-0.04594607278704643,0.012805137783288956,-0.0005346959223970771
1.7294974927120896e+18,-0.046299148350954056,0.010896225459873676,-0.002108030952513218
1.7294974927210898e+18,-0.04327176883816719,0.008809618651866913,-0.0005598815623670816
1.72949749273009e+18,-0.03941851109266281,0.009419801644980907,-0.002855950500816107
1.72949749273609e+18,-0.038883235305547714,0.007978146895766258,-0.003789035603404045
1.7294974927450903e+18,-0.039269279688596725,0.012234004214406013,-0.0037392079830169678
1.7294974927540905e+18,-0.04025242105126381,0.010219856165349483,-0.00010277947876602411
1.7294974927630907e+18,-0.04025959596037865,0.01214637327939272,-0.0033060014247894287
1.729497492772091e+18,-0.03874305635690689,0.009393639862537384,-0.002324011642485857
1.729497492778091e+18,-0.03788083791732788,0.010112127289175987,-0.0031847646459937096
1.7294974927870912e+18,-0.035742711275815964,0.011070630513131618,-0.0021498841233551502
1.7294974927930913e+18,-0.03265351057052612,0.01109775435179472,0.0005724356742575765
1.7294974928020915e+18,-0.029658963903784752,0.01156771183013916,0.0013693911023437977
1.7294974928110917e+18,-0.029779627919197083,0.013160977512598038,-7.48391030356288e-05
1.729497492820092e+18,-0.0322752520442009,0.012098864652216434,-0.0021528517827391624
1.729497492826092e+18,-0.02862836793065071,0.011855915188789368,-3.5511329770088196e-05
1.7294974928350922e+18,-0.032233454287052155,0.00999271310865879,-0.0010533505119383335
1.7294974928440924e+18,-0.028141340240836143,0.008251780644059181,0.0006360206753015518
1.7294974928500925e+18,-0.029642675071954727,0.006344495806843042,-0.0012466621119529009
1.7294974928590927e+18,-0.026532262563705444,0.008134372532367706,-0.0034935767762362957
1.729497492868093e+18,-0.026204023510217667,0.008328326977789402,-0.0014593548839911819
1.729497492877093e+18,-0.026522045955061913,0.009282770566642284,-0.0009087339276447892
1.7294974928830932e+18,-0.025460287928581238,0.009826715104281902,-0.0010643487330526114
1.7294974928920934e+18,-0.025425614789128304,0.008399139158427715,0.000471515697427094
1.7294974929010936e+18,-0.025907913222908974,0.0053609032183885574,1.1841068044304848e-05
1.7294974929100938e+18,-0.027961842715740204,0.005724349990487099,-0.0005348363192752004
1.729497492919094e+18,-0.024477658793330193,0.0035787387751042843,-0.00278679933398962
1.7294974929250941e+18,-0.0288439579308033,0.007351784035563469,-0.0029731271788477898
1.7294974929340943e+18,-0.02507958933711052,0.009535575285553932,0.0026741628535091877
1.7294974929430945e+18,-0.022496799007058144,0.009644300676882267,-0.0009679842041805387
1.7294974929520947e+18,-0.021757004782557487,0.007264410611242056,-0.00025240611284971237
1.729497492961095e+18,-0.023764440789818764,0.006788850296288729,-0.0007545767584815621
1.729497492967095e+18,-0.025452645495533943,0.009713171981275082,0.0015121474862098694
1.7294974929760952e+18,-0.026463020592927933,0.008853922598063946,-0.0011558858677744865
1.7294974929880955e+18,-0.02174559235572815,0.009408192709088326,0.0006849633646197617
1.7294974929970957e+18,-0.0214430782943964,0.011141783557832241,1.171720214188099e-06
1.729497493006096e+18,-0.01707332581281662,0.005727953277528286,0.002063410822302103
1.729497493015096e+18,-0.017923668026924133,0.010107630863785744,-0.0012170972768217325
1.7294974930240963e+18,-0.020980199798941612,0.010664321482181549,-0.004851918667554855
1.7294974930330964e+18,-0.019636988639831543,0.0048393309116363525,0.0009216907783411443
1.7294974930420966e+18,-0.018593812361359596,0.008134507574141026,-0.0003077216097153723
1.7294974930510968e+18,-0.01745980605483055,0.007720193825662136,0.00059140520170331
1.729497493057097e+18,-0.01649158075451851,0.010000523179769516,-0.0010011845733970404
1.7294974930660972e+18,-0.010906253010034561,0.009485491551458836,0.0005700000911019742
1.7294974930750973e+18,-0.014576597139239311,0.012256299145519733,-0.000644908519461751
1.7294974930840975e+18,-0.01834072545170784,0.011658563278615475,-0.0028299971017986536
1.7294974930930977e+18,-0.013378768227994442,0.008010714314877987,-0.00037632492603734136
1.729497493102098e+18,-0.014595829881727695,0.00565145630389452,-0.002158279763534665
1.729497493111098e+18,-0.008285459131002426,0.005956754088401794,0.001051478786394
1.7294974931200983e+18,-0.010041667148470879,0.007504332810640335,-0.0003011727530974895
1.7294974931260984e+18,-0.009511216543614864,0.007192212622612715,-0.00037012313259765506
1.7294974931380987e+18,-0.007449156604707241,0.0021186317317187786,0.0005999614950269461
1.7294974931440988e+18,-0.00764261931180954,0.003125479444861412,-0.0013904102379456162
1.729497493153099e+18,-0.006467838771641254,0.003969043027609587,-0.0026203787419945
1.7294974931620992e+18,-0.008497190661728382,0.0037789198104292154,-4.0299317333847284e-05
1.7294974931710994e+18,-0.011054251343011856,0.005473404657095671,0.0007250994676724076
1.7294974931800996e+18,-0.008315425366163254,0.0025368481874465942,0.0021263547241687775
1.7294974931860997e+18,-0.009526003152132034,0.0017025782726705074,-0.00029408515547402203
1.7294974931951e+18,-0.004349494352936745,-0.003636834444478154,-0.0005261735641397536
1.7294974932041e+18,0.0029955485370010138,-0.0041015250608325005,-0.0013845369685441256
1.7294974932131003e+18,0.0011196582345291972,-0.0008490515174344182,0.0003681795496959239
1.7294974932221005e+18,-0.003537848824635148,0.0016694064252078533,-0.0015252577140927315
1.7294974932311007e+18,-0.003881049109622836,0.0015601366758346558,-0.0012806867016479373
1.7294974932401009e+18,-0.008996101096272469,0.002296190243214369,0.0005366299883462489
1.729497493249101e+18,-0.003512454219162464,0.001317960093729198,-0.0013119685463607311
1.7294974932581012e+18,-0.0033455684315413237,-0.0013678548857569695,-0.00022357353009283543
1.7294974932641014e+18,-0.0024464172311127186,-0.005786035675555468,0.000721145246643573
1.7294974932731016e+18,0.00029696826823055744,-0.00223418022505939,0.0011114239459857345
1.7294974932821018e+18,0.001583494246006012,-0.0026887187268584967,-0.00016080211207736284
1.729497493291102e+18,0.0016238484531641006,-0.000910919567104429,-2.0814659364987165e-05
1.729497493297102e+18,0.000703647150658071,-0.00048063037684187293,-0.0002608742215670645
1.7294974933061023e+18,0.001967070158571005,-0.0008205975173041224,0.00010619595559546724
1.7294974933151025e+18,-0.0004092846647836268,-0.00217511598020792,0.0003528268716763705
1.7294974933241027e+18,0.00298600597307086,-0.00546696363016963,-0.0005403549293987453
1.7294974933301028e+18,0.00422580586746335,-0.00552012026309967,-0.0022169502917677164
1.729497493339103e+18,0.0059390985406935215,-0.004157288931310177,-0.0012068514479324222
1.7294974933481032e+18,0.005840234458446503,0.0005506919696927071,0.0011731414124369621
1.7294974933571034e+18,0.004849172197282314,-0.002162726828828454,-0.0009580387268215418
1.7294974933661036e+18,0.007200702093541622,-0.0038603097200393677,0.00016871915431693196
1.7294974933751037e+18,0.0035826023668050766,-0.002264412585645914,-0.0008634980185888708
1.7294974933811039e+18,0.0020944159477949142,-0.002870334777981043,-0.0008655915153212845
1.729497493390104e+18,0.00782662071287632,-0.0038635358214378357,0.0016092178411781788
1.7294974933991043e+18,0.004480216186493635,-0.002068654866889119,0.0006400494603440166
1.7294974934081044e+18,0.006868589669466019,-0.0005335313035175204,0.003149384167045355
1.7294974934141046e+18,0.008043666370213032,0.000933401461225003,-0.0023586710449308157
1.7294974934231048e+18,0.010254456661641598,0.0016662818379700184,-0.00042638974264264107
1.729497493432105e+18,0.00892401672899723,-0.0002240832254756242,0.003514277981594205
1.7294974934411052e+18,0.01095835492014885,0.002343428088352084,0.001999103697016835
1.7294974934501053e+18,0.0066744135692715645,0.0002759902272373438,0.0013560611987486482
1.7294974934591055e+18,0.007320885546505451,-0.0037869871594011784,-0.0003191574942320585
1.7294974934681057e+18,0.005543725099414587,-0.0007936369511298835,0.0012055449187755585
1.729497493477106e+18,0.004877923522144556,6.735074566677213e-05,0.0019377880962565541
1.729497493486106e+18,0.004580215085297823,0.0026500278618186712,0.0006316775688901544
1.7294974934951063e+18,0.006777020636945963,0.0030203992500901222,-0.00027968722861260176
1.7294974935011064e+18,0.004631098825484514,0.0013334242394194007,0.005582044366747141
1.7294974935131067e+18,0.007555925752967596,0.0004633977951016277,0.002342019695788622
1.7294974935191068e+18,0.00790299940854311,-0.0011332888389006257,-0.0010505157988518476
1.729497493528107e+18,0.011187606491148472,-0.002442670054733753,0.0021330928429961205
1.7294974935371072e+18,0.007607836276292801,0.0005868406733497977,-0.0001347691286355257
1.7294974935461074e+18,0.005826894659548998,0.004305582493543625,0.0035878759808838367
1.7294974935521075e+18,0.004411639645695686,0.0053983465768396854,0.0038884261157363653
1.7294974935611077e+18,0.00746344868093729,0.005261528305709362,0.003964544273912907
1.729497493570108e+18,0.005522785242646933,0.004386670421808958,-0.00023020547814667225
1.729497493579108e+18,0.0066136326640844345,0.004200867377221584,0.005739681888371706
1.7294974935881083e+18,0.009294389747083187,-0.0006035895785316825,0.0014149227645248175
1.7294974935971085e+18,0.011116285808384418,0.0002259605680592358,0.0018996953731402755
1.7294974936061087e+18,0.011499985121190548,0.0010974439792335033,0.002015694510191679
1.7294974936151089e+18,0.00996920932084322,0.0010844573844224215,0.0006227095145732164
1.729497493624109e+18,0.010241730138659477,0.001740231062285602,0.0019602333195507526
1.7294974936331092e+18,0.009846081025898457,-0.0031363284215331078,0.0030812914483249187
1.7294974936421094e+18,0.009205804206430912,-0.003686014097183943,0.0021223302464932203
1.7294974936511096e+18,0.006254853680729866,-0.0019279150292277336,0.002224498428404331
1.7294974936601098e+18,0.01162025984376669,-0.0022962363436818123,0.006966290529817343
1.72949749366911e+18,0.013872728683054447,-0.0029665061738342047,0.0027892948128283024
1.7294974936781102e+18,0.012864808551967144,-0.0021754084154963493,0.0036157078575342894
1.7294974936871104e+18,0.014405223540961742,-0.003698578802868724,0.004229080397635698
1.7294974936961106e+18,0.01428426057100296,-0.0055978004820644855,0.0043092453852295876
1.7294974937051108e+18,0.013946889899671078,-0.00562736950814724,0.004089001100510359
1.729497493714111e+18,0.013334667310118675,-0.005235058255493641,0.0027624652720987797
1.7294974937231112e+18,0.011599020101130009,-0.005798717495054007,0.005760771222412586
1.7294974937321114e+18,0.014675639569759369,-0.0052381958812475204,0.003584242658689618
1.7294974937411116e+18,0.016108324751257896,-0.003931586630642414,0.002414208371192217
1.7294974937501117e+18,0.016829924657940865,-0.005094251129776239,0.002072482369840145
1.729497493759112e+18,0.0191680658608675,-0.005799188278615475,0.0017978583928197622
1.729497493768112e+18,0.01840844936668873,-0.005487681832164526,0.006256932392716408
1.7294974937771123e+18,0.013968309387564659,-0.008275150321424007,0.0031862438190728426
1.7294974937861125e+18,0.012321626767516136,-0.006588109768927097,0.0043192291632294655
1.7294974937951127e+18,0.0186504777520895,-0.008469068445265293,0.003764159046113491
1.7294974938011128e+18,0.016300983726978302,-0.005638124421238899,0.004558993503451347
1.729497493810113e+18,0.019883403554558754,-0.008169319480657578,0.0032733846455812454
1.7294974938191132e+18,0.020530017092823982,-0.007234110962599516,0.004079540725797415
1.7294974938281134e+18,0.018331242725253105,-0.006790367886424065,0.0031664250418543816
1.7294974938371136e+18,0.02039002999663353,-0.008677362464368343,0.00419762684032321
1.7294974938461138e+18,0.02067832089960575,-0.009857830591499805,0.004394527990370989
1.729497493855114e+18,0.015983574092388153,-0.006240593269467354,0.005858914460986853
1.7294974938641142e+18,0.017428778111934662,-0.007932758890092373,0.004438093397766352
1.7294974938731144e+18,0.017865292727947235,-0.00618854071944952,0.0008466660510748625
1.7294974938851146e+18,0.019156476482748985,-0.006998084019869566,0.003424272872507572
1.7294974938941148e+18,0.021600155159831047,-0.0060219839215278625,0.00685472134500742
1.729497493900115e+18,0.021003179252147675,-0.004811767488718033,0.00286873453296721
1.7294974939091151e+18,0.02027062140405178,-0.004918866790831089,0.001537772361189127
1.7294974939181153e+18,0.01764880120754242,-0.006783347111195326,0.002576445695012808
1.7294974939271155e+18,0.0195325817912817,-0.008538729511201382,0.003765461500734091
1.7294974939361157e+18,0.016941746696829796,-0.006407560780644417,0.005421272478997707
1.7294974939421158e+18,0.015245035290718079,-0.008532460778951645,0.0023546223528683186
1.729497493951116e+18,0.014147411100566387,-0.005820757243782282,0.003900674171745777
1.7294974939601162e+18,0.014164937660098076,-0.006143357139080763,0.002522964496165514
1.7294974939661164e+18,0.016715245321393013,-0.003792380914092064,0.0009542480111122131
1.7294974939751165e+18,0.01918806880712509,-0.009148052893579006,0.0030954405665397644
1.7294974939841167e+18,0.016298169270157814,-0.012866544537246227,0.0054331691935658455
1.729497493993117e+18,0.020774591714143753,-0.008552012965083122,0.00397339416667819
1.729497494002117e+18,0.017668716609477997,-0.003039761446416378,0.004426433704793453
1.7294974940111173e+18,0.016036301851272583,-0.005018595606088638,0.004786559380590916
1.7294974940201175e+18,0.015327537432312965,-0.0073220394551754,0.0019207634031772614
1.7294974940261176e+18,0.015144896693527699,-0.009151192381978035,0.0028945994563400745
1.7294974940351178e+18,0.019547682255506516,-0.008495662361383438,0.004367226269096136
1.729497494041118e+18,0.018561450764536858,-0.010571164079010487,0.0006305354181677103
1.7294974940501181e+18,0.02431444078683853,-0.007899291813373566,0.0030049087945371866
1.7294974940591183e+18,0.018194718286395073,-0.008760093711316586,0.003338563721626997
1.7294974940681185e+18,0.021088745445013046,-0.011304952204227448,0.0023461435921490192
1.7294974940771187e+18,0.01853973977267742,-0.006408404558897018,0.00010399729944765568
1.729497494086119e+18,0.018150661140680313,-0.00902918167412281,0.0006900278385728598
1.729497494092119e+18,0.017580490559339523,-0.005202851258218288,0.0013579995138570666
1.7294974941011192e+18,0.02065172977745533,-0.006016362924128771,0.0015005151508376002
1.7294974941101194e+18,0.022208888083696365,-0.006409138906747103,0.0019013331038877368
1.7294974941191196e+18,0.019113443791866302,-0.008506087586283684,0.0012292454484850168
1.7294974941251197e+18,0.023007042706012726,-0.009327474981546402,0.00322946859523654
1.72949749413712e+18,0.019343988969922066,-0.008625034242868423,0.003837486496195197
1.7294974941431201e+18,0.019883757457137108,-0.008930128067731857,0.00388205423951149
1.7294974941521203e+18,0.023615987971425056,-0.004110603593289852,0.0021061627194285393
1.7294974941611205e+18,0.02314232662320137,-0.00516413152217865,0.0026882337406277657
1.7294974941701207e+18,0.025223810225725174,-0.006922295317053795,0.003989793360233307
1.729497494179121e+18,0.027921708300709724,-0.006886249408125877,0.0021531861275434494
1.729497494188121e+18,0.026140285655856133,-0.004288429860025644,0.004290023352950811
1.7294974941971213e+18,0.025438988581299782,-0.007551631890237331,0.0030602861661463976
1.7294974942061215e+18,0.022955182939767838,-0.004337646532803774,0.0016680110711604357
1.7294974942121216e+18,0.02045883610844612,-0.006435032468289137,0.0034263399429619312
1.7294974942211218e+18,0.021283119916915894,-0.00661415746435523,0.0033352563623338938
1.729497494230122e+18,0.01854371652007103,-0.006507104262709618,0.005118684843182564
1.7294974942391222e+18,0.02237068861722946,-0.001193667878396809,-0.001238157507032156
1.7294974942451223e+18,0.028499696403741837,0.001181541825644672,-0.014173179864883423
1.7294974942541225e+18,0.030962619930505753,0.010014945641160011,-0.032005779445171356
1.7294974942631227e+18,0.03367038071155548,0.01849285513162613,-0.051077160984277725
1.729497494272123e+18,0.0367090106010437,0.016214316710829735,-0.06439460068941116
1.729497494281123e+18,0.03167131543159485,0.012117014266550541,-0.06505031883716583
1.7294974942901233e+18,0.025654524564743042,0.004250577185302973,-0.06888395547866821
1.7294974942961234e+18,0.018451185896992683,-0.0005028981249779463,-0.06592195481061935
1.7294974943051236e+18,0.020862318575382233,-0.0018288667779415846,-0.06056176871061325
1.7294974943141238e+18,0.01912827230989933,-0.00457307044416666,-0.06235925853252411
1.729497494323124e+18,0.022817231714725494,-0.002652054186910391,-0.06074032932519913
1.729497494329124e+18,0.025599202141165733,-0.0005257879383862019,-0.05701621621847153
1.7294974943381243e+18,0.025090303272008896,-0.00317057385109365,-0.06107034906744957
1.7294974943471245e+18,0.024498965591192245,-0.005840883124619722,-0.05602313205599785
1.7294974943531246e+18,0.02298620156943798,-0.005966251250356436,-0.057392459362745285
1.7294974943621248e+18,0.019787486642599106,-0.00835332926362753,-0.056454144418239594
1.729497494371125e+18,0.018301894888281822,-0.010910041630268097,-0.053477197885513306
1.7294974943801252e+18,0.012510833330452442,-0.009525326080620289,-0.05187798663973808
1.7294974943891254e+18,0.01674583926796913,-0.010884052142500877,-0.05039286985993385
1.7294974943981256e+18,0.018542243167757988,-0.009444302879273891,-0.045251861214637756
1.7294974944041257e+18,0.0185939259827137,-0.014197246171534061,-0.045011721551418304
1.729497494413126e+18,0.019801968708634377,-0.012228884734213352,-0.04366745054721832
1.729497494419126e+18,0.022021416574716568,-0.01400583703070879,-0.04347094148397446
1.7294974944281262e+18,0.0205373577773571,-0.016222231090068817,-0.038340844213962555
1.7294974944371264e+18,0.018489640206098557,-0.01242263987660408,-0.04070160910487175
1.7294974944461266e+18,0.02181481383740902,-0.01436610147356987,-0.03646702319383621
1.7294974944521267e+18,0.020099282264709473,-0.016674326732754707,-0.03586168959736824
1.729497494461127e+18,0.018474753946065903,-0.01285221055150032,-0.03558817505836487
1.729497494470127e+18,0.018375186249613762,-0.011647040955722332,-0.032339513301849365
1.7294974944761272e+18,0.015590316615998745,-0.013396978378295898,-0.029712803661823273
1.7294974944851274e+18,0.018420496955513954,-0.012999962083995342,-0.02623927779495716
1.7294974944941276e+18,0.019226111471652985,-0.012437473051249981,-0.026388702914118767
1.7294974945001277e+18,0.021775303408503532,-0.011517352424561977,-0.02521504834294319
1.729497494509128e+18,0.022633010521531105,-0.01260819099843502,-0.020414210855960846
1.729497494518128e+18,0.022397363558411598,-0.01312980055809021,-0.02197185531258583
1.7294974945241283e+18,0.020442064851522446,-0.014592158608138561,-0.023867527022957802
1.7294974945331284e+18,0.01910359598696232,-0.012225045822560787,-0.020578786730766296
1.7294974945421286e+18,0.020983001217246056,-0.007406413089483976,-0.018211066722869873
1.7294974945511288e+18,0.02258864976465702,-0.0052977921441197395,-0.017243575304746628
1.729497494560129e+18,0.025207746773958206,-0.0067606596276164055,-0.012231871485710144
1.7294974945691292e+18,0.021609321236610413,-0.008000941947102547,-0.011843868531286716
1.7294974945751293e+18,0.02331673540174961,-0.004694610834121704,-0.008718649856746197
1.7294974945841295e+18,0.017300743609666824,-0.005348569713532925,-0.011060941964387894
1.7294974945931297e+18,0.01695268228650093,-0.0041122278198599815,-0.005403476767241955
1.7294974945991299e+18,0.019141502678394318,-0.0060874768532812595,-0.0049946242943406105
1.72949749460813e+18,0.01805647276341915,-0.007234528660774231,-0.006168199237436056
1.7294974946171302e+18,0.021598007529973984,-0.0068031195551157,0.00011160853318870068
1.7294974946261304e+18,0.023000793531537056,-0.006536994595080614,0.0002928621834143996
1.7294974946321306e+18,0.022721488028764725,-0.005475940648466349,0.0017076096264645457
1.7294974946411308e+18,0.022792847827076912,-0.007245132699608803,0.0030545457266271114
1.729497494650131e+18,0.025121251121163368,-0.002964447485283017,0.0033867130987346172
1.7294974946591311e+18,0.020394254475831985,-0.0036940656136721373,0.006743403151631355
1.7294974946651313e+18,0.019923539832234383,-0.005985843483358622,0.007933801971375942
1.7294974946741315e+18,0.018824109807610512,-0.0055226050317287445,0.008921144530177116
1.7294974946831316e+18,0.016027819365262985,-0.005592990666627884,0.010871155187487602
1.7294974946921318e+18,0.01782575622200966,-0.00612316420301795,0.014622915536165237
1.729497494698132e+18,0.018491974100470543,-0.005704288370907307,0.016688283532857895
1.7294974947071322e+18,0.018669188022613525,-0.007888145744800568,0.014772684313356876
1.7294974947161324e+18,0.022057771682739258,-0.003832639893516898,0.01781942881643772
1.7294974947221325e+18,0.023812439292669296,-0.006980319507420063,0.021219581365585327
1.7294974947311327e+18,0.025359272956848145,-0.007742777932435274,0.01950150728225708
1.7294974947401329e+18,0.021965904161334038,-0.008941588923335075,0.02034625969827175
1.729497494746133e+18,0.02311781980097294,-0.0053000785410404205,0.021105671301484108
1.7294974947551332e+18,0.01544926967471838,-0.006552914157509804,0.024225331842899323
1.7294974947641334e+18,0.01770424284040928,-0.007756586652249098,0.025599230080842972
1.7294974947731336e+18,0.015898916870355606,-0.006813710555434227,0.026820946484804153
1.7294974947791337e+18,0.023496393114328384,-0.006969309411942959,0.027563612908124924
1.729497494788134e+18,0.026830168440937996,-0.00593747990205884,0.02594241313636303
1.729497494797134e+18,0.025814883410930634,-0.006162583827972412,0.027631862089037895
1.7294974948031342e+18,0.024268634617328644,-0.007170656230300665,0.026584548875689507
1.7294974948121344e+18,0.02104959823191166,-0.01028049923479557,0.026463620364665985
1.7294974948211346e+18,0.017568416893482208,-0.011485747061669827,0.031136278063058853
1.7294974948301348e+18,0.012158190831542015,-0.006775663234293461,0.03188537433743477
1.729497494839135e+18,0.01807544194161892,-0.009994192980229855,0.03219015151262283
1.729497494845135e+18,0.018523886799812317,-0.009343883022665977,0.031545158475637436
1.7294974948541353e+18,0.019787685945630074,-0.005950971972197294,0.03161802887916565
1.7294974948631355e+18,0.022252775728702545,-0.006312818266451359,0.03492448851466179
1.7294974948691356e+18,0.021203186362981796,-0.0030150513630360365,0.03490564227104187
1.7294974948781358e+18,0.02107626385986805,-0.0061441161669790745,0.03513088449835777
1.729497494884136e+18,0.018373755738139153,-0.003589288331568241,0.037752699106931686
1.7294974948931361e+18,0.01605699211359024,-0.008231072686612606,0.037689872086048126
1.7294974949021363e+18,0.01635712757706642,-0.006866471841931343,0.03895557299256325
1.7294974949081364e+18,0.01620464399456978,-0.007746503222733736,0.039433401077985764
1.7294974949171366e+18,0.016182422637939453,-0.006346202455461025,0.039922039955854416
1.7294974949261368e+18,0.017177248373627663,-0.008343031629920006,0.03615687042474747
1.729497494935137e+18,0.019355392083525658,-0.0022064947988837957,0.03775664418935776
1.7294974949441372e+18,0.01578608900308609,-0.0023481585085392,0.038588136434555054
1.7294974949501373e+18,0.019975386559963226,-0.0038403042126446962,0.039285458624362946
1.7294974949591375e+18,0.017351049929857254,-0.004618619568645954,0.03743308037519455
1.7294974949681377e+18,0.016779284924268723,-0.007907476276159286,0.03730964660644531
1.7294974949741379e+18,0.0138351209461689,-0.007362541276961565,0.038614481687545776
1.729497494983138e+18,0.01353219524025917,-0.008091339841485023,0.03814822807908058
1.7294974949921382e+18,0.014309033751487732,-0.0053068106062710285,0.03629342094063759
1.7294974949981384e+18,0.014279847033321857,-0.0014367529656738043,0.038333818316459656
1.7294974950071386e+18,0.0180615596473217,-0.0023763685021549463,0.03621877729892731
1.7294974950161388e+18,0.017842475324869156,-0.001946290722116828,0.036388032138347626
1.729497495025139e+18,0.015233268961310387,-0.0030008761677891016,0.03223724290728569
1.7294974950341391e+18,0.01578460820019245,-0.005307198502123356,0.03373151272535324
1.7294974950401393e+18,0.013642540201544762,-0.003984660375863314,0.037000253796577454
1.7294974950491395e+18,0.014144782908260822,-0.00025657261721789837,0.032481517642736435
1.7294974950581396e+18,0.01728035695850849,-0.004161906894296408,0.033162061125040054
1.7294974950671398e+18,0.017806485295295715,-0.001137174665927887,0.031199784949421883
1.72949749507314e+18,0.01562766544520855,-0.0039117904379963875,0.03101358748972416
1.7294974950821402e+18,0.020142734050750732,-0.005099114030599594,0.028742888942360878
1.7294974950911404e+18,0.016766300424933434,-0.006833905819803476,0.02763739414513111
1.7294974951001405e+18,0.017062798142433167,-0.0073152463883161545,0.02642371878027916
1.7294974951091407e+18,0.01693877764046192,-0.006575451698154211,0.024108074605464935
1.729497495118141e+18,0.020100366324186325,-0.005401241593062878,0.02433648891746998
1.729497495124141e+18,0.017187101766467094,-0.005708673503249884,0.02394162304699421
1.7294974951331412e+18,0.018184546381235123,-0.005178989842534065,0.01843348890542984
1.7294974951421414e+18,0.016094224527478218,-0.00783922616392374,0.02167302556335926
1.7294974951481416e+18,0.015970712527632713,-0.007716123480349779,0.021734170615673065
1.7294974951571418e+18,0.012910704128444195,-0.004540472757071257,0.02152179926633835
1.729497495166142e+18,0.011808313429355621,-0.007902677170932293,0.019676102325320244
1.7294974951751421e+18,0.012035512365400791,-0.006160745397210121,0.016741422936320305
1.7294974951841423e+18,0.01369184534996748,-0.009979053400456905,0.016603246331214905
1.7294974951901425e+18,0.016048794612288475,-0.008188431151211262,0.011837313883006573
1.7294974951991427e+18,0.01874665915966034,-0.006185460835695267,0.012874645181000233
1.7294974952081428e+18,0.012735961936414242,-0.009038255549967289,0.01048565935343504
1.729497495217143e+18,0.014720114879310131,-0.008164298720657825,0.009459823369979858
1.7294974952231432e+18,0.014079044573009014,-0.0052026319317519665,0.010584569536149502
1.7294974952321434e+18,0.005675754509866238,-0.007958809845149517,0.00905534252524376
1.7294974952411436e+18,0.006679263897240162,-0.00565334502607584,0.00687728775665164
1.7294974952471437e+18,0.005601098760962486,-0.0061516910791397095,0.007301144301891327
1.729497495256144e+18,0.010328627191483974,-0.004130020271986723,0.004057311452925205
1.729497495265144e+18,0.011810575611889362,-0.0019291038624942303,0.003053101245313883
1.7294974952741443e+18,0.013950162567198277,-0.004326893948018551,0.0017897234065458179
1.7294974952801444e+18,0.016979258507490158,-0.005516427103430033,0.0014613756211474538
1.7294974952891446e+18,0.0154028395190835,-0.006019633263349533,0.002044015796855092
1.7294974952981448e+18,0.010325903072953224,-0.003968602046370506,0.00033006398007273674
1.729497495307145e+18,0.012163715437054634,-0.005270375404506922,-0.00028682974516414106
1.7294974953161452e+18,0.0075280084274709225,-0.001950128935277462,0.0032091967295855284
1.7294974953221453e+18,0.0070155225694179535,-5.913851782679558e-05,0.0007516959449276328
1.7294974953341455e+18,0.008816749788820744,-0.0045340717770159245,-0.000392219633795321
1.7294974953401457e+18,0.012137923389673233,-0.0048070079647004604,-0.001802974147722125
1.7294974953491459e+18,0.023213624954223633,-0.01398267038166523,-0.004890880547463894
1.729497495358146e+18,0.03352364897727966,-0.023928137496113777,-0.004199226386845112
1.7294974953671462e+18,0.04443933069705963,-0.026360660791397095,-0.0036971308290958405
1.7294974953761464e+18,0.0464140921831131,-0.025906730443239212,-0.00547068752348423
1.7294974953851466e+18,0.0471731461584568,-0.02937401458621025,-0.005705568939447403
1.7294974953941468e+18,0.04357292503118515,-0.026813946664333344,-0.002661950420588255
1.729497495400147e+18,0.041160948574543,-0.027891287580132484,-0.0022741747088730335
1.7294974954091471e+18,0.042518194764852524,-0.02775285765528679,-0.0020582068245857954
1.7294974954181473e+18,0.04448257014155388,-0.025095181539654732,-0.0019189727026969194
1.7294974954271475e+18,0.05308302491903305,-0.026758946478366852,-0.0013311761431396008
1.7294974954331476e+18,0.05469408631324768,-0.03122638165950775,-0.0016062636859714985
1.729497495445148e+18,0.05561737343668938,-0.02959461882710457,-0.000642801052890718
1.729497495454148e+18,0.05518944188952446,-0.03584209457039833,-0.005830712150782347
1.7294974954601482e+18,0.05147847160696983,-0.029997441917657852,-0.001885721692815423
1.7294974954691484e+18,0.048359960317611694,-0.03232539817690849,-0.003121407702565193
1.7294974954781486e+18,0.042948074638843536,-0.03204113617539406,-0.002814207226037979
1.7294974954871488e+18,0.044711459428071976,-0.025664087384939194,-0.002213020110502839
1.729497495496149e+18,0.046316832304000854,-0.02647029235959053,-0.002917966805398464
1.7294974955051492e+18,0.04706509783864021,-0.02484232559800148,-0.0034061917103827
1.7294974955141494e+18,0.04658607393503189,-0.026593510061502457,-0.0013858391903340816
1.7294974955231496e+18,0.04212304204702377,-0.022737106308341026,-0.0013607998844236135
1.7294974955321498e+18,0.03294480964541435,-0.02281743288040161,-0.0009460107539780438
1.72949749553815e+18,0.03069138154387474,-0.022809647023677826,-0.0013431813567876816
1.72949749554715e+18,0.03175235167145729,-0.018899260088801384,-0.0014128184411674738
1.7294974955561503e+18,0.03334560990333557,-0.016072113066911697,-0.0012418858241289854
1.7294974955651505e+18,0.03624293580651283,-0.014988124370574951,-0.0011426523560658097
1.7294974955741507e+18,0.03158927708864212,-0.013097521848976612,-0.0004143926198594272
1.7294974955801508e+18,0.03144730627536774,-0.015108807012438774,0.004248860292136669
1.729497495589151e+18,0.024900421500205994,-0.013863403350114822,-0.0002102786093018949
1.7294974955981512e+18,0.02112663723528385,-0.011643018573522568,0.00012062513269484043
1.7294974956071514e+18,0.012493683956563473,-0.007589641958475113,0.00015063676983118057
1.7294974956131515e+18,0.015497065149247646,-0.008105444721877575,-0.004522684961557388
1.7294974956221517e+18,0.02026611939072609,-0.00750777730718255,-0.0030725691467523575
1.7294974956311519e+18,0.020722249522805214,-0.0063837929628789425,-0.0018240227364003658
1.729497495640152e+18,0.021502530202269554,-0.004883916582912207,0.00028372526867315173
1.7294974956491523e+18,0.01569848693907261,-0.004721642471849918,-1.2040254659950733e-05
1.7294974956551524e+18,0.011740508489310741,-0.0038219052366912365,0.0013679699040949345
1.7294974956641526e+18,0.00484445970505476,-0.0037293299101293087,-0.00042264809599146247
1.7294974956731528e+18,0.00234028953127563,-0.003699513850733638,-0.0014580748975276947
1.729497495682153e+18,0.0014930926263332367,-0.0021859502885490656,-0.0011878239456564188
1.729497495688153e+18,0.002201730851083994,0.00020976527594029903,-0.001848067156970501
1.7294974956971533e+18,0.005543294362723827,0.002182254334911704,-0.0016669812612235546
1.7294974957061535e+18,0.005698781460523605,0.002740274416282773,-0.0023658268619328737
1.7294974957121536e+18,0.005339401308447123,0.004113593604415655,-0.0035852279979735613
1.7294974957211538e+18,0.006791238207370043,0.00421844981610775,-0.0006462028250098228
1.729497495730154e+18,0.005534837022423744,0.0026521398685872555,-0.0020357132889330387
1.7294974957391542e+18,0.0033678582403808832,0.006253041326999664,0.00018324435222893953
1.7294974957451543e+18,0.0013131159357726574,0.005089643876999617,-9.627343388274312e-05
1.7294974957541545e+18,-0.0015288349241018295,0.004021400585770607,-0.0025488240644335747
1.7294974957631547e+18,-0.0005792816518805921,0.00385737675242126,-0.0035224822349846363
1.729497495772155e+18,-0.001062791096046567,0.003659177105873823,-0.0012454671086743474
1.729497495778155e+18,0.0017714578425511718,0.0077960132621228695,-0.001234639436006546
1.7294974957871552e+18,0.0040086922235786915,0.004810510203242302,-0.0013353320537135005
1.7294974957931553e+18,0.0038449629209935665,0.005236334167420864,-0.0013220843393355608
1.7294974958021555e+18,0.006107090972363949,0.005938482470810413,0.0022687409073114395
1.7294974958111557e+18,0.0036184610798954964,0.005168615374714136,-0.0012405262095853686
1.7294974958171558e+18,0.0010739691788330674,0.0033755323383957148,-0.00046317221131175756
1.729497495826156e+18,0.0001754355034790933,0.00517326919361949,0.0005811875453218818
1.7294974958351562e+18,-0.005179819650948048,0.0034505375660955906,-0.0006301162648014724
1.7294974958441564e+18,-0.0009702646639198065,0.007606621831655502,0.0009182472713291645
1.7294974958501565e+18,-0.0038265478797256947,0.003918754868209362,-0.0007019159384071827
1.7294974958591567e+18,-0.0026968722231686115,0.002655314514413476,-0.000781044305767864
1.729497495868157e+18,-0.00020586641039699316,0.004418618977069855,0.0015451513463631272
1.729497495877157e+18,-0.005663695745170116,0.0009410795755684376,-0.001809864304959774
1.7294974958861573e+18,-0.003611565800383687,0.003624674631282687,0.00048282096395269036
1.7294974958951575e+18,-0.005552678368985653,0.0015637429896742105,-0.0013397798174992204
1.7294974959011576e+18,-0.005088103003799915,0.0022962717339396477,-0.0006990354158915579
1.7294974959101578e+18,-0.004860547371208668,0.0037530523259192705,0.003400143003091216
1.729497495919158e+18,-0.0031223963014781475,0.0029543230775743723,-7.350521627813578e-05
1.7294974959281582e+18,-0.004891563206911087,0.0032790678087621927,0.0013374453410506248
1.7294974959341583e+18,-0.00342245539650321,0.002673913724720478,-0.0014521374832838774
1.7294974959431585e+18,-0.0044552660547196865,0.006098327226936817,0.002529069548472762
1.7294974959521587e+18,-0.007009809371083975,0.005462057888507843,-0.0022246395237743855
1.729497495961159e+18,-0.00988645851612091,0.004801545757800341,-0.0021494459360837936
1.729497495967159e+18,-0.005892693065106869,0.004425590857863426,-0.0005135731189511716
1.7294974959761592e+18,-0.013634342700242996,0.004845231305807829,-0.001793990726582706
1.7294974959851594e+18,-0.009129050187766552,0.005093326326459646,2.598462742753327e-05
1.7294974959941596e+18,-0.009900260716676712,0.004269205499440432,-0.000266019138507545
1.7294974960001597e+18,-0.010511034168303013,0.004419265314936638,1.5125275240279734e-05
1.72949749600916e+18,-0.007921014912426472,0.009781662374734879,-0.0007192728808149695
1.72949749601816e+18,-0.00911595020443201,0.005645713768899441,-0.0021379650570452213
1.7294974960271603e+18,-0.014315742067992687,0.006683195475488901,0.002866505179554224
1.7294974960361605e+18,-0.01415390707552433,0.005807685200124979,-0.0009644911042414606
1.7294974960451607e+18,-0.014393718913197517,0.010190322063863277,-0.00042078227852471173
1.729497496054161e+18,-0.01329425722360611,0.011499365791678429,0.0007460776250809431
1.729497496060161e+18,-0.01318332925438881,0.008735456503927708,0.00121486175339669
1.7294974960691612e+18,-0.011189035139977932,0.007476986851543188,0.0003827408654615283
1.7294974960781614e+18,-0.010237841866910458,0.009297816082835197,-0.0006587552488781512
1.7294974960841615e+18,-0.01601414941251278,0.007953942753374577,0.0018672014120966196
1.7294974960931617e+18,-0.02001265622675419,0.007512070704251528,-0.00042227545054629445
1.729497496102162e+18,-0.01739686354994774,0.011200383305549622,0.0006457965937443078
1.729497496108162e+18,-0.018801379948854446,0.011326915584504604,-0.00042856921209022403
1.7294974961171622e+18,-0.015501434914767742,0.007650045678019524,0.001005832920782268
1.7294974961261624e+18,-0.012830739840865135,0.005081459414213896,-0.0009780980180948973
1.7294974961351626e+18,-0.013153030537068844,0.006151797249913216,-0.0004718270502053201
1.7294974961441628e+18,-0.01396490354090929,0.005056373775005341,0.002874922938644886
1.729497496153163e+18,-0.01847764104604721,0.010774299502372742,0.00032820116030052304
1.7294974961591631e+18,-0.02167603000998497,0.010935179889202118,5.936220986768603e-06
1.7294974961681633e+18,-0.026054948568344116,0.010703385807573795,0.0010585817508399487
1.7294974961771635e+18,-0.02478235587477684,0.009675910696387291,0.001899094320833683
1.7294974961861637e+18,-0.017896099016070366,0.004785951692610979,0.003032360691577196
1.729497496195164e+18,-0.016465621069073677,0.009742675349116325,-0.00036692709545604885
1.729497496204164e+18,-0.017600558698177338,0.008764565922319889,-0.0007153940387070179
1.7294974962101642e+18,-0.014670667238533497,0.007895740680396557,0.0005113267689011991
1.7294974962191644e+18,-0.016670895740389824,0.012995281256735325,-0.00039028871105983853
1.7294974962281646e+18,-0.022818608209490776,0.014438093639910221,0.0013332394883036613
1.7294974962371648e+18,-0.022298790514469147,0.012765715830028057,-0.00015694426838308573
1.729497496243165e+18,-0.022925985977053642,0.011033040471374989,0.0008592053782194853
1.729497496252165e+18,-0.02167089842259884,0.011364167556166649,0.00039508866029791534
1.7294974962581652e+18,-0.023611892014741898,0.014074884355068207,-0.0006006286712363362
1.7294974962671654e+18,-0.01772679015994072,0.009097429923713207,-0.0032872550655156374
1.7294974962761656e+18,-0.016925493255257607,0.009277451783418655,-0.00133624323643744
1.7294974962851658e+18,-0.01594207063317299,0.010630265809595585,0.0007396099390462041
1.729497496294166e+18,-0.01907440274953842,0.008390438742935658,-0.0014795432798564434
1.7294974963001661e+18,-0.01962871104478836,0.01214909739792347,-0.0011741617927327752
1.7294974963091663e+18,-0.020923610776662827,0.011682243086397648,0.00036808886216022074
1.7294974963151665e+18,-0.023379473015666008,0.01015443168580532,-0.003915248904377222
1.7294974963241667e+18,-0.020741906017065048,0.008193926885724068,-0.00042068399488925934
1.7294974963331668e+18,-0.020347390323877335,0.006127827800810337,0.0029041755478829145
1.729497496342167e+18,-0.021758465096354485,0.00669360626488924,0.0013125152327120304
1.7294974963511672e+18,-0.021751169115304947,0.007105248048901558,0.0011457782238721848
1.7294974963601674e+18,-0.02216094732284546,0.010091292671859264,-0.003180145286023617
1.7294974963661676e+18,-0.022320827469229698,0.007505372632294893,0.0010659771505743265
1.7294974963751677e+18,-0.0243606548756361,0.007014176342636347,-0.0005416679778136313
1.729497496384168e+18,-0.02423209697008133,0.008630512282252312,-0.00033823418198153377
1.7294974963931681e+18,-0.023986613377928734,0.008847934193909168,-0.0019280959386378527
1.7294974963991683e+18,-0.026597751304507256,0.011282673105597496,0.0009421149152331054
1.7294974964081684e+18,-0.0207222830504179,0.010624274611473083,-0.0008626401540823281
1.7294974964171686e+18,-0.02347910962998867,0.009300531819462776,-0.0023842891678214073
1.7294974964261688e+18,-0.024628713726997375,0.010300284251570702,9.614942246116698e-05
1.729497496435169e+18,-0.027609484270215034,0.007856995798647404,-0.0009539833990857005
1.7294974964441692e+18,-0.027197325602173805,0.008229001425206661,-0.0010042063659057021
1.7294974964531694e+18,-0.02752680703997612,0.009006187319755554,0.0014409244759008288
1.7294974964591695e+18,-0.025511359795928,0.010983500629663467,0.0010475029703229666
1.7294974964681697e+18,-0.026125920936465263,0.011431096121668816,0.0003280036326032132
1.72949749647717e+18,-0.024598151445388794,0.008198580704629421,-0.0010474801529198885
1.72949749648617e+18,-0.027245135977864265,0.01209215261042118,-0.0010626587318256497
1.7294974964921702e+18,-0.0279845017939806,0.01175692304968834,-0.000964237900916487
1.7294974965011704e+18,-0.028611883521080017,0.010185335762798786,-0.001802769722416997
1.7294974965101706e+18,-0.027298495173454285,0.010672828182578087,-0.001917432527989149
1.7294974965191708e+18,-0.028103115037083626,0.010404814034700394,-0.0033166322391480207
1.729497496528171e+18,-0.026070453226566315,0.010658699087798595,-0.0012898421846330166
1.7294974965371712e+18,-0.031147226691246033,0.009525622241199017,-0.0006981979822739959
1.7294974965461714e+18,-0.028031671419739723,0.008930890820920467,-0.002041848609223962
1.7294974965521715e+18,-0.03186932951211929,0.00823899544775486,-0.002556673949584365
1.7294974965611717e+18,-0.03027050942182541,0.007397293113172054,0.0026309548411518335
1.729497496570172e+18,-0.02894292213022709,0.009883065707981586,0.001541637466289103
1.729497496579172e+18,-0.03300495073199272,0.012535059824585915,-0.0011843863176181912
1.7294974965881723e+18,-0.030388230457901955,0.013201509602367878,0.001004961784929037
1.7294974965971725e+18,-0.031121909618377686,0.012959948740899563,-0.0014756277669221163
1.7294974966031726e+18,-0.03308556228876114,0.011524002999067307,0.0013653907226398587
1.7294974966121728e+18,-0.03237205371260643,0.011818388476967812,0.0012266978155821562
1.729497496621173e+18,-0.031128978356719017,0.011911728419363499,-0.001094168284907937
1.7294974966301732e+18,-0.03273534029722214,0.010738465934991837,-0.0004108266730327159
1.7294974966361733e+18,-0.03313855826854706,0.008254028856754303,-0.001205212203785777
1.7294974966451735e+18,-0.03154747933149338,0.011670374311506748,8.424717816524208e-05
1.7294974966541737e+18,-0.030597558245062828,0.013419659808278084,-0.0012034549145027995
1.7294974966601738e+18,-0.029815776273608208,0.01129931677132845,0.00019390296074561775
1.729497496669174e+18,-0.03033161535859108,0.01394449919462204,0.0014729035319760442
1.7294974966781742e+18,-0.030211463570594788,0.012259718962013721,0.0003879487921949476
1.7294974966871744e+18,-0.03163186460733414,0.010328356176614761,0.0006185490055941045
1.7294974966931745e+18,-0.028159257024526596,0.012279598042368889,-0.0001301444717682898
1.7294974967021747e+18,-0.03372573480010033,0.010108728893101215,0.001807357301004231
1.729497496711175e+18,-0.03315051645040512,0.011295557022094727,0.0016280279960483313
1.729497496720175e+18,-0.033293694257736206,0.008769991807639599,0.002370933536440134
1.7294974967261752e+18,-0.0339585579931736,0.011424741707742214,0.0009600369376130402
1.7294974967351754e+18,-0.032014649361371994,0.011176802217960358,-0.0024081477895379066
1.7294974967441756e+18,-0.028987277299165726,0.011502916924655437,-0.0007414830033667386
1.7294974967501757e+18,-0.02890840172767639,0.010448027402162552,-0.0013231368502601981
1.729497496759176e+18,-0.030041955411434174,0.012258004397153854,0.0005589528009295464
1.729497496768176e+18,-0.029478877782821655,0.010681873187422752,-0.0014675473794341087
1.7294974967741763e+18,-0.026357317343354225,0.009813161566853523,0.00101028464268893
1.7294974967831764e+18,-0.027833426371216774,0.013839974999427795,-0.00019227668235544115
1.7294974967921766e+18,-0.026071306318044662,0.01298549398779869,-0.0016607579309493303
1.7294974968011768e+18,-0.026845071464776993,0.015013105235993862,0.0014780550263822079
1.729497496807177e+18,-0.03022146224975586,0.010744065046310425,0.0007005328661762178
1.7294974968161772e+18,-0.0301006268709898,0.012669162824749947,-0.001930544851347804
1.7294974968251773e+18,-0.030760271474719048,0.007667820900678635,-1.2927645002491772e-05
1.7294974968311775e+18,-0.025463158264756203,0.00833105854690075,-0.0018738929647952318
1.7294974968401777e+18,-0.029929345473647118,0.011056419461965561,-0.0010660935658961535
1.7294974968491779e+18,-0.031136272475123405,0.010609355755150318,-0.0021714475005865097
1.729497496858178e+18,-0.034199103713035583,0.016097988933324814,-0.001250078552402556
1.7294974968671782e+18,-0.03200167417526245,0.011768600903451443,-0.0028347044717520475
1.7294974968761784e+18,-0.03184519335627556,0.011221532709896564,-0.0004908450646325946
1.7294974968821786e+18,-0.03386411443352699,0.00903396774083376,0.0018427242757752538
1.7294974968911788e+18,-0.02951699122786522,0.010043870657682419,-0.0022955501917749643
1.729497496900179e+18,-0.03164546936750412,0.010333677753806114,0.0033183025661855936
1.7294974969091791e+18,-0.028887175023555756,0.011363949626684189,0.0028301235288381577
1.7294974969181793e+18,-0.03060423769056797,0.014532539993524551,0.000372681999579072
1.7294974969241795e+18,-0.029040629044175148,0.01437397487461567,-0.0005254870629869401
1.7294974969331796e+18,-0.0304800346493721,0.011855784803628922,0.0026551010087132454
1.7294974969421798e+18,-0.026426641270518303,0.011307601816952229,0.0003747493028640747
1.72949749694818e+18,-0.026363728567957878,0.013716442510485649,0.00014007643039803952
1.7294974969571802e+18,-0.030290735885500908,0.009717258624732494,0.0005327998660504818
1.7294974969661804e+18,-0.02986360341310501,0.015020603314042091,0.00013523628877010196
1.7294974969751805e+18,-0.02894134260714054,0.011857840232551098,-0.0019090312998741865
1.7294974969811807e+18,-0.0319766141474247,0.0121584078297019,0.0008024896960705519
1.7294974969901809e+18,-0.03221024572849274,0.014687477611005306,-0.0018175230361521244
1.729497496999181e+18,-0.033597011119127274,0.01666230522096157,0.0017674168338999152
1.7294974970081812e+18,-0.026439135894179344,0.014147140085697174,-0.0015955925919115543
1.7294974970171814e+18,-0.026387600228190422,0.00968228280544281,0.0004982108948752284
1.7294974970261816e+18,-0.02607777714729309,0.012910890392959118,0.0007281673024408519
1.7294974970351818e+18,-0.023847952485084534,0.012820920906960964,-0.0009478662977926433
1.729497497041182e+18,-0.022956835106015205,0.01065230555832386,-0.0023532737977802753
1.7294974970501821e+18,-0.02562423050403595,0.01183222234249115,0.0004006902745459229
1.7294974970591823e+18,-0.022043410688638687,0.011872436851263046,-0.0030054834205657244
1.7294974970681825e+18,-0.021206947043538094,0.008079154416918755,0.00167071633040905
1.7294974970771827e+18,-0.019895795732736588,0.009315216913819313,-0.003122530411928892
1.729497497086183e+18,-0.02570880390703678,0.007831964641809464,0.00027958129066973925
1.729497497095183e+18,-0.021749308332800865,0.00419401191174984,0.0016528894193470478
1.7294974971041833e+18,-0.02072083204984665,0.008734860457479954,0.000787332421168685
1.7294974971131835e+18,-0.01969211734831333,0.008004982024431229,-0.003970312420278788
1.7294974971191836e+18,-0.020812058821320534,0.01157753262668848,-0.00031348393531516194
1.7294974971281838e+18,-0.023557379841804504,0.01026605349034071,-0.0007565658306702971
1.729497497137184e+18,-0.02373920939862728,0.007482442073523998,-0.0019578596111387014
1.7294974971461842e+18,-0.023744242265820503,0.009526764042675495,-1.755262928782031e-05
1.7294974971521843e+18,-0.024627622216939926,0.009674406610429287,-0.0006836525280959904
1.7294974971611845e+18,-0.02292735129594803,0.007939247414469719,0.0022851519752293825
1.7294974971701847e+18,-0.020941175520420074,0.009632800705730915,0.0013092096196487546
1.729497497179185e+18,-0.019989948719739914,0.01121568214148283,-0.00019042882195208222
1.729497497185185e+18,-0.020603150129318237,0.009558760561048985,0.0013932569418102503
1.7294974971941852e+18,-0.01746520772576332,0.011596045456826687,0.0007951507577672601
1.7294974972031854e+18,-0.022316375747323036,0.013957052491605282,-0.00032104048295877874
1.7294974972091855e+18,-0.016781747341156006,0.012378877960145473,-0.0008164620376192033
1.7294974972181857e+18,-0.02042471244931221,0.008454603143036366,0.002771003171801567
1.729497497227186e+18,-0.021758954972028732,0.008214082568883896,0.00010432851559016854
1.729497497236186e+18,-0.019709257408976555,0.009729691781103611,-0.00034856333513744175
1.7294974972421862e+18,-0.018995502963662148,0.007620520424097776,-0.0006044998299330473
1.7294974972511864e+18,-0.017639197409152985,0.00395523477345705,-0.0020162928849458694
1.7294974972601866e+18,-0.017754588276147842,0.007319251541048288,0.0022502357605844736
1.7294974972661868e+18,-0.018185287714004517,0.005984636954963207,-0.0014582474250346422
1.729497497275187e+18,-0.015477476641535759,0.007659159600734711,-0.0012494341935962439
1.7294974972841871e+18,-0.019641801714897156,0.004568050615489483,1.6453413991257548e-06
1.7294974972901873e+18,-0.014344966970384121,0.004195602610707283,-0.0018663787050172687
1.7294974972991875e+18,-0.01760958693921566,0.010000355541706085,-0.0015455131651833653
1.7294974973051876e+18,-0.018653566017746925,0.002006783150136471,-0.001286773243919015
1.7294974973141878e+18,-0.0197244044393301,0.006927284877747297,0.0014157728292047977
1.729497497323188e+18,-0.01865139789879322,0.0028078146278858185,0.0012779671233147383
1.729497497329188e+18,-0.021802321076393127,0.0044258469715714455,0.001893973327241838
1.7294974973381883e+18,-0.017015932127833366,0.002501225331798196,0.0010674847289919853
1.7294974973471885e+18,-0.015675175935029984,0.004568784963339567,-0.0001684350281720981
1.7294974973531886e+18,-0.012406276538968086,0.0024147620424628258,0.0005364982644096017
1.7294974973621888e+18,-0.012730227783322334,0.005245329812169075,0.0010979112703353167
1.729497497371189e+18,-0.009922979399561882,0.006974754389375448,-0.0032667319756001234
1.729497497377189e+18,-0.014050317928195,0.004013734869658947,0.000418855925090611
1.7294974973861893e+18,-0.011812079697847366,0.0028747613541781902,0.0008860339876264334
1.7294974973951895e+18,-0.011964927427470684,0.0028933235444128513,-0.0002730762935243547
1.7294974974011896e+18,-0.01226535439491272,0.0008564768359065056,0.0013799138832837343
1.7294974974101898e+18,-0.011263808235526085,-0.00042970944195985794,-0.0006143541540950537
1.72949749741619e+18,-0.011891818605363369,0.004904512315988541,0.0006525511853396893
1.7294974974251901e+18,-0.009937606751918793,0.006101884879171848,-0.00045101396972313523
1.7294974974341903e+18,-0.010456760413944721,0.0027647768147289753,0.0010245130397379398
1.7294974974401905e+18,-0.006711650639772415,0.005178358871489763,0.00039788559661246836
1.7294974974491907e+18,-0.009212397038936615,0.0017057593213394284,-0.0011757327010855079
1.7294974974581908e+18,-0.004266226664185524,2.3918168153613806e-05,-0.0018218966433778405
1.729497497464191e+18,-0.006209857761859894,-0.0013031174894422293,-0.0009937504073604941
1.7294974974761912e+18,-0.004141451325267553,-0.0012753012124449015,-0.00034215013147331774
1.7294974974821914e+18,-0.005744597874581814,0.0011996196117252111,-0.0024210228584706783
1.7294974974911916e+18,-0.007177585270255804,0.006899536121636629,0.0010222141863778234
1.7294974975001917e+18,-0.012040682137012482,0.0013666022568941116,0.0014168346533551812
1.729497497509192e+18,-0.0062342919409275055,0.0014367473777383566,-0.00021763922995887697
1.729497497518192e+18,-0.004767328500747681,0.001528389984741807,-0.0004965825355611742
1.7294974975241923e+18,-0.007866568863391876,-0.001177340280264616,0.002908955328166485
1.7294974975331924e+18,-0.004773236811161041,-0.0024464677553623915,-0.0011693625710904598
1.7294974975391926e+18,-0.0024656348396092653,0.00030169880483299494,-7.209225441329181e-05
1.7294974975481928e+18,-0.003745372872799635,-0.002233578357845545,0.0005695255822502077
1.729497497557193e+18,-0.004350860603153706,-0.001637603621929884,-0.0009472955134697258
1.729497497563193e+18,-0.007473804987967014,0.0016939379274845123,-0.0007489460986107588
1.7294974975721933e+18,-0.010362658649682999,0.003266146406531334,-0.0010476959869265556
1.7294974975781934e+18,-0.009559659287333488,0.0035411249846220016,0.00012585747754201293
1.7294974975871936e+18,-0.006947405636310577,0.0035745776258409023,0.002677485579624772
1.7294974975961938e+18,-0.00675418833270669,0.0008481586119160056,0.002969210036098957
1.729497497602194e+18,-0.00831457320600748,0.0007130899466574192,0.0007728324271738529
1.729497497611194e+18,-0.0027376804500818253,0.0021245088428258896,-6.995354488026351e-05
1.7294974976201943e+18,-0.004570712335407734,0.0009142777416855097,0.0021416121162474155
1.7294974976291945e+18,-0.0016624080017209053,-0.0013373111141845584,-0.0020270314998924732
1.7294974976351946e+18,-0.003895396366715431,-0.0017712806584313512,-0.0005435344064608216
1.7294974976441948e+18,-0.002990538254380226,-0.00205827783793211,0.0002308592083863914
1.729497497650195e+18,-0.0053512100130319595,-1.010281266644597e-05,0.0011569124180823565
1.7294974976591951e+18,-0.00029440270736813545,0.00024041946744546294,-0.0018565262435004115
1.7294974976651953e+18,-0.0004300485597923398,0.00046980957267805934,-0.0008058639941737056
1.7294974976741955e+18,0.0011135858949273825,7.787829963490367e-05,-0.0016238372772932053
1.7294974976831956e+18,0.0015141611220315099,-0.00444222055375576,-7.164888666011393e-05
1.7294974976891958e+18,0.004684571176767349,-0.004370852839201689,0.0014365478418767452
1.729497497698196e+18,0.006368597038090229,-0.0027107810601592064,0.000596897560171783
1.729497497704196e+18,0.005427190102636814,-0.0022377767600119114,0.0034873727709054947
1.7294974977131963e+18,0.004421314690262079,-0.001913193380460143,0.0014561943244189024
1.7294974977221965e+18,0.0009092130931094289,0.00028937833849340677,0.00035217212280258536
1.7294974977281966e+18,0.006649026647210121,-0.00036019308026880026,0.0018004949670284986
1.7294974977371968e+18,7.346190977841616e-05,-0.006393796298652887,0.001427963376045227
1.729497497746197e+18,0.006555998232215643,-0.00038897711783647537,-0.0017827461706474423
1.729497497752197e+18,0.0015597997698932886,-0.0022900765761733055,0.00043333505163900554
1.7294974977611973e+18,0.0021259374916553497,-0.004397212527692318,-0.00010938348714262247
1.7294974977701975e+18,0.002355350647121668,-0.0036861379630863667,0.0016483833314850926
1.7294974977761976e+18,0.002571520395576954,-0.003290548687800765,-0.001044134027324617
1.7294974977851978e+18,0.003952943254262209,-0.0067330640740692616,0.0021570660173892975
1.729497497794198e+18,0.004849778953939676,-0.0007349529769271612,-0.0005830998998135328
1.7294974978001981e+18,0.005917571019381285,-0.005730642005801201,0.0005417451029643416
1.7294974978091983e+18,0.005394126288592815,-0.004701742436736822,0.00046557484893128276
1.7294974978181985e+18,0.00397017365321517,-0.0026883967220783234,-3.7408157368190587e-05
1.7294974978241987e+18,0.007854148745536804,0.00022336258552968502,-0.0014890683814883232
1.7294974978331988e+18,0.002165514277294278,-0.003733344143256545,0.0023853208404034376
1.729497497842199e+18,0.0012023337185382843,-0.002063652267679572,-0.0011280783219262958
1.7294974978481992e+18,0.0033458666875958443,-0.002874145284295082,0.0006951212417334318
1.7294974978571994e+18,0.007842070423066616,-0.00327345822006464,0.0007935012108646333
1.7294974978631995e+18,0.0071576605550944805,-0.005282376427203417,0.001322287367656827
1.7294974978721997e+18,0.007095402106642723,-0.0035753133706748486,-0.0026981234550476074
1.7294974978781998e+18,0.0034680087119340897,0.000566922826692462,0.002384184394031763
1.7294974978872e+18,0.0016891080886125565,-0.0029115071520209312,0.00039392293547280133
1.7294974978962002e+18,0.007246640510857105,0.0006025192560628057,-0.0006184536032378674
1.7294974979082004e+18,0.008442597463726997,-0.004491601604968309,0.0005069990875199437
1.7294974979172006e+18,0.010548111982643604,-0.00519958883523941,0.0014931818004697561
1.7294974979262008e+18,0.007418949156999588,-0.003217825200408697,0.0007266816101036966
1.729497497932201e+18,0.01102435402572155,-0.0035304364282637835,-0.001431081909686327
1.7294974979412012e+18,0.013647112995386124,-0.005991906858980656,0.0015677132178097963
1.7294974979472013e+18,0.008833203464746475,-0.006454021204262972,-0.001008101855404675
1.7294974979562015e+18,0.009560992941260338,-0.0013140919618308544,0.002059830352663994
1.7294974979652017e+18,0.005860473029315472,-0.0017085280269384384,0.0002804375544656068
1.7294974979742019e+18,0.008113406598567963,-0.005369915161281824,-0.0003955231513828039
1.729497497980202e+18,0.0036927666515111923,-0.003907009027898312,-0.0021009326446801424
1.7294974979892022e+18,0.005869478918612003,-0.0063714636489748955,0.0015115636633709073
1.7294974979982024e+18,0.009776146151125431,-0.0028126160614192486,-0.0018174812430515885
1.7294974980072026e+18,0.013522849418222904,-0.0069910455495119095,-0.0017137030372396111
1.7294974980132027e+18,0.00986427441239357,-0.006839031353592873,-0.0006880869041197002
1.729497498022203e+18,0.014243814162909985,-0.0037039697635918856,0.0008274342399090528
1.729497498031203e+18,0.009413326159119606,-0.002012737561017275,0.00016789203800726682
1.7294974980402033e+18,0.010447298176586628,-0.000688791973516345,3.7909871025476605e-05
1.7294974980462034e+18,0.006298058666288853,-0.004136042203754187,-0.00017267739167436957
1.7294974980552036e+18,0.004897133447229862,-0.005045500583946705,0.0012968301307410002
1.7294974980642038e+18,0.004467817954719067,-0.005023865029215813,-0.0024897458497434855
1.729497498070204e+18,0.008184823207557201,-0.0060573783703148365,-0.0025865177158266306
1.729497498079204e+18,0.011871568858623505,-0.00490947300568223,0.0031408583745360374
1.7294974980882043e+18,0.011820860207080841,-0.005490161012858152,0.0012025035684928298
1.7294974980972045e+18,0.010930387303233147,-0.0015521806199103594,-0.001535664894618094
1.7294974981032046e+18,0.011749672703444958,-0.0036687618121504784,0.0008117482648231089
1.7294974981122048e+18,0.009086071513593197,-0.0066531263291835785,0.0017982413992285728
1.729497498121205e+18,0.007054148241877556,-0.003911173436790705,-0.000611577183008194
1.729497498127205e+18,0.009901494719088078,-0.005828344263136387,-3.449049108894542e-05
1.7294974981362053e+18,0.006960134021937847,-0.005193588323891163,0.002363930456340313
1.7294974981452055e+18,0.009974030777812004,-0.004734765272587538,-0.0008689097594469786
1.7294974981512056e+18,0.008014772087335587,-0.004087873734533787,0.0013615019852295518
1.7294974981602058e+18,0.011693259701132774,-0.00558597082272172,0.001556925941258669
1.729497498166206e+18,0.012255270034074783,-0.006582478992640972,-0.0029969436582177877
1.7294974981752061e+18,0.008371399715542793,-0.003715092781931162,0.002840207889676094
1.7294974981842063e+18,0.007961150258779526,-0.0039811343885958195,-0.0012209935812279582
1.7294974981932065e+18,0.009102136828005314,-0.0008297604508697987,0.002721992554143071
1.7294974982022067e+18,0.011361307464540005,-0.004886709153652191,0.0006811884813942015
1.7294974982082068e+18,0.010557921603322029,-0.006341975182294846,0.0034224383998662233
1.729497498220207e+18,0.013163271360099316,-0.0062235817313194275,2.4490511350450106e-05
1.7294974982292073e+18,0.01300660241395235,-0.0036048688925802708,-0.0004299689317122102
1.7294974982382075e+18,0.012503322213888168,-0.0026310065295547247,0.0009005247848108411
1.7294974982472077e+18,0.011786337941884995,-0.005109553690999746,0.00023531501938123256
1.729497498256208e+18,0.013563672080636024,-0.0030656177550554276,0.0011621315497905016
1.729497498265208e+18,0.009641943499445915,-0.000620853272266686,-0.0003867600462399423
1.7294974982712082e+18,0.014031166210770607,-0.00042213278356939554,-0.0009283040417358279
1.7294974982802084e+18,0.014859861694276333,-0.000847760122269392,0.0011034412309527397
1.7294974982892086e+18,0.014771177433431149,-0.00347693357616663,-5.324328230926767e-05
1.7294974982982088e+18,0.017173277214169502,-0.006069039925932884,0.00019717490067705512
1.729497498304209e+18,0.01550818607211113,-0.004907110705971718,-0.0002109046617988497
1.729497498313209e+18,0.01573159731924534,-0.005480727180838585,-0.0018567421939224005
1.7294974983222093e+18,0.013970484025776386,-0.006875267252326012,-0.0023224924225360155
1.7294974983282094e+18,0.01652628928422928,-0.0028072274290025234,0.0015815221704542637
1.7294974983372096e+18,0.016494445502758026,-0.005677651613950729,0.0007240866543725133
1.7294974983462098e+18,0.014925939030945301,-0.005669856909662485,0.001225559157319367
1.72949749835221e+18,0.01623927615582943,-0.005599803291261196,-0.0008435235940851271
1.72949749836121e+18,0.01760493777692318,-0.005024093668907881,0.001021531061269343
1.7294974983702103e+18,0.018439892679452896,-0.007571871858090162,-3.6732559237862006e-05
1.7294974983792105e+18,0.018861588090658188,-0.005707358010113239,-0.0005592897068709135
1.7294974983852106e+18,0.01765521988272667,-0.005859570112079382,-0.00044744767365045846
1.7294974983942108e+18,0.018543893471360207,-0.008763191290199757,-0.002948693698272109
1.729497498403211e+18,0.017028097063302994,-0.003922879230231047,-0.0005139976274222136
1.7294974984122112e+18,0.014757844619452953,-0.004701919388025999,0.0007065781974233687
1.7294974984182113e+18,0.01849379763007164,-0.0024073889944702387,-0.0016750764334574342
1.7294974984272115e+18,0.018997345119714737,-0.005526854656636715,0.0005945377633906901
1.7294974984362117e+18,0.01891651563346386,-0.004520331509411335,-0.0007949230493977666
1.729497498445212e+18,0.018415996804833412,-0.006764639168977737,-0.0010159496450796723
1.729497498454212e+18,0.021409817039966583,-0.0036028511822223663,-0.0024550603702664375
1.7294974984602122e+18,0.0186240803450346,-0.007063922937959433,0.0007314597605727613
1.7294974984722125e+18,0.019564297050237656,-0.004451165907084942,-0.000343192252330482
1.7294974984812127e+18,0.01767849177122116,-0.00594929838553071,-0.0001375162391923368
1.7294974984872128e+18,0.01743387058377266,-0.004833835177123547,-7.551121962023899e-05
1.729497498496213e+18,0.01692795194685459,-0.005191232543438673,-0.002185674849897623
1.7294974985052132e+18,0.018354997038841248,-0.003973124083131552,-0.0005486113950610161
1.7294974985142134e+18,0.02024373784661293,-0.003444984322413802,-0.0011047255247831345
1.7294974985232136e+18,0.022684931755065918,-0.001803910592570901,0.0021368900779634714
1.7294974985322138e+18,0.018505437299609184,-0.007839941419661045,-0.004509161692112684
1.729497498538214e+18,0.01824292354285717,-0.004655181895941496,-0.00021668178669642657
1.729497498547214e+18,0.016236236318945885,-0.007792990654706955,-0.0008961851708590984
1.7294974985562143e+18,0.016509927809238434,-0.007379462011158466,-0.0012271911837160587
1.7294974985652145e+18,0.0156629029661417,-0.005961958318948746,-0.00031438737642019987
1.7294974985742147e+18,0.014254436828196049,-0.004187833517789841,0.00025783031014725566
1.7294974985802148e+18,0.014580163173377514,-0.0026286588981747627,0.0022803705651313066
1.729497498589215e+18,0.014794413931667805,-0.005510066635906696,-0.00044173316564410925
1.7294974985982152e+18,0.01341802254319191,-0.005685701500624418,-2.0870924345217645e-05
1.7294974986072154e+18,0.015377781353890896,-0.004958070814609528,-0.0007485003443434834
1.7294974986132155e+18,0.015504692681133747,-0.012522654607892036,-0.0034238931257277727
1.7294974986222157e+18,0.01877829059958458,-0.010641534812748432,0.0016293252119794488
1.7294974986312159e+18,0.020107198506593704,-0.009646683000028133,-0.0007904384401626885
1.729497498640216e+18,0.021218400448560715,-0.006477678660303354,-0.0014273998094722629
1.7294974986492163e+18,0.022803956642746925,-0.00347373029217124,-0.002551858779042959
1.7294974986552164e+18,0.018236549571156502,-0.0022117539774626493,-0.0016397470608353615
1.7294974986642166e+18,0.01742563210427761,-0.004215217661112547,-0.0007133745821192861
1.7294974986732168e+18,0.015660958364605904,-0.005747660528868437,-0.004135439172387123
1.729497498682217e+18,0.015759028494358063,-0.0077645443379879,-0.0005300188204273582
1.7294974986912172e+18,0.01948229968547821,-0.00699709402397275,-0.001924629439599812
1.7294974987002173e+18,0.023484930396080017,-0.010637344792485237,-0.0022759612184017897
1.7294974987092175e+18,0.02122144028544426,-0.0073147062212228775,-0.00022085652744863182
1.7294974987182177e+18,0.019832158461213112,-0.0038905851542949677,0.00039758632192388177
1.7294974987242179e+18,0.01989137753844261,-0.0049669574946165085,0.001973202684894204
1.729497498733218e+18,0.016905726864933968,-0.0048639546148478985,0.0007604105048812926
1.7294974987452183e+18,0.014517740346491337,-0.006790032610297203,-8.930693002184853e-05
1.7294974987512184e+18,0.013799438253045082,-0.009303055703639984,0.0017030464950948954
1.7294974987632187e+18,0.018557675182819366,-0.00842206459492445,-0.002039944054558873
1.729497498772219e+18,0.018791990354657173,-0.006147946696728468,-0.00038772827247157693
1.729497498778219e+18,0.020074911415576935,-0.0054143816232681274,-0.00043322244891896844
1.7294974987872192e+18,0.019291572272777557,-0.004295095335692167,0.00017616515106055886
1.7294974987962194e+18,0.017457082867622375,-0.0020062653347849846,0.0005149283679202199
1.7294974988052196e+18,0.016658565029501915,-0.0038948955480009317,-0.0009890784276649356
1.7294974988142198e+18,0.014345686882734299,-0.005684815812855959,0.002211517421528697
1.72949749882322e+18,0.013912218622863293,-0.005703343544155359,0.000582281150855124
1.7294974988322202e+18,0.01732359640300274,-0.005242442712187767,0.0007201329572126269
1.7294974988412204e+18,0.017402391880750656,-0.005095142405480146,0.00031123083317652345
1.7294974988502205e+18,0.02074979431927204,-0.0031626035925000906,0.00011209765216335654
1.7294974988592207e+18,0.020088432356715202,-0.004253213293850422,-0.000855902791954577
1.7294974988652209e+18,0.01933540217578411,-0.0015867010224610567,5.368259007809684e-05
1.729497498874221e+18,0.017223484814167023,0.0024231821298599243,-0.002682327525690198
1.7294974988832212e+18,0.010799124836921692,-0.0019644969142973423,9.748507000040263e-05
1.7294974988922214e+18,0.01265134196728468,-0.001321888528764248,0.00021895457757636905
1.7294974988982216e+18,0.013756860047578812,-0.003753107972443104,0.0011521910782903433
1.7294974989102218e+18,0.02263493463397026,-0.004691560752689838,-0.0020468903239816427
1.729497498916222e+18,0.024248182773590088,-0.00797944888472557,-0.00010605729767121375
1.7294974989252221e+18,0.025495365262031555,-0.004839099012315273,-0.0007760758744552732
1.7294974989342223e+18,0.02358780801296234,-0.005746963433921337,-0.0017383138183504343
1.7294974989432225e+18,0.02151615545153618,-0.005410212557762861,-0.00012300591333769262
1.7294974989522227e+18,0.018659479916095734,-0.0022716522216796875,0.0010564172407612205
1.729497498961223e+18,0.013965407386422157,-0.0064420863054692745,0.0004289292264729738
1.729497498970223e+18,0.01856248266994953,-0.006925515830516815,-0.0016117329942062497
1.7294974989762232e+18,0.016904979944229126,-0.005257002077996731,-0.001531747868284583
1.7294974989852234e+18,0.01763037033379078,-0.000462427269667387,-0.000597923353780061
1.7294974989942236e+18,0.017729399725794792,-0.001337614143267274,0.00030471000354737043
1.7294974990032238e+18,0.018441298976540565,-0.0021479064598679543,0.00021866048336960375
1.729497499012224e+18,0.012966343201696873,-0.0020715701393783092,-0.001018156879581511
1.7294974990212242e+18,0.00981916207820177,-0.002967929933220148,-0.002473497064784169
1.7294974990272243e+18,0.009329062886536121,-0.00334305502474308,0.001212356030009687
1.7294974990362245e+18,0.011487314477562904,-0.007419894449412823,-0.0009500393643975258
1.7294974990452247e+18,0.013933130539953709,-0.007249782793223858,0.0005748450639657676
1.729497499054225e+18,0.012596276588737965,-0.003398595144972205,-0.0019203852862119675
1.729497499063225e+18,0.014274058863520622,-0.005760677624493837,0.0007452052086591721
1.7294974990722253e+18,0.011371084488928318,-0.006878316402435303,-0.005472474731504917
1.7294974990812255e+18,0.017761344090104103,-0.0042890082113444805,-0.0021899743005633354
1.7294974990902257e+18,0.012000283226370811,-0.005633877590298653,-5.376491753850132e-05
1.7294974990962258e+18,0.011522122658789158,-0.0037816136609762907,-0.001461921026930213
1.729497499105226e+18,0.011608339846134186,-0.00866133812814951,0.0014447502326220274
1.7294974991142262e+18,0.0115011315792799,-0.008492795750498772,-0.0011888598091900349
1.7294974991232264e+18,0.011547439731657505,-0.006317859049886465,-0.0013562911190092564
1.7294974991322266e+18,0.01402962114661932,-0.00652530649676919,-0.0018446024041622877
1.7294974991412268e+18,0.012079300358891487,-0.005140481051057577,-0.0009138338500633836
1.729497499147227e+18,0.0129481116309762,-0.008394415490329266,0.00016990004223771393
1.729497499156227e+18,0.01099981926381588,-0.006790081970393658,-0.0002705274964682758
1.7294974991682273e+18,0.01334443874657154,-0.010728851892054081,-0.002394151408225298
1.7294974991832276e+18,0.009382919408380985,-0.00793013907968998,-0.0004514253232628107
1.7294974991922278e+18,0.00960792787373066,-0.007492933887988329,0.0026976752560585737
1.729497499201228e+18,0.011233359575271606,-0.004835364408791065,-0.0013818360166624188
1.7294974992102282e+18,0.009686700068414211,-0.001864452613517642,0.004429705906659365
1.7294974992192284e+18,0.015013134106993675,-0.00044287298806011677,-0.002510390942916274
1.7294974992282286e+18,0.009622843936085701,-0.004174315370619297,0.0008159684366546571
1.7294974992372288e+18,0.013721552677452564,-0.002975944196805358,-0.0006709551671519876
1.729497499243229e+18,0.012812845408916473,-0.005110062658786774,-5.906541628064588e-05
1.729497499252229e+18,0.008823580108582973,-0.005666851066052914,-0.001401857123710215
1.7294974992582292e+18,0.009853755123913288,-0.0030969863291829824,0.000572830147575587
1.7294974992672294e+18,0.0075650205835700035,-0.004644650034606457,0.0008451505564153194
1.7294974992762296e+18,0.010711470618844032,-0.005436593666672707,0.00040884228656068444
1.7294974992822298e+18,0.007790790405124426,-0.0045474437065422535,-0.0006394341471605003
1.72949749929123e+18,0.00831810012459755,-0.004481001757085323,-7.270200876519084e-05
1.7294974993002301e+18,0.00644371984526515,0.001649154582992196,-0.0005205258494243026
1.7294974993092303e+18,0.007434658240526915,0.00059464480727911,-0.0017701988108456135
1.7294974993182305e+18,0.0074838255532085896,-0.0010118046775460243,-0.00012938148574903607
1.7294974993242307e+18,0.007348028011620045,-0.004448385909199715,-0.0029639052227139473
1.7294974993332308e+18,0.009092187508940697,-0.005957583896815777,0.0013126522535458207
1.729497499342231e+18,0.00837669987231493,-0.0029648728668689728,0.0011604620376601815
1.7294974993482312e+18,0.0088964169844985,-0.002898966195061803,-0.0005774645833298564
1.7294974993572314e+18,0.006795595400035381,-0.0030436913948506117,0.0002881486725527793
1.7294974993662316e+18,0.009212091565132141,-0.0008780248463153839,-0.0029989436734467745
1.7294974993722317e+18,0.012770067900419235,-0.002951663685962558,-0.002578677609562874
1.7294974993812319e+18,0.009627782739698887,-0.0029889503493905067,-0.001557891140691936
1.729497499390232e+18,0.013412658125162125,-0.0016779047437012196,0.0010153257753700018
1.7294974993992323e+18,0.013395983725786209,0.0011532730422914028,-0.0017442976823076606
1.7294974994052324e+18,0.011823225766420364,6.560911424458027e-05,0.002031385200098157
1.7294974994142326e+18,0.011148665100336075,-0.0009020708967000246,-7.683527655899525e-05
1.7294974994232328e+18,0.00990263745188713,-0.005507489200681448,0.0022650365717709064
1.729497499432233e+18,0.01171924453228712,-0.0026946088764816523,-0.0011137652909383178
1.7294974994412332e+18,0.01292204950004816,-0.006117995362728834,0.00011782901856349781
1.7294974994472333e+18,0.009272454306483269,-0.004614832811057568,0.0011523860739544034
1.7294974994562335e+18,0.013461385853588581,-0.0036609298549592495,-0.0029750652611255646
1.7294974994652337e+18,0.013033135794103146,-0.005875384900718927,-0.0005405437550507486
1.7294974994742339e+18,0.012389770708978176,-0.003944903612136841,-0.00106703897472471
1.729497499480234e+18,0.008953679352998734,-0.004174042493104935,-0.0021705415565520525
1.7294974994892342e+18,0.010395447723567486,-0.001409551128745079,-0.0032948944717645645
1.7294974994982344e+18,0.010749362409114838,-0.0024842191487550735,-0.0014717609155923128
1.7294974995042345e+18,0.006377655081450939,-0.0013559923972934484,-0.00189933180809021
1.7294974995132347e+18,0.009964902885258198,-0.00357808917760849,0.00016995600890368223
1.729497499522235e+18,0.010855519212782383,-0.0027913080994039774,0.0009649742860347033
1.729497499528235e+18,0.008872142992913723,-0.004102903418242931,-0.0016019792528823018
1.7294974995372352e+18,0.007034698035567999,-0.0036499667912721634,-0.001785507658496499
1.7294974995462354e+18,0.0066664875485002995,-0.003630243008956313,0.0012438120320439339
1.7294974995522355e+18,0.006359179969877005,-0.0021600713953375816,0.0020343707874417305
1.7294974995612357e+18,0.003598463488742709,-0.0033764345571398735,0.001081927097402513
1.729497499570236e+18,0.008320556953549385,-0.003875354304909706,0.001364878611639142
1.729497499576236e+18,0.007578371092677116,-0.005457231774926186,-0.002131222514435649
1.7294974995852362e+18,0.00931046437472105,-0.004046985879540443,-0.0014348657568916678
1.7294974995942364e+18,0.0072682444006204605,-0.001770758768543601,-0.0006366036250256002
1.7294974996032366e+18,0.0037164706736803055,-0.0043243239633738995,-0.0003189586568623781
1.7294974996122368e+18,0.005316571798175573,-0.0017785003874450922,-0.001633207080885768
1.729497499618237e+18,0.004190162289887667,-0.00356440432369709,-0.00013342505553737283
1.729497499627237e+18,0.003946840763092041,-0.007180544547736645,-0.00090173096396029
1.7294974996362373e+18,0.0009244314860552549,-0.006109496578574181,-0.0008524495642632246
1.7294974996422374e+18,0.005133388098329306,-0.006449622102081776,0.002841340843588114
1.7294974996512376e+18,0.004713506903499365,-0.0023208216298371553,-0.0015205094823613763
1.7294974996602378e+18,0.0034147496335208416,-0.00461653433740139,7.640992407687008e-06
1.729497499669238e+18,0.0048532080836594105,-0.0012352312915027142,-0.0012230540160089731
1.7294974996782382e+18,-0.000581396627239883,-0.0029889270663261414,0.00022404800984077156
1.7294974996842383e+18,-0.0009220486972481012,-0.004048975650221109,0.001873321132734418
1.7294974996932385e+18,0.002318780403584242,-0.00978948175907135,0.0012440020218491554
1.7294974997022387e+18,0.0010697145480662584,-0.008169043809175491,0.0008255924913100898
1.729497499711239e+18,-0.003006907179951668,-0.0045149242505431175,-0.00022241419355850667
1.729497499717239e+18,-0.003173352684825659,-0.005873713176697493,-0.0007545016123913229
1.7294974997262392e+18,-0.0040307920426130295,-0.0038367302622646093,0.0010456189047545195
1.7294974997352394e+18,-0.007505576591938734,-0.00018434738740324974,-0.0009020093712024391
1.7294974997442396e+18,-0.00492804916575551,-0.0028935547452419996,-0.002252330305054784
1.7294974997502397e+18,-0.00495470967143774,-0.004210921470075846,-0.002194139175117016
1.72949749975924e+18,-0.00721060112118721,-0.006178498733788729,0.0008065354777500033
1.72949749976824e+18,-0.0007401247275993228,-0.0039994665421545506,0.0005938037647865713
1.7294974997772403e+18,0.0005589614156633615,-0.007687762379646301,0.0013656473020091653
1.7294974997862405e+18,-0.0014224662445485592,-0.00577706191688776,0.0018765797140076756
1.7294974997952407e+18,-0.0008136027026921511,-0.008083805441856384,0.0015382086858153343
1.729497499804241e+18,-0.0043009864166378975,-0.003008283209055662,-0.00017269572708755732
1.729497499813241e+18,-0.0061477492563426495,-0.0036340230144560337,0.0004785809724126011
1.7294974998192412e+18,-0.0031810873188078403,-0.0020270696841180325,0.001120617613196373
1.7294974998282414e+18,0.0014899924863129854,-0.004180575255304575,0.0009978750022128224
1.7294974998372416e+18,0.000816908897832036,-0.0035083498805761337,-0.0010423831408843398
1.7294974998462418e+18,0.002169033046811819,-0.006152955815196037,-0.003059901762753725
1.729497499855242e+18,-0.0014705951325595379,-0.004337334539741278,-0.0006795510416850448
1.7294974998642422e+18,-0.0016170032322406769,-0.0052937911823391914,-0.002996490802615881
1.7294974998732424e+18,-0.005420907400548458,-0.004082994535565376,0.00040097866440191865
1.7294974998822426e+18,-0.0017376705072820187,-0.003679398214444518,-0.0034432588145136833
1.7294974998912428e+18,-0.0029654819518327713,-0.0032797709573060274,-0.0013518364867195487
1.729497499900243e+18,-0.0006353122880682349,-0.002305783564224839,0.00048445723950862885
1.7294974999092431e+18,-0.0005313132423907518,-0.0013327091000974178,0.00029346992960199714
1.7294974999182433e+18,0.001130150631070137,0.0008759592310525477,-1.030214480124414e-05
1.7294974999272435e+18,0.0004879090120084584,-0.0020579947158694267,-0.003548195818439126
1.7294974999362437e+18,-0.001731080119498074,-0.0005377390771172941,0.0022428978700190783
1.729497499945244e+18,-0.00017023622058331966,-0.0008137257536873221,-0.0007326139602810144
1.729497499954244e+18,-0.004734907299280167,0.0008378976490348577,0.00101649749558419
1.7294974999632443e+18,0.0004725202452391386,0.00011161935981363058,4.316612466936931e-05
1.7294974999692444e+18,-0.00032015645410865545,0.004785032011568546,0.0021829227916896343
1.7294974999782446e+18,8.374742174055427e-05,0.0008581401780247688,0.00041875976603478193
1.7294974999872448e+18,-0.0038348683156073093,0.0013055497547611594,-0.0016626681899651885
1.729497499996245e+18,0.00033220829209312797,0.001447412185370922,0.0010248920880258083
1.7294975000052452e+18,-0.0012780146207660437,0.0020471566822379827,-0.002132042543962598
1.7294975000112453e+18,-0.0016494092997163534,0.0012508215149864554,0.0020748600363731384
1.7294975000202455e+18,-0.0011101608397439122,0.002661393955349922,-0.00040635582990944386
1.7294975000292457e+18,0.0016143580432981253,0.0035202493891119957,0.0015488432254642248
1.729497500038246e+18,-0.0013652597554028034,0.002859283471480012,0.0003698613727465272
1.729497500047246e+18,-0.0008459901437163353,0.0025911724660545588,-0.0008704609354026616
1.7294975000532462e+18,-0.0009399486589245498,0.002708427608013153,0.0006697364151477814
1.7294975000622464e+18,-0.002414184156805277,0.002266497118398547,0.0009018454002216458
1.7294975000712466e+18,-0.001049213227815926,-0.0010467550018802285,0.00014669426309410483
1.7294975000802468e+18,-0.001641544047743082,0.0016707757022231817,0.002062574727460742
1.729497500089247e+18,-0.003339360700920224,0.00025115604512393475,0.0001592995395185426
1.729497500095247e+18,-0.005655054003000259,0.002904624678194523,-0.0006550272228196263
1.7294975001042473e+18,-0.005284804385155439,0.002111624926328659,0.00011625277693383396
1.7294975001132475e+18,-0.0041044531390070915,0.004277256783097982,-0.0007859785691834986
1.7294975001222477e+18,-0.009335100650787354,-0.0011556652607396245,3.385964373592287e-05
1.7294975001312479e+18,-0.0038034282624721527,0.0035873723682016134,-0.00018858083058148623
1.729497500137248e+18,-0.006169389467686415,-0.002284272573888302,0.0024178435560315847
1.7294975001462482e+18,-0.0004335818812251091,-0.0007033844594843686,0.0019315199460834265
1.7294975001552484e+18,-0.0024137990549206734,0.00016095873434096575,-0.00309166987426579
1.7294975001612485e+18,-0.0024477606639266014,-0.0021879305131733418,-0.0011964277364313602
1.7294975001702487e+18,-0.0031289272010326385,0.0013236717786639929,4.114840703550726e-05
1.729497500179249e+18,-0.0063715772703289986,6.663671229034662e-05,0.0007063024677336216
1.729497500185249e+18,-0.009712199680507183,0.0009303944534622133,-0.0017835929756984115
1.7294975001942492e+18,-0.008633528836071491,0.0023655465338379145,-0.0009916601702570915
1.7294975002032494e+18,-0.0070722284726798534,0.001992028672248125,-0.00020099480752833188
1.7294975002122496e+18,-0.005302427336573601,0.0030494441743940115,-0.001020700903609395
1.7294975002182497e+18,-0.0035253148525953293,0.003211518283933401,-0.0005958541296422482
1.72949750022725e+18,-0.003010360524058342,0.0029091942124068737,-0.000669394270516932
1.72949750023625e+18,-0.007932382635772228,0.0037909774109721184,-0.001027748454362154
1.7294975002452503e+18,-0.012019013054668903,-0.00047326425556093454,0.0010066685499623418
1.7294975002542505e+18,-0.01393116544932127,-0.0003579470794647932,0.002415804425254464
1.7294975002632507e+18,-0.013488732278347015,-0.0024128451477736235,0.00012050515215378255
1.729497500272251e+18,-0.008073144592344761,0.0014433565083891153,0.0009472457459196448
1.729497500278251e+18,-0.006681692320853472,0.004454474430531263,-0.0016266860766336322
1.7294975002872512e+18,-0.002440123585984111,0.004868919961154461,-0.0019957339391112328
1.7294975002962514e+18,-0.00505032017827034,0.0034515082370489836,0.0005212636897340417
1.7294975003052516e+18,-0.0025831779930740595,-0.0001934547908604145,0.0015138331800699234
1.7294975003112517e+18,-0.007146588526666164,0.004828709177672863,0.0001363192859571427
1.729497500320252e+18,-0.011533312499523163,0.0033069110941141844,-0.001371612073853612
1.729497500329252e+18,-0.00892688613384962,-0.0002926953020505607,-0.0015178460162132978
1.7294975003382523e+18,-0.010299342684447765,0.000794430379755795,-0.0004560367378871888
1.7294975003472525e+18,-0.007899435237050056,0.00022785665350966156,-0.00031113243312574923
1.7294975003532526e+18,-0.008600409142673016,-0.0024617700837552547,-0.0008885770221240819
1.7294975003622528e+18,-0.0007536923512816429,-0.002066639717668295,0.0025178364012390375
1.729497500371253e+18,-0.006125974003225565,0.0026698606088757515,-0.0005830697482451797
1.729497500377253e+18,-0.006297307088971138,0.00035267218481749296,-0.0022619105875492096
1.7294975003862533e+18,-0.010601598769426346,0.00259280763566494,0.00015665050887037069
1.7294975003952535e+18,-0.01008196547627449,0.0022137730848044157,-0.003328238846734166
1.7294975004012536e+18,-0.008698277175426483,0.004026629496365786,0.001780414953827858
1.7294975004102538e+18,-0.007901094853878021,0.003589262720197439,0.0018791421316564083
1.729497500419254e+18,-0.006105468142777681,0.003937629982829094,-0.0010470186825841665
1.7294975004282542e+18,-0.006116545293480158,0.0035384478978812695,-7.000078039709479e-05
1.7294975004372544e+18,-0.004987092223018408,0.0040085697546601295,0.0008229193044826388
1.7294975004492547e+18,-0.0065359799191355705,-0.0015878311824053526,-0.0005767636466771364
1.7294975004582548e+18,-0.004887090064585209,-0.0019321473082527518,0.0009128042147494853
1.729497500464255e+18,-0.25721049308776855,0.08148236572742462,0.002164573408663273
1.7294975004732552e+18,-1.053839921951294,0.3448725640773773,0.008645434863865376
1.7294975004822554e+18,-1.8930057287216187,0.6372057199478149,0.014999770559370518
1.7294975004882555e+18,-2.4537124633789062,0.8156963586807251,0.019928809255361557
1.7294975004972557e+18,-3.092224359512329,0.9900455474853516,0.03129946440458298
1.729497500506256e+18,-3.3220326900482178,1.0282354354858398,0.03969578072428703
1.729497500515256e+18,-3.2329187393188477,0.9680867195129395,0.049325719475746155
1.7294975005242563e+18,-3.0448899269104004,0.8904557228088379,0.05883415788412094
1.7294975005302564e+18,-2.973780870437622,0.8591071963310242,0.063657745718956
1.7294975005392566e+18,-3.0675594806671143,0.8519142866134644,0.07217879593372345
1.7294975005482568e+18,-3.377715587615967,0.9027127623558044,0.0798749029636383
1.729497500554257e+18,-3.6054205894470215,0.9390177726745605,0.08841048926115036
1.729497500563257e+18,-3.858168363571167,0.9727673530578613,0.09613322466611862
1.7294975005722573e+18,-3.847512722015381,0.955621600151062,0.10507748275995255
1.7294975005782574e+18,-3.692223072052002,0.9156896471977234,0.10844118893146515
1.7294975005872576e+18,-3.310211658477783,0.8362810611724854,0.11675386875867844
1.7294975005962578e+18,-2.903282642364502,0.7483155131340027,0.12314923852682114
1.729497500602258e+18,-2.7120285034179688,0.698936939239502,0.12787343561649323
1.729497500611258e+18,-2.563504219055176,0.6498394012451172,0.13089875876903534
1.7294975006202583e+18,-2.5690929889678955,0.6198906898498535,0.13769613206386566
1.7294975006292585e+18,-2.602851629257202,0.5917284488677979,0.14074759185314178
1.7294975006352586e+18,-2.5714375972747803,0.5728077292442322,0.14576801657676697
1.7294975006442588e+18,-2.41123628616333,0.5241265296936035,0.15087801218032837
1.729497500653259e+18,-2.100285053253174,0.4614851176738739,0.15610714256763458
1.7294975006652593e+18,-1.6350959539413452,0.3711998760700226,0.15698276460170746
1.7294975006712594e+18,-1.4358141422271729,0.33359038829803467,0.16080202162265778
1.7294975006802596e+18,-1.2542258501052856,0.28365227580070496,0.1621781438589096
1.7294975006892598e+18,-1.1802985668182373,0.2467205673456192,0.16597695648670197
1.72949750069826e+18,-1.1550354957580566,0.21193212270736694,0.16799956560134888
1.7294975007072602e+18,-1.1016219854354858,0.18108922243118286,0.16645799577236176
1.7294975007132603e+18,-1.0136899948120117,0.15506511926651,0.16830694675445557
1.7294975007222605e+18,-0.8146390318870544,0.11995473504066467,0.17242485284805298
1.7294975007312607e+18,-0.5719261169433594,0.0808933898806572,0.17263908684253693
1.7294975007402609e+18,-0.35733380913734436,0.04268047958612442,0.1723589450120926
1.729497500749261e+18,-0.21895842254161835,0.01575997658073902,0.1712397038936615
1.7294975007582612e+18,-0.1756570041179657,-0.012918691150844097,0.1766340583562851
1.7294975007672614e+18,-0.17665007710456848,-0.03275579214096069,0.1726374328136444
1.7294975007762616e+18,-0.17218488454818726,-0.0440487265586853,0.1710265576839447
1.7294975007852618e+18,-0.11180733889341354,-0.06135144084692001,0.170676127076149
1.729497500794262e+18,0.0073763825930655,-0.08283422887325287,0.17211492359638214
1.7294975008032622e+18,0.15222199261188507,-0.09888026118278503,0.1701393872499466
1.7294975008092623e+18,0.23941907286643982,-0.11134093254804611,0.17274698615074158
1.7294975008182625e+18,0.3227088153362274,-0.12049391120672226,0.1687127649784088
1.7294975008272627e+18,0.3465181291103363,-0.1347481608390808,0.16616769134998322
1.729497500836263e+18,0.32073697447776794,-0.14076939225196838,0.16925927996635437
1.729497500845263e+18,0.2986994981765747,-0.1453280746936798,0.16433115303516388
1.7294975008542633e+18,0.2998446226119995,-0.1506807804107666,0.16545213758945465
1.7294975008632635e+18,0.3395244777202606,-0.15603092312812805,0.16286861896514893
1.7294975008722637e+18,0.40340957045555115,-0.1530405431985855,0.16275405883789062
1.7294975008812639e+18,0.460207998752594,-0.15862613916397095,0.15977881848812103
1.729497500890264e+18,0.4783758223056793,-0.1557077169418335,0.158065527677536
1.7294975008992643e+18,0.46479713916778564,-0.1542292833328247,0.159465491771698
1.7294975009082644e+18,0.42045828700065613,-0.15231479704380035,0.15346570312976837
1.7294975009172646e+18,0.3792709708213806,-0.14703425765037537,0.15524183213710785
1.7294975009262648e+18,0.3664437234401703,-0.14530155062675476,0.14936770498752594
1.729497500932265e+18,0.3702083230018616,-0.1428876370191574,0.1465449184179306
1.7294975009412652e+18,0.4085780382156372,-0.14511555433273315,0.1439777910709381
1.7294975009502653e+18,0.4459751546382904,-0.1433107554912567,0.14317166805267334
1.7294975009592655e+18,0.47946038842201233,-0.1470264345407486,0.14121754467487335
1.7294975009682657e+18,0.4781743884086609,-0.14686168730258942,0.1399684101343155
1.729497500977266e+18,0.45949703454971313,-0.14524637162685394,0.1387431025505066
