timestamp,accel_x,accel_y,accel_z
1.7294956326364088e+18,0.06563211232423782,0.021012524142861366,-9.811585426330566
1.729495632645409e+18,0.003292093751952052,0.01118537038564682,-9.765063285827637
1.7294956326544092e+18,0.04083087295293808,-0.024264199659228325,-9.804644584655762
1.7294956326634094e+18,-0.0056938775815069675,0.06644705682992935,-9.841292381286621
1.7294956326694095e+18,-0.07491572201251984,0.02616327628493309,-9.785475730895996
1.7294956326784097e+18,-0.0023869359865784645,0.04871990159153938,-9.805123329162598
1.72949563268741e+18,-0.04614565148949623,0.0036728649865835905,-9.739140510559082
1.72949563269341e+18,-0.008818883448839188,0.005125842988491058,-9.740816116333008
1.7294956327024102e+18,0.004317422863095999,-0.060010652989149094,-9.714778900146484
1.7294956327114104e+18,-0.016439270228147507,0.035874925553798676,-9.784939765930176
1.7294956327174106e+18,-0.0018426747992634773,-0.0054967100732028484,-9.766586303710938
1.7294956327264108e+18,0.054529789835214615,0.00909909512847662,-9.830499649047852
1.729495632735411e+18,0.03281734511256218,0.005697327200323343,-9.843281745910645
1.729495632741411e+18,-0.03283156454563141,0.024838481098413467,-9.7417573928833
1.7294956327504113e+18,-0.03322663530707359,0.03341279178857803,-9.759305953979492
1.7294956327594115e+18,-0.0427449606359005,0.0019346207845956087,-9.819289207458496
1.7294956327654116e+18,-0.002033247146755457,0.04978114366531372,-9.822711944580078
1.7294956327744118e+18,0.0626986026763916,0.05626929551362991,-9.776131629943848
1.729495632783412e+18,0.051358237862586975,0.007979211397469044,-9.769535064697266
1.729495632789412e+18,-0.027643704786896706,0.02406354621052742,-9.840859413146973
1.7294956327984123e+18,0.07461411505937576,0.05034241825342178,-9.814380645751953
1.7294956328074125e+18,0.050723377615213394,0.06680837273597717,-9.786587715148926
1.7294956328164127e+18,-0.01591084711253643,-0.01751621998846531,-9.869497299194336
1.7294956328254129e+18,0.03602459281682968,0.022123539820313454,-9.792346000671387
1.729495632834413e+18,0.015569878742098808,-0.04947769269347191,-9.774313926696777
1.7294956328434132e+18,-0.10227422416210175,-0.008562028408050537,-9.883295059204102
1.7294956328494134e+18,0.08902645856142044,-0.0630132332444191,-9.806377410888672
1.7294956328584136e+18,-0.017424210906028748,-0.040352609008550644,-9.838358879089355
1.7294956328674138e+18,0.012995111756026745,-0.013828178867697716,-9.885190963745117
1.729495632876414e+18,-0.0689891129732132,-0.074198417365551,-9.788665771484375
1.7294956328854141e+18,0.05572748929262161,-0.004043922759592533,-9.825254440307617
1.7294956328944143e+18,-0.04037501662969589,0.05145398527383804,-9.854761123657227
1.7294956329034145e+18,-0.06689070165157318,0.009604171849787235,-9.804220199584961
1.7294956329124147e+18,-0.006653744727373123,0.02326405793428421,-9.807717323303223
1.729495632921415e+18,0.01628921553492546,-0.03096977062523365,-9.770861625671387
1.729495632930415e+18,-0.05862428620457649,-0.06482810527086258,-9.755454063415527
1.7294956329364152e+18,-0.05390598252415657,0.056789688766002655,-9.844305992126465
1.7294956329454154e+18,-0.022208886221051216,0.04487309232354164,-9.79955768585205
1.7294956329544156e+18,-0.03639112412929535,-0.057356178760528564,-9.861493110656738
1.7294956329604157e+18,0.030535230413079262,0.0422108955681324,-9.882003784179688
1.729495632969416e+18,-0.12911319732666016,-0.06053342670202255,-9.893683433532715
1.729495632978416e+18,-0.014121775515377522,0.0009256826597265899,-9.753466606140137
1.7294956329874163e+18,-0.011328419670462608,-0.0007480892236344516,-9.790081024169922
1.7294956329964165e+18,0.019996261224150658,0.04699080064892769,-9.817628860473633
1.7294956330054167e+18,-0.031452521681785583,0.06694946438074112,-9.773509979248047
1.729495633014417e+18,0.005186848342418671,0.022276759147644043,-9.823076248168945
1.729495633020417e+18,-0.06615538895130157,0.08013655990362167,-9.84663200378418
1.7294956330294172e+18,-0.029552852734923363,0.023409763351082802,-9.82231616973877
1.7294956330384174e+18,0.020580032840371132,0.08606564998626709,-9.760499954223633
1.7294956330444175e+18,0.05753609910607338,-0.026659267023205757,-9.770219802856445
1.7294956330534177e+18,-0.053294263780117035,-0.06488039344549179,-9.75477409362793
1.729495633062418e+18,0.03111165761947632,-0.022351518273353577,-9.886699676513672
1.729495633068418e+18,0.02518686279654503,-0.008685647509992123,-9.762288093566895
1.7294956330774182e+18,-0.009983541443943977,0.01642853580415249,-9.833023071289062
1.7294956330864184e+18,0.021997032687067986,0.07587869465351105,-9.809945106506348
1.7294956330954186e+18,0.027401680126786232,-0.022439317777752876,-9.74980640411377
1.7294956331014188e+18,0.10077384114265442,0.04588887840509415,-9.751297950744629
1.729495633110419e+18,-0.004389205481857061,-0.04547746479511261,-9.87232494354248
1.7294956331194191e+18,-0.03864052891731262,0.06625412404537201,-9.810033798217773
1.7294956331254193e+18,0.07986056059598923,-0.059030044823884964,-9.804767608642578
1.7294956331344195e+18,0.018481405451893806,0.050587475299835205,-9.704668998718262
1.7294956331434196e+18,0.007572564296424389,-0.03679865226149559,-9.763116836547852
1.7294956331524198e+18,-0.0395926907658577,-0.04433140903711319,-9.88123893737793
1.72949563316142e+18,-0.005213924217969179,0.04428195208311081,-9.778141021728516
1.7294956331704202e+18,0.012551588006317616,-0.08400274813175201,-9.816207885742188
1.7294956331794204e+18,0.04539112001657486,0.016633078455924988,-9.7764253616333
1.7294956331884206e+18,-0.017422743141651154,-0.05219806358218193,-9.942617416381836
1.7294956331974208e+18,-0.01201550755649805,-0.06190350651741028,-9.835014343261719
1.729495633206421e+18,0.002833993872627616,-0.017399445176124573,-9.760673522949219
1.729495633212421e+18,-0.029151439666748047,0.0014190704096108675,-9.867609024047852
1.7294956332244214e+18,-0.017199505120515823,0.009629209525883198,-9.867547035217285
1.7294956332334216e+18,0.036587245762348175,-0.10226596146821976,-9.798516273498535
1.7294956332424218e+18,-0.05844143405556679,0.021710343658924103,-9.793152809143066
1.729495633248422e+18,0.020396189764142036,0.04022882506251335,-9.740118026733398
1.729495633257422e+18,-0.04278984293341637,0.04802408814430237,-9.809919357299805
1.7294956332664223e+18,0.11455384641885757,0.0007141433889046311,-9.86980152130127
1.7294956332754225e+18,0.049524400383234024,0.016087010502815247,-9.861711502075195
1.7294956332844227e+18,-0.0007295192335732281,-0.0044302912428975105,-9.818492889404297
1.7294956332934228e+18,0.02081654779613018,-0.026395387947559357,-9.856053352355957
1.729495633299423e+18,0.016900349408388138,-0.011670386418700218,-9.771328926086426
1.7294956333084232e+18,-0.010352873243391514,-0.02792586013674736,-9.804393768310547
1.7294956333174234e+18,0.01836736872792244,0.018630659207701683,-9.860213279724121
1.7294956333264236e+18,0.0668550580739975,-0.024976907297968864,-9.753890991210938
1.7294956333324237e+18,0.0685984194278717,-0.0392037071287632,-9.839125633239746
1.7294956333414239e+18,0.12329576164484024,0.03745746985077858,-9.835844993591309
1.729495633350424e+18,-0.005483069457113743,0.0200266744941473,-9.767009735107422
1.7294956333564242e+18,-0.061543241143226624,0.0666823759675026,-9.806452751159668
1.7294956333654244e+18,-0.06426709145307541,0.013444354757666588,-9.840913772583008
1.7294956333744246e+18,0.0005470626638270915,-0.002937203273177147,-9.873618125915527
1.7294956333834248e+18,0.066187284886837,-0.05260557681322098,-9.802593231201172
1.729495633392425e+18,0.02596452087163925,-0.027373215183615685,-9.720189094543457
1.7294956334014252e+18,-0.03196823224425316,0.0573253333568573,-9.809697151184082
1.7294956334104253e+18,-0.026607206091284752,0.0027413279749453068,-9.802057266235352
1.7294956334194255e+18,-0.015972718596458435,-0.006211062427610159,-9.85218620300293
1.7294956334284257e+18,-0.03981386497616768,-0.06505962461233139,-9.868993759155273
1.7294956334344259e+18,-0.006311442237347364,0.0106956847012043,-9.792374610900879
1.729495633443426e+18,0.0001325715857092291,0.05744456127285957,-9.762969017028809
1.7294956334494262e+18,-0.008353915065526962,0.02174423076212406,-9.785921096801758
1.7294956334584264e+18,0.03123478777706623,0.051737911999225616,-9.85731315612793
1.7294956334674266e+18,-0.024139059707522392,-0.07823320478200912,-9.853684425354004
1.7294956334734267e+18,-0.00039127140189521015,-0.040169306099414825,-9.81947135925293
1.729495633482427e+18,0.01280556432902813,-0.03190561383962631,-9.816862106323242
1.729495633491427e+18,0.0024196088779717684,0.10203639417886734,-9.859822273254395
1.7294956335004273e+18,0.02301955223083496,0.0025957622565329075,-9.825007438659668
1.7294956335064274e+18,0.02878717891871929,-0.04185184836387634,-9.785136222839355
1.7294956335154276e+18,0.011491546407341957,-0.046543192118406296,-9.856239318847656
1.7294956335244278e+18,0.05748561769723892,0.09521616995334625,-9.788761138916016
1.729495633533428e+18,0.007079675327986479,-0.02838478982448578,-9.876383781433105
1.7294956335424282e+18,0.0004443391226232052,0.03796030580997467,-9.76052188873291
1.7294956335484283e+18,-0.031228305771946907,-0.10720798373222351,-9.750484466552734
1.7294956335574285e+18,0.011384801007807255,0.01023193821310997,-9.840428352355957
1.7294956335664287e+18,-0.027849914506077766,-0.07404319196939468,-9.748948097229004
1.7294956335754289e+18,0.009470443241298199,0.042970120906829834,-9.821500778198242
1.729495633584429e+18,-0.028305692598223686,0.00727000180631876,-9.803373336791992
1.7294956335904292e+18,-0.041196227073669434,-0.007296004798263311,-9.864526748657227
1.7294956335994294e+18,-0.03818551078438759,-0.08073972165584564,-9.864912033081055
1.7294956336084296e+18,0.020580068230628967,-0.11248508095741272,-9.858089447021484
1.7294956336144297e+18,0.05947776883840561,-0.04901222139596939,-9.814804077148438
1.72949563362343e+18,-0.00503939762711525,-0.04111134633421898,-9.767244338989258
1.72949563363243e+18,-0.004624381195753813,-0.04029806703329086,-9.827122688293457
1.7294956336414303e+18,-0.0840035080909729,-0.0006367622991092503,-9.806815147399902
1.7294956336504305e+18,0.01042996346950531,0.010615458711981773,-9.764030456542969
1.7294956336594307e+18,-0.05561244860291481,-0.060048483312129974,-9.90007495880127
1.7294956336654308e+18,-0.009302502498030663,-0.03030674159526825,-9.798277854919434
1.729495633674431e+18,-0.04021027311682701,-0.07412650436162949,-9.78406047821045
1.729495633680431e+18,-0.08962763100862503,-0.05619804188609123,-9.755537033081055
1.7294956336894313e+18,-0.057612109929323196,-0.035436078906059265,-9.842256546020508
1.7294956336984315e+18,0.08885269612073898,-0.08752928674221039,-9.78637981414795
1.7294956337074317e+18,-0.07325637340545654,0.022381920367479324,-9.877373695373535
1.7294956337134318e+18,-0.02386539615690708,0.028661444783210754,-9.79073429107666
1.729495633722432e+18,-0.04153268411755562,-0.0288664773106575,-9.816015243530273
1.7294956337314322e+18,0.025821786373853683,-0.05820125713944435,-9.777771949768066
1.7294956337404324e+18,0.0024577060248702765,-0.057556793093681335,-9.883870124816895
1.7294956337464325e+18,0.06049992889165878,0.03343181684613228,-9.837984085083008
1.7294956337554327e+18,0.0183781199157238,-0.021640824154019356,-9.813604354858398
1.7294956337614328e+18,-0.006550549063831568,-0.00011260860628681257,-9.81110954284668
1.729495633770433e+18,0.009529400616884232,0.06586296856403351,-9.812908172607422
1.7294956337794332e+18,-0.006493354216217995,0.01463015004992485,-9.817577362060547
1.7294956337854333e+18,0.04659323766827583,0.03813949227333069,-9.831145286560059
1.7294956337944335e+18,-0.02716117911040783,0.016887789592146873,-9.819761276245117
1.7294956338004337e+18,0.01858449913561344,-0.007600054610520601,-9.820045471191406
1.7294956338094339e+18,0.04564753174781799,0.0593746043741703,-9.761706352233887
1.729495633815434e+18,-0.04219476133584976,-0.013410964049398899,-9.845352172851562
1.7294956338244342e+18,-0.017334898933768272,0.035954881459474564,-9.801407814025879
1.7294956338304343e+18,-0.052323997020721436,-0.05543404072523117,-9.913334846496582
1.7294956338394345e+18,-0.006178631912916899,-0.021983684971928596,-9.855656623840332
1.7294956338484347e+18,-0.035451773554086685,0.035296227782964706,-9.7576904296875
1.729495633857435e+18,-0.005480958614498377,-0.009345753118395805,-9.755932807922363
1.729495633863435e+18,0.03392899036407471,0.012845402583479881,-9.83024787902832
1.7294956338724352e+18,-0.03614834323525429,-0.0035766970831900835,-9.806890487670898
1.7294956338814354e+18,0.033666957169771194,0.026540448889136314,-9.820430755615234
1.7294956338874355e+18,-0.002073936630040407,-0.07176396250724792,-9.826010704040527
1.7294956338964357e+18,-0.013367180712521076,-0.026019761338829994,-9.817594528198242
1.7294956339024358e+18,-0.009946747682988644,0.035821475088596344,-9.779027938842773
1.729495633911436e+18,0.11812938004732132,-0.013096442446112633,-9.836132049560547
1.7294956339204362e+18,-0.08013767004013062,-0.02543598785996437,-9.822590827941895
1.7294956339264364e+18,-0.017213597893714905,0.0035082974936813116,-9.784663200378418
1.7294956339354365e+18,0.014588580466806889,0.026309123262763023,-9.82870864868164
1.7294956339444367e+18,0.07754307985305786,-0.0089065907523036,-9.814906120300293
1.7294956339504369e+18,-0.053903162479400635,0.021921126171946526,-9.776833534240723
1.729495633959437e+18,-0.0647829920053482,-0.020875873044133186,-9.85766887664795
1.7294956339684372e+18,-0.02152286283671856,-0.02089802362024784,-9.790428161621094
1.7294956339774374e+18,0.03272942826151848,-0.004547484219074249,-9.822321891784668
1.7294956339834376e+18,0.03652476891875267,0.021039601415395737,-9.871009826660156
1.7294956339924378e+18,0.022960517555475235,0.007105618715286255,-9.809950828552246
1.729495634001438e+18,-0.007500787265598774,-0.0017446739366278052,-9.822514533996582
1.729495634007438e+18,-0.07276232540607452,0.030401073396205902,-9.853475570678711
1.7294956340164383e+18,0.005628346465528011,0.029066598042845726,-9.7938232421875
1.7294956340254385e+18,0.034456755965948105,-0.06700392812490463,-9.897590637207031
1.7294956340314386e+18,0.016466639935970306,0.009212981909513474,-9.82525634765625
1.7294956340404388e+18,0.022753622382879257,0.02668950706720352,-9.774371147155762
1.729495634046439e+18,0.0665523111820221,0.026883604004979134,-9.886922836303711
1.729495634055439e+18,0.016760632395744324,0.05037836357951164,-9.768509864807129
1.7294956340644393e+18,-0.021016830578446388,0.03580933064222336,-9.86430549621582
1.7294956340704394e+18,0.10260672122240067,0.02003859542310238,-9.78205680847168
1.7294956340794396e+18,-0.028651701286435127,0.00021516522974707186,-9.83980655670166
1.7294956340884398e+18,-0.008868027478456497,0.015310768969357014,-9.861220359802246
1.72949563409444e+18,0.03307858854532242,-0.04727700725197792,-9.765069007873535
1.7294956341034401e+18,-0.004722694866359234,0.09293775260448456,-9.841876983642578
1.7294956341094403e+18,-0.023676911368966103,-0.0017935227369889617,-9.848691940307617
1.7294956341184404e+18,-0.04646402969956398,0.05951285362243652,-9.86851692199707
1.7294956341244406e+18,-0.051923736929893494,0.07688958197832108,-9.77422046661377
1.7294956341334408e+18,0.01645183376967907,0.03281779959797859,-9.836442947387695
1.729495634142441e+18,0.03180956840515137,-0.05193017050623894,-9.848447799682617
1.7294956341514412e+18,0.0306793674826622,0.03193129971623421,-9.736948013305664
1.7294956341574413e+18,-0.015293804928660393,0.004630217794328928,-9.832013130187988
1.7294956341664415e+18,0.04395761713385582,-0.08095664530992508,-9.748039245605469
1.7294956341724416e+18,-0.030996069312095642,0.007420480716973543,-9.797337532043457
1.7294956341814418e+18,0.03904065862298012,0.02300414815545082,-9.748496055603027
1.729495634187442e+18,-0.04322373867034912,0.039073530584573746,-9.820073127746582
1.729495634196442e+18,-0.008035135455429554,-0.10053247213363647,-9.883830070495605
1.7294956342054423e+18,-0.04329777881503105,0.04887131601572037,-9.812573432922363
1.7294956342114424e+18,0.01305187214165926,0.05848377197980881,-9.807133674621582
1.7294956342204426e+18,0.03601430729031563,0.011034266091883183,-9.804251670837402
1.7294956342294428e+18,0.023808807134628296,0.07830412685871124,-9.824028968811035
1.729495634235443e+18,-0.026668814942240715,-0.02348429709672928,-9.807564735412598
1.7294956342444431e+18,0.05267317220568657,-0.034426361322402954,-9.802712440490723
1.7294956342534433e+18,-0.03455815091729164,0.12065821141004562,-9.73270034790039
1.7294956342624435e+18,0.022478409111499786,0.02583538368344307,-9.827335357666016
1.7294956342714437e+18,0.020979611203074455,-0.05903558060526848,-9.804081916809082
1.729495634280444e+18,-0.1045631393790245,0.0024948378559201956,-9.808883666992188
1.729495634289444e+18,-0.023932497948408127,-0.04774118587374687,-9.793758392333984
1.7294956342954442e+18,0.03780968487262726,-0.046035636216402054,-9.810513496398926
1.7294956343044444e+18,0.03338067978620529,0.018412267789244652,-9.757469177246094
1.7294956343134446e+18,0.05062578245997429,-0.010641485452651978,-9.892030715942383
1.7294956343194447e+18,-0.020941654220223427,0.019915523007512093,-9.861603736877441
1.729495634328445e+18,-0.028546981513500214,-0.027851983904838562,-9.741467475891113
1.729495634337445e+18,-0.07227633893489838,-0.08328411728143692,-9.85821533203125
1.7294956343434452e+18,0.03480103984475136,-0.006747867446392775,-9.853224754333496
1.7294956343524454e+18,-0.0026526902802288532,0.02923658676445484,-9.822884559631348
1.7294956343614456e+18,0.07678232342004776,0.01113359909504652,-9.834834098815918
1.7294956343704458e+18,0.08560561388731003,0.028321901336312294,-9.777264595031738
1.729495634376446e+18,0.037459030747413635,0.047069087624549866,-9.738828659057617
1.7294956343854461e+18,0.0186248067766428,0.009003598242998123,-9.737809181213379
1.7294956343944463e+18,-0.04169054701924324,0.007295271847397089,-9.83350944519043
1.7294956344004465e+18,0.05092020705342293,0.04529854655265808,-9.810544967651367
1.7294956344094467e+18,-0.041376009583473206,-0.06889938563108444,-9.782073974609375
1.7294956344184468e+18,0.10710791498422623,-0.0013347645290195942,-9.798595428466797
1.729495634427447e+18,0.03696436807513237,-0.009759815409779549,-9.759255409240723
1.7294956344364472e+18,-0.0005869127926416695,-0.039914634078741074,-9.780861854553223
1.7294956344424474e+18,0.008283007889986038,-0.01363039668649435,-9.852505683898926
1.7294956344514476e+18,0.07657106965780258,-0.04195869714021683,-9.862980842590332
1.7294956344604477e+18,0.0007318940479308367,-0.06287876516580582,-9.794475555419922
1.729495634466448e+18,-0.019176127389073372,-0.0363188199698925,-9.798030853271484
1.729495634475448e+18,0.04088464006781578,0.031000034883618355,-9.849980354309082
1.7294956344844483e+18,-0.014042825438082218,-0.013400928117334843,-9.80078411102295
1.7294956344934484e+18,0.04118884354829788,0.024990279227495193,-9.796146392822266
1.7294956345024486e+18,0.004061384126543999,-0.03221183270215988,-9.824271202087402
1.7294956345084488e+18,0.004916599486023188,0.03708343952894211,-9.885540962219238
1.729495634517449e+18,-0.004317223094403744,-0.042427655309438705,-9.84725570678711
1.7294956345264492e+18,0.06032544746994972,0.07043281942605972,-9.799718856811523
1.7294956345354493e+18,-0.012047531083226204,-0.020308377221226692,-9.803478240966797
1.7294956345414495e+18,0.09985517710447311,-0.0054328260011971,-9.82574462890625
1.7294956345504497e+18,-0.027000628411769867,0.059543512761592865,-9.810711860656738
1.7294956345594499e+18,0.01563895493745804,-0.0038683824241161346,-9.801933288574219
1.72949563456545e+18,0.05631990358233452,0.022688549011945724,-9.881906509399414
1.7294956345744502e+18,0.0031794619280844927,-0.012903571128845215,-9.823709487915039
1.7294956345834504e+18,-0.043523866683244705,-0.0474713109433651,-9.733739852905273
1.7294956345894505e+18,0.0006673610187135637,-0.0033889918122440577,-9.849800109863281
1.7294956345984507e+18,-0.09495165944099426,-0.018252862617373466,-9.759505271911621
1.7294956346044508e+18,0.02284185215830803,0.06595112383365631,-9.837159156799316
1.729495634613451e+18,0.05601777136325836,0.02752542309463024,-9.874619483947754
1.7294956346224512e+18,-0.07382844388484955,0.004908738192170858,-9.852214813232422
1.7294956346284513e+18,-0.028611762449145317,-0.04335803538560867,-9.789923667907715
1.7294956346434516e+18,0.015412349253892899,-0.03461390733718872,-9.754624366760254
1.7294956346524518e+18,-0.037164997309446335,-0.07680832594633102,-9.892017364501953
1.729495634658452e+18,0.02124158851802349,-0.04347682371735573,-9.809952735900879
1.7294956346674522e+18,-0.03331872820854187,-0.08361601084470749,-9.8098726272583
1.7294956346764524e+18,-0.03806519880890846,0.03141709044575691,-9.752761840820312
1.7294956346824525e+18,0.11357153207063675,0.0407862551510334,-9.795419692993164
1.7294956346914527e+18,0.014850153587758541,-0.057750724256038666,-9.84946346282959
1.7294956347004529e+18,-0.007382030598819256,-0.07062801718711853,-9.825435638427734
1.729495634709453e+18,-0.03641674295067787,-0.03085518442094326,-9.801283836364746
1.7294956347184532e+18,0.027116714045405388,0.05177758261561394,-9.798511505126953
1.7294956347274534e+18,0.028202679008245468,-0.006595683749765158,-9.806230545043945
1.7294956347334536e+18,-0.03396551311016083,0.0003417831030674279,-9.897490501403809
1.7294956347424538e+18,-0.009848005138337612,-0.06237011402845383,-9.762348175048828
1.729495634748454e+18,-0.04450010135769844,0.019124235957860947,-9.822880744934082
1.729495634757454e+18,0.011097217909991741,-0.010953330434858799,-9.864953994750977
1.7294956347664543e+18,0.014790445566177368,0.04244408383965492,-9.786111831665039
1.7294956347724544e+18,-0.015731830149888992,0.011471997946500778,-9.762036323547363
1.7294956347814546e+18,0.07496760040521622,-0.011317400261759758,-9.884324073791504
1.7294956347904548e+18,-0.03168606385588646,0.06958100199699402,-9.817895889282227
1.729495634799455e+18,-0.017208192497491837,-0.033670637756586075,-9.77079963684082
1.729495634805455e+18,-0.052768923342227936,0.027617868036031723,-9.781888961791992
1.7294956348144553e+18,0.0481485091149807,-0.0345035083591938,-9.745880126953125
1.7294956348234555e+18,-0.012713273987174034,-0.04257005825638771,-9.784409523010254
1.7294956348294556e+18,0.016544654965400696,-0.00944572128355503,-9.821008682250977
1.7294956348384558e+18,-0.004736816510558128,0.034872326999902725,-9.805044174194336
1.729495634847456e+18,0.07969791442155838,-0.028070231899619102,-9.749383926391602
1.7294956348534561e+18,-0.014374036341905594,0.027557333931326866,-9.774712562561035
1.7294956348624563e+18,-0.04954211786389351,0.01125075202435255,-9.926780700683594
1.7294956348684564e+18,0.021569544449448586,-0.04550601541996002,-9.768431663513184
1.7294956348774566e+18,0.055538374930620193,-0.05101554095745087,-9.827360153198242
1.7294956348864568e+18,-0.06430690735578537,0.011170799843966961,-9.8689603805542
1.729495634895457e+18,-0.041871581226587296,-0.014427566900849342,-9.782875061035156
1.7294956349014572e+18,0.03726057708263397,0.02744298242032528,-9.817197799682617
1.7294956349104573e+18,0.009250556118786335,0.0474848635494709,-9.89358139038086
1.7294956349194575e+18,0.0035629840567708015,-0.038679901510477066,-9.898702621459961
1.7294956349254577e+18,0.041538018733263016,-0.035836849361658096,-9.781381607055664
1.7294956349344579e+18,0.005618915427476168,-0.022899514064192772,-9.811927795410156
1.729495634943458e+18,-0.09794270247220993,0.07759913057088852,-9.850057601928711
1.7294956349494582e+18,0.014890259131789207,0.02063852734863758,-9.84179401397705
1.7294956349584584e+18,0.002249407349154353,-0.06066432222723961,-9.79712963104248
1.7294956349644585e+18,-0.005623995326459408,-0.02918187715113163,-9.870155334472656
1.7294956349734587e+18,0.009207554161548615,-0.04116562008857727,-9.750332832336426
1.729495634982459e+18,-0.034840576350688934,-0.035819265991449356,-9.76175308227539
1.729495634988459e+18,0.07938944548368454,0.0024179164320230484,-9.749624252319336
1.7294956349974592e+18,0.031301189213991165,-0.031220275908708572,-9.797511100769043
1.7294956350034593e+18,0.07068438082933426,0.055730778723955154,-9.742923736572266
1.7294956350124595e+18,0.027183884754776955,0.007005857769399881,-9.877250671386719
1.7294956350214597e+18,0.06112910062074661,-0.03101646713912487,-9.824174880981445
1.72949563503046e+18,-0.007140446919947863,0.05813133716583252,-9.881996154785156
1.72949563503646e+18,-0.09036741405725479,-0.03378959372639656,-9.857808113098145
1.7294956350454602e+18,-0.013195851817727089,-0.0621781125664711,-9.888195037841797
1.7294956350514604e+18,-0.01514441054314375,0.06327180564403534,-9.917437553405762
1.7294956350604605e+18,0.015711979940533638,0.004029373172670603,-9.87808609008789
1.7294956350694607e+18,-0.0015168446116149426,0.043889254331588745,-9.910143852233887
1.7294956350754609e+18,0.04090587794780731,0.019526151940226555,-9.964122772216797
1.729495635084461e+18,0.08571430295705795,0.05584539845585823,-9.947772026062012
1.7294956350934612e+18,-0.0447516031563282,0.034666601568460464,-10.031161308288574
1.7294956350994614e+18,0.055734217166900635,-0.04865717142820358,-9.918041229248047
1.7294956351084616e+18,0.011197322979569435,0.029894370585680008,-9.959494590759277
1.7294956351144617e+18,-0.044360917061567307,0.12140209227800369,-9.945764541625977
1.729495635123462e+18,-0.021256476640701294,-0.02411912940442562,-10.027448654174805
1.729495635132462e+18,0.0359622947871685,-0.004414727445691824,-9.930408477783203
1.7294956351384622e+18,-0.008120798505842686,0.03148254379630089,-10.099714279174805
1.7294956351474624e+18,0.03253910690546036,0.027536658570170403,-10.123376846313477
1.7294956351564626e+18,0.0006442037411034107,-0.02138522081077099,-10.08067512512207
1.7294956351654628e+18,-0.009889267385005951,0.012841437943279743,-9.974583625793457
1.729495635174463e+18,-0.006405917461961508,-0.0107734901830554,-10.1599760055542
1.7294956351834632e+18,-0.04366174340248108,0.018318479880690575,-10.140954971313477
1.7294956351894633e+18,0.05097498744726181,-0.018456898629665375,-10.232547760009766
1.7294956351984635e+18,0.05939279869198799,0.02579977549612522,-10.11790657043457
1.7294956352044636e+18,-0.0441778190433979,-0.0006494475528597832,-10.329365730285645
1.7294956352134638e+18,-0.0397043339908123,0.0222559105604887,-10.488262176513672
1.729495635219464e+18,-0.05850272253155708,-0.009852966293692589,-10.439292907714844
1.729495635228464e+18,-0.06891001015901566,-0.09795978665351868,-10.486138343811035
1.7294956352374643e+18,-0.06988683342933655,0.03943298012018204,-10.521326065063477
1.7294956352434644e+18,-0.04318990930914879,0.013668728061020374,-10.482268333435059
1.7294956352524646e+18,0.08490481227636337,-0.023896049708127975,-10.523480415344238
1.7294956352614648e+18,-0.017390642315149307,-0.003007618710398674,-10.461280822753906
1.729495635267465e+18,-0.057574253529310226,-0.023987501859664917,-10.577007293701172
1.7294956352764652e+18,0.009014946408569813,-0.019363857805728912,-10.4708251953125
1.7294956352824653e+18,0.022397378459572792,0.06566736102104187,-10.482534408569336
1.7294956352914655e+18,-0.06602150201797485,-0.045629099011421204,-10.595651626586914
1.7294956353004657e+18,-0.004684800282120705,0.045237284153699875,-10.475969314575195
1.7294956353094659e+18,-0.012634791433811188,0.016466761007905006,-10.580248832702637
1.729495635318466e+18,-0.0027845914009958506,0.006126693915575743,-10.64438247680664
1.7294956353244662e+18,-0.007361475843936205,-0.04638790711760521,-10.571321487426758
1.7294956353334664e+18,0.03740774095058441,-0.04266095161437988,-10.475025177001953
1.7294956353394665e+18,0.06380109488964081,0.01895172707736492,-10.65646743774414
1.7294956353484667e+18,0.01837271824479103,-0.13025185465812683,-10.633171081542969
1.729495635357467e+18,-0.04177059605717659,-0.016284607350826263,-10.58109188079834
1.729495635363467e+18,0.03236043453216553,-0.024889517575502396,-10.579207420349121
1.7294956353724672e+18,0.004198335111141205,-0.05425015836954117,-10.614957809448242
1.7294956353814674e+18,-0.10048011690378189,-0.04118769243359566,-10.6159029006958
1.7294956353874675e+18,0.015631824731826782,-0.025087159126996994,-10.585671424865723
1.7294956353964677e+18,0.03701898828148842,-0.007038363255560398,-10.642244338989258
1.729495635405468e+18,-0.002661843551322818,-0.007935265079140663,-10.569520950317383
1.729495635411468e+18,0.0010957755148410797,0.0025319044943898916,-10.599281311035156
1.7294956354204682e+18,0.011743053793907166,0.07218599319458008,-10.51414966583252
1.7294956354294684e+18,0.02903987094759941,-0.00995369628071785,-10.629524230957031
1.7294956354384686e+18,-0.0196462944149971,-0.04232453554868698,-10.606317520141602
1.7294956354444687e+18,-0.07848785817623138,-0.02961026318371296,-10.556967735290527
1.729495635453469e+18,-0.04720182344317436,0.04456835985183716,-10.5792236328125
1.729495635462469e+18,0.054494619369506836,0.043243665248155594,-10.610993385314941
1.7294956354684692e+18,0.013729183934628963,-0.0795634537935257,-10.65160083770752
1.7294956354774694e+18,-0.045813389122486115,-0.06182366982102394,-10.557394027709961
1.7294956354864696e+18,-0.0074676102958619595,-0.08243095129728317,-10.59173583984375
1.7294956354924698e+18,-0.001059808535501361,-0.02323785237967968,-10.572195053100586
1.72949563550147e+18,0.04640832170844078,0.01579623855650425,-10.649255752563477
1.7294956355104701e+18,-0.040355417877435684,-0.03568234294652939,-10.580127716064453
1.7294956355164703e+18,0.013253466226160526,0.05338128283619881,-10.559311866760254
1.7294956355254705e+18,0.027158651500940323,0.01922481134533882,-10.543512344360352
1.7294956355344707e+18,-0.017444608733057976,-0.00835554488003254,-10.533529281616211
1.7294956355434708e+18,-0.03133312240242958,0.009637629613280296,-10.601114273071289
1.729495635552471e+18,-0.01405517477542162,0.04659366235136986,-10.630692481994629
1.7294956355584712e+18,-0.0073013948276638985,-0.0007636918453499675,-10.632641792297363
1.7294956355674714e+18,-0.02679046057164669,0.01706080697476864,-10.572654724121094
1.7294956355794716e+18,-0.006048697512596846,0.00639731390401721,-10.605005264282227
1.7294956355884718e+18,0.02997424080967903,-0.08431249111890793,-10.678061485290527
1.729495635597472e+18,0.0057938480749726295,0.0043784938752651215,-10.56620979309082
1.7294956356034721e+18,0.005730628035962582,-0.004297418054193258,-10.58603286743164
1.7294956356124723e+18,0.031779129058122635,0.014454214833676815,-10.7185640335083
1.7294956356214725e+18,-0.05297986790537834,0.05466262996196747,-10.633719444274902
1.7294956356304727e+18,0.06746818125247955,-0.04289919510483742,-10.545697212219238
1.729495635639473e+18,0.06935539096593857,0.04510200396180153,-10.569866180419922
1.729495635648473e+18,-0.04564148932695389,-0.019021818414330482,-10.603818893432617
1.7294956356544732e+18,0.04864578694105148,0.0026359271723777056,-10.624070167541504
1.7294956356634734e+18,-0.07432827353477478,0.0518328957259655,-10.518720626831055
1.7294956356724736e+18,-0.039842575788497925,0.07026918977499008,-10.540164947509766
1.7294956356814738e+18,-0.0031394197139889,0.027322575449943542,-10.62330150604248
1.729495635687474e+18,-0.07888266444206238,-0.024248139932751656,-10.627389907836914
1.729495635696474e+18,-0.0736432895064354,-0.05266208201646805,-10.616455078125
1.7294956357024742e+18,0.020537294447422028,0.006188723724335432,-10.60305118560791
1.7294956357114744e+18,-0.04792696237564087,-0.09235357493162155,-10.589330673217773
1.7294956357204746e+18,-0.06200582906603813,-0.04344579204916954,-10.64120864868164
1.7294956357294748e+18,0.018590815365314484,-0.003967644646763802,-10.672748565673828
1.729495635738475e+18,0.060870517045259476,0.07919704914093018,-10.615815162658691
1.7294956357444751e+18,-0.019188880920410156,-0.014134131371974945,-10.536723136901855
1.7294956357534753e+18,-0.020277399569749832,0.015904083847999573,-10.661015510559082
1.7294956357624755e+18,-0.007566925138235092,0.0458708219230175,-10.60680103302002
1.7294956357714757e+18,-0.013724560849368572,-0.018476495519280434,-10.707930564880371
1.729495635780476e+18,0.013992812484502792,-0.04603329673409462,-10.510946273803711
1.729495635789476e+18,-0.03213855251669884,-0.04916464909911156,-10.6627779006958
1.7294956357984763e+18,-0.07049354910850525,0.039796795696020126,-10.644070625305176
1.7294956358074765e+18,0.017047276720404625,-0.05339193344116211,-10.56959342956543
1.7294956358164767e+18,-0.005820609629154205,-0.057881876826286316,-10.671180725097656
1.7294956358254769e+18,0.04128241911530495,-0.03264820948243141,-10.558633804321289
1.729495635834477e+18,-0.02816302515566349,0.05922282487154007,-10.58323860168457
1.7294956358434772e+18,-0.08477196097373962,0.05811292305588722,-10.604601860046387
1.7294956358524774e+18,0.022554097697138786,-0.06682078540325165,-10.605557441711426
1.7294956358614776e+18,0.02330523543059826,-0.0360870361328125,-10.696749687194824
1.7294956358674778e+18,-0.05843017250299454,-0.0014559885021299124,-10.633223533630371
1.729495635876478e+18,0.0173978041857481,0.0938144102692604,-10.540453910827637
1.7294956358884782e+18,-0.012536187656223774,0.06441766023635864,-10.544600486755371
1.7294956358944783e+18,0.014331122860312462,0.02896244078874588,-10.604754447937012
1.7294956359034785e+18,-0.03237026184797287,-0.00805821642279625,-10.552543640136719
1.7294956359154788e+18,0.0174057986587286,0.00858689472079277,-10.575004577636719
1.729495635924479e+18,0.012418233789503574,0.026162192225456238,-10.624832153320312
1.7294956359334792e+18,0.05333394184708595,-0.02718414179980755,-10.62423038482666
1.7294956359454794e+18,0.049755316227674484,0.04094287380576134,-10.61674976348877
1.7294956359544796e+18,0.01662548817694187,-0.009750964120030403,-10.606461524963379
1.7294956359634798e+18,-0.00366942654363811,-0.008183727972209454,-10.557613372802734
1.72949563597248e+18,0.02614000253379345,0.015380995348095894,-10.57041072845459
1.7294956359844803e+18,0.012671456672251225,-0.04498227313160896,-10.583292007446289
1.7294956359934804e+18,0.03423409163951874,0.0030799866653978825,-10.581733703613281
1.7294956360024806e+18,0.019241753965616226,0.010540492832660675,-10.595208168029785
1.7294956360114808e+18,0.03589128702878952,0.009891103021800518,-10.608668327331543
1.729495636020481e+18,-0.01719258353114128,0.022399183362722397,-10.558435440063477
1.7294956360294812e+18,-0.008209251798689365,0.022479357197880745,-10.634317398071289
1.7294956360384814e+18,-0.0041116951033473015,0.0665305033326149,-10.622664451599121
1.7294956360504817e+18,0.048630241304636,-0.04884430393576622,-10.626476287841797
1.7294956360594819e+18,-5.026470171287656e-05,0.002991574816405773,-10.520909309387207
1.729495636068482e+18,0.003066607750952244,0.007357880473136902,-10.561590194702148
1.7294956360774822e+18,0.01947997324168682,0.015234583988785744,-10.517704010009766
1.7294956360864824e+18,-0.011857593432068825,-0.00710714515298605,-10.594268798828125
1.7294956360954826e+18,0.008627274073660374,0.022329650819301605,-10.607150077819824
1.7294956361044828e+18,0.010273538529872894,-0.007779126055538654,-10.525552749633789
1.729495636113483e+18,0.022855710238218307,0.01850306987762451,-10.565494537353516
1.7294956361224832e+18,-0.02606266736984253,0.014519346877932549,-10.545653343200684
1.7294956361314834e+18,0.01687556691467762,-0.0024615037254989147,-10.589770317077637
1.7294956361404836e+18,0.048149168491363525,-0.029599323868751526,-10.531073570251465
1.7294956361494838e+18,0.024856336414813995,0.031145209446549416,-10.584753036499023
1.729495636161484e+18,-0.007387975696474314,0.05138818547129631,-10.517037391662598
1.7294956361704842e+18,0.007181763183325529,-0.012144946493208408,-10.576159477233887
1.7294956361794844e+18,-0.0555744543671608,0.034642092883586884,-10.60126781463623
1.7294956361884846e+18,-0.02975112572312355,-0.00519575085490942,-10.553613662719727
1.7294956361974848e+18,-0.04340948909521103,-0.03887190669775009,-10.522467613220215
1.729495636206485e+18,0.03043891303241253,0.013013621792197227,-10.591485023498535
1.7294956362154852e+18,0.0030215377919375896,0.007619056850671768,-10.549646377563477
1.7294956362274854e+18,0.03549317270517349,0.015815000981092453,-10.578847885131836
1.7294956362364856e+18,-0.004350448492914438,-0.06430377811193466,-10.548737525939941
1.7294956362454858e+18,0.053775135427713394,-0.0035996807273477316,-10.527327537536621
1.729495636254486e+18,0.03132805973291397,0.018862012773752213,-10.549397468566895
1.7294956362634862e+18,-0.0032566823065280914,-0.03930144011974335,-10.57235050201416
1.7294956362724864e+18,-0.016983762383461,-0.03845619037747383,-10.597237586975098
1.7294956362844867e+18,0.047286733984947205,-0.0022062109783291817,-10.658409118652344
1.7294956362934868e+18,0.0037483356427401304,-0.06350518763065338,-10.441341400146484
1.729495636302487e+18,0.0539967343211174,-0.07521188259124756,-10.594046592712402
1.7294956363144873e+18,0.014719132333993912,0.057155437767505646,-10.490055084228516
1.7294956363234875e+18,0.0015551961259916425,-0.00938015803694725,-10.538958549499512
1.7294956363324877e+18,0.024143926799297333,-0.06127535179257393,-10.648096084594727
1.7294956363414879e+18,0.028026338666677475,-0.02958684042096138,-10.612427711486816
1.729495636350488e+18,0.022732287645339966,0.03707454353570938,-10.483611106872559
1.7294956363594883e+18,0.06392574310302734,0.004353540018200874,-10.488622665405273
1.7294956363684884e+18,0.012330545112490654,-0.0768093541264534,-10.449370384216309
1.7294956363804887e+18,0.009165368974208832,-0.046666622161865234,-10.587446212768555
1.729495636389489e+18,-0.06649237126111984,0.07087414711713791,-10.59040641784668
1.729495636398489e+18,0.08173279464244843,0.04739436134696007,-10.521198272705078
1.7294956364224896e+18,0.03401631861925125,-0.037884704768657684,-10.538084983825684
1.7294956364314898e+18,0.036785151809453964,0.0412493571639061,-10.569005012512207
1.72949563644349e+18,0.011091191321611404,-0.006329680792987347,-10.547273635864258
1.7294956364524902e+18,0.045981816947460175,-0.016598204150795937,-10.570199012756348
1.7294956364614904e+18,0.003937209025025368,-0.018420839682221413,-10.509147644042969
1.7294956364734907e+18,0.012678317725658417,-0.028218401595950127,-10.498019218444824
1.729495636482491e+18,-0.015758758410811424,-0.027529951184988022,-10.517695426940918
1.729495636491491e+18,-0.05856083333492279,0.028339309617877007,-10.48403549194336
1.7294956364974912e+18,0.03010905534029007,-0.009495118632912636,-10.549297332763672
1.7294956365064914e+18,0.08470016717910767,-0.05276916176080704,-10.512675285339355
1.7294956365154916e+18,0.022339366376399994,0.05231233313679695,-10.446022987365723
1.7294956365244918e+18,0.06995614618062973,0.015896975994110107,-10.39985466003418
1.729495636533492e+18,-0.005386626813560724,0.018402311950922012,-10.32209587097168
1.7294956365454922e+18,0.023691171780228615,-0.04057151451706886,-10.321084976196289
1.7294956365544924e+18,-0.028572343289852142,0.026622047647833824,-10.34841251373291
1.7294956365634926e+18,0.029752634465694427,-0.007597014307975769,-10.261573791503906
1.7294956365724928e+18,0.09908297657966614,0.003356910776346922,-10.226012229919434
1.729495636581493e+18,0.016230737790465355,-0.05014044791460037,-10.244451522827148
1.7294956365904932e+18,0.00017587591719347984,0.05797789245843887,-10.163042068481445
1.7294956366024934e+18,0.006138725206255913,-0.03257221356034279,-10.120503425598145
1.7294956366114936e+18,-0.006597790867090225,-0.01784738153219223,-10.158731460571289
1.7294956366204938e+18,0.012479841709136963,-0.08172416687011719,-10.08171272277832
1.729495636629494e+18,-0.035192541778087616,-0.08627064526081085,-10.133689880371094
1.7294956366384942e+18,0.016757002100348473,-0.02288505621254444,-9.971911430358887
1.7294956366474944e+18,0.014348468743264675,0.04589398577809334,-10.074795722961426
1.7294956366594947e+18,0.0156844612210989,0.017968380823731422,-10.000709533691406
1.7294956366684948e+18,-0.05497100576758385,-0.009996496140956879,-10.075370788574219
1.729495636677495e+18,-0.013714424334466457,0.02721736952662468,-10.000714302062988
1.7294956366864952e+18,-0.02822037599980831,-0.005626493599265814,-9.890300750732422
1.7294956366954954e+18,0.025087086483836174,0.037834275513887405,-9.884169578552246
1.7294956367044956e+18,-0.01653517223894596,0.003887627739459276,-9.870590209960938
1.7294956367134958e+18,0.015788860619068146,-0.020039832219481468,-9.780197143554688
1.729495636722496e+18,0.01694614253938198,-0.013444965705275536,-9.808242797851562
1.7294956367314962e+18,0.06580800563097,0.06305813789367676,-9.7749662399292
1.7294956367404964e+18,-0.016871575266122818,-0.005430740304291248,-9.73404598236084
1.7294956367494966e+18,-0.028972294181585312,-0.058871980756521225,-9.750969886779785
1.7294956367584968e+18,0.08883917331695557,0.005427813157439232,-9.709392547607422
1.729495636767497e+18,-0.031898610293865204,-0.03131895884871483,-9.754109382629395
1.7294956367764972e+18,-0.0125839002430439,-0.004287320654839277,-9.642329216003418
1.7294956367854973e+18,-0.08263879269361496,0.004047890659421682,-9.70252513885498
1.7294956367944975e+18,0.007536070421338081,-0.052173029631376266,-9.669281005859375
1.7294956368004977e+18,0.019941335543990135,0.020200306549668312,-9.655467987060547
1.7294956368094979e+18,-0.07867457717657089,0.006725615356117487,-9.746084213256836
1.729495636818498e+18,0.00947943702340126,-0.04881681129336357,-9.646530151367188
1.7294956368274982e+18,-0.016243459656834602,0.0003549481916707009,-9.630838394165039
1.7294956368364984e+18,0.036232128739356995,-0.01334038283675909,-9.642762184143066
1.7294956368454986e+18,-0.0018590453546494246,0.004126142244786024,-9.723509788513184
1.7294956368544988e+18,0.0322212278842926,-0.03182578086853027,-9.652898788452148
1.729495636863499e+18,-0.031325001269578934,-0.01046024076640606,-9.72262191772461
1.7294956368724992e+18,-0.03466888889670372,0.008858309127390385,-9.662118911743164
1.7294956368814994e+18,0.02543543092906475,0.004237303044646978,-9.638951301574707
1.7294956368904996e+18,0.028343331068754196,-0.048962440341711044,-9.626978874206543
1.7294956368994998e+18,0.03381779044866562,0.07866132259368896,-9.638787269592285
1.7294956369115e+18,-0.02037023939192295,0.016779599711298943,-9.59394645690918
1.7294956369205002e+18,-0.08999998867511749,0.06127040460705757,-9.661846160888672
1.7294956369265004e+18,-0.025295905768871307,0.030132843181490898,-9.59121036529541
1.7294956369355005e+18,-0.02251334860920906,-0.029282934963703156,-9.62890625
1.7294956369475008e+18,0.01590253971517086,-0.0015711061423644423,-9.568085670471191
1.729495636956501e+18,0.0007395148859359324,0.002695447066798806,-9.74374008178711
1.7294956369655012e+18,0.018383150920271873,-0.00043034504051320255,-9.65664005279541
1.7294956369745014e+18,0.02501484751701355,0.0005322298966348171,-9.71197509765625
1.7294956369835016e+18,0.008014737628400326,0.003342642681673169,-9.703132629394531
1.7294956369925018e+18,0.01489756815135479,0.005599454045295715,-9.725774765014648
1.729495637001502e+18,-0.005734175443649292,-0.014345323666930199,-9.700224876403809
1.7294956370105021e+18,0.03856417164206505,0.03358505293726921,-9.636629104614258
1.7294956370165023e+18,-0.035280246287584305,-0.0025898106396198273,-9.629325866699219
1.7294956370255025e+18,0.046790748834609985,-0.04597616568207741,-9.589311599731445
1.7294956370345027e+18,0.09083868563175201,0.01760280132293701,-9.627062797546387
1.7294956370435028e+18,0.01828150637447834,-0.023100385442376137,-9.611024856567383
1.729495637052503e+18,0.0029283722396939993,0.00948832742869854,-9.585567474365234
1.7294956370615032e+18,-0.02174421399831772,0.022943340241909027,-9.670008659362793
1.7294956370705034e+18,-0.032222893089056015,-0.01981082558631897,-9.693774223327637
1.7294956370765036e+18,0.05422764644026756,0.07514385879039764,-9.634509086608887
1.7294956370855037e+18,0.056082893162965775,0.01721486821770668,-9.653904914855957
1.729495637094504e+18,0.033437881618738174,0.05539713427424431,-9.762081146240234
1.7294956371035041e+18,-0.01579713448882103,-0.0736870989203453,-9.687877655029297
1.7294956371095043e+18,0.021123487502336502,0.054545808583498,-9.647673606872559
1.7294956371185044e+18,-0.09452037513256073,-0.015006950125098228,-9.638259887695312
1.7294956371275046e+18,-0.10213254392147064,-0.00809349026530981,-9.723297119140625
1.7294956371365048e+18,0.10441607981920242,-0.03208591416478157,-9.607906341552734
1.729495637142505e+18,0.013216576538980007,0.004366424400359392,-9.618664741516113
1.7294956371515052e+18,0.008292478509247303,0.062916100025177,-9.545868873596191
1.7294956371605053e+18,-0.0017111202469095588,-0.044141970574855804,-9.604353904724121
1.7294956371695055e+18,0.11029370874166489,-0.0729529932141304,-9.640231132507324
1.7294956371755057e+18,-0.04005226865410805,-0.041679076850414276,-9.62682056427002
1.7294956371845059e+18,-0.009622422978281975,-0.0663645789027214,-9.643691062927246
1.729495637193506e+18,-0.06468500941991806,0.01039423793554306,-9.621848106384277
1.7294956372025062e+18,0.02754374034702778,-0.028253188356757164,-9.652957916259766
1.7294956372115064e+18,-0.005283241625875235,0.033069029450416565,-9.58199691772461
1.7294956372205066e+18,0.019852356985211372,0.05364251881837845,-9.570021629333496
1.7294956372295068e+18,-0.042759981006383896,0.03004891611635685,-9.596406936645508
1.729495637238507e+18,-0.001829642103984952,0.040616314858198166,-9.561565399169922
1.7294956372475072e+18,0.08337921649217606,0.00821076612919569,-9.616949081420898
1.7294956372535073e+18,-0.04373722895979881,-0.012729186564683914,-9.610259056091309
1.7294956372625075e+18,0.018831627443432808,0.05483892187476158,-9.608280181884766
1.7294956372715077e+18,-0.016562599688768387,-0.021093182265758514,-9.627802848815918
1.729495637280508e+18,-0.005779710598289967,-0.03207748010754585,-9.603265762329102
1.729495637289508e+18,0.06625480949878693,0.023539459332823753,-9.602506637573242
1.7294956372955082e+18,-0.048909012228250504,0.005724918097257614,-9.628363609313965
1.7294956373045084e+18,0.01574893668293953,-0.06425527483224869,-9.594827651977539
1.7294956373135086e+18,-0.0630880743265152,-0.06500200927257538,-9.643299102783203
1.7294956373225088e+18,-0.003737272461876273,0.008568810299038887,-9.545746803283691
1.729495637331509e+18,0.051083460450172424,0.04315365478396416,-9.593175888061523
1.7294956373405092e+18,0.003957705106586218,-0.061058636754751205,-9.564973831176758
1.7294956373495094e+18,0.0003032158128917217,0.060973670333623886,-9.58820629119873
1.7294956373555095e+18,-0.0957065150141716,0.018874287605285645,-9.575957298278809
1.7294956373645097e+18,0.07054257392883301,-0.002334961434826255,-9.626580238342285
1.72949563737351e+18,-0.026030803099274635,0.032698068767786026,-9.520075798034668
1.72949563738251e+18,0.02093958854675293,-0.04205402731895447,-9.558808326721191
1.7294956373915103e+18,-0.08021043241024017,0.030650824308395386,-9.579900741577148
1.7294956374005105e+18,-0.02184697426855564,0.03288901597261429,-9.53238296508789
1.7294956374065106e+18,0.09404361993074417,0.004724882077425718,-9.55183219909668
1.7294956374155108e+18,0.05280015245079994,0.0015792356571182609,-9.448912620544434
1.729495637424511e+18,0.04257224500179291,0.016880959272384644,-9.58494758605957
1.7294956374335112e+18,-0.0119841443374753,0.03353554755449295,-9.564872741699219
1.7294956374425114e+18,0.0403422974050045,-0.044232260435819626,-9.56895637512207
1.7294956374485115e+18,0.008998152799904346,0.05025848373770714,-9.528203010559082
1.7294956374575117e+18,-0.04271385446190834,-0.004599027335643768,-9.521150588989258
1.729495637466512e+18,-0.021021658554673195,0.026190772652626038,-9.467636108398438
1.729495637475512e+18,0.0404985174536705,0.10817611217498779,-9.521766662597656
1.7294956374815122e+18,0.029667243361473083,-0.008667705580592155,-9.540997505187988
1.7294956374905124e+18,0.009101168252527714,0.02194228023290634,-9.510122299194336
1.7294956374995126e+18,0.04036739841103554,0.009295441210269928,-9.634969711303711
1.7294956375085128e+18,-0.01846710778772831,-0.10347560048103333,-9.553291320800781
1.729495637517513e+18,0.08006755262613297,0.0278321523219347,-9.53818416595459
1.729495637523513e+18,0.06034165248274803,0.04532947018742561,-9.457723617553711
1.7294956375325133e+18,-0.012110251002013683,0.039521414786577225,-9.5289306640625
1.7294956375415135e+18,-0.0044525014236569405,0.04346117749810219,-9.447854042053223
1.7294956375505137e+18,-0.011473442427814007,0.03103630058467388,-9.562063217163086
1.7294956375595139e+18,-0.0003062054165638983,-0.047516752034425735,-9.559833526611328
1.729495637568514e+18,-0.059401534497737885,0.020313579589128494,-9.552542686462402
1.7294956375745142e+18,0.04315313696861267,-0.04162697121500969,-9.5730562210083
1.7294956375835144e+18,0.030596254393458366,0.001918666297569871,-9.47546672821045
1.7294956375895145e+18,0.06349315494298935,0.05736443027853966,-9.540077209472656
1.7294956375985147e+18,0.024341484531760216,-0.03440388664603233,-9.478914260864258
1.729495637607515e+18,0.060822129249572754,0.034102845937013626,-9.501163482666016
1.729495637616515e+18,-0.034635864198207855,0.024778882041573524,-9.537489891052246
1.7294956376255153e+18,-0.06583520770072937,0.0676494911313057,-9.472330093383789
1.7294956376345155e+18,-0.0011062382254749537,-0.04128890484571457,-9.496994972229004
1.7294956376405156e+18,0.01844474859535694,-0.07383973151445389,-9.520453453063965
1.7294956376495158e+18,-0.024959621950984,-0.03684266284108162,-9.550339698791504
1.729495637658516e+18,-0.0048108333721756935,0.032936885952949524,-9.54663372039795
1.7294956376675162e+18,0.02291540987789631,-0.01938662678003311,-9.516698837280273
1.7294956376765164e+18,-0.015066849067807198,-0.007660494185984135,-9.460192680358887
1.7294956376855165e+18,0.01744677498936653,-0.03585914894938469,-9.526588439941406
1.7294956376945167e+18,-0.057280827313661575,0.004941566847264767,-9.490246772766113
1.7294956377005169e+18,-0.007426721975207329,-0.05282435938715935,-9.478951454162598
1.729495637712517e+18,0.026000887155532837,0.006070875562727451,-9.428406715393066
1.7294956377215173e+18,-0.02911701425909996,0.014164093881845474,-9.510042190551758
1.7294956377305175e+18,0.004473067820072174,-0.06537137925624847,-9.46424674987793
1.7294956377395177e+18,-0.0496133528649807,0.0023845890536904335,-9.516063690185547
1.7294956377455178e+18,0.030667852610349655,-0.06114307418465614,-9.461236000061035
1.729495637754518e+18,0.02866130694746971,-0.038203392177820206,-9.523480415344238
1.7294956377635182e+18,0.0563245452940464,0.020959774032235146,-9.457762718200684
1.7294956377725184e+18,0.016180040314793587,0.02981211058795452,-9.51052188873291
1.7294956377815186e+18,-0.01700148731470108,0.01448760461062193,-9.387907028198242
1.7294956377905188e+18,0.058474358171224594,-0.00743768410757184,-9.624811172485352
1.729495637799519e+18,0.01835697330534458,0.01794642023742199,-9.511128425598145
1.7294956378085192e+18,-0.020957395434379578,-0.006478263530880213,-9.458304405212402
1.7294956378175194e+18,-0.04173940047621727,-0.012593204155564308,-9.439608573913574
1.7294956378265196e+18,-0.005944624077528715,0.024474026635289192,-9.450799942016602
1.7294956378355197e+18,0.00571440439671278,0.036759160459041595,-9.469539642333984
1.72949563784452e+18,0.01608210615813732,0.004909778945147991,-9.41129207611084
1.72949563785052e+18,0.035067059099674225,-0.010494982823729515,-9.503974914550781
1.7294956378595203e+18,0.060045190155506134,-0.03687980771064758,-9.459348678588867
1.7294956378685204e+18,0.06712473183870316,0.0014906520955264568,-9.443222999572754
1.7294956378775206e+18,0.052163541316986084,0.05426575616002083,-9.486654281616211
1.7294956378865208e+18,-0.056843534111976624,0.009961365722119808,-9.456805229187012
1.729495637895521e+18,0.057799577713012695,0.04095037654042244,-9.529990196228027
1.7294956379015212e+18,0.038521427661180496,-0.004835363011807203,-9.400853157043457
1.7294956379105213e+18,0.03877074643969536,0.013284529559314251,-9.447528839111328
1.7294956379195215e+18,-0.01454084925353527,0.08664757013320923,-9.433412551879883
1.7294956379285217e+18,0.05046885460615158,-0.0612778440117836,-9.386116981506348
1.7294956379345219e+18,0.01878240890800953,0.007529935333877802,-9.446514129638672
1.729495637943522e+18,0.02660161815583706,-0.01032870914787054,-9.471625328063965
1.7294956379525222e+18,-0.0013871921692043543,0.036248449236154556,-9.472841262817383
1.7294956379615224e+18,-0.04622987285256386,-0.04804648458957672,-9.521936416625977
1.7294956379705226e+18,-0.020132727921009064,0.013145060278475285,-9.532270431518555
1.7294956379765228e+18,0.03736981749534607,0.004216033034026623,-9.447880744934082
1.729495637985523e+18,-0.02332252822816372,0.039500948041677475,-9.48687744140625
1.7294956379945231e+18,-0.08861997723579407,0.05076976865530014,-9.477760314941406
1.7294956380035233e+18,-0.07031728327274323,0.01412723958492279,-9.44201374053955
1.7294956380125235e+18,0.02582572028040886,0.008130175992846489,-9.414237022399902
1.7294956380215237e+18,-0.03541248291730881,-0.009050012566149235,-9.436993598937988
1.7294956380275238e+18,0.03738299384713173,-0.01866431161761284,-9.425292015075684
1.729495638036524e+18,-0.015210896730422974,-0.07759832590818405,-9.440033912658691
1.7294956380455242e+18,-0.009565026499330997,-0.0685897171497345,-9.526281356811523
1.7294956380545244e+18,-0.003939217887818813,-0.0169427078217268,-9.492966651916504
1.7294956380635246e+18,0.006790644489228725,-0.016416219994425774,-9.355859756469727
1.7294956380695247e+18,-0.015426767989993095,0.03215578943490982,-9.428484916687012
1.729495638078525e+18,0.05472032353281975,-0.04949969798326492,-9.402109146118164
1.729495638087525e+18,-0.06917469203472137,0.03148150071501732,-9.428894996643066
1.7294956380965253e+18,0.039866525679826736,0.011889254674315453,-9.439412117004395
1.7294956381055255e+18,-0.02759675867855549,0.010835911147296429,-9.383540153503418
1.7294956381115256e+18,-0.00876019336283207,0.03357851132750511,-9.454806327819824
1.7294956381205258e+18,-0.0054716067388653755,-0.06948480010032654,-9.397314071655273
1.729495638129526e+18,-0.001897125504910946,0.03137228265404701,-9.4775972366333
1.7294956381385262e+18,0.0479256734251976,-0.05315086990594864,-9.508649826049805
1.7294956381445263e+18,0.02517830580472946,-0.016809528693556786,-9.432641983032227
1.7294956381535265e+18,-0.04250189661979675,0.0032841963693499565,-9.375844955444336
1.7294956381625267e+18,-0.044787030667066574,0.004078132566064596,-9.473377227783203
1.7294956381685268e+18,0.01775207743048668,-0.0019971460569649935,-9.454798698425293
1.729495638177527e+18,-0.006623266264796257,0.02019563503563404,-9.430445671081543
1.7294956381865272e+18,-0.027680611237883568,-0.028024235740303993,-9.342214584350586
1.7294956381955274e+18,-0.0912226065993309,0.04410061240196228,-9.432669639587402
1.7294956382045276e+18,-0.03458615392446518,0.043926507234573364,-9.380941390991211
1.7294956382135278e+18,0.01599293015897274,0.012789431028068066,-9.440890312194824
1.729495638219528e+18,0.05214056745171547,-0.007447801996022463,-9.385432243347168
1.729495638228528e+18,-0.002963352482765913,-0.0536721870303154,-9.205241203308105
1.7294956382405284e+18,0.028968406841158867,-0.05147068575024605,-9.318029403686523
1.7294956382495286e+18,0.03856595605611801,0.02750612609088421,-9.24889087677002
1.7294956382585288e+18,-0.014299939386546612,0.04352600872516632,-9.23222827911377
1.729495638267529e+18,-0.020905030891299248,-0.016517309471964836,-9.185050010681152
1.729495638273529e+18,-0.014995920471847057,0.019404171034693718,-9.167925834655762
1.7294956382825293e+18,-0.010341363027691841,-0.016004005447030067,-9.116020202636719
1.7294956382915295e+18,-0.026678353548049927,0.08084136992692947,-9.064079284667969
1.7294956383005297e+18,0.01688397116959095,0.038632992655038834,-9.0135498046875
1.7294956383095299e+18,-0.005098958034068346,0.04383660852909088,-9.0739164352417
1.72949563831853e+18,-0.030512066558003426,-0.04397214576601982,-8.979368209838867
1.7294956383245302e+18,0.02705431915819645,0.03648402914404869,-8.989104270935059
1.7294956383335304e+18,-0.05836118385195732,0.11120567470788956,-8.998608589172363
1.7294956383425306e+18,0.029240760952234268,0.026048915460705757,-8.856831550598145
1.7294956383485307e+18,-0.007716719526797533,0.06831943988800049,-8.85896110534668
1.729495638357531e+18,0.004631546325981617,0.024736471474170685,-8.911351203918457
1.729495638366531e+18,0.047519177198410034,0.013770580291748047,-8.785744667053223
1.7294956383755313e+18,-0.04810423403978348,-0.12762144207954407,-8.851960182189941
1.7294956383845315e+18,-0.06284831464290619,-0.05882469564676285,-8.767111778259277
1.7294956383935316e+18,-0.02024076320230961,-0.015775451436638832,-8.783368110656738
1.7294956383995318e+18,0.027802277356386185,-0.042300257831811905,-8.821551322937012
1.729495638408532e+18,-0.10356251895427704,0.007341634016484022,-8.73737907409668
1.7294956384175322e+18,-0.020261790603399277,0.011288514360785484,-8.684215545654297
1.7294956384265324e+18,0.02714706026017666,-0.044576723128557205,-8.727039337158203
1.7294956384325325e+18,0.073088638484478,0.04857772961258888,-8.619629859924316
1.7294956384415327e+18,0.012805767357349396,0.022884702309966087,-8.56409740447998
1.7294956384505329e+18,0.08634909242391586,0.012182352133095264,-8.629122734069824
1.729495638456533e+18,0.004930519964545965,-0.0292802844196558,-8.601478576660156
1.7294956384655332e+18,0.06131405010819435,-0.0192255936563015,-8.561476707458496
1.7294956384745334e+18,0.010807647369801998,0.023457180708646774,-8.676887512207031
1.7294956384835336e+18,0.10682957619428635,0.0519866868853569,-8.745784759521484
1.7294956384925338e+18,-0.024964213371276855,-0.036986976861953735,-8.621784210205078
1.729495638498534e+18,0.028131570667028427,-0.02307247929275036,-8.723532676696777
1.729495638507534e+18,0.04202054440975189,0.07415404915809631,-8.677698135375977
1.7294956385165343e+18,0.04563646763563156,0.03412599489092827,-8.702402114868164
1.7294956385255345e+18,-0.03435148298740387,0.021103372797369957,-8.712982177734375
1.7294956385345347e+18,-0.025884943082928658,-0.045373644679784775,-8.724284172058105
1.7294956385405348e+18,0.021614130586385727,-0.02532573789358139,-8.798798561096191
1.729495638549535e+18,0.020478282123804092,0.023293524980545044,-8.787125587463379
1.729495638555535e+18,0.035681989043951035,-0.01871606707572937,-8.759047508239746
1.7294956385645353e+18,0.015122770331799984,0.061478905379772186,-8.845797538757324
1.7294956385735355e+18,0.0006500614690594375,0.018781280145049095,-12.162945747375488
1.7294956385825357e+18,-0.04243128001689911,0.0550386905670166,-15.605981826782227
1.7294956385885358e+18,-0.007216003257781267,-0.013096618466079235,-16.13441276550293
1.729495638597536e+18,-0.04369363561272621,0.015322317369282246,-16.241960525512695
1.7294956386065362e+18,0.04818414896726608,0.024213191121816635,-16.302492141723633
1.7294956386155364e+18,0.006283485796302557,-0.04135989770293236,-16.233245849609375
1.7294956386215365e+18,0.017493147403001785,0.03602246940135956,-16.20313835144043
1.7294956386305367e+18,0.007271269336342812,-0.011872082017362118,-16.051115036010742
1.729495638639537e+18,-0.006708595901727676,0.07402019947767258,-15.935868263244629
1.729495638648537e+18,0.013477098196744919,-0.03024047054350376,-15.78935432434082
1.7294956386575373e+18,-0.03307664021849632,-0.03163329139351845,-15.580948829650879
1.7294956386635374e+18,0.08620389550924301,-0.05418790504336357,-15.632262229919434
1.7294956386755377e+18,0.02735046297311783,-0.08442652225494385,-15.39635944366455
1.7294956386815378e+18,-0.027182281017303467,0.017391309142112732,-15.301026344299316
1.729495638690538e+18,-0.015999814495444298,0.0009815567173063755,-15.188055038452148
1.7294956387025382e+18,0.01706603914499283,-0.04920419305562973,-14.976116180419922
1.7294956387085384e+18,0.020713163539767265,0.06698717921972275,-14.956168174743652
1.7294956387205386e+18,0.047561608254909515,-0.042269278317689896,-14.769804000854492
1.7294956387265388e+18,-0.058807943016290665,0.03503332659602165,-14.691431999206543
1.729495638735539e+18,-0.0339844673871994,-0.06482356041669846,-14.488255500793457
1.7294956387445391e+18,0.016810676082968712,0.0267495047301054,-14.438750267028809
1.7294956387535393e+18,-0.0631030797958374,0.057436369359493256,-14.374139785766602
1.7294956387625395e+18,0.02054740861058235,-0.05085195228457451,-14.143232345581055
1.7294956387685396e+18,-0.007512540556490421,0.03625865653157234,-14.15593147277832
1.7294956387775398e+18,0.032916534692049026,-0.004091473296284676,-14.035004615783691
1.72949563878654e+18,0.033538155257701874,0.004278957843780518,-14.041669845581055
1.7294956387955402e+18,-9.723100811243057e-05,-0.10613805800676346,-13.825582504272461
1.7294956388045404e+18,-0.07697762548923492,-0.028614874929189682,-13.69693374633789
1.7294956388135406e+18,0.012515967711806297,-0.0019746809266507626,-13.636954307556152
1.7294956388225408e+18,-0.03149964660406113,-0.02337939478456974,-13.46037483215332
1.729495638831541e+18,0.04288773611187935,0.008009083569049835,-13.470685958862305
1.7294956388405412e+18,-0.08512979000806808,-0.08535510301589966,-13.38502311706543
1.7294956388525414e+18,0.003417759668081999,-0.03870305046439171,-13.300004959106445
1.7294956388615416e+18,0.03816191852092743,0.07445758581161499,-13.171353340148926
1.7294956388705418e+18,-0.13876964151859283,-0.056638360023498535,-13.105792045593262
1.729495638882542e+18,-0.008999546989798546,0.062007393687963486,-13.055566787719727
1.7294956388885422e+18,-0.0012668394483625889,-0.011692952364683151,-12.86100959777832
1.7294956388975424e+18,0.06912291049957275,0.03594261407852173,-12.97131633758545
1.7294956389065426e+18,0.1112956702709198,-0.08816181868314743,-12.863358497619629
1.7294956389125427e+18,-0.05827703699469566,-0.013601471669971943,-12.75829029083252
1.729495638921543e+18,0.012285006232559681,-0.04815225303173065,-12.640460014343262
1.729495638930543e+18,-0.06102245673537254,0.0018793215276673436,-12.660475730895996
1.7294956389395433e+18,0.020489390939474106,-0.00976028572767973,-12.583420753479004
1.7294956389455434e+18,0.006296988110989332,-0.05881562456488609,-12.517044067382812
1.7294956389575437e+18,0.05580897256731987,-0.11780816316604614,-12.454030990600586
1.7294956389635438e+18,0.046852339059114456,0.005246138200163841,-12.456542015075684
1.729495638972544e+18,-0.06728988140821457,-0.005162568762898445,-12.204422950744629
1.7294956389815442e+18,-0.02007105015218258,-0.00836978480219841,-12.340076446533203
1.7294956389905444e+18,-0.024134723469614983,-0.03488009795546532,-12.25838565826416
1.7294956389965445e+18,-0.0019520513014867902,0.042943038046360016,-12.253043174743652
1.7294956390055447e+18,-0.0035653249360620975,-0.06630610674619675,-12.2382230758667
1.729495639014545e+18,0.06187250465154648,0.03458041325211525,-12.000627517700195
1.729495639020545e+18,-0.026841679587960243,0.053021784871816635,-11.962307929992676
1.7294956390295452e+18,0.046462055295705795,-0.03368990495800972,-12.03656005859375
1.7294956390385454e+18,-0.016513152047991753,-0.06432560086250305,-12.003620147705078
1.7294956390475456e+18,-0.036271095275878906,0.003466223366558552,-11.937755584716797
1.7294956390565458e+18,-0.01770680584013462,-0.013732748106122017,-11.896008491516113
1.729495639065546e+18,-0.0279819555580616,-0.029319707304239273,-11.909473419189453
1.729495639071546e+18,0.053354084491729736,0.028137831017374992,-11.792621612548828
1.7294956390805463e+18,-0.0031255728099495173,-0.002770503517240286,-11.807437896728516
1.7294956390895465e+18,0.007105180062353611,0.007970774546265602,-11.702364921569824
1.7294956390955466e+18,-0.0692630186676979,-0.020833304151892662,-11.658473014831543
1.7294956391045468e+18,-0.030807873234152794,-0.08625401556491852,-11.626713752746582
1.729495639113547e+18,-0.025745298713445663,-0.002836197381839156,-11.576218605041504
1.7294956391195471e+18,0.03775164112448692,0.054530639201402664,-11.628924369812012
1.7294956391285473e+18,0.006911073811352253,-0.003071764949709177,-11.560081481933594
1.7294956391375475e+18,-0.046454694122076035,0.024035975337028503,-11.525772094726562
1.7294956391465477e+18,-0.052781324833631516,0.033122334629297256,-11.495706558227539
1.7294956391525478e+18,-0.05543610826134682,0.012722957879304886,-11.48707103729248
1.729495639161548e+18,0.051327962428331375,0.03187748044729233,-11.410009384155273
1.7294956391705482e+18,-0.08277600258588791,-0.023208364844322205,-11.395864486694336
1.7294956391765484e+18,-0.06259556859731674,-0.024814974516630173,-11.346443176269531
1.7294956391855485e+18,-0.015673238784074783,-0.07002632319927216,-11.352885246276855
1.7294956391945487e+18,-0.03589591383934021,-0.07078562676906586,-11.299074172973633
1.7294956392005489e+18,-0.054362952709198,0.008723322302103043,-11.276704788208008
1.729495639209549e+18,0.029687047004699707,0.0016152545576915145,-11.260047912597656
1.7294956392185492e+18,-0.002102813683450222,0.0008673800039105117,-11.20526123046875
1.7294956392305495e+18,-0.06654110550880432,-0.010105978697538376,-11.144838333129883
1.7294956392365496e+18,0.09127133339643478,-0.007061525247991085,-11.127107620239258
1.7294956392455498e+18,0.03099922463297844,0.02548886649310589,-11.087589263916016
1.72949563925455e+18,0.0451655238866806,0.033061083406209946,-11.115583419799805
1.7294956392635502e+18,-0.014121050015091896,0.00815204530954361,-11.06629753112793
1.7294956392695503e+18,-0.05481087416410446,-0.023555690422654152,-11.130752563476562
1.7294956392785505e+18,-0.0018229975830763578,0.014857030473649502,-11.037556648254395
1.7294956392875507e+18,0.013940325006842613,0.01962733455002308,-10.864896774291992
1.7294956392935508e+18,-0.04894412308931351,0.04084189236164093,-10.923352241516113
1.729495639302551e+18,0.03610291704535484,0.030717259272933006,-10.91386604309082
1.7294956393115512e+18,0.01924087665975094,0.025242149829864502,-10.90090560913086
1.7294956393205514e+18,0.011693010106682777,-0.04500913247466087,-10.895197868347168
1.7294956393295516e+18,-0.009912976063787937,0.011444320902228355,-10.922649383544922
1.7294956393355517e+18,-0.03957295045256615,0.012811715714633465,-10.857514381408691
1.729495639344552e+18,0.00564102316275239,0.023671677336096764,-10.812990188598633
1.7294956393535521e+18,0.008191395550966263,0.03750494867563248,-10.823857307434082
1.7294956393655524e+18,0.05038244649767876,-0.04634656012058258,-10.747456550598145
1.7294956393745526e+18,-0.06399322301149368,0.018710384145379066,-10.845040321350098
1.7294956393805527e+18,0.021185224875807762,0.023213738575577736,-10.777251243591309
1.729495639389553e+18,0.02184462547302246,0.0028686351142823696,-10.75268840789795
1.729495639398553e+18,-0.057984430342912674,-0.059372931718826294,-10.67601203918457
1.7294956394075533e+18,0.035709381103515625,-0.10216860473155975,-10.669893264770508
1.7294956394165535e+18,-0.0325956791639328,-0.010989906266331673,-10.715319633483887
1.7294956394225536e+18,0.0023606461472809315,-0.0700155720114708,-10.691458702087402
1.7294956394315538e+18,-0.012303110212087631,-0.022436974570155144,-10.614425659179688
1.729495639440554e+18,-0.062839575111866,0.09609431028366089,-10.649956703186035
1.7294956394495542e+18,0.08381449431180954,0.0008287591044791043,-10.61864185333252
1.7294956394585544e+18,0.02623806521296501,-0.08330138772726059,-10.635285377502441
1.7294956394675546e+18,-0.07094019651412964,-0.010739016346633434,-10.520651817321777
1.7294956394735547e+18,-0.04866202920675278,-0.030521037057042122,-10.524677276611328
1.729495639482555e+18,0.001714081154204905,0.044289637356996536,-10.579344749450684
1.729495639491555e+18,0.0007817684672772884,0.03606906533241272,-10.532248497009277
1.7294956395005553e+18,-0.010190802626311779,0.009074581786990166,-10.631759643554688
1.7294956395065554e+18,-0.033434610813856125,-0.005878753960132599,-10.49618911743164
1.7294956395155556e+18,0.02856638841331005,-0.09040407091379166,-10.439229011535645
1.7294956395245558e+18,-0.020224208012223244,0.02398015186190605,-10.49410343170166
1.729495639533556e+18,-0.04706180840730667,0.042055644094944,-10.423460006713867
1.7294956395425562e+18,-0.0244426429271698,0.024424828588962555,-10.356399536132812
1.7294956395485563e+18,-0.00145446858368814,-0.025267809629440308,-10.387005805969238
1.7294956395605565e+18,-0.05293668061494827,-0.04949687048792839,-10.396376609802246
1.7294956395665567e+18,-0.02269255369901657,0.010940201580524445,-10.425644874572754
1.7294956395755569e+18,0.026043135672807693,-0.01611907221376896,-10.375079154968262
1.729495639584557e+18,0.050323981791734695,0.03290863335132599,-10.35530948638916
1.7294956395935572e+18,0.0026325834915041924,0.010292629711329937,-10.27364444732666
1.7294956395995574e+18,0.08315139263868332,0.07846204936504364,-10.355493545532227
1.7294956396085576e+18,-0.04355888441205025,0.00785336084663868,-10.33376407623291
1.7294956396175578e+18,0.004064310807734728,0.037285566329956055,-10.321622848510742
1.729495639626558e+18,-0.002944497624412179,0.011317438445985317,-10.335479736328125
1.7294956396355581e+18,-0.033641669899225235,-0.07186973094940186,-10.28899097442627
1.7294956396445583e+18,-0.057865407317876816,0.08175558596849442,-10.307476043701172
1.7294956396535585e+18,-0.05575575307011604,0.05909160524606705,-10.231571197509766
1.7294956396625587e+18,-0.015479098074138165,0.05055931955575943,-10.274066925048828
1.729495639671559e+18,0.027389248833060265,-0.017383825033903122,-10.228499412536621
1.729495639680559e+18,0.06972237676382065,-0.014172736555337906,-10.240180969238281
1.7294956396895593e+18,0.023207655176520348,-0.005363876465708017,-10.24331283569336
1.7294956396985595e+18,-0.04896126687526703,-0.04547220841050148,-10.173163414001465
1.7294956397075597e+18,0.10270202159881592,0.07186729460954666,-10.221114158630371
1.72949563971656e+18,-0.020993076264858246,0.013255368918180466,-10.163040161132812
1.72949563972856e+18,0.08626261353492737,-0.03397197276353836,-10.180341720581055
1.7294956397375603e+18,-0.031966596841812134,-0.06391320377588272,-10.20571231842041
1.7294956397465605e+18,-0.032905977219343185,-0.013909583911299706,-10.151809692382812
1.7294956397555607e+18,-0.01684073731303215,-0.031597696244716644,-10.145413398742676
1.729495639764561e+18,0.015412220731377602,0.01725756749510765,-10.057003021240234
1.729495639773561e+18,-0.07292500138282776,0.005369807127863169,-10.107769966125488
1.7294956397825613e+18,-0.024495085701346397,-0.03454219177365303,-10.141461372375488
1.7294956397885614e+18,-0.013902716338634491,2.311121170350816e-05,-10.182085990905762
1.7294956397975616e+18,-0.0020115389488637447,0.0008201753371395171,-10.090200424194336
1.7294956398065618e+18,0.026887891814112663,-0.04912332072854042,-9.99768352508545
1.729495639812562e+18,0.023773085325956345,-0.05932405963540077,-10.13327693939209
1.729495639821562e+18,0.03945637121796608,0.012330260127782822,-10.046561241149902
1.7294956398305623e+18,-0.010305467993021011,0.0457497276365757,-10.150655746459961
1.7294956398395625e+18,-0.06537995487451553,-0.01718931831419468,-10.091126441955566
1.7294956398485627e+18,-0.013431311585009098,0.02969508059322834,-10.024596214294434
1.729495639857563e+18,0.05484744906425476,0.04790791496634483,-9.982257843017578
1.7294956398695631e+18,0.013965918682515621,0.07591832429170609,-10.024884223937988
1.7294956398815634e+18,0.001199185149744153,0.0020104777067899704,-9.975431442260742
1.7294956398875635e+18,0.10293443500995636,-0.0029308174271136522,-10.015046119689941
1.7294956398965637e+18,0.03910933434963226,0.04604682698845863,-9.978538513183594
1.729495639905564e+18,0.030651221051812172,0.055362313985824585,-10.01108169555664
1.729495639911564e+18,-0.01618127152323723,-0.05484047159552574,-9.875240325927734
1.7294956399205642e+18,-0.0176984965801239,-0.0688503310084343,-9.98861312866211
1.7294956399295644e+18,-0.08991213142871857,-0.04625801742076874,-10.01978588104248
1.7294956399355645e+18,-0.042373672127723694,0.02735711634159088,-9.913604736328125
1.7294956399445647e+18,-0.016614623367786407,-0.031008783727884293,-9.8952054977417
1.729495639953565e+18,0.006945677567273378,0.037087615579366684,-9.9241304397583
1.729495639962565e+18,0.0015053215902298689,-0.0012684151297435164,-9.962291717529297
1.7294956399715653e+18,-0.005705562420189381,0.0019602095708251,-9.965519905090332
1.7294956399805655e+18,-0.012933248654007912,0.02844417095184326,-9.966486930847168
1.7294956399895657e+18,0.03364134952425957,-0.09713703393936157,-9.945148468017578
1.7294956399955658e+18,0.004908516071736813,-0.0723765566945076,-9.861414909362793
1.729495640004566e+18,0.018547115847468376,-0.008028722368180752,-9.885870933532715
1.7294956400135662e+18,-0.018378136679530144,-0.06758996099233627,-9.875484466552734
1.7294956400195663e+18,0.06295502930879593,-0.008458158001303673,-9.872337341308594
1.7294956400285665e+18,-0.045701466500759125,0.00017857953207567334,-9.916990280151367
1.7294956400375667e+18,-0.08313793689012527,0.0382147915661335,-9.935089111328125
1.729495640046567e+18,-0.04647926986217499,-0.0166027769446373,-9.887184143066406
1.729495640052567e+18,0.06981854140758514,0.031515855342149734,-9.855341911315918
1.7294956400615672e+18,0.022501492872834206,-0.03371782973408699,-9.918217658996582
1.7294956400705674e+18,0.04580000787973404,0.01348655205219984,-9.858985900878906
1.7294956400795676e+18,-0.052504729479551315,0.03951578214764595,-9.786698341369629
1.7294956400885678e+18,0.03060636855661869,-0.05628497526049614,-9.937599182128906
1.729495640097568e+18,-0.08923815190792084,0.030360078439116478,-9.841355323791504
1.7294956401065682e+18,-0.038498129695653915,-0.015381845645606518,-9.868797302246094
1.7294956401155684e+18,-0.024816201999783516,0.025029368698596954,-9.888858795166016
1.7294956401215685e+18,0.004603459965437651,-0.05736291781067848,-9.872453689575195
1.7294956401305687e+18,0.0237495806068182,0.018286488950252533,-9.850622177124023
1.729495640139569e+18,-0.043418511748313904,-0.01356026902794838,-9.808213233947754
1.729495640148569e+18,-0.005378606729209423,-0.011221708729863167,-9.816154479980469
1.7294956401575693e+18,-0.07292178273200989,0.053179528564214706,-9.829598426818848
1.7294956401635694e+18,0.03647175058722496,0.05966780707240105,-9.857410430908203
1.7294956401725696e+18,0.059305623173713684,0.010755274444818497,-9.811857223510742
1.7294956401785697e+18,0.09883557260036469,-0.041289158165454865,-9.785388946533203
1.72949564018757e+18,0.04029262438416481,-0.03597347438335419,-9.835206985473633
1.72949564019657e+18,-0.027623426169157028,0.04311666265130043,-9.752833366394043
1.7294956402055703e+18,-4.9696885980665684e-05,-0.026103248819708824,-9.785706520080566
1.7294956402115704e+18,-0.017982572317123413,0.004201109986752272,-9.748333930969238
1.7294956402205706e+18,0.07795599848031998,0.018780600279569626,-9.79631519317627
1.7294956402295708e+18,-0.032841894775629044,0.025423845276236534,-9.74283218383789
1.729495640238571e+18,-0.029838506132364273,-0.03648072108626366,-9.87166690826416
1.7294956402475712e+18,-0.09667792916297913,-0.05849156528711319,-9.794265747070312
1.7294956402535713e+18,0.009504088200628757,0.006645171903073788,-9.797911643981934
1.7294956402625715e+18,0.04760636016726494,0.01607154868543148,-9.84273910522461
1.7294956402715717e+18,-0.0355597622692585,-0.0008887751027941704,-9.783893585205078
1.729495640280572e+18,0.0317000150680542,0.021665673702955246,-9.83877944946289
1.729495640289572e+18,0.06674069166183472,-0.03899921476840973,-9.745377540588379
1.7294956402985723e+18,0.015103640966117382,0.04819858819246292,-9.832632064819336
1.7294956403075725e+18,0.0786266028881073,0.05616045743227005,-9.8300142288208
1.7294956403165727e+18,0.023731933906674385,-0.029295995831489563,-9.844779968261719
1.7294956403255729e+18,-0.013563725166022778,-0.06285662949085236,-9.81417465209961
1.729495640331573e+18,-0.004847988020628691,0.04691047593951225,-9.921467781066895
1.7294956403405732e+18,-0.013286576606333256,0.07015244662761688,-9.815042495727539
1.7294956403495734e+18,-0.01453794352710247,0.028086792677640915,-9.83993911743164
1.7294956403585736e+18,-0.01208904292434454,0.05844751000404358,-9.818154335021973
1.7294956403675738e+18,0.013014651834964752,0.02283475361764431,-9.786380767822266
1.729495640376574e+18,0.027582375332713127,-0.04923171550035477,-9.76397705078125
1.729495640382574e+18,-0.024946890771389008,0.0013473916333168745,-9.776070594787598
1.7294956403915743e+18,0.00913394894450903,-0.06925579905509949,-9.79004192352295
1.7294956404005745e+18,-0.07856948673725128,-0.036724455654621124,-9.745989799499512
1.7294956404095747e+18,-0.05255847051739693,0.0611746571958065,-9.77374267578125
1.7294956404185748e+18,-0.012358047999441624,0.05154239013791084,-9.719451904296875
1.729495640427575e+18,0.0027373433113098145,0.016681667417287827,-9.816553115844727
1.7294956404365752e+18,0.07206752896308899,0.021513260900974274,-9.711676597595215
1.7294956404455754e+18,0.035459328442811966,-0.0022879759781062603,-9.797258377075195
1.7294956404545756e+18,-0.008276237174868584,0.011842002160847187,-9.804488182067871
1.729495640466576e+18,0.008254563435912132,0.027368417009711266,-9.76740550994873
1.729495640475576e+18,-0.020157067105174065,0.021565254777669907,-9.763138771057129
1.7294956404845763e+18,-0.056223515421152115,-0.06709787994623184,-9.7623929977417
1.7294956404935764e+18,-0.010679238475859165,-0.08595853298902512,-9.690826416015625
1.7294956405025766e+18,-0.06564674526453018,0.0010102749802172184,-9.65025806427002
1.7294956405115768e+18,0.011879630386829376,-0.0027374797500669956,-9.73618221282959
1.729495640520577e+18,-0.043582733720541,-0.010327277705073357,-9.837688446044922
1.7294956405295772e+18,0.04169745370745659,-0.003426386509090662,-9.776335716247559
1.7294956405415775e+18,0.020793095231056213,0.07782833278179169,-9.707401275634766
1.7294956405505777e+18,0.015996361151337624,0.022389275953173637,-9.641888618469238
1.7294956405595779e+18,0.021730570122599602,-0.04539186507463455,-9.61786937713623
1.729495640568578e+18,0.03775911033153534,0.016262123361229897,-9.706399917602539
1.7294956405775782e+18,-0.02755574882030487,0.02520260587334633,-9.760292053222656
1.7294956405865784e+18,0.032317496836185455,0.03831283003091812,-9.825950622558594
1.7294956405955786e+18,-0.09304963052272797,0.03388647735118866,-9.791534423828125
1.7294956406045788e+18,0.04927176982164383,0.04232925921678543,-9.76324462890625
1.729495640613579e+18,0.062030430883169174,0.052099257707595825,-9.695849418640137
1.7294956406225792e+18,0.006124635227024555,-0.025388361886143684,-9.768680572509766
1.7294956406285793e+18,0.026871416717767715,0.07688354700803757,-9.796914100646973
1.7294956406375795e+18,0.008074206300079823,0.016436176374554634,-9.783960342407227
1.7294956406465797e+18,-0.006597708445042372,0.015467087738215923,-9.846636772155762
1.72949564065558e+18,0.07008001953363419,-0.004590999335050583,-9.817533493041992
1.72949564066458e+18,0.0017130288761109114,-0.012896185740828514,-9.815573692321777
1.7294956406705802e+18,-0.008502156473696232,-0.06569947302341461,-9.84241008758545
1.7294956406795804e+18,-0.028712468221783638,-0.010618599131703377,-9.834617614746094
1.7294956406885806e+18,0.025722507387399673,0.04784484952688217,-9.826482772827148
1.7294956406975808e+18,-0.015286648645997047,0.029066843912005424,-9.812887191772461
1.729495640703581e+18,0.05558484047651291,0.007422128692269325,-9.784337997436523
1.729495640712581e+18,-0.0013413657434284687,0.04340745881199837,-9.728290557861328
1.7294956407215813e+18,-0.09015421569347382,-0.0026339716278016567,-9.818843841552734
1.7294956407305815e+18,-0.027784744277596474,-0.011105853132903576,-9.859891891479492
1.7294956407365816e+18,-0.03491927310824394,0.04938972741365433,-9.70883560180664
1.7294956407455818e+18,-0.01945679262280464,0.05268613621592522,-9.795438766479492
1.729495640754582e+18,-0.019379347562789917,-0.06498603522777557,-9.721168518066406
1.7294956407635822e+18,0.015620259568095207,-0.04453953728079796,-9.78608226776123
1.7294956407725824e+18,-0.021318383514881134,0.0522320531308651,-9.75029468536377
1.7294956407845827e+18,0.0030190839897841215,0.08108998835086823,-9.80763053894043
1.7294956407905828e+18,0.04774365574121475,-0.04082176089286804,-9.79838752746582
1.729495640799583e+18,0.012879246845841408,0.008276780135929585,-9.73852825164795
1.7294956408085832e+18,0.010590487159788609,0.004787784535437822,-9.833998680114746
1.7294956408175834e+18,0.03705141320824623,-0.019012680277228355,-9.73684024810791
1.7294956408265836e+18,-0.007084782235324383,-0.05722741782665253,-9.773425102233887
1.7294956408355837e+18,-0.006616420578211546,-0.07998739928007126,-9.719947814941406
1.7294956408415839e+18,-0.021415822207927704,-0.009080549702048302,-9.747806549072266
1.729495640850584e+18,0.0673861876130104,-0.050839103758335114,-9.696277618408203
1.7294956408595843e+18,0.04799014329910278,0.027485590428113937,-9.799017906188965
1.7294956408685844e+18,-0.01858348399400711,0.027545398101210594,-9.800450325012207
1.7294956408775846e+18,0.03774421662092209,0.016787782311439514,-9.678868293762207
1.7294956408865848e+18,-0.05494414269924164,-0.015497862361371517,-9.74994945526123
1.729495640895585e+18,-0.010138196870684624,-0.003957681357860565,-9.69690990447998
1.7294956409045852e+18,-0.023876547813415527,-0.028089353814721107,-9.757397651672363
1.7294956409135854e+18,-0.010741977952420712,-0.01199282705783844,-9.746213912963867
1.7294956409225856e+18,-0.015266988426446915,0.04452319070696831,-9.694610595703125
1.7294956409315858e+18,-0.05753500759601593,-0.004005132708698511,-9.78418254852295
1.729495640940586e+18,0.02391713671386242,-0.03451414778828621,-9.816929817199707
1.7294956409495862e+18,-0.02613547258079052,-0.013982519507408142,-9.670605659484863
1.7294956409555863e+18,0.025598453357815742,0.024600356817245483,-9.788740158081055
1.7294956409645865e+18,-0.01357137318700552,0.06581807881593704,-9.78591251373291
1.7294956409735867e+18,0.0069271293468773365,0.04344283416867256,-9.75206470489502
1.729495640982587e+18,0.027574656531214714,0.06184106320142746,-9.723822593688965
1.729495640991587e+18,-0.08793216198682785,0.07201728224754333,-9.67516803741455
1.7294956410005873e+18,-0.013797306455671787,0.057207200676202774,-9.681868553161621
1.7294956410065874e+18,0.010191818699240685,0.012318980880081654,-9.692547798156738
1.7294956410155876e+18,-0.047822289168834686,0.0028410782106220722,-9.703694343566895
1.7294956410245878e+18,-0.06253038346767426,-0.024746956303715706,-9.690322875976562
1.729495641033588e+18,0.02255721390247345,0.0682724192738533,-9.786704063415527
1.7294956410425882e+18,0.039114128798246384,-0.07312466949224472,-9.663846015930176
1.7294956410485883e+18,0.0038930268492549658,0.005576123483479023,-9.69418716430664
1.7294956410575885e+18,-0.061420656740665436,-0.02541629783809185,-9.644440650939941
1.7294956410665887e+18,0.013050598092377186,-0.0741545781493187,-9.829154014587402
1.7294956410755889e+18,0.014867824502289295,0.006727880332618952,-9.72927188873291
1.729495641081589e+18,-0.025856919586658478,0.024221057072281837,-9.718217849731445
1.7294956410905892e+18,-0.07345954328775406,0.03824269771575928,-9.759831428527832
1.7294956410995894e+18,0.029965626075863838,0.054054103791713715,-9.657031059265137
1.7294956411085896e+18,-0.03451851010322571,0.0028008995577692986,-9.748260498046875
1.7294956411145897e+18,-0.02774210460484028,0.04978204518556595,-9.821389198303223
1.72949564112359e+18,0.014871196821331978,-0.01186299603432417,-9.734115600585938
1.72949564113259e+18,0.0038228589110076427,-0.05180598050355911,-9.747278213500977
1.7294956411415903e+18,-0.02852131985127926,0.019706061109900475,-9.781997680664062
1.7294956411505905e+18,0.05882274731993675,0.030711162835359573,-9.740846633911133
1.7294956411595907e+18,0.02159610576927662,0.0005089733749628067,-9.762554168701172
1.7294956411685908e+18,-0.03871592506766319,0.0838017463684082,-9.705463409423828
1.729495641177591e+18,0.05142645165324211,0.044749341905117035,-9.692456245422363
1.7294956411865912e+18,-0.037151943892240524,-0.0052295830100774765,-9.693731307983398
1.7294956411955914e+18,0.07587996870279312,0.04795260354876518,-9.763273239135742
1.7294956412015916e+18,0.012995714321732521,0.024898478761315346,-9.719205856323242
1.7294956412105917e+18,-0.023410413414239883,0.07905618846416473,-9.717320442199707
1.729495641219592e+18,-0.06303048878908157,0.005978650413453579,-9.735093116760254
1.729495641228592e+18,-0.013495266437530518,-0.013805830851197243,-9.72307014465332
1.7294956412375923e+18,-0.02707979641854763,-0.004688356537371874,-9.782679557800293
1.7294956412465925e+18,0.014995941892266273,-0.06251130253076553,-9.742987632751465
1.7294956412525926e+18,0.022832171991467476,0.04434413090348244,-9.783027648925781
1.7294956412615928e+18,-0.03348584100604057,-0.03764254227280617,-9.717284202575684
1.729495641273593e+18,-0.011714396066963673,0.0037546029780060053,-9.686347961425781
1.7294956412825933e+18,-0.018186356872320175,-0.09094475209712982,-9.796563148498535
1.7294956412885934e+18,-0.037668947130441666,0.06422725319862366,-9.776548385620117
1.7294956413005937e+18,0.03243760019540787,-0.10025567561388016,-9.789936065673828
1.7294956413065938e+18,0.009620439261198044,0.04391884431242943,-9.746647834777832
1.729495641315594e+18,-0.010832092724740505,0.00025003356859087944,-9.701177597045898
1.7294956413275942e+18,-0.02847057394683361,0.01799992099404335,-9.785122871398926
1.7294956413365944e+18,-0.01993890479207039,0.02511431649327278,-9.707717895507812
1.7294956413455946e+18,0.05502733960747719,-0.019480234012007713,-9.744253158569336
1.7294956413545948e+18,-0.03539033234119415,-0.03569323569536209,-9.6880521774292
1.729495641366595e+18,-0.024046074599027634,-0.0010762547608464956,-9.746912002563477
1.7294956413785953e+18,0.036399830132722855,0.03748191520571709,-9.773756980895996
1.7294956413875955e+18,-0.019640326499938965,-0.025972729548811913,-9.6943359375
1.7294956413965957e+18,-0.014999950304627419,0.04289272055029869,-9.76747989654541
1.729495641408596e+18,0.06993543356657028,0.01759307086467743,-9.733757019042969
1.7294956414175962e+18,-0.023417863994836807,0.006874794140458107,-9.702644348144531
1.7294956414295964e+18,0.060080431401729584,0.06582695990800858,-9.781660079956055
1.7294956414385966e+18,-0.0521441288292408,-0.08948034793138504,-9.77228832244873
1.7294956414475968e+18,0.012712578289210796,0.044117316603660583,-9.700841903686523
1.729495641456597e+18,-0.014851481653749943,-0.057476237416267395,-9.773215293884277
1.7294956414655972e+18,0.07308918982744217,-0.024406932294368744,-9.754080772399902
1.7294956414775974e+18,0.022635510191321373,0.03493434190750122,-9.752927780151367
1.7294956414865976e+18,-0.007336166221648455,0.00015687542327214032,-9.67631721496582
1.729495641498598e+18,-0.05637713521718979,0.09352868050336838,-9.742121696472168
1.729495641507598e+18,0.029997682198882103,0.02964147739112377,-9.774295806884766
1.7294956415165983e+18,-0.005513412412256002,0.009070347994565964,-9.797080039978027
1.7294956415255985e+18,0.04608501121401787,0.022492699325084686,-9.68199634552002
1.7294956415345987e+18,-0.08425544947385788,-0.04725427180528641,-9.827221870422363
1.7294956415435988e+18,-0.012464514002203941,0.0198635533452034,-9.781737327575684
1.729495641552599e+18,0.007797432132065296,0.024233408272266388,-9.769325256347656
1.7294956415615992e+18,0.01146487146615982,-0.04029906913638115,-9.698899269104004
1.7294956415705994e+18,-0.0018789339810609818,-0.04235745593905449,-9.787654876708984
1.7294956415765996e+18,-0.01007901318371296,-0.03336457908153534,-9.783933639526367
1.7294956415885998e+18,-0.028508104383945465,0.014029402285814285,-9.765645980834961
1.7294956415976e+18,0.024070175364613533,0.06203858181834221,-9.729389190673828
1.7294956416066002e+18,0.002245559822767973,0.03663603961467743,-9.694852828979492
1.7294956416156004e+18,-0.10682893544435501,5.636302739731036e-05,-9.781245231628418
1.7294956416246006e+18,0.02727503888309002,-0.02784188836812973,-9.723475456237793
1.7294956416336008e+18,0.023016368970274925,0.016354644671082497,-9.737699508666992
1.729495641642601e+18,0.04671063274145126,0.004747502505779266,-9.79822826385498
1.7294956416516012e+18,0.05654625967144966,0.004046705085784197,-9.75406265258789
1.7294956416606013e+18,0.013236528262495995,0.008944982662796974,-9.668249130249023
1.7294956416726016e+18,0.09667252004146576,-0.0192545298486948,-9.780722618103027
1.7294956416816018e+18,0.03986760601401329,0.0015890917275100946,-9.765387535095215
1.729495641690602e+18,0.07773064821958542,0.027408987283706665,-9.8216552734375
1.7294956416996022e+18,0.028663909062743187,-0.06451908499002457,-9.735663414001465
1.7294956417086024e+18,0.037674885243177414,0.044541601091623306,-9.737651824951172
1.7294956417206026e+18,-0.07085718214511871,0.010407104156911373,-9.723247528076172
1.7294956417296028e+18,0.033631280064582825,0.019511859863996506,-9.72731876373291
1.729495641741603e+18,0.05011581629514694,0.05795701965689659,-9.768207550048828
1.7294956417506033e+18,0.004868500865995884,-0.0020696548745036125,-9.797393798828125
1.7294956417596035e+18,0.013884831219911575,0.03949885815382004,-9.688610076904297
1.7294956417686036e+18,-0.011541907675564289,-0.038463618606328964,-9.765366554260254
1.729495641780604e+18,-0.02698039636015892,-0.013859109953045845,-9.836450576782227
1.729495641789604e+18,0.0450383797287941,-0.029375623911619186,-9.788113594055176
1.7294956417986043e+18,-0.0492890328168869,0.01730693317949772,-9.771299362182617
1.7294956418076045e+18,-0.01868496462702751,-0.047179970890283585,-9.770747184753418
1.7294956418166047e+18,0.12408269196748734,0.007498553954064846,-9.692361831665039
1.729495641828605e+18,0.004806796554476023,-0.059529390186071396,-9.76366138458252
1.729495641837605e+18,0.03215978667140007,-0.0025592201855033636,-9.69381046295166
1.7294956418496054e+18,-0.008109084330499172,0.10484949499368668,-9.661859512329102
1.7294956418586056e+18,-0.036036401987075806,0.012561379931867123,-9.770659446716309
1.7294956418676058e+18,-0.017562901601195335,-0.0447988361120224,-9.77428150177002
1.729495641876606e+18,-0.007016646675765514,0.037833359092473984,-9.787371635437012
1.7294956418856061e+18,-0.005842633079737425,-0.021354293450713158,-9.83320140838623
1.7294956418946063e+18,0.037522170692682266,0.02934376336634159,-9.745075225830078
1.7294956419066066e+18,-0.08562228083610535,0.009569182991981506,-9.82441520690918
1.7294956419156068e+18,0.03498141095042229,0.042759958654642105,-9.731898307800293
1.729495641927607e+18,0.0031277870293706656,-0.046568915247917175,-9.760368347167969
1.7294956419366072e+18,-0.056195225566625595,-0.01999308541417122,-9.761568069458008
1.7294956419456074e+18,-0.10477694123983383,-0.024272246286273003,-9.740216255187988
1.7294956419546076e+18,0.00721567589789629,0.05446067452430725,-9.737034797668457
1.7294956419636078e+18,0.013133754022419453,-0.02158726006746292,-9.740345001220703
1.729495641975608e+18,0.04601862281560898,0.016194941475987434,-9.739596366882324
1.7294956419846083e+18,0.051700979471206665,0.019987495616078377,-9.76786994934082
1.7294956419936084e+18,-0.0734323039650917,0.03788808733224869,-9.75485897064209
1.7294956420056087e+18,0.08017414808273315,-0.018826570361852646,-9.78657054901123
1.729495642014609e+18,-0.0018385432194918394,0.016305431723594666,-9.789509773254395
1.729495642023609e+18,-0.01966770738363266,-0.046827513724565506,-9.750821113586426
1.7294956420356093e+18,-0.06417793035507202,-0.05832718312740326,-9.774393081665039
1.7294956420446095e+18,0.01833173632621765,0.0504591129720211,-9.814801216125488
1.7294956420536097e+18,-0.04097345843911171,-0.05773903802037239,-9.83495807647705
1.72949564206561e+18,-0.042212650179862976,0.05256566405296326,-9.785615921020508
1.7294956420746102e+18,0.057618580758571625,0.049911800771951675,-9.717011451721191
1.7294956420866104e+18,-0.05365707352757454,-0.02196628227829933,-9.77552604675293
1.7294956420956106e+18,-0.04417764022946358,-0.059394992887973785,-9.733444213867188
1.7294956421046108e+18,-0.041408829391002655,-0.022679908201098442,-9.835704803466797
1.729495642113611e+18,0.011946938931941986,-0.046771448105573654,-9.79825496673584
1.7294956421226112e+18,-0.04078701138496399,0.07865201681852341,-9.761282920837402
1.7294956421316114e+18,-0.009565078653395176,-0.00016625167336314917,-9.806129455566406
1.7294956421406116e+18,0.048372797667980194,-0.06277104467153549,-9.765386581420898
1.7294956421466117e+18,0.04235878586769104,0.015514214523136616,-9.74750804901123
1.729495642155612e+18,-0.028682315722107887,0.06229953467845917,-9.731642723083496
1.729495642164612e+18,-0.0066487290896475315,-0.016530608758330345,-9.804732322692871
1.7294956421736123e+18,-0.03533107414841652,0.012725435197353363,-9.769354820251465
1.7294956421826125e+18,0.006711114197969437,0.038647230714559555,-9.755239486694336
1.7294956421916127e+18,0.0012577507877722383,-0.051845088601112366,-9.751760482788086
1.7294956422006129e+18,0.026839246973395348,-0.03652818128466606,-9.768906593322754
1.729495642209613e+18,0.043008022010326385,-0.04778110235929489,-9.768983840942383
1.7294956422186132e+18,-0.03317977488040924,0.01441205758601427,-9.754055976867676
1.7294956422246134e+18,0.04253784567117691,0.0059140874072909355,-9.80340576171875
1.7294956422336136e+18,-0.039033450186252594,0.022769834846258163,-9.75289249420166
1.7294956422426138e+18,-0.08288092166185379,0.060286492109298706,-9.733670234680176
1.729495642248614e+18,-0.006997996475547552,-0.11211034655570984,-9.838813781738281
1.729495642257614e+18,-0.06758689880371094,0.0323173850774765,-9.788786888122559
1.7294956422666143e+18,-0.014205283485352993,0.022290721535682678,-9.76635456085205
1.7294956422756145e+18,0.03196002170443535,0.016118628904223442,-9.765026092529297
1.7294956422816146e+18,0.0030778830405324697,-0.08543379604816437,-9.840609550476074
1.7294956422906148e+18,0.07757556438446045,0.02873627096414566,-9.762372016906738
1.729495642299615e+18,0.031045058742165565,-0.0007770732627250254,-9.708972930908203
1.7294956423086152e+18,-0.016749011352658272,-0.03601306676864624,-9.741127014160156
1.7294956423146153e+18,0.04601022228598595,0.04836174473166466,-9.776774406433105
1.7294956423236155e+18,-0.010990326292812824,0.029889922589063644,-9.881484031677246
1.7294956423326157e+18,0.04214140772819519,0.08833380788564682,-9.675310134887695
1.7294956423416159e+18,-0.021253053098917007,-0.049956828355789185,-9.758233070373535
1.729495642350616e+18,0.09954911470413208,0.022250641137361526,-9.79274845123291
1.7294956423596163e+18,-0.029922878369688988,0.09285182505846024,-9.791768074035645
1.7294956423656164e+18,0.021069098263978958,-0.04106327146291733,-9.831379890441895
1.7294956423746166e+18,-0.04562516137957573,-0.007502953056246042,-9.808979988098145
1.7294956423836168e+18,-0.011007118038833141,0.004501598421484232,-9.751458168029785
1.729495642392617e+18,-0.017436014488339424,0.009219955652952194,-9.83111572265625
1.7294956424016172e+18,0.015255570411682129,0.014632810838520527,-9.850875854492188
1.7294956424106173e+18,-0.0017646639607846737,0.03312653303146362,-9.753806114196777
1.7294956424196175e+18,0.07259158790111542,-0.05555211007595062,-9.800924301147461
1.7294956424286177e+18,7.56833323976025e-05,0.022807372733950615,-9.789517402648926
1.7294956424346179e+18,0.004465091973543167,0.01950940676033497,-9.786787986755371
1.729495642443618e+18,-0.011627974919974804,0.0696801170706749,-9.771323204040527
1.7294956424526182e+18,-0.0049866316840052605,0.03803500905632973,-9.814574241638184
1.7294956424616184e+18,0.07178352028131485,-0.03943357244133949,-9.816817283630371
1.7294956424676186e+18,0.028801025822758675,-0.003734809812158346,-9.777294158935547
1.7294956424766188e+18,-0.01747335121035576,-0.01265653781592846,-9.860896110534668
1.729495642485619e+18,0.01806902326643467,-0.06400976330041885,-9.799657821655273
1.729495642491619e+18,0.13121895492076874,-0.03963950276374817,-9.681589126586914
1.7294956425006193e+18,-0.03173350170254707,-0.026234198361635208,-9.759148597717285
1.7294956425096195e+18,0.053569965064525604,0.08004410564899445,-9.78128719329834
1.7294956425186196e+18,-0.03201039507985115,-0.02039855718612671,-9.893665313720703
1.7294956425276198e+18,-0.019817862659692764,-0.002692888490855694,-9.799296379089355
1.72949564253362e+18,0.031929679214954376,-0.048008520156145096,-9.74593734741211
1.7294956425426202e+18,-0.03645367920398712,-0.008662640117108822,-9.7744140625
1.7294956425516204e+18,-0.02676190435886383,-0.03468769043684006,-9.701228141784668
1.7294956425606205e+18,-0.0058301957324147224,0.023881586268544197,-9.794190406799316
1.7294956425696207e+18,-0.05571718141436577,-0.01399426069110632,-9.800511360168457
1.7294956425756209e+18,-0.041733503341674805,-0.059558406472206116,-9.7826509475708
1.729495642584621e+18,0.0675220638513565,-0.04590411111712456,-9.795295715332031
1.7294956425936212e+18,0.03903345763683319,0.0024862331338226795,-9.802638053894043
1.7294956426026214e+18,-0.06561990827322006,0.01942630670964718,-9.730459213256836
1.7294956426116216e+18,0.04790974035859108,0.035105012357234955,-9.756221771240234
1.7294956426176218e+18,0.04711861535906792,-0.015447055920958519,-9.740996360778809
1.729495642626622e+18,0.009690097533166409,0.014191768132150173,-9.828290939331055
1.7294956426356221e+18,0.010041246190667152,-0.014256172813475132,-9.868268966674805
1.7294956426446223e+18,-0.01867946982383728,-0.014846584759652615,-9.809861183166504
1.7294956426506225e+18,0.004049802199006081,-0.027780471369624138,-9.780082702636719
1.7294956426596227e+18,-0.029107028618454933,0.037348102778196335,-9.774821281433105
1.7294956426656228e+18,0.02950284630060196,0.08324076980352402,-9.804047584533691
1.729495642674623e+18,0.006604427006095648,-0.06295875459909439,-9.823437690734863
1.7294956426836232e+18,0.012036841362714767,0.03904321417212486,-9.767464637756348
1.7294956426926234e+18,-0.011902432888746262,0.003978148102760315,-9.700304985046387
1.7294956427016236e+18,0.01563921570777893,-0.026551268994808197,-9.735578536987305
1.7294956427106237e+18,0.02080301009118557,-0.09371010214090347,-9.894227981567383
1.729495642719624e+18,0.028257958590984344,-0.0861557126045227,-9.792074203491211
1.729495642728624e+18,-0.023126203566789627,0.036432165652513504,-9.8012056350708
1.7294956427346243e+18,-0.074519082903862,0.02451334148645401,-9.861215591430664
1.7294956427436244e+18,-0.03949330374598503,0.11420173943042755,-9.833236694335938
1.7294956427526246e+18,0.07036852836608887,-0.008358162827789783,-9.755142211914062
1.7294956427616248e+18,-0.04110945016145706,-0.06466228514909744,-9.83486270904541
1.729495642770625e+18,-0.05681251734495163,0.01998240128159523,-9.864798545837402
1.7294956427796252e+18,-0.0438317246735096,0.038374386727809906,-9.806074142456055
1.7294956427856253e+18,-0.10843933373689651,-0.011687468737363815,-9.741459846496582
1.7294956427946255e+18,-0.008020048961043358,-0.024871977046132088,-9.817848205566406
1.7294956428036257e+18,0.045725300908088684,-0.05486404895782471,-9.729108810424805
1.729495642812626e+18,0.05120522156357765,-0.04434753581881523,-9.850889205932617
1.729495642821626e+18,0.061931610107421875,0.006783782504498959,-9.791973114013672
1.7294956428276262e+18,0.013869314454495907,-0.01616733893752098,-9.784599304199219
1.7294956428366264e+18,-0.10135200619697571,0.012204946018755436,-9.75106430053711
1.7294956428456266e+18,0.0001619715039851144,-0.004932108800858259,-9.825204849243164
1.7294956428516268e+18,-0.0020573155488818884,0.026110289618372917,-9.675300598144531
1.729495642860627e+18,0.04207676276564598,-0.08727681636810303,-9.781987190246582
1.7294956428696271e+18,0.021360445767641068,0.006562589667737484,-9.79836368560791
1.7294956428786273e+18,0.07060708850622177,0.01709195226430893,-9.841341018676758
1.7294956428876275e+18,0.03337669372558594,0.043012458831071854,-9.895448684692383
1.7294956428936276e+18,0.062093622982501984,-0.040375202894210815,-9.824496269226074
1.7294956429026278e+18,-0.0424802266061306,-0.015537410043179989,-9.72108268737793
1.729495642911628e+18,-0.05111793428659439,-0.07428597658872604,-9.776351928710938
1.7294956429206282e+18,-0.018981393426656723,-0.09529409557580948,-9.848097801208496
1.7294956429266284e+18,-0.014890174381434917,-0.031483154743909836,-9.779830932617188
1.7294956429356285e+18,-0.05929413437843323,0.015777137130498886,-9.797892570495605
1.7294956429416287e+18,0.01700376532971859,-0.06747259944677353,-9.7476167678833
1.7294956429506289e+18,0.00620681419968605,0.04840586706995964,-9.854527473449707
1.729495642959629e+18,0.029536759480834007,-0.030295338481664658,-9.782203674316406
1.7294956429686292e+18,-0.027899207547307014,0.0016727619804441929,-9.836770057678223
1.7294956429776294e+18,0.0023704341147094965,0.08281863480806351,-9.786877632141113
1.7294956429836296e+18,-0.061937034130096436,-0.05604320764541626,-9.844489097595215
1.7294956429926298e+18,0.032034389674663544,0.022181345149874687,-9.801776885986328
1.72949564300163e+18,0.010156163945794106,-0.01693151518702507,-9.79038143157959
1.7294956430106301e+18,0.08185636252164841,-0.005872858222573996,-9.7639741897583
1.7294956430196303e+18,0.001748904469422996,0.025398846715688705,-9.788914680480957
1.7294956430256305e+18,0.03441914543509483,0.002356424694880843,-9.809475898742676
1.7294956430346307e+18,0.011631174013018608,-0.00032647670013830066,-9.840448379516602
1.7294956430436308e+18,0.0024618918541818857,0.0037674037739634514,-9.834104537963867
1.729495643052631e+18,-0.09476806223392487,0.05202515050768852,-9.777422904968262
1.7294956430616312e+18,0.023721866309642792,-0.05856391414999962,-9.8384428024292
1.7294956430676314e+18,-0.03386104106903076,-0.012646722607314587,-9.78437328338623
1.7294956430766316e+18,0.014478587545454502,-0.06784430891275406,-9.778671264648438
1.7294956430856317e+18,0.0015772407641634345,-0.0005703902570530772,-9.851740837097168
1.7294956430916319e+18,-0.002828927943482995,0.004931597504764795,-9.740924835205078
1.729495643100632e+18,0.026091668754816055,0.0001766940695233643,-9.811482429504395
1.7294956431096323e+18,0.00960621703416109,0.0011280819308012724,-9.760331153869629
1.7294956431186324e+18,-0.029492370784282684,-0.010479699820280075,-9.758463859558105
1.7294956431276326e+18,-0.005921753589063883,-0.03744516521692276,-9.836825370788574
1.7294956431336328e+18,0.01591159775853157,-0.027821291238069534,-9.736316680908203
1.729495643142633e+18,-0.038039691746234894,0.008451016619801521,-9.815023422241211
1.7294956431516332e+18,-0.020061712712049484,-0.0306804571300745,-9.795331954956055
1.7294956431606333e+18,0.0045674946159124374,-0.062249358743429184,-9.77525806427002
1.7294956431696335e+18,0.013793667778372765,-0.03414597362279892,-9.761465072631836
1.7294956431756337e+18,-0.05175088346004486,-0.037749066948890686,-9.784123420715332
1.7294956431846339e+18,-0.03463027998805046,0.015486687421798706,-9.817601203918457
1.729495643193634e+18,-0.09461597353219986,0.03809621185064316,-9.841520309448242
1.7294956431996342e+18,-0.0064111254177987576,-0.03722679987549782,-9.804688453674316
1.7294956432086344e+18,0.025766929611563683,0.055247712880373,-9.892776489257812
1.7294956432176346e+18,0.04910756275057793,-0.0329567976295948,-9.761096000671387
1.7294956432236347e+18,-0.033909644931554794,0.0588642880320549,-9.786981582641602
1.729495643235635e+18,0.014953093603253365,-0.014332382008433342,-9.836034774780273
1.729495643241635e+18,0.03153971955180168,0.10030025988817215,-9.783872604370117
1.7294956432506353e+18,0.013433794490993023,-0.03359946608543396,-9.776459693908691
1.7294956432596355e+18,0.0333067923784256,-0.023476921021938324,-9.862088203430176
1.7294956432686356e+18,-0.09267900139093399,-0.022043531760573387,-9.814230918884277
1.7294956432746358e+18,-0.020231634378433228,0.008650987409055233,-9.778664588928223
1.729495643283636e+18,-0.015364335849881172,0.046936649829149246,-9.8084716796875
1.7294956432926362e+18,0.000396989518776536,-0.007975916378200054,-9.819772720336914
1.7294956433016364e+18,0.055116575211286545,-0.03928379341959953,-9.809584617614746
1.7294956433076365e+18,-0.021573802456259727,0.02985791303217411,-9.797063827514648
1.7294956433166367e+18,-0.01688944734632969,-0.00844248291105032,-9.85644245147705
1.7294956433256369e+18,-0.041588351130485535,-0.01831870526075363,-9.837281227111816
1.729495643334637e+18,-0.04903388395905495,-0.044121477752923965,-9.780972480773926
1.7294956433436372e+18,0.03992408886551857,-0.023984909057617188,-9.767532348632812
1.7294956433496374e+18,0.0015261154621839523,-0.04049152508378029,-9.803937911987305
1.7294956433586376e+18,-0.019848668947815895,-0.03847912698984146,-9.766945838928223
1.7294956433676378e+18,0.03754495084285736,0.029339270666241646,-9.79629898071289
1.729495643376638e+18,-0.003248193534091115,-0.04751928895711899,-9.827512741088867
1.729495643382638e+18,0.03348809853196144,0.003805274609476328,-9.761388778686523
1.7294956433916383e+18,-0.012911752797663212,-0.03215209022164345,-9.820948600769043
1.7294956433976384e+18,-0.0052680023945868015,-0.029223885387182236,-9.74260139465332
1.7294956434066386e+18,0.025164199993014336,-0.02385605312883854,-9.813336372375488
1.7294956434156388e+18,0.04560711607336998,-0.029342396184802055,-9.727858543395996
1.729495643424639e+18,-0.005985462572425604,0.05238322913646698,-9.803299903869629
1.7294956434336392e+18,0.04101733863353729,-0.060169558972120285,-9.797927856445312
1.7294956434396393e+18,-8.147748303599656e-06,0.05223079025745392,-9.716080665588379
1.7294956434486395e+18,-0.012312063947319984,-0.007973391562700272,-9.749330520629883
1.7294956434606397e+18,0.010104354470968246,-0.023307420313358307,-9.84048843383789
1.72949564346664e+18,0.0032634232193231583,-0.017094330862164497,-9.836745262145996
1.72949564347564e+18,-0.04665496572852135,-0.04896115884184837,-9.873308181762695
1.7294956434816402e+18,-0.047890372574329376,0.06403638422489166,-9.78181266784668
1.7294956434906404e+18,-0.022698065266013145,0.09702721983194351,-9.762722969055176
1.7294956434996406e+18,0.005053878761827946,0.07356678694486618,-9.77221393585205
1.7294956435056407e+18,-0.030457060784101486,0.06235576793551445,-9.820147514343262
1.729495643517641e+18,-0.03145414590835571,-0.019419247284531593,-9.843587875366211
1.729495643523641e+18,-0.02070501074194908,-0.023963971063494682,-9.86011028289795
1.7294956435326413e+18,0.055601317435503006,-0.006213247310370207,-9.784463882446289
1.7294956435416415e+18,-0.01850658841431141,0.040584973990917206,-9.823311805725098
1.7294956435506417e+18,0.0272388719022274,-0.006955611985176802,-9.749321937561035
1.7294956435566418e+18,0.01128342654556036,-0.0078544020652771,-9.804025650024414
1.729495643565642e+18,-0.05103324353694916,0.004985632840543985,-9.82999038696289
1.7294956435746422e+18,-0.004435568116605282,-0.022289110347628593,-9.779597282409668
1.7294956435836424e+18,0.07896920293569565,-0.04592118784785271,-9.834967613220215
1.7294956435926426e+18,0.039277926087379456,-0.01881919801235199,-9.819631576538086
1.7294956435986427e+18,-0.08515871316194534,-0.03660612180829048,-9.785666465759277
1.729495643607643e+18,0.041587334126234055,-0.05255445837974548,-9.844383239746094
1.729495643616643e+18,-0.0396273247897625,0.08119945228099823,-9.806417465209961
1.7294956436256433e+18,0.03501459211111069,0.07146745920181274,-9.849279403686523
1.7294956436346435e+18,0.022044522687792778,-0.08351682871580124,-9.776993751525879
1.7294956436436436e+18,0.03832177072763443,0.01824917457997799,-9.844925880432129
1.7294956436526438e+18,0.06394919753074646,-0.0016015947330743074,-9.812860488891602
1.729495643661644e+18,0.01666032336652279,0.025715049356222153,-9.841287612915039
1.7294956436676442e+18,-0.00978583563119173,-0.04037024453282356,-9.80953311920166
1.7294956436796444e+18,0.006597374100238085,0.005917214322835207,-9.797045707702637
1.7294956436886446e+18,-0.07092148810625076,0.04485373944044113,-9.754983901977539
1.7294956436976448e+18,-0.00897655263543129,0.04233884811401367,-9.838847160339355
1.729495643706645e+18,-0.017505668103694916,-0.025794582441449165,-8.090542793273926
1.7294956437156452e+18,0.02327032946050167,0.011887416243553162,-7.930945873260498
1.7294956437246454e+18,-0.1402202695608139,0.08082178980112076,-7.9766340255737305
1.7294956437306455e+18,-0.042970478534698486,0.0293233972042799,-9.088830947875977
1.7294956437396457e+18,0.03258369117975235,-0.0240388885140419,-10.218612670898438
1.729495643748646e+18,-0.12859481573104858,0.05422518402338028,-10.469039916992188
1.729495643757646e+18,-0.04298907890915871,0.04148779809474945,-10.589408874511719
1.7294956437636462e+18,-0.11018511652946472,0.07049678266048431,-10.278268814086914
1.7294956437726464e+18,-0.014820151031017303,0.050593696534633636,-10.156466484069824
1.7294956437816466e+18,-0.061677269637584686,0.06084069609642029,-9.803362846374512
1.7294956437936468e+18,-0.020677737891674042,0.07136069238185883,-9.602117538452148
1.729495643799647e+18,-0.1354345679283142,0.0036676600575447083,-9.56379222869873
1.7294956438086472e+18,-0.07788208872079849,0.04502244293689728,-9.440779685974121
1.7294956438176474e+18,-0.10337386280298233,0.050077132880687714,-9.557831764221191
1.7294956438266476e+18,-0.11955827474594116,0.08841603994369507,-9.203044891357422
1.7294956438356477e+18,-0.0737968236207962,0.09496092796325684,-9.133203506469727
1.729495643844648e+18,-0.06654752790927887,0.0218138936907053,-9.121031761169434
1.7294956438536481e+18,-0.017615381628274918,0.06917254626750946,-8.753894805908203
1.7294956438596483e+18,-0.09075446426868439,0.06517734378576279,-8.717814445495605
1.7294956438686484e+18,-0.10828496515750885,0.05929109454154968,-8.698539733886719
1.7294956438776486e+18,-0.03260010480880737,-0.014351315796375275,-8.690394401550293
1.7294956438866488e+18,-0.09439471364021301,0.0056236982345581055,-8.528346061706543
1.729495643892649e+18,-0.037768226116895676,-0.0720864087343216,-8.487635612487793
1.7294956439016492e+18,0.027729954570531845,-0.02058519423007965,-8.38752555847168
1.7294956439136494e+18,0.019887253642082214,-0.03046777844429016,-8.517376899719238
1.7294956439196495e+18,-0.018255410715937614,0.011059772223234177,-8.571257591247559
1.7294956439286497e+18,0.016704261302947998,0.04596444219350815,-8.472418785095215
1.72949564394065e+18,-0.11101071536540985,0.01984487846493721,-8.223570823669434
1.7294956439496502e+18,0.0211261548101902,0.08474908024072647,-8.054075241088867
1.7294956439586504e+18,0.036119330674409866,0.059785354882478714,-8.000458717346191
1.7294956439676506e+18,0.05285542830824852,0.009602596051990986,-7.9369378089904785
1.7294956439736507e+18,-0.012426340952515602,-0.04979446530342102,-8.017601013183594
1.729495643985651e+18,0.030941475182771683,0.014973505400121212,-8.168951034545898
1.729495643991651e+18,-0.047248028218746185,-0.03644956648349762,-8.131179809570312
1.7294956440006513e+18,-0.05256611853837967,-0.0003165329690091312,-7.972336769104004
1.7294956440096515e+18,-0.007011516951024532,0.039027366787195206,-8.002493858337402
1.7294956440186516e+18,-0.022920720279216766,-0.030593596398830414,-7.8981852531433105
1.7294956440276518e+18,-0.005044728517532349,-0.01130061224102974,-7.894752502441406
1.729495644033652e+18,-0.09866359084844589,-0.027912935242056847,-7.964644908905029
1.7294956440426522e+18,-0.012953704223036766,-0.01802622154355049,-8.002979278564453
1.7294956440516524e+18,0.10617581009864807,-0.0408964678645134,-8.074074745178223
1.7294956440606525e+18,-0.012466058135032654,-0.02872888557612896,-7.977773666381836
1.7294956440666527e+18,0.005929963663220406,0.008663210086524487,-8.077299118041992
1.7294956440756529e+18,0.005820912308990955,-0.02197176031768322,-7.913510322570801
1.729495644087653e+18,0.010697588324546814,-0.0019220050889998674,-7.94105863571167
1.7294956440936532e+18,-0.006228014826774597,-0.034809425473213196,-7.980189800262451
1.7294956441056535e+18,0.008942827582359314,0.02995140478014946,-8.04400634765625
1.7294956441116536e+18,0.02099677547812462,0.051737457513809204,-8.084933280944824
1.7294956441206538e+18,0.08310672640800476,0.0636240690946579,-7.997329235076904
1.729495644129654e+18,0.03148899972438812,-0.0678982362151146,-7.98541259765625
1.7294956441386542e+18,-0.0072016119956970215,-0.04905935376882553,-8.014079093933105
1.7294956441476544e+18,0.08251719176769257,0.0019888440147042274,-8.173164367675781
1.7294956441566546e+18,0.026998290792107582,0.07720084488391876,-8.160284996032715
1.7294956441656548e+18,0.028644246980547905,-0.01384867075830698,-8.098109245300293
1.729495644171655e+18,0.033233001828193665,-0.028368834406137466,-8.163445472717285
1.729495644180655e+18,-0.009280974045395851,-0.005725710652768612,-8.148663520812988
1.7294956441896553e+18,-0.05507977306842804,-0.0646505132317543,-8.01685619354248
1.7294956441986555e+18,0.05249810218811035,0.02040451020002365,-8.170053482055664
1.7294956442076557e+18,0.03589952737092972,-0.017283860594034195,-8.257837295532227
1.729495644216656e+18,0.013098329305648804,-0.004773912951350212,-8.260391235351562
1.729495644225656e+18,-0.023722197860479355,0.044833797961473465,-8.279007911682129
1.7294956442346563e+18,-0.017483916133642197,0.018583379685878754,-8.26230239868164
1.7294956442436564e+18,0.05860534682869911,-0.06287246942520142,-8.2446928024292
1.7294956442526566e+18,-0.023072563111782074,-0.03814883530139923,-8.194875717163086
1.7294956442616568e+18,-0.04146182909607887,-0.006031292024999857,-8.315689086914062
1.729495644270657e+18,-0.025238558650016785,0.021408790722489357,-8.337324142456055
1.7294956442796572e+18,0.08692616969347,0.01247551292181015,-8.490270614624023
1.7294956442886574e+18,0.03268858417868614,0.028079058974981308,-8.375109672546387
1.7294956442976576e+18,-0.011759920977056026,-0.00901460088789463,-8.407659530639648
1.7294956443066578e+18,-0.0255795419216156,0.027914173901081085,-8.413323402404785
1.729495644315658e+18,-0.018490862101316452,0.0208131056278944,-8.536044120788574
1.729495644321658e+18,-0.042288873344659805,-0.0024054336827248335,-8.388875961303711
1.7294956443306583e+18,0.007342227268964052,-0.02072833850979805,-8.571900367736816
1.7294956443396585e+18,-0.049870047718286514,0.02873128652572632,-8.474535942077637
1.7294956443486587e+18,-0.010471273213624954,-0.04162909463047981,-8.631757736206055
1.729495644357659e+18,0.013497617095708847,-0.09618303924798965,-8.62617015838623
1.729495644366659e+18,0.03809453547000885,0.06244993954896927,-8.632655143737793
1.7294956443756593e+18,0.08184868097305298,-0.013298721052706242,-8.634989738464355
1.7294956443846595e+18,-0.03867024928331375,0.049032554030418396,-8.623729705810547
1.7294956443936596e+18,-0.005266633816063404,-0.06643804162740707,-8.75674819946289
1.7294956444026598e+18,0.021164309233427048,-0.019403886049985886,-8.685077667236328
1.72949564441166e+18,0.014503903687000275,-0.008732469752430916,-8.657017707824707
1.7294956444206602e+18,-0.043822694569826126,-0.03904004395008087,-8.636612892150879
1.7294956444266604e+18,0.004243453033268452,0.034027084708213806,-8.637824058532715
1.7294956444356605e+18,0.03943905979394913,0.07124064862728119,-8.766666412353516
1.7294956444446607e+18,0.014308640733361244,0.0014031140599399805,-8.812994003295898
1.729495644453661e+18,0.005747271701693535,0.0021123008336871862,-8.804512977600098
1.729495644462661e+18,-0.07654513418674469,-0.014430835843086243,-8.803547859191895
1.7294956444716613e+18,0.08842900395393372,-0.015429658815264702,-8.82239055633545
1.7294956444806615e+18,-0.04369029402732849,0.04656374454498291,-8.776013374328613
1.7294956444896617e+18,0.04095872491598129,-0.03303530067205429,-8.874164581298828
1.729495644501662e+18,0.010666979476809502,0.021832723170518875,-8.919659614562988
1.729495644507662e+18,-0.017580430954694748,-0.07061518728733063,-8.915775299072266
1.7294956445166623e+18,-0.05454149842262268,-0.06470927596092224,-8.947795867919922
1.7294956445256625e+18,-0.043662793934345245,0.026919357478618622,-8.943004608154297
1.7294956445346627e+18,-0.006282355636358261,-0.011558158323168755,-8.970343589782715
1.7294956445436628e+18,-0.015252781100571156,-0.013291867449879646,-8.966348648071289
1.729495644552663e+18,-0.013062278740108013,-0.02168608084321022,-8.963959693908691
1.7294956445616632e+18,-0.051565151661634445,0.08928332477807999,-9.022168159484863
1.7294956445706634e+18,-0.07785862684249878,-0.02214270457625389,-9.112456321716309
1.7294956445796636e+18,-0.06651347875595093,-0.006372926756739616,-9.09754753112793
1.7294956445886638e+18,-0.05601038038730621,-0.014305897057056427,-9.137312889099121
1.729495644597664e+18,0.059582918882369995,-0.014716798439621925,-9.151416778564453
1.7294956446066642e+18,-0.06865254789590836,0.0045430343598127365,-9.125626564025879
1.7294956446126643e+18,-0.03302151709794998,0.07973555475473404,-9.161666870117188
1.7294956446246646e+18,-0.05698874965310097,-0.05043856054544449,-9.259955406188965
1.7294956446306647e+18,-0.11286607384681702,0.02374398708343506,-9.293523788452148
1.729495644639665e+18,-0.08539968729019165,0.05206642672419548,-9.18998908996582
1.729495644648665e+18,-0.009838828817009926,0.02114521712064743,-9.293789863586426
1.7294956446546652e+18,-0.03914837911725044,0.08466189354658127,-9.350811004638672
1.7294956446666655e+18,-0.10107358545064926,0.015273697674274445,-9.366633415222168
1.7294956446726656e+18,0.022024795413017273,-0.011625982820987701,-9.378655433654785
1.7294956446816658e+18,-0.01320909708738327,0.020011231303215027,-9.27429485321045
1.729495644690666e+18,0.00729776918888092,0.026021502912044525,-9.363018989562988
1.7294956446996662e+18,-0.07111449539661407,0.0198003388941288,-9.32555866241455
1.7294956447056663e+18,-0.06318046897649765,0.017548630014061928,-9.434412956237793
1.7294956447176666e+18,-0.04239260405302048,-0.014996040612459183,-9.343701362609863
1.7294956447266668e+18,-0.07151474058628082,0.052331410348415375,-9.413131713867188
1.729495644738667e+18,-0.04059400409460068,-0.1410239338874817,-9.459073066711426
1.7294956447476672e+18,-0.08984699845314026,-0.03168996796011925,-9.506351470947266
1.7294956447536673e+18,-0.0949200913310051,0.04856443405151367,-9.503636360168457
1.7294956447626675e+18,-0.03921956196427345,-0.008056754246354103,-9.557696342468262
1.7294956447716677e+18,-0.010116208344697952,0.008329024538397789,-9.555747985839844
1.729495644780668e+18,-0.04709530621767044,0.023924676701426506,-9.621644973754883
1.729495644789668e+18,-0.107174351811409,0.041397713124752045,-9.498893737792969
1.7294956447986683e+18,-0.017396964132785797,0.01105098519474268,-9.581637382507324
1.7294956448046684e+18,-0.13968883454799652,-0.04314817115664482,-9.564407348632812
1.7294956448136686e+18,-0.06283269822597504,-0.05903870612382889,-9.70595645904541
1.7294956448226688e+18,-0.018839742988348007,-0.05301206186413765,-9.617644309997559
1.729495644831669e+18,-0.061587054282426834,0.09032851457595825,-9.67660140991211
1.7294956448406692e+18,-0.08839192986488342,-0.0008885553106665611,-9.714325904846191
1.7294956448466693e+18,-0.10983732342720032,0.07429556548595428,-9.702528953552246
1.7294956448586696e+18,-0.03257984295487404,0.058824438601732254,-9.749128341674805
1.7294956448646697e+18,-0.14545144140720367,-0.05395684763789177,-9.811474800109863
1.72949564487667e+18,-0.10357588529586792,0.07016555964946747,-9.868925094604492
1.7294956448856701e+18,-0.04065179079771042,0.0015137949958443642,-9.815595626831055
1.7294956448916703e+18,-0.07300582528114319,0.04848542436957359,-9.811233520507812
1.7294956449006705e+18,-0.0417974516749382,0.06957708299160004,-9.840232849121094
1.7294956449096707e+18,-0.10478948801755905,0.03492589294910431,-9.828895568847656
1.7294956449156708e+18,-0.05195260047912598,0.017298752442002296,-9.904077529907227
1.729495644924671e+18,-0.02491091936826706,-0.01320568099617958,-9.909639358520508
