timestamp,gyro_x,gyro_y,gyro_z
1.7294956326364088e+18,0.0007507895352318883,-0.002134094713255763,0.0009540882310830057
1.729495632645409e+18,0.0013545213732868433,-0.0013786706840619445,-0.0016143862158060074
1.7294956326544092e+18,0.003788909874856472,0.001076512155123055,0.001303753349930048
1.7294956326634094e+18,0.0008183650206774473,-0.0019895986188203096,-0.00028011834365315735
1.7294956326694095e+18,-0.0018598559545353055,0.0004955679178237915,0.0023549741599708796
1.7294956326784097e+18,-0.003197048557922244,-0.0015110161621123552,-0.0016271363710984588
1.72949563268741e+18,0.0013856565346941352,-0.000496859778650105,-0.0010796119458973408
1.72949563269341e+18,-0.0010181838879361749,-0.0018603309290483594,-0.004382052458822727
1.7294956327024102e+18,-0.0014873686013743281,-0.0010999892838299274,-0.0005456689978018403
1.7294956327114104e+18,-0.0009240942890755832,-0.0004053991287946701,-0.0011282466584816575
1.7294956327174106e+18,-0.002259237691760063,-0.0010703185107558966,-0.0026125041767954826
1.7294956327264108e+18,0.0014187160413712263,0.0010035679442808032,-0.002195013454183936
1.729495632735411e+18,-0.0006272381287999451,-0.00078978092642501,0.0010343031026422977
1.729495632741411e+18,-0.002667931606993079,-0.003568959655240178,0.0005561450379900634
1.7294956327504113e+18,-0.0016312686493620276,-8.84908513398841e-05,0.000536364212166518
1.7294956327594115e+18,-0.0011356084141880274,0.0028727950993925333,-0.002153558423742652
1.7294956327654116e+18,-0.002334039891138673,4.045775131089613e-05,-1.628187601454556e-05
1.7294956327744118e+18,-0.00015083847392816097,-0.000994244241155684,0.00023239605070557445
1.729495632783412e+18,-6.38773271930404e-05,-0.001087362878024578,-0.0011688938830047846
1.729495632789412e+18,-0.0005997300031594932,-0.002104907063767314,-0.0002906350127886981
1.7294956327984123e+18,-0.0007912355358712375,-0.0009556525037623942,-0.0012614562874659896
1.7294956328074125e+18,-0.001528952969238162,0.000708085426595062,-0.0009973787236958742
1.7294956328164127e+18,-0.0008776559843681753,0.0003600693598855287,0.00032435767934657633
1.7294956328254129e+18,-0.0009914175607264042,0.003531348193064332,-0.0006814570515416563
1.729495632834413e+18,6.125844083726406e-05,-0.0021757136564701796,0.002904780674725771
1.7294956328434132e+18,0.002594343153759837,0.002289088210090995,-0.0020663810428231955
1.7294956328494134e+18,0.003356289118528366,-0.0004822991613764316,-0.0015169073594734073
1.7294956328584136e+18,0.0005085903103463352,0.0015271950978785753,-0.00013229857722762972
1.7294956328674138e+18,-0.000757614616304636,-1.2686031368502881e-05,-0.0025243584532290697
1.729495632876414e+18,0.001877613365650177,-0.0019334199605509639,0.002169417915865779
1.7294956328854141e+18,0.0007723263115622103,-0.0002138093113899231,-0.000904025393538177
1.7294956328944143e+18,-0.0018954299157485366,-3.0628330023318995e-06,-0.002543284557759762
1.7294956329034145e+18,0.0002795578620862216,0.0005182126769796014,-0.001604295801371336
1.7294956329124147e+18,-0.0010039899498224258,0.0010061200009658933,0.0005298468167893589
1.729495632921415e+18,-0.0021851626224815845,0.0024695678148418665,0.0011487286537885666
1.729495632930415e+18,-0.0009304506238549948,-0.0013484280789270997,-0.0010769548825919628
1.7294956329364152e+18,-0.00016438662714790553,-0.0013092102017253637,-0.0013822157634422183
1.7294956329454154e+18,-0.0036267235409468412,0.001433175290003419,-0.0004698099219240248
1.7294956329544156e+18,0.0022131744772195816,0.0001896037138067186,0.0019517842447385192
1.7294956329604157e+18,-0.0027105335611850023,-0.0025956034660339355,0.0018356658983975649
1.729495632969416e+18,-0.00022877869196236134,-0.001661948161199689,0.0017477667424827814
1.729495632978416e+18,-0.0020858976058661938,-0.00014495127834379673,0.0009275352349504828
1.7294956329874163e+18,-0.0015796119114384055,-0.002704049926251173,-0.0009494962869212031
1.7294956329964165e+18,0.002122703706845641,-0.0012128708185628057,-0.002280889078974724
1.7294956330054167e+18,0.004245758056640625,0.0010636718943715096,5.633844921248965e-05
1.729495633014417e+18,-0.00021874788217246532,0.001143376575782895,0.0017085938015952706
1.729495633020417e+18,0.0003168236289639026,0.0013299897545948625,-0.00012576104199979454
1.7294956330294172e+18,-0.0015543268527835608,0.0019416993018239737,-0.0010747808264568448
1.7294956330384174e+18,-0.002451579086482525,0.0012139200698584318,2.5317788185930112e-06
1.7294956330444175e+18,-0.0027195445727556944,-0.0017127272440120578,-0.00016119121573865414
1.7294956330534177e+18,0.001964294584468007,-0.0005428189178928733,-0.0006946892244741321
1.729495633062418e+18,-0.002108231885358691,0.0003234728646930307,-0.0006813810323365033
1.729495633068418e+18,0.0015354406787082553,0.0015275205951184034,-0.0010171013418585062
1.7294956330774182e+18,-0.002510804682970047,0.0009999957401305437,-0.0010516986949369311
1.7294956330864184e+18,-0.00048773273010738194,-0.0004222398274578154,0.0031653728801757097
1.7294956330954186e+18,-0.0006936011486686766,0.0005206780624575913,0.00013711818610318005
1.7294956331014188e+18,-0.0007341195596382022,-0.0008018470834940672,-0.0010892527643591166
1.729495633110419e+18,0.0010331140365451574,-0.0007620262913405895,-0.0010129209840670228
1.7294956331194191e+18,0.003185570938512683,0.0005323949153535068,-6.088678492233157e-05
1.7294956331254193e+18,-0.0005824661930091679,-0.0010808290680870414,-0.0015720226801931858
1.7294956331344195e+18,-0.0011241851607337594,-0.002420757431536913,-0.0001846140221459791
1.7294956331434196e+18,0.001614654203876853,-0.0006513313273899257,0.00013429041428025812
1.7294956331524198e+18,-0.0014259526506066322,-0.0002202775503974408,0.002255721017718315
1.72949563316142e+18,3.235847543692216e-05,-0.00031146820401772857,0.0010256965178996325
1.7294956331704202e+18,-0.0011107622412964702,0.0008099213591776788,0.0014754257863387465
1.7294956331794204e+18,-0.001469555078074336,5.7806199038168415e-05,0.0008818224305287004
1.7294956331884206e+18,-0.00039891726919449866,-0.0020686981733888388,0.005118092056363821
1.7294956331974208e+18,-0.0016064401715993881,0.0003876312111970037,-0.0009201500797644258
1.729495633206421e+18,-0.00073167186928913,-0.0016278275288641453,-0.00018098833970725536
1.729495633212421e+18,0.00021972889953758568,-0.0016452434938400984,0.0010974033502861857
1.7294956332244214e+18,1.9208393496228382e-05,0.0012776311486959457,-0.00105808035004884
1.7294956332334216e+18,-0.0011936406372115016,-0.0005442166584543884,0.001159709645435214
1.7294956332424218e+18,-0.0006310842582024634,0.0012992973206564784,-0.00048258030437864363
1.729495633248422e+18,-0.0012200175551697612,-0.0007732217782177031,9.944817429641262e-05
1.729495633257422e+18,-0.001970510231330991,-7.639263640157878e-05,0.0009002653532661498
1.7294956332664223e+18,-0.0008943557040765882,0.0003571640991140157,-0.0009972744155675173
1.7294956332754225e+18,0.0011169707868248224,0.000728390587028116,0.0029111031908541918
1.7294956332844227e+18,-0.0027182295452803373,0.0036416950169950724,0.0005306582315824926
1.7294956332934228e+18,0.0013891762355342507,0.00037856504786759615,0.00045828192378394306
1.729495633299423e+18,5.582754056376871e-06,0.0025494922883808613,0.0015532237011939287
1.7294956333084232e+18,-0.002156674861907959,-0.0010760929435491562,-0.0018679051427170634
1.7294956333174234e+18,-0.0004590803582686931,0.0001844475045800209,0.0006030978402122855
1.7294956333264236e+18,0.0008063010754995048,0.0023339635226875544,-0.0003238314820919186
1.7294956333324237e+18,0.0003066424105782062,-0.0024418544489890337,0.0006763802957721055
1.7294956333414239e+18,0.0014573204098269343,0.000849535979796201,-0.001164752058684826
1.729495633350424e+18,9.52129194047302e-05,-0.0013944825623184443,0.00017523557471577078
1.7294956333564242e+18,0.0038785652723163366,0.003083252813667059,-0.00106096884701401
1.7294956333654244e+18,-0.00013264453446026891,-0.0006925375782884657,0.0008357734768651426
1.7294956333744246e+18,-0.0022771423682570457,0.00023421402147505432,-0.0021688288543373346
1.7294956333834248e+18,0.0008639372535981238,0.0006469649379141629,-0.0002885439607780427
1.729495633392425e+18,-0.0006858374108560383,-0.002005963120609522,-0.0002711131237447262
1.7294956334014252e+18,0.00195872038602829,-0.000343577703461051,0.0008750363485887647
1.7294956334104253e+18,8.96614947123453e-05,-0.0019353021634742618,0.0008179802098311484
1.7294956334194255e+18,0.002936556003987789,0.00023874008911661804,-0.0017573126824572682
1.7294956334284257e+18,-0.001121011795476079,-0.00036483080475591123,-0.001870137988589704
1.7294956334344259e+18,-0.001327859004959464,0.001973422709852457,0.0032040546648204327
1.729495633443426e+18,0.002220068359747529,0.0003099788445979357,-0.0004329695657361299
1.7294956334494262e+18,0.00016994580801110715,0.00031852093525230885,-0.0011710410472005606
1.7294956334584264e+18,-0.0006758957752026618,0.001073390361852944,-0.0014602820156142116
1.7294956334674266e+18,0.0008902652771212161,-0.002586035756394267,-0.0009535166318528354
1.7294956334734267e+18,0.0015738779911771417,-0.000888389942701906,-0.0007211116026155651
1.729495633482427e+18,0.0006933952099643648,0.0008762251236476004,0.001835053088143468
1.729495633491427e+18,-0.002066629473119974,0.0001795779389794916,0.0001463661465095356
1.7294956335004273e+18,-0.0005636290297843516,0.004903043154627085,-0.001883757533505559
1.7294956335064274e+18,-0.0017539183609187603,-0.001302276155911386,0.0036523316521197557
1.7294956335154276e+18,0.0004916610778309405,-0.0002606751804705709,0.002874768106266856
1.7294956335244278e+18,-0.0022960857022553682,0.0006215331377461553,0.000588748836889863
1.729495633533428e+18,0.0002873300982173532,0.00036709243431687355,-0.00040072936099022627
1.7294956335424282e+18,-0.0011128925252705812,-0.000349820707924664,-0.0012314703781157732
1.7294956335484283e+18,-0.0009393539512529969,0.0007760289590805769,0.0035403433721512556
1.7294956335574285e+18,-0.0002040024264715612,-0.001268401276320219,-0.0008646195055916905
1.7294956335664287e+18,0.0008372396696358919,0.0008223130716942251,0.0005930003244429827
1.7294956335754289e+18,-0.0025901119224727154,-0.0008496128721162677,-0.0007252705399878323
1.729495633584429e+18,0.00034457386936992407,-0.002304336056113243,0.00010590453894110397
1.7294956335904292e+18,0.002389376051723957,0.0001358666195301339,-0.00014610141806770116
1.7294956335994294e+18,0.00020113924983888865,0.0007675180677324533,0.0005788338603451848
1.7294956336084296e+18,0.0015413430519402027,0.0009987620869651437,-0.0003229773137718439
1.7294956336144297e+18,-0.00242744293063879,0.00033338661887682974,9.167481948679779e-06
1.72949563362343e+18,0.0002955554809886962,0.0003931789833586663,0.001376504311338067
1.72949563363243e+18,-0.0008520664996467531,-0.00028769305208697915,-0.0024007384199649096
1.7294956336414303e+18,-2.5114937670878135e-05,0.0014137052930891514,-0.0007082040538080037
1.7294956336504305e+18,0.001112451427616179,-0.0017165587050840259,-0.001111394725739956
1.7294956336594307e+18,-4.829714089282788e-05,-0.0012959897285327315,0.0008550623315386474
1.7294956336654308e+18,-0.000755806511733681,-0.0016856162110343575,-0.001479214639402926
1.729495633674431e+18,0.0008244147757068276,-0.0009421959985047579,6.18795893387869e-05
1.729495633680431e+18,-0.0007938292110338807,-0.0029563135467469692,0.0013017436722293496
1.7294956336894313e+18,-0.0007264902233146131,-0.002433015964925289,-0.0006896676495671272
1.7294956336984315e+18,-0.0018097383435815573,0.0006180139607749879,-0.0016395592829212546
1.7294956337074317e+18,-0.0006386660970747471,0.0014019625959917903,-0.00039607801591046154
1.7294956337134318e+18,0.0004418480966705829,-0.0014121244894340634,-0.0018160779727622867
1.729495633722432e+18,-0.001709251431748271,-0.0018153282580897212,0.000877943413797766
1.7294956337314322e+18,8.673201955389231e-05,-0.001283959485590458,-0.0027031530626118183
1.7294956337404324e+18,-0.0018925314070656896,-0.0009481602464802563,0.0013010248076170683
1.7294956337464325e+18,0.00209966697730124,-0.002022017491981387,-0.0018306027632206678
1.7294956337554327e+18,-0.0011133862426504493,0.001051003928296268,-0.00139552669133991
1.7294956337614328e+18,0.0010750325163826346,0.00045817310456186533,0.0007197842933237553
1.729495633770433e+18,-0.0031979093328118324,0.0009664255776442587,0.0006986610242165625
1.7294956337794332e+18,0.0014993156073614955,0.00045795101323165,-0.0005163176683709025
1.7294956337854333e+18,0.0003581845376174897,-9.790498006623238e-05,-0.0012863895390182734
1.7294956337944335e+18,0.00011891440226463601,-0.00010632052726577967,0.0003513935371302068
1.7294956338004337e+18,-0.00019853407866321504,-0.000983704812824726,0.0007610656321048737
1.7294956338094339e+18,0.0014767759712412953,0.0012006124015897512,0.00017469085287302732
1.729495633815434e+18,0.000815999461337924,0.000740000163204968,0.0011183535680174828
1.7294956338244342e+18,-0.0011131607461720705,-0.0006225999095477164,-0.0028561269864439964
1.7294956338304343e+18,-0.0010193675989285111,0.001714173937216401,-0.000324341090163216
1.7294956338394345e+18,-6.387176108546555e-05,0.001620582421310246,7.832229312043637e-05
1.7294956338484347e+18,-0.00027064798632636666,-0.0011449848534539342,0.002708996180444956
1.729495633857435e+18,0.001206269022077322,-0.0016586987767368555,-0.0030686354730278254
1.729495633863435e+18,-0.0016715108649805188,-0.0025101411156356335,-0.0030320961959660053
1.7294956338724352e+18,0.001008133520372212,0.0006329138414002955,-0.0007066446705721319
1.7294956338814354e+18,0.004676876123994589,-0.0006777062080800533,0.00068487977841869
1.7294956338874355e+18,0.0006973682902753353,-0.0008648555958643556,0.002999658463522792
1.7294956338964357e+18,-0.001210512942634523,-0.0026099744718521833,-0.0013697956455871463
1.7294956339024358e+18,-0.00032202567672356963,-0.0018007162725552917,-0.0013435586588457227
1.729495633911436e+18,0.002562480280175805,-0.0019009766401723027,-0.0009029838838614523
1.7294956339204362e+18,-0.0009225032408721745,0.002374354749917984,-0.000987524283118546
1.7294956339264364e+18,-0.0010473683942109346,0.0010692597134038806,1.9279459593235515e-05
1.7294956339354365e+18,-0.0030347162391990423,-0.0005780265782959759,0.0027997258584946394
1.7294956339444367e+18,-0.0031243276316672564,0.00347551959566772,0.0013596054632216692
1.7294956339504369e+18,-0.002475497778505087,-0.0015866317553445697,-0.0034066778607666492
1.729495633959437e+18,-0.00024186025257222354,0.002891640178859234,0.0010454972507432103
1.7294956339684372e+18,0.0010110532166436315,0.0021239870693534613,0.002210363047197461
1.7294956339774374e+18,0.0011123833246529102,0.0006732582696713507,-0.0005210110684856772
1.7294956339834376e+18,-0.0002202369796577841,-0.002553369151428342,-0.002132040448486805
1.7294956339924378e+18,0.0006728482549078763,-0.0022638936061412096,0.0018661870853975415
1.729495634001438e+18,-0.001554545946419239,0.0010954197496175766,0.001821339363232255
1.729495634007438e+18,2.4601649784017354e-05,0.001354200765490532,0.004213718231767416
1.7294956340164383e+18,0.0004970583249814808,0.0013181875692680478,-1.6180871170945466e-05
1.7294956340254385e+18,0.0038987533189356327,3.535814903443679e-05,0.00046027437201701105
1.7294956340314386e+18,-0.0010539949871599674,-0.000813968712463975,-0.0007666326710022986
1.7294956340404388e+18,0.00020656832202803344,0.002351281465962529,0.0009555706055834889
1.729495634046439e+18,-0.0012748041190207005,-0.0017125633312389255,-0.0020124956499785185
1.729495634055439e+18,0.0008741396013647318,0.0023356513120234013,-0.002557341707870364
1.7294956340644393e+18,-0.001196436700411141,-0.0009416164830327034,0.00015836223610676825
1.7294956340704394e+18,-0.0010605957359075546,-0.0021572778932750225,0.0035826140083372593
1.7294956340794396e+18,-0.0034623437095433474,-0.0010636122897267342,-0.0012339509557932615
1.7294956340884398e+18,-0.0019573592580854893,-0.0005272702546790242,0.00252908980473876
1.72949563409444e+18,-0.004615310113877058,8.47066257847473e-05,-0.0009879427962005138
1.7294956341034401e+18,0.00330814509652555,0.0013309626374393702,0.00012114035780541599
1.7294956341094403e+18,-0.0021463872399181128,0.0013427049852907658,0.00016752720694057643
1.7294956341184404e+18,-0.0006838257540948689,7.458449545083568e-05,0.001947917276993394
1.7294956341244406e+18,-0.000632419076282531,0.0020115331280976534,0.0006407114560715854
1.7294956341334408e+18,0.0018203004729002714,0.0010068934643641114,-0.0012163093779236078
1.729495634142441e+18,0.003373729297891259,-0.003559415228664875,0.0008275443105958402
1.7294956341514412e+18,0.0013399830786511302,0.0001217850367538631,-0.00146493932697922
1.7294956341574413e+18,0.0007975411717779934,0.0013931022258475423,0.0003604011726565659
1.7294956341664415e+18,-0.0007395899156108499,-0.000825926719699055,-0.00034723745193332434
1.7294956341724416e+18,-0.00153469352517277,0.0014245935017243028,0.00014528802421409637
1.7294956341814418e+18,0.0012722188839688897,0.0005346175748854876,0.003023129887878895
1.729495634187442e+18,-0.00010195669892709702,-0.004633412230759859,-0.0004780179588124156
1.729495634196442e+18,-0.00038140537799336016,6.62567836116068e-05,0.00043039501179009676
1.7294956342054423e+18,0.0012286846758797765,-0.002010784577578306,-0.002240295521914959
1.7294956342114424e+18,0.0018508401699364185,0.0012666926486417651,-0.00011716881272150204
1.7294956342204426e+18,0.0011667045764625072,-0.0016710248310118914,-0.002732161432504654
1.7294956342294428e+18,-0.0005926103913225234,-0.0012359698303043842,-0.0016491751885041595
1.729495634235443e+18,0.001923351432196796,0.0021393729839473963,-0.0020043705590069294
1.7294956342444431e+18,0.002311598975211382,6.212024163687602e-05,0.004092819057404995
1.7294956342534433e+18,0.0021887358743697405,0.0005459160311147571,0.003204894484952092
1.7294956342624435e+18,0.00023751758271828294,0.0006178456824272871,-0.0008730432600714266
1.7294956342714437e+18,-0.0024214894510805607,-0.0026722915936261415,-0.0025191549211740494
1.729495634280444e+18,0.000965857645496726,-0.0007892294088378549,0.0009427269105799496
1.729495634289444e+18,0.0001900716742966324,-0.0005336945177987218,0.00030645442893728614
1.7294956342954442e+18,-0.0027823704294860363,0.002448553219437599,-0.0009069573134183884
1.7294956343044444e+18,-0.00300866668112576,0.0010035912273451686,-0.0026794460136443377
1.7294956343134446e+18,0.0022402270697057247,0.00022178684594109654,-0.0010062174405902624
1.7294956343194447e+18,-0.0006795750232413411,0.00032042135717347264,-0.0012606990057975054
1.729495634328445e+18,0.0030710038263350725,-0.00012997152225580066,0.003396284533664584
1.729495634337445e+18,-0.0020165196619927883,0.0005139153217896819,-0.002278030151501298
1.7294956343434452e+18,0.001516661373898387,0.00035938835935667157,0.002070496091619134
1.7294956343524454e+18,0.0010185599094256759,-0.0020428926218301058,-0.0008622454479336739
1.7294956343614456e+18,-0.0011880919337272644,-0.001229376532137394,-0.0013328592758625746
1.7294956343704458e+18,-0.0020751971751451492,0.0010911020217463374,7.340473985095741e-06
1.729495634376446e+18,-0.0020134099759161472,-0.0007692197686992586,0.001598769798874855
1.7294956343854461e+18,0.0012034917017444968,0.002274060156196356,-0.00021766117424704134
1.7294956343944463e+18,0.002022754168137908,0.0007751031662337482,-0.00042586654308252037
1.7294956344004465e+18,0.0006751011242158711,-0.0003224241081625223,0.0008707614033482969
1.7294956344094467e+18,-0.00047049220302142203,-0.0010607283329591155,0.0009036320261657238
1.7294956344184468e+18,0.0016742716543376446,0.0010972438612952828,0.0019316598773002625
1.729495634427447e+18,-0.0007462669163942337,-0.0027698525227606297,0.0010295019019395113
1.7294956344364472e+18,-0.0031555481255054474,-0.000890226336196065,0.0003450218355283141
1.7294956344424474e+18,0.004217981826514006,-1.2584724572661798e-05,0.0022619504015892744
1.7294956344514476e+18,-0.000776174187194556,0.0002974261878989637,-0.001758668920956552
1.7294956344604477e+18,0.0006672110175713897,0.00017541406850796193,0.00214705360122025
1.729495634466448e+18,-0.0015167031669989228,-0.0037625059485435486,0.0003676722408272326
1.729495634475448e+18,0.00030862775747664273,-0.00111086992546916,-0.0009444182505831122
1.7294956344844483e+18,-0.0001795638381736353,-0.0012974722776561975,0.002670356072485447
1.7294956344934484e+18,0.0023156260140240192,-0.0010747294872999191,-0.0008176966803148389
1.7294956345024486e+18,0.004109881818294525,0.0014379118802025914,-0.00019906778470613062
1.7294956345084488e+18,0.0005929286126047373,-0.0019266643794253469,0.0006577296881005168
1.729495634517449e+18,0.0002916664525400847,-4.489722050493583e-05,-0.0021452682558447123
1.7294956345264492e+18,0.00442798575386405,0.0007984591065905988,-0.0010726969921961427
1.7294956345354493e+18,-0.0004768827056977898,-0.0018789318855851889,-0.003098092507570982
1.7294956345414495e+18,0.0012563600903376937,-0.0024718614295125008,-0.00029493047622963786
1.7294956345504497e+18,-0.000879637140315026,-0.00019739761773962528,-6.597297760890797e-05
1.7294956345594499e+18,-0.0027701673097908497,0.0001081657173926942,0.0031766346655786037
1.72949563456545e+18,0.000545081275049597,-0.0004690560162998736,-0.0018034075619652867
1.7294956345744502e+18,-0.0029993015341460705,-2.2310816802928457e-06,0.0006485222838819027
1.7294956345834504e+18,0.0007517393096350133,-0.00182653171941638,0.0019933050498366356
1.7294956345894505e+18,-8.390072252950631e-06,-0.00020565951126627624,0.0008902515983209014
1.7294956345984507e+18,0.001461399719119072,0.00210109306499362,-0.00031284772558137774
1.7294956346044508e+18,-0.0002692576963454485,0.0023800216149538755,0.00043355359230190516
1.729495634613451e+18,-7.156588253565133e-05,-0.0009265141561627388,-0.002266836352646351
1.7294956346224512e+18,0.0020012378226965666,0.0008138986304402351,-0.0021633415017277002
1.7294956346284513e+18,0.002451246837154031,0.0024265400134027004,-0.001455644378438592
1.7294956346434516e+18,0.002770042046904564,-0.0015813877107575536,-0.002297504572197795
1.7294956346524518e+18,-0.0005057288217358291,-0.002945610322058201,-0.0010139445075765252
1.729495634658452e+18,0.0010140223894268274,0.0016387030482292175,0.000922385836020112
1.7294956346674522e+18,-0.0003551332338247448,0.0006907367496751249,-0.0011695893481373787
1.7294956346764524e+18,-0.0020215038675814867,0.002163899363949895,3.035878762602806e-05
1.7294956346824525e+18,-0.0009276767377741635,0.001827907282859087,0.00031481459154747427
1.7294956346914527e+18,0.002273902529850602,-0.0004034283629152924,-0.002640898572281003
1.7294956347004529e+18,0.0004927485715597868,0.0006774975336156785,0.0005283819627948105
1.729495634709453e+18,0.0027191590052098036,0.0006333965575322509,0.00026589439949020743
1.7294956347184532e+18,0.00033645235816948116,0.0004749273939523846,4.836762400373118e-06
1.7294956347274534e+18,-0.0005883974372409284,0.0016078547341749072,0.000981534132733941
1.7294956347334536e+18,0.0003702577669173479,0.0006319232634268701,0.0015759880188852549
1.7294956347424538e+18,-0.0018356252694502473,0.0001958433713298291,-0.001364588038995862
1.729495634748454e+18,0.0006098131998442113,-0.0008734296425245702,0.0005213788826949894
1.729495634757454e+18,-0.00010073621524497867,0.0005090797203592956,-0.0021492852829396725
1.7294956347664543e+18,-8.790081483311951e-05,-0.000507524237036705,-0.0015155894216150045
1.7294956347724544e+18,-0.0012422793079167604,-0.000871351920068264,0.0006864292663522065
1.7294956347814546e+18,0.0007915878086350858,0.0012641188222914934,-0.0017498506931588054
1.7294956347904548e+18,-0.0027971663512289524,0.001287795719690621,-0.001764743821695447
1.729495634799455e+18,0.0004818752931896597,0.0004528494318947196,-0.001097925822250545
1.729495634805455e+18,-0.001049238839186728,-0.001851829350925982,0.002529545919969678
1.7294956348144553e+18,-0.003156239166855812,0.001370222307741642,-0.001760198618285358
1.7294956348234555e+18,6.646598922088742e-05,0.00041121779941022396,0.0021514962427318096
1.7294956348294556e+18,-0.0002061825362034142,0.0011233154218643904,-0.0003333378699608147
1.7294956348384558e+18,0.000976329785771668,-0.001556171104311943,-0.0017444590339437127
1.729495634847456e+18,4.4577522203326225e-05,0.001581863616593182,-0.0022125595714896917
1.7294956348534561e+18,-1.364282434224151e-05,-0.0015943184262141585,-6.357597885653377e-05
1.7294956348624563e+18,-0.000602149695623666,-0.00045612978283315897,-0.0014817387564107776
1.7294956348684564e+18,-0.0013813208788633347,-0.00017316963931079954,-0.00015833498036954552
1.7294956348774566e+18,0.0001980499946512282,0.0028696362860500813,0.003329587634652853
1.7294956348864568e+18,0.0006550277466885746,-0.0005235471180640161,-0.0008283347124233842
1.729495634895457e+18,0.0004875415179412812,-0.00010640949767548591,-0.0012658261694014072
1.7294956349014572e+18,-0.0005701128393411636,-0.0012705656699836254,-0.0015288940630853176
1.7294956349104573e+18,0.002769357291981578,0.0023047965951263905,-0.0006537868175655603
1.7294956349194575e+18,6.279246736085042e-05,-0.0002991687215398997,0.0011689335806295276
1.7294956349254577e+18,-0.0014026742428541183,0.002361812861636281,0.0003191116848029196
1.7294956349344579e+18,-0.00017310660041403025,-0.002495881635695696,0.00010220046533504501
1.729495634943458e+18,-0.0009826493915170431,0.0035723440814763308,-0.00036833633203059435
1.7294956349494582e+18,0.0005556265241466463,-0.0036691054701805115,0.0011983203003183007
1.7294956349584584e+18,-0.001747219474054873,0.0019162603421136737,-0.00211455300450325
1.7294956349644585e+18,0.0003403497685212642,-0.0003531143884174526,-0.0007377199362963438
1.7294956349734587e+18,-0.0006256100605241954,0.0017562257125973701,-0.001035073772072792
1.729495634982459e+18,0.00022003200137987733,-0.0013889692490920424,-2.712612877076026e-05
1.729495634988459e+18,0.0007002521306276321,0.001567142317071557,-0.0020848941057920456
1.7294956349974592e+18,6.229908467503265e-05,-0.0014763715444132686,6.49349603918381e-05
1.7294956350034593e+18,0.0029147989116609097,-4.850066761719063e-05,-0.0002767540281638503
1.7294956350124595e+18,0.0009879663120955229,-0.0010183611884713173,0.0010618612868711352
1.7294956350214597e+18,0.0014306022785604,0.0008578546112403274,-0.0021859072148799896
1.72949563503046e+18,0.006330791395157576,-0.04043686389923096,-2.2996620828052983e-05
1.72949563503646e+18,0.01042871456593275,-0.08842067420482635,-0.0007453295984305441
1.7294956350454602e+18,0.01861877739429474,-0.16691121459007263,-0.00025960669154301286
1.7294956350514604e+18,0.022960614413022995,-0.21508219838142395,0.0015221938956528902
1.7294956350604605e+18,0.026271149516105652,-0.2567133605480194,0.002380666323006153
1.7294956350694607e+18,0.02696620672941208,-0.25805214047431946,-0.0022703425493091345
1.7294956350754609e+18,0.022472377866506577,-0.24268102645874023,-0.00047448964323848486
1.729495635084461e+18,0.018628571182489395,-0.21703390777111053,0.0018991886172443628
1.7294956350934612e+18,0.018802497535943985,-0.196538046002388,-0.0018484914908185601
1.7294956350994614e+18,0.018275076523423195,-0.19432172179222107,-0.0007565772393718362
1.7294956351084616e+18,0.01915118657052517,-0.20086917281150818,-3.211403964087367e-06
1.7294956351144617e+18,0.020331285893917084,-0.21223394572734833,-0.0004560180241242051
1.729495635123462e+18,0.02603774331510067,-0.21947290003299713,-0.00042673636926338077
1.729495635132462e+18,0.022120557725429535,-0.2186446189880371,0.0007978730136528611
1.7294956351384622e+18,0.020866066217422485,-0.20515142381191254,-6.19285274296999e-05
1.7294956351474624e+18,0.016451222822070122,-0.18194234371185303,0.003201983403414488
1.7294956351564626e+18,0.007886029779911041,-0.15362763404846191,0.001983013702556491
1.7294956351654628e+18,0.007378867827355862,-0.1353245973587036,0.0017609766218811274
1.729495635174463e+18,0.0074078841134905815,-0.11660625040531158,0.0020112746860831976
1.7294956351834632e+18,0.011597794480621815,-0.10999133437871933,-0.0008859875379130244
1.7294956351894633e+18,0.009357760660350323,-0.1026548445224762,0.0018473034724593163
1.7294956351984635e+18,0.01146759558469057,-0.09328342974185944,0.0012249539140611887
1.7294956352044636e+18,0.0059842802584171295,-0.08172684907913208,0.002684395294636488
1.7294956352134638e+18,0.0064231352880597115,-0.06543516367673874,-0.001542402314953506
1.729495635219464e+18,0.007366301957517862,-0.05260981246829033,0.002035424578934908
1.729495635228464e+18,0.0013057938776910305,-0.03252234682440758,0.00369256641715765
1.7294956352374643e+18,0.0014165649190545082,-0.014202012680470943,0.001888714381493628
1.7294956352434644e+18,-0.003447902388870716,-0.003887985134497285,-0.0004997008945792913
1.7294956352524646e+18,-0.0014711145777255297,0.005152315832674503,6.772647611796856e-05
1.7294956352614648e+18,3.468361683189869e-05,0.011546410620212555,-9.459536522626877e-05
1.729495635267465e+18,-0.0024217122700065374,0.017693594098091125,0.0025974195450544357
1.7294956352764652e+18,-0.0016943770460784435,0.02494870312511921,-0.0005858208751305938
1.7294956352824653e+18,-0.0013672003988176584,0.03350035473704338,0.0014775273157283664
1.7294956352914655e+18,-0.005095848813652992,0.044776104390621185,0.00046986190136522055
1.7294956353004657e+18,-0.0049634105525910854,0.05656573176383972,-0.0023207871709018946
1.7294956353094659e+18,-0.006139285396784544,0.06752008199691772,-0.002287579234689474
1.729495635318466e+18,-0.008327153511345387,0.07358518242835999,-0.0008572260267101228
1.7294956353244662e+18,-0.007437516935169697,0.07643537223339081,-0.003522910177707672
1.7294956353334664e+18,-0.005871778354048729,0.07987362891435623,-0.0017350194975733757
1.7294956353394665e+18,-0.005767820868641138,0.08338020741939545,-0.0023658405989408493
1.7294956353484667e+18,-0.0059354426339268684,0.09041747450828552,-0.003268148750066757
1.729495635357467e+18,-0.006415146868675947,0.09235808998346329,0.0005719293840229511
1.729495635363467e+18,-0.006534454878419638,0.09622063487768173,-0.005204325541853905
1.7294956353724672e+18,-0.005774698685854673,0.09727709740400314,-0.0009606539970263839
1.7294956353814674e+18,-0.004960616119205952,0.09986819326877594,-0.00018107006326317787
1.7294956353874675e+18,-0.006502877920866013,0.09676295518875122,-0.0020381775684654713
1.7294956353964677e+18,-0.0027401756960898638,0.10086655616760254,-0.001672853366471827
1.729495635405468e+18,-0.007450222969055176,0.10113013535737991,-3.970181569457054e-05
1.729495635411468e+18,-0.004135423339903355,0.10445641726255417,-0.0032779360190033913
1.7294956354204682e+18,-0.0032121422700583935,0.10236645489931107,-0.0015067734057083726
1.7294956354294684e+18,-0.005065781995654106,0.10195091366767883,5.103822331875563e-05
1.7294956354384686e+18,-0.005586002953350544,0.0986381396651268,-0.002316432073712349
1.7294956354444687e+18,-0.008338358253240585,0.10119935870170593,0.0016204197891056538
1.729495635453469e+18,-0.007382385432720184,0.09441705793142319,-0.00020366173703223467
1.729495635462469e+18,-0.0064544035121798515,0.09605509042739868,-5.257956217974424e-06
1.7294956354684692e+18,-0.00526749063283205,0.09378345310688019,0.0026576914824545383
1.7294956354774694e+18,-0.008251283317804337,0.09365468472242355,-0.0028441071044653654
1.7294956354864696e+18,-0.005700169131159782,0.09479314088821411,-0.0006806086748838425
1.7294956354924698e+18,-0.0067005581222474575,0.09191639721393585,-0.0022914435248821974
1.72949563550147e+18,-0.00494772894307971,0.08870905637741089,-0.00020341883646324277
1.7294956355104701e+18,-0.009551690891385078,0.08892601728439331,-0.0025236851070076227
1.7294956355164703e+18,-0.010414029471576214,0.08460754156112671,0.00022658368106931448
1.7294956355254705e+18,-0.00588264362886548,0.08207318186759949,-0.0004549198201857507
1.7294956355344707e+18,-0.006651272531598806,0.07785932719707489,-0.0005074237124063075
1.7294956355434708e+18,-0.00472963647916913,0.07900329679250717,-0.0022767940536141396
1.729495635552471e+18,-0.001225741347298026,0.07375476509332657,-0.0012769901659339666
1.7294956355584712e+18,-0.003152781631797552,0.07295437157154083,-0.0004764802288264036
1.7294956355674714e+18,-0.00696498341858387,0.07098090648651123,-0.0003468596551101655
1.7294956355794716e+18,-0.010209686122834682,0.06478489935398102,-0.0003195675672031939
1.7294956355884718e+18,-0.008144168183207512,0.06264492869377136,0.0011516883969306946
1.729495635597472e+18,-0.004402840044349432,0.06110174581408501,0.0009980559116229415
1.7294956356034721e+18,-0.002831773366779089,0.058523911982774734,-0.00032718395232222974
1.7294956356124723e+18,-0.0019121129298582673,0.05955519527196884,-0.0020938727539032698
1.7294956356214725e+18,-0.004189917352050543,0.05948585271835327,0.0003533175913617015
1.7294956356304727e+18,-0.0030457237735390663,0.0530257523059845,-0.0004011673154309392
1.729495635639473e+18,-0.006473915185779333,0.050851162523031235,-0.001199930440634489
1.729495635648473e+18,-0.010805015452206135,0.04907810315489769,0.001269069267436862
1.7294956356544732e+18,-0.009728939272463322,0.04842101037502289,-0.002263909438624978
1.7294956356634734e+18,-0.00652975682169199,0.04903138428926468,0.0034662033431231976
1.7294956356724736e+18,-0.005482641514390707,0.04638483375310898,0.0027196984738111496
1.7294956356814738e+18,0.00015456252731382847,0.04664842039346695,-0.0005955930100753903
1.729495635687474e+18,-0.0020789531990885735,0.04522644728422165,-0.0005747952964156866
1.729495635696474e+18,-0.0038445855025202036,0.041462767869234085,-0.0018696513725444674
1.7294956357024742e+18,-0.007067279890179634,0.04160381481051445,-0.00013735640095546842
1.7294956357114744e+18,-0.008449291810393333,0.04115627706050873,-0.0005806190893054008
1.7294956357204746e+18,-0.012397927232086658,0.040435370057821274,-0.0002954116789624095
1.7294956357294748e+18,-0.008264818228781223,0.036080505698919296,0.0003414165403228253
1.729495635738475e+18,-0.007137614767998457,0.03823118656873703,0.003111065598204732
1.7294956357444751e+18,-0.005956210661679506,0.0324353389441967,-0.0022797277197241783
1.7294956357534753e+18,-0.0033371050376445055,0.035881608724594116,0.00034758332185447216
1.7294956357624755e+18,-0.005135447718203068,0.036259882152080536,0.002761127892881632
1.7294956357714757e+18,-0.006016557104885578,0.03598519042134285,-0.0006618232582695782
1.729495635780476e+18,-0.005580696277320385,0.032629724591970444,-0.0011777493637055159
1.729495635789476e+18,-0.005363330710679293,0.02922195941209793,-0.0021025249734520912
1.7294956357984763e+18,-0.003479195525869727,0.030881665647029877,-0.000187291472684592
1.7294956358074765e+18,-0.0073394193314015865,0.027048032730817795,0.0009459154680371284
1.7294956358164767e+18,-0.002965858206152916,0.028857465833425522,0.000364613370038569
1.7294956358254769e+18,0.0009509539813734591,0.025311565026640892,0.000386782776331529
1.729495635834477e+18,-0.002000262727960944,0.029913391917943954,-0.0015581012703478336
1.7294956358434772e+18,-0.003490970004349947,0.028318006545305252,0.0014950705226510763
1.7294956358524774e+18,-0.003734094323590398,0.02576751820743084,0.0020391298457980156
1.7294956358614776e+18,-0.0033835452049970627,0.026876775547862053,0.0008530506165698171
1.7294956358674778e+18,-0.0011474289931356907,0.024982979521155357,-0.0029655653052031994
1.729495635876478e+18,-0.0033774180337786674,0.025421608239412308,0.002067077439278364
1.7294956358884782e+18,0.002184417098760605,0.02171127125620842,-0.002140300115570426
1.7294956358944783e+18,-0.003675688523799181,0.0236386489123106,0.001410427037626505
1.7294956359034785e+18,-0.004810091108083725,0.020809480920433998,-0.00030943145975470543
1.7294956359154788e+18,-0.004140966571867466,0.021357275545597076,0.001619722810573876
1.729495635924479e+18,-0.00023938040249049664,0.02017434872686863,0.001133384881541133
1.7294956359334792e+18,-0.004086148925125599,0.02658655308187008,0.0001866513048298657
1.7294956359454794e+18,-0.0006070611416362226,0.02257567271590233,-0.0004792761756107211
1.7294956359544796e+18,0.0006533401319757104,0.020110001787543297,0.0020818770863115788
1.7294956359634798e+18,-0.002961008809506893,0.018452290445566177,-0.0011771247955039144
1.72949563597248e+18,-0.002909630537033081,0.02663322351872921,0.0008969256887212396
1.7294956359844803e+18,-0.0003008809871971607,0.024461356922984123,-0.0009661564836278558
1.7294956359934804e+18,-0.003611035645008087,0.024983428418636322,-0.00012089608935639262
1.7294956360024806e+18,-0.002371308160945773,0.02043641358613968,-0.000287803472019732
1.7294956360114808e+18,-0.0028680090326815844,0.02585127390921116,-0.0007465375238098204
1.729495636020481e+18,-0.0013899183832108974,0.025439100340008736,-0.000858472369145602
1.7294956360294812e+18,-0.0028032807167619467,0.026011306792497635,0.00374979549087584
1.7294956360384814e+18,-0.001264649094082415,0.02397296018898487,0.002473539672791958
1.7294956360504817e+18,-0.0035735841374844313,0.025375427678227425,0.0047036753967404366
1.7294956360594819e+18,-0.00177068414632231,0.024858413264155388,0.001747277332469821
1.729495636068482e+18,-0.0032090358436107635,0.02211523801088333,-0.0015317730139940977
1.7294956360774822e+18,-0.0006002934533171356,0.023300206288695335,0.0009527633083052933
1.7294956360864824e+18,0.0009137691231444478,0.026611443608999252,-0.0003034452092833817
1.7294956360954826e+18,0.00256931409239769,0.02149302139878273,0.002117255236953497
1.7294956361044828e+18,-0.0013764598406851292,0.019497225061058998,-0.0008178416173905134
1.729495636113483e+18,-0.001057460787706077,0.019163571298122406,0.0009095988352783024
1.7294956361224832e+18,-0.0007758096908219159,0.023294692859053612,0.001561186509206891
1.7294956361314834e+18,-0.0005516561213880777,0.019709892570972443,-0.0007406105869449675
1.7294956361404836e+18,-0.001196041121147573,0.02046496979892254,-0.0018115934217348695
1.7294956361494838e+18,0.0017937753582373261,0.01968654803931713,-0.0011245631612837315
1.729495636161484e+18,0.002574943471699953,0.016200119629502296,-0.0010700459824874997
1.7294956361704842e+18,-0.001838000025600195,0.01655922830104828,0.0012438732665032148
1.7294956361794844e+18,-0.0020164926536381245,0.015473796054720879,0.0013545379042625427
1.7294956361884846e+18,-0.004229861777275801,0.013690853491425514,-0.00022590102162212133
1.7294956361974848e+18,-0.003989961929619312,0.01819620467722416,-0.0019398094154894352
1.729495636206485e+18,-0.004980659112334251,0.01674945093691349,0.0006532431580126286
1.7294956362154852e+18,-0.003148340620100498,0.017852123826742172,-0.0015749400481581688
1.7294956362274854e+18,-0.005885137710720301,0.016294298693537712,0.0009951293468475342
1.7294956362364856e+18,-0.004323002882301807,0.012523258104920387,-5.739752668887377e-05
1.7294956362454858e+18,-0.004729588981717825,0.012860627844929695,0.001277731149457395
1.729495636254486e+18,-0.0031377982813864946,0.009527047164738178,0.0002048791793640703
1.7294956362634862e+18,-0.0006704204715788364,0.010751316323876381,0.00035715376725420356
1.7294956362724864e+18,-0.005173564422875643,0.008756915107369423,0.0026241012383252382
1.7294956362844867e+18,-0.002990689128637314,0.00844366941601038,-0.0011374899186193943
1.7294956362934868e+18,-0.005632883403450251,0.00740873022004962,-0.00195884658023715
1.729495636302487e+18,-0.0017993405926972628,0.010534171015024185,0.0011741118505597115
1.7294956363144873e+18,2.1601561456918716e-05,0.0055993967689573765,0.0007107313140295446
1.7294956363234875e+18,-0.0028725750744342804,0.005129614844918251,-0.0018838286632671952
1.7294956363324877e+18,-0.004076565150171518,0.006580529734492302,0.0002132462104782462
1.7294956363414879e+18,-0.005293832626193762,0.005037801340222359,-0.0017721789190545678
1.729495636350488e+18,-0.0014932907652109861,0.00805093627423048,-0.00017747707897797227
1.7294956363594883e+18,-0.0015918208518996835,0.006389446556568146,-0.00037557596806436777
1.7294956363684884e+18,0.004172272514551878,0.006522820331156254,0.0017474184278398752
1.7294956363804887e+18,0.00026468635769560933,0.008681918494403362,-0.0004594236961565912
1.729495636389489e+18,-0.0004040606436319649,0.008718082681298256,0.0007063672528602183
1.729495636398489e+18,-0.0032943221740424633,0.005908764898777008,-0.0031776530668139458
1.7294956364224896e+18,-0.0016851680120453238,0.005476979073137045,-0.002209313213825226
1.7294956364314898e+18,-0.001974031561985612,0.004815035965293646,-0.0027365016285330057
1.72949563644349e+18,0.0004987440188415349,0.003951422404497862,-0.004044744651764631
1.7294956364524902e+18,0.0006747947190888226,0.0026102042756974697,0.00015165621880441904
1.7294956364614904e+18,0.0002518802648410201,0.005332243628799915,0.002579472027719021
1.7294956364734907e+18,-0.004730058368295431,0.0030177575536072254,-0.0010437015444040298
1.729495636482491e+18,-0.008233727887272835,0.00271288538351655,-0.0011488823220133781
1.729495636491491e+18,-0.002796568674966693,0.002835843712091446,-0.004240932874381542
1.7294956364974912e+18,-0.005643462296575308,0.0015571992844343185,-0.0010754610411822796
1.7294956365064914e+18,-0.0022939203772693872,0.0012371024349704385,-0.002514410065487027
1.7294956365154916e+18,0.0006887802737765014,0.003618877613916993,-0.004327575676143169
1.7294956365244918e+18,0.0007299683056771755,0.0017507250886410475,-0.0033034286461770535
1.729495636533492e+18,0.0003598376642912626,0.0015196769963949919,-0.002196758985519409
1.7294956365454922e+18,-0.001756556099280715,0.0016222377307713032,-0.0026293788105249405
1.7294956365544924e+18,-0.004008259624242783,-0.0021697499323636293,-0.0006157606840133667
1.7294956365634926e+18,-0.0011620174627751112,-0.0013895805459469557,-0.002624840009957552
1.7294956365724928e+18,-0.0024062078446149826,0.0005712240817956626,-0.00222973944619298
1.729495636581493e+18,-0.0013479427434504032,-0.0020442851819097996,-0.005402307491749525
1.7294956365904932e+18,-0.0005102641880512238,1.5294644981622696e-06,-0.0028137662447988987
1.7294956366024934e+18,0.0062423404306173325,-0.0036724142264574766,-0.0009935671696439385
1.7294956366114936e+18,0.006392168812453747,-0.002573543693870306,-0.001592170214280486
1.7294956366204938e+18,0.0009483523899689317,0.000670072331558913,-0.0029810406267642975
1.729495636629494e+18,-0.003115636296570301,0.0007599687669426203,-0.0008308298420161009
1.7294956366384942e+18,-0.005154571961611509,0.004103507846593857,-0.00033638603053987026
1.7294956366474944e+18,-0.00044899212662130594,0.0008268257370218635,-0.0027616312727332115
1.7294956366594947e+18,0.001999037340283394,-0.002088700421154499,-0.0012204668018966913
1.7294956366684948e+18,0.004613796249032021,-0.0015023312298581004,-0.0015107167419046164
1.729495636677495e+18,0.003976819571107626,-0.004476459696888924,-0.002687969245016575
1.7294956366864952e+18,0.006350780837237835,-0.0056254141964018345,-0.0034964520018547773
1.7294956366954954e+18,0.0023747023660689592,-0.0027073698583990335,-0.0037018954753875732
1.7294956367044956e+18,0.0018997708102688193,-0.0010368304792791605,-0.000546096358448267
1.7294956367134958e+18,-0.0011161677539348602,-0.004514248576015234,-0.004824340343475342
1.729495636722496e+18,0.00032095087226480246,-0.0013297335244715214,-0.0021278252825140953
1.7294956367314962e+18,0.0030117256101220846,-0.004526675213128328,-0.0052402084693312645
1.7294956367404964e+18,-0.0012382795102894306,-0.0056897797621786594,-0.0029998268000781536
1.7294956367494966e+18,0.0030825368594378233,-0.004328850656747818,-0.002142274519428611
1.7294956367584968e+18,0.0030125705525279045,-0.0035541593097150326,-0.00023413030430674553
1.729495636767497e+18,0.0008932140190154314,-0.0034774579107761383,-0.0020775566808879375
1.7294956367764972e+18,-0.0008989556226879358,0.000394357368350029,-0.0035343761555850506
1.7294956367854973e+18,2.271390985697508e-05,-0.006059562787413597,-0.0018548169173300266
1.7294956367944975e+18,-0.0019206551369279623,-0.005167756695300341,-0.0005140180001035333
1.7294956368004977e+18,-0.0025836569257080555,-0.0025308728218078613,-0.002412018133327365
1.7294956368094979e+18,0.003092461731284857,-0.00674465112388134,-0.00046113261487334967
1.729495636818498e+18,-0.0021630036644637585,-0.006698320619761944,-0.0012467594351619482
1.7294956368274982e+18,0.003014743560925126,-0.0061598895117640495,-0.001615142566151917
1.7294956368364984e+18,0.003254861803725362,-0.007907223887741566,-0.0008099019760265946
1.7294956368454986e+18,0.001062195748090744,-0.007452438119798899,-0.0015598428435623646
1.7294956368544988e+18,-0.002964284271001816,-0.010470962151885033,-0.003322853473946452
1.729495636863499e+18,-0.002125786617398262,-0.008030303753912449,-0.0001421222696080804
1.7294956368724992e+18,-0.0029190247878432274,-0.006241939030587673,-0.001237911987118423
1.7294956368814994e+18,-0.0009374350192956626,-0.00701212277635932,0.0009054229594767094
1.7294956368904996e+18,0.002351379720494151,-0.00494857132434845,-0.00173072493635118
1.7294956368994998e+18,0.00934283621609211,-0.009309671819210052,-0.000256915926001966
1.7294956369115e+18,0.006232914049178362,-0.010701525025069714,-0.0003251034941058606
1.7294956369205002e+18,0.0040633766911923885,-0.008568031713366508,0.0002823998802341521
1.7294956369265004e+18,-0.00044618069659918547,-0.010475794784724712,-0.0012660687789320946
1.7294956369355005e+18,0.00020110281184315681,-0.003002446610480547,-0.002086997963488102
1.7294956369475008e+18,-0.00010575988562777638,-0.004542871844023466,0.0011971829226240516
1.729495636956501e+18,0.0004227277240715921,-0.00910742674022913,0.0005066259764134884
1.7294956369655012e+18,0.0016561911907047033,-0.008372350595891476,0.004268277902156115
1.7294956369745014e+18,-0.0005211159586906433,-0.01103012915700674,0.001885518548078835
1.7294956369835016e+18,-0.0009151630220003426,-0.011696072295308113,-0.0017406765837222338
1.7294956369925018e+18,-0.004239535424858332,-0.014051876962184906,-0.0003205231623724103
1.729495637001502e+18,-0.0033670200500637293,-0.013302791863679886,0.001154258381575346
1.7294956370105021e+18,-0.004170958884060383,-0.012990687042474747,-0.0004955634358339012
1.7294956370165023e+18,-0.0004843368660658598,-0.00809546746313572,0.0007991602760739625
1.7294956370255025e+18,0.000953675655182451,-0.009419014677405357,0.001244331942871213
1.7294956370345027e+18,-0.000797031621914357,-0.010083680972456932,0.0004172908957116306
1.7294956370435028e+18,-0.001651080558076501,-0.01424386166036129,0.0003700436791405082
1.729495637052503e+18,-0.0011424608528614044,-0.012318819761276245,-0.0013475677696987987
1.7294956370615032e+18,-0.0033545000478625298,-0.014265874400734901,0.0002697136369533837
1.7294956370705034e+18,-0.0017573741497471929,-0.0080858264118433,-0.0002933381183538586
1.7294956370765036e+18,-0.001230883877724409,-0.009271347895264626,0.00010346579801989719
1.7294956370855037e+18,0.0007611801265738904,-0.010504370555281639,-0.002034279750660062
1.729495637094504e+18,0.0010743607999756932,-0.008105156943202019,-0.0016686737071722746
1.7294956371035041e+18,-0.000602681771852076,-0.00960670318454504,0.0010570695158094168
1.7294956371095043e+18,-0.0017323554493486881,-0.011580937542021275,-0.0006336484220810235
1.7294956371185044e+18,-0.003497140482068062,-0.013156275264918804,9.908499487210065e-05
1.7294956371275046e+18,-0.002129525877535343,-0.012763972394168377,-0.0014636674895882607
1.7294956371365048e+18,-0.0011920586694031954,-0.013294280506670475,-0.0004823174385819584
1.729495637142505e+18,-0.00188345683272928,-0.010053375735878944,0.0003415108658373356
1.7294956371515052e+18,0.0017398271011188626,-0.01091162022203207,-0.001252124784514308
1.7294956371605053e+18,0.0018745838897302747,-0.011278501711785793,2.2164022084325552e-05
1.7294956371695055e+18,0.004307243973016739,-0.011947067454457283,-0.0015358830569311976
1.7294956371755057e+18,0.004522047936916351,-0.01106963213533163,-0.001737527665682137
1.7294956371845059e+18,0.0010313920211046934,-0.012302231974899769,-0.0008376033511012793
1.729495637193506e+18,-0.001247235806658864,-0.012246306985616684,0.00037135506863705814
1.7294956372025062e+18,-0.001679898239672184,-0.01196066103875637,-0.0029143469873815775
1.7294956372115064e+18,-0.0007884938968345523,-0.008602953515946865,0.003337997244670987
1.7294956372205066e+18,-0.0011949462350457907,-0.009740167297422886,-0.0013126012636348605
1.7294956372295068e+18,0.006997520569711924,-0.009729374200105667,0.0004829330719076097
1.729495637238507e+18,0.0088370181620121,-0.012342900037765503,0.0023411582224071026
1.7294956372475072e+18,0.006550065241754055,-0.008305313065648079,-0.001307429512962699
1.7294956372535073e+18,0.004804231692105532,-0.01016575563699007,-0.0009671138832345605
1.7294956372625075e+18,0.005016805604100227,-0.00911547988653183,0.0006714416667819023
1.7294956372715077e+18,-0.0011698659509420395,-0.011027724482119083,-0.0033786434214562178
1.729495637280508e+18,-0.0010380033636465669,-0.015693632885813713,-0.0011496110819280148
1.729495637289508e+18,-0.000661702360957861,-0.013675461523234844,0.0007814316777512431
1.7294956372955082e+18,-0.0021086661145091057,-0.015545427799224854,0.00298954825848341
1.7294956373045084e+18,-0.003524946514517069,-0.011329283937811852,0.00021133027621544898
1.7294956373135086e+18,-0.0011461596004664898,-0.011189932934939861,0.0023657744750380516
1.7294956373225088e+18,2.191320527344942e-05,-0.00871138833463192,-0.0002972674265038222
1.729495637331509e+18,-0.0022481230553239584,-0.011845388449728489,0.00046076206490397453
1.7294956373405092e+18,-0.0032886844128370285,-0.012371120974421501,0.00022026711667422205
1.7294956373495094e+18,-0.0034592398442327976,-0.008501151576638222,-0.0005387482815422118
1.7294956373555095e+18,-0.0021370293106883764,-0.010164192877709866,0.0004887105897068977
1.7294956373645097e+18,-0.0047143432311713696,-0.008717660792171955,-0.0006666656117886305
1.72949563737351e+18,-0.0007267430191859603,-0.01082300953567028,0.0002382383099757135
1.72949563738251e+18,-0.0005634003318846226,-0.013473836705088615,1.3924756785854697e-05
1.7294956373915103e+18,-0.0019439178286120296,-0.017519934102892876,0.004614508710801601
1.7294956374005105e+18,-0.00494101457297802,-0.012469032779335976,0.0010504734236747026
1.7294956374065106e+18,-0.002175757195800543,-0.013397524133324623,-0.00013957252667751163
1.7294956374155108e+18,-0.00185370072722435,-0.011302360333502293,0.0027922859881073236
1.729495637424511e+18,-0.003784928238019347,-0.013013199903070927,0.0011501079425215721
1.7294956374335112e+18,-0.0008199638104997575,-0.00971277803182602,-0.00014689003000967205
1.7294956374425114e+18,-0.0027272733859717846,-0.006782757584005594,-0.002141405362635851
1.7294956374485115e+18,-0.0020452626049518585,-0.012022318318486214,0.0018522831378504634
1.7294956374575117e+18,-0.002237215405330062,-0.01052563451230526,0.0011562819126993418
1.729495637466512e+18,-0.0005946226883679628,-0.01178149413317442,0.01144322007894516
1.729495637475512e+18,0.004463635850697756,-0.011760727502405643,0.006095752120018005
1.7294956374815122e+18,0.010595234110951424,-0.010291441343724728,-0.008446960709989071
1.7294956374905124e+18,0.017595306038856506,-0.005376518703997135,-0.016331367194652557
1.7294956374995126e+18,0.01484215259552002,-0.008356633596122265,-0.018138064071536064
1.7294956375085128e+18,0.017687559127807617,-0.006893180310726166,-0.01899809204041958
1.729495637517513e+18,0.014473634772002697,-0.008611731231212616,-0.019909122958779335
1.729495637523513e+18,0.010892607271671295,-0.008903677575290203,-0.019918283447623253
1.7294956375325133e+18,0.006170346867293119,-0.010328400880098343,-0.021945064887404442
1.7294956375415135e+18,0.004126360174268484,-0.01131117157638073,-0.02130529098212719
1.7294956375505137e+18,0.008800174109637737,-0.009800451807677746,-0.021712541580200195
1.7294956375595139e+18,0.01196662150323391,-0.0060508837923407555,-0.01842941716313362
1.729495637568514e+18,0.011240948922932148,-0.010803768411278725,-0.01662358082830906
1.7294956375745142e+18,0.011208045296370983,-0.01144373044371605,-0.018446478992700577
1.7294956375835144e+18,0.009042493999004364,-0.010488891042768955,-0.01903388649225235
1.7294956375895145e+18,0.010062357410788536,-0.010584142990410328,-0.016862282529473305
1.7294956375985147e+18,0.00421058339998126,-0.009821816347539425,-0.014985427260398865
1.729495637607515e+18,0.0009340257965959609,-0.007852170616388321,-0.012997718527913094
1.729495637616515e+18,0.003217024728655815,-0.009804566390812397,-0.010170315392315388
1.7294956376255153e+18,0.004401788115501404,-0.015117142349481583,-0.012426970526576042
1.7294956376345155e+18,0.0006409636698663235,-0.013605918735265732,-0.008293422870337963
1.7294956376405156e+18,0.0022062137722969055,-0.010725095868110657,-0.004645346663892269
1.7294956376495158e+18,0.0034281243570148945,-0.00799220334738493,-0.009306589141488075
1.729495637658516e+18,0.0002765323733910918,-0.011821114458143711,-0.003343511139973998
1.7294956376675162e+18,-0.0003275827330071479,-0.006814809516072273,-0.0005614388501271605
1.7294956376765164e+18,-0.0013123765820637345,-0.011266014538705349,0.0022552546579390764
1.7294956376855165e+18,-0.004359642043709755,-0.012190289795398712,0.0015931572997942567
1.7294956376945167e+18,-0.006091453600674868,-0.010471348650753498,0.00503523088991642
1.7294956377005169e+18,-0.006419650744646788,-0.010895956307649612,0.006100807338953018
1.729495637712517e+18,-0.004122643265873194,-0.013067765161395073,0.010633174329996109
1.7294956377215173e+18,-0.0058960821479558945,-0.012828036211431026,0.012113737873733044
1.7294956377305175e+18,-0.0038059891667217016,-0.01066944096237421,0.011466825380921364
1.7294956377395177e+18,-0.0013960013166069984,-0.012998507358133793,0.018009459599852562
1.7294956377455178e+18,-0.003933156840503216,-0.013279950246214867,0.017554938793182373
1.729495637754518e+18,-0.0007292265072464943,-0.013103216886520386,0.021525025367736816
1.7294956377635182e+18,-0.005846407264471054,-0.017677731812000275,0.020487353205680847
1.7294956377725184e+18,0.0003568721003830433,-0.014062647707760334,0.022079510614275932
1.7294956377815186e+18,-0.0020246694330126047,-0.013888473622500896,0.021228820085525513
1.7294956377905188e+18,-0.0001836046576499939,-0.011041602119803429,0.029931314289569855
1.729495637799519e+18,-0.0029536522924900055,-0.013200809247791767,0.03074711002409458
1.7294956378085192e+18,-0.0009640077478252351,-0.00920735765248537,0.03265364468097687
1.7294956378175194e+18,0.0007681082934141159,-0.012250269763171673,0.03373965620994568
1.7294956378265196e+18,-0.0028086253441870213,-0.00958232395350933,0.032543450593948364
1.7294956378355197e+18,-0.001228852546773851,-0.011282115243375301,0.03578608110547066
1.72949563784452e+18,-0.0010119767393916845,-0.014840271323919296,0.03685799986124039
1.72949563785052e+18,0.0008509943727403879,-0.009705583564937115,0.036273159086704254
1.7294956378595203e+18,-0.0015700289513915777,-0.014133395627140999,0.03720324859023094
1.7294956378685204e+18,0.0003808604087680578,-0.014098288491368294,0.03849424421787262
1.7294956378775206e+18,-0.0016119115753099322,-0.011604555882513523,0.03684530407190323
1.7294956378865208e+18,0.001149182440713048,-0.010310687124729156,0.04126371443271637
1.729495637895521e+18,-0.002066001994535327,-0.00893374066799879,0.043206837028265
1.7294956379015212e+18,-0.0036940989084541798,-0.0089413458481431,0.04314527288079262
1.7294956379105213e+18,-0.0034954799339175224,-0.007779314648360014,0.04420534893870354
1.7294956379195215e+18,-2.951035276055336e-05,-0.011307972483336926,0.045069821178913116
1.7294956379285217e+18,0.00039048201870173216,-0.011891178786754608,0.043005235493183136
1.7294956379345219e+18,-0.0008880789391696453,-0.011888237670063972,0.046954602003097534
1.729495637943522e+18,0.0002976539544761181,-0.01482310239225626,0.04425603896379471
1.7294956379525222e+18,0.0011463328264653683,-0.010664571076631546,0.044126350432634354
1.7294956379615224e+18,0.000574396806769073,-0.008715253323316574,0.04594797268509865
1.7294956379705226e+18,-0.0004457001341506839,-0.006444253958761692,0.04669678211212158
1.7294956379765228e+18,-0.004224060103297234,-0.009289276786148548,0.04452859237790108
1.729495637985523e+18,-0.005277572199702263,-0.009166720323264599,0.04479929059743881
1.7294956379945231e+18,-0.005452989600598812,-0.00773518206551671,0.0436619408428669
1.7294956380035233e+18,-0.0023894766345620155,-0.011239904910326004,0.04476040601730347
1.7294956380125235e+18,0.001006330014206469,-0.010194184258580208,0.04655591398477554
1.7294956380215237e+18,-0.0023177932016551495,-0.009647599421441555,0.04497832804918289
1.7294956380275238e+18,-0.002580902073532343,-0.008451076224446297,0.047696951776742935
1.729495638036524e+18,-0.003027023049071431,-0.007787991315126419,0.047668881714344025
1.7294956380455242e+18,-0.0049226959235966206,-0.010510396212339401,0.04679596796631813
1.7294956380545244e+18,-0.0031588952988386154,-0.007418050430715084,0.0432504378259182
1.7294956380635246e+18,-0.001221420825459063,-0.010600029490888119,0.04416227713227272
1.7294956380695247e+18,-0.0006773854256607592,-0.0124669149518013,0.04585810378193855
1.729495638078525e+18,0.0013055603485554457,-0.009261338040232658,0.04636877402663231
1.729495638087525e+18,0.0030776257626712322,-0.010388623923063278,0.04678524658083916
1.7294956380965253e+18,0.004941320046782494,-0.015112857334315777,0.04315916448831558
1.7294956381055255e+18,-0.0018406449817121029,-0.010803586803376675,0.04560516029596329
1.7294956381115256e+18,-0.003747259732335806,-0.015344750136137009,0.04278272017836571
1.7294956381205258e+18,-0.002249391283839941,-0.010014168918132782,0.04563714191317558
1.729495638129526e+18,0.0006978748133406043,-0.008136983029544353,0.04946092143654823
1.7294956381385262e+18,-0.0017066816799342632,-0.010816069319844246,0.04559844732284546
1.7294956381445263e+18,0.0016856187721714377,-0.011540979146957397,0.04149708151817322
1.7294956381535265e+18,0.0022953457664698362,-0.011143011972308159,0.0443296916782856
1.7294956381625267e+18,0.0009501304011791945,-0.009925413876771927,0.044939443469047546
1.7294956381685268e+18,-0.0010330772493034601,-0.01303913351148367,0.042512379586696625
1.729495638177527e+18,-0.0021832436323165894,-0.008753863163292408,0.04542212560772896
1.7294956381865272e+18,-0.0019473577849566936,-0.008322739973664284,0.04610510915517807
1.7294956381955274e+18,-0.0012990381801500916,-0.008314968086779118,0.045240581035614014
1.7294956382045276e+18,0.001947350800037384,-0.009513884782791138,0.04417458921670914
1.7294956382135278e+18,0.0016538379713892937,-0.014986053109169006,0.04471868276596069
1.729495638219528e+18,0.0016578225186094642,-0.011816387996077538,0.04249453544616699
1.729495638228528e+18,-0.0012358316453173757,-0.0155402896925807,0.04231109842658043
1.7294956382405284e+18,-0.0024320038501173258,-0.012978184968233109,0.04115046188235283
1.7294956382495286e+18,-0.005716367159038782,-0.012080605141818523,0.04443635791540146
1.7294956382585288e+18,-0.006565567571669817,-0.012099608778953552,0.04648084565997124
1.729495638267529e+18,-0.004081419203430414,-0.006542399991303682,0.04669857770204544
1.729495638273529e+18,-0.003906734753400087,-0.012660020031034946,0.04585294798016548
1.7294956382825293e+18,0.001192381139844656,-0.014113672077655792,0.04439408704638481
1.7294956382915295e+18,-0.0009505938505753875,-0.010458419099450111,0.046381980180740356
1.7294956383005297e+18,0.0012294044718146324,-0.012022254057228565,0.04523017257452011
1.7294956383095299e+18,-0.001318811671808362,-0.010377482511103153,0.04263634234666824
1.72949563831853e+18,-0.00792023353278637,-0.008660976774990559,0.04196508973836899
1.7294956383245302e+18,-0.007204973604530096,-0.011780312284827232,0.043225232511758804
1.7294956383335304e+18,-0.004932844545692205,-0.010475176386535168,0.04389175400137901
1.7294956383425306e+18,-0.002193642081692815,-0.007263864390552044,0.0421995148062706
1.7294956383485307e+18,-0.0029793516732752323,-0.010015791282057762,0.0488012321293354
1.729495638357531e+18,-0.0023230717051774263,-0.010765071958303452,0.04662351682782173
1.729495638366531e+18,-0.0035478761419653893,-0.011076455935835838,0.04582218453288078
1.7294956383755313e+18,-0.007538400124758482,-0.011401759460568428,0.04714237526059151
1.7294956383845315e+18,-0.006029857322573662,-0.012801943346858025,0.04890114441514015
1.7294956383935316e+18,-0.009205709211528301,-0.010822462849318981,0.04792986065149307
1.7294956383995318e+18,-0.010400231927633286,-0.010550471022725105,0.05004025250673294
1.729495638408532e+18,-0.009274273179471493,-0.010191403329372406,0.05176929011940956
1.7294956384175322e+18,-0.007945380173623562,-0.006761488039046526,0.050585102289915085
1.7294956384265324e+18,-0.0008411433082073927,-0.010685202665627003,0.04958724230527878
1.7294956384325325e+18,-0.004198797047138214,-0.010336135514080524,0.048382822424173355
1.7294956384415327e+18,-0.004056109115481377,-0.010508831590414047,0.05308067798614502
1.7294956384505329e+18,-0.0025666048750281334,-0.012762042693793774,0.05299946293234825
1.729495638456533e+18,-0.0018116588471457362,-0.011636961251497269,0.05386635661125183
1.7294956384655332e+18,-0.006144586484879255,-0.013513018377125263,0.056020524352788925
1.7294956384745334e+18,-0.005046285688877106,-0.009345435537397861,0.055735133588314056
1.7294956384835336e+18,-0.007647484540939331,-0.009057058952748775,0.05420215055346489
1.7294956384925338e+18,-0.006568548269569874,-0.01105538196861744,0.055388085544109344
1.729495638498534e+18,-0.00268233148381114,-0.010840270668268204,0.06011065095663071
1.729495638507534e+18,-0.0018729324219748378,-0.008962036110460758,0.05879345163702965
1.7294956385165343e+18,0.0006394389783963561,-0.008528618142008781,0.059453852474689484
1.7294956385255345e+18,-0.0021843835711479187,-0.008865525014698505,0.0640663430094719
1.7294956385345347e+18,-0.001365517033264041,-0.008908407762646675,0.06188049167394638
1.7294956385405348e+18,-0.0024883809965103865,-0.008429376408457756,0.062291208654642105
1.729495638549535e+18,-0.0021170666441321373,-0.007468276657164097,0.06499570608139038
1.729495638555535e+18,-0.006704762578010559,-0.004115155898034573,0.06391167640686035
1.7294956385645353e+18,-0.003957812208682299,-0.004872084129601717,0.06566228717565536
1.7294956385735355e+18,-0.0027366764843463898,-0.0038934999611228704,0.06451649963855743
1.7294956385825357e+18,0.001104617491364479,-0.013293394818902016,0.06604132056236267
1.7294956385885358e+18,0.0069763800129294395,-0.012227460741996765,0.06770592927932739
1.729495638597536e+18,0.009283993393182755,-0.024143129587173462,0.06406033039093018
1.7294956386065362e+18,0.009678836911916733,-0.028712710365653038,0.06449510902166367
1.7294956386155364e+18,0.01260401587933302,-0.02776913158595562,0.06334064155817032
1.7294956386215365e+18,0.008323871530592442,-0.033389464020729065,0.06408879905939102
1.7294956386305367e+18,0.008847011253237724,-0.03167278692126274,0.05948363617062569
1.729495638639537e+18,0.006441562902182341,-0.034250613301992416,0.057712480425834656
1.729495638648537e+18,0.0068216389045119286,-0.03183582052588463,0.059668704867362976
1.7294956386575373e+18,0.007184881716966629,-0.03311866149306297,0.05719510465860367
1.7294956386635374e+18,0.005734238773584366,-0.035501692444086075,0.056559450924396515
1.7294956386755377e+18,0.00872765015810728,-0.04077519476413727,0.056724630296230316
1.7294956386815378e+18,0.009991067461669445,-0.04041185602545738,0.05596251040697098
1.729495638690538e+18,0.009203864261507988,-0.03935094177722931,0.0516570545732975
1.7294956387025382e+18,0.005748653318732977,-0.03868565708398819,0.05100683122873306
1.7294956387085384e+18,0.005705724935978651,-0.03814840316772461,0.05259929969906807
1.7294956387205386e+18,0.00995536521077156,-0.037534307688474655,0.04961240664124489
1.7294956387265388e+18,0.009733332321047783,-0.03348178416490555,0.05154218524694443
1.729495638735539e+18,0.011835554614663124,-0.030670499429106712,0.04655440151691437
1.7294956387445391e+18,0.011621038429439068,-0.030009273439645767,0.045306358486413956
1.7294956387535393e+18,0.00877760536968708,-0.03153925761580467,0.046786390244960785
1.7294956387625395e+18,0.006551985628902912,-0.028821775689721107,0.04496167227625847
1.7294956387685396e+18,0.00639642309397459,-0.024404630064964294,0.04593467712402344
1.7294956387775398e+18,0.002820444293320179,-0.02558416873216629,0.0448872372508049
1.72949563878654e+18,0.004745251499116421,-0.025633811950683594,0.039514798671007156
1.7294956387955402e+18,0.0055097853764891624,-0.026116184890270233,0.040491342544555664
1.7294956388045404e+18,0.002517650369554758,-0.023018470034003258,0.03968252241611481
1.7294956388135406e+18,0.0034976182505488396,-0.02085321955382824,0.03951651602983475
1.7294956388225408e+18,0.002621706109493971,-0.018181966617703438,0.03893980383872986
1.729495638831541e+18,0.0028705981094390154,-0.017647501081228256,0.035585783421993256
1.7294956388405412e+18,0.003078293986618519,-0.014852821826934814,0.03783984109759331
1.7294956388525414e+18,0.0011160476133227348,-0.018748179078102112,0.03714977204799652
1.7294956388615416e+18,-0.0004495641915127635,-0.01871936395764351,0.03553750738501549
1.7294956388705418e+18,0.002451932756230235,-0.015824535861611366,0.0340951569378376
1.729495638882542e+18,0.004233077168464661,-0.013184642419219017,0.03526444360613823
1.7294956388885422e+18,-0.0005016376962885261,-0.009107233956456184,0.030824139714241028
1.7294956388975424e+18,0.0004131707828491926,-0.009748654440045357,0.03285510838031769
1.7294956389065426e+18,0.00021982507314532995,-0.00618144404143095,0.03087531588971615
1.7294956389125427e+18,-0.002209974452853203,-0.010429768823087215,0.0330510213971138
1.729495638921543e+18,-0.0006675793556496501,-0.006749715190380812,0.02697806805372238
1.729495638930543e+18,-0.0023317858576774597,-0.00648646242916584,0.028437267988920212
1.7294956389395433e+18,0.002879028907045722,-0.005032046232372522,0.02934405580163002
1.7294956389455434e+18,0.0015207718824967742,-0.005553171504288912,0.02706177718937397
1.7294956389575437e+18,0.0009907337371259928,-0.004028415773063898,0.02921154350042343
1.7294956389635438e+18,-0.0006883485475555062,-0.0031665859278291464,0.025899522006511688
1.729495638972544e+18,-0.002905346220359206,-0.008107077330350876,0.025968603789806366
1.7294956389815442e+18,-0.0019598095677793026,-0.0007961395895108581,0.028723938390612602
1.7294956389905444e+18,-0.001525106024928391,0.0012331223115324974,0.02679845504462719
1.7294956389965445e+18,-0.004840724170207977,-0.0017074141651391983,0.0264631025493145
1.7294956390055447e+18,-0.0017222908791154623,0.0017693463014438748,0.025956464931368828
1.729495639014545e+18,-0.0003058103611692786,0.005129771772772074,0.02438322827219963
1.729495639020545e+18,-0.004159577190876007,0.0049256207421422005,0.0217482578009367
1.7294956390295452e+18,-0.0021244699601083994,0.0035639144480228424,0.021153559908270836
1.7294956390385454e+18,-0.0018655675230547786,0.0009291222086176276,0.02297789417207241
1.7294956390475456e+18,-0.0038793091662228107,0.0006401999853551388,0.022545740008354187
1.7294956390565458e+18,-0.00406965846195817,0.00044349973904900253,0.023843111470341682
1.729495639065546e+18,-0.00582313584163785,0.0027657572645694017,0.01892120949923992
1.729495639071546e+18,-0.002783403266221285,0.001127938972786069,0.02237924560904503
1.7294956390805463e+18,-0.005021137651056051,0.0041557117365300655,0.01971123367547989
1.7294956390895465e+18,-0.005091504659503698,0.006106136832386255,0.01800173707306385
1.7294956390955466e+18,-0.0029694235417991877,0.004369538277387619,0.018702544271945953
1.7294956391045468e+18,-0.0012048085918650031,0.005653335712850094,0.019435539841651917
1.729495639113547e+18,-0.0007343331817537546,0.0011354817543178797,0.019230520352721214
1.7294956391195471e+18,-0.0023794895969331264,0.005364791955798864,0.016911141574382782
1.7294956391285473e+18,-0.003608020255342126,0.0024088099598884583,0.02038518898189068
1.7294956391375475e+18,-0.006565552204847336,0.005178515799343586,0.01947634667158127
1.7294956391465477e+18,-0.005362708121538162,0.0022045427467674017,0.01802298054099083
1.7294956391525478e+18,-0.00444986205548048,0.006177333649247885,0.01640443690121174
1.729495639161548e+18,-0.000747273035813123,0.009170465171337128,0.014638115651905537
1.7294956391705482e+18,0.0008214069530367851,0.006310182623565197,0.015901150181889534
1.7294956391765484e+18,0.0024956921115517616,0.00538466963917017,0.01607636921107769
1.7294956391855485e+18,0.00195544445887208,0.005955919623374939,0.014862962998449802
1.7294956391945487e+18,-0.0007942118681967258,0.005221736617386341,0.014619706198573112
1.7294956392005489e+18,-0.003713390324264765,0.004434953443706036,0.013212226331233978
1.729495639209549e+18,-0.008512777276337147,0.004911065101623535,0.013178086839616299
1.7294956392185492e+18,-0.004108162131160498,0.007370787672698498,0.011137329041957855
1.7294956392305495e+18,-0.0028636527713388205,0.007969288155436516,0.014579100534319878
1.7294956392365496e+18,0.002937155310064554,0.00843006931245327,0.014222475700080395
1.7294956392455498e+18,0.003864874131977558,0.006338073406368494,0.012384060770273209
1.72949563925455e+18,0.001147647388279438,0.008349568583071232,0.011293507181107998
1.7294956392635502e+18,-0.0010276195826008916,0.004823213443160057,0.013203691691160202
1.7294956392695503e+18,-0.0007083346717990935,0.0052018603309988976,0.010459785349667072
1.7294956392785505e+18,-0.0026717332657426596,0.00568302720785141,0.009734666906297207
1.7294956392875507e+18,-0.006918834522366524,0.006752605549991131,0.01043185405433178
1.7294956392935508e+18,-0.002975953510031104,0.009492101147770882,0.009895125404000282
1.729495639302551e+18,-0.0008936712983995676,0.011104953475296497,0.010365859605371952
1.7294956393115512e+18,0.0016925102099776268,0.01073489896953106,0.01134687103331089
1.7294956393205514e+18,0.003781047882512212,0.009907222352921963,0.010574757121503353
1.7294956393295516e+18,0.003909650258719921,0.010378209874033928,0.008693579584360123
1.7294956393355517e+18,-0.0008638652507215738,0.011191442608833313,0.009305639192461967
1.729495639344552e+18,-0.0021756943315267563,0.011523342691361904,0.007386908400803804
1.7294956393535521e+18,-0.0040486957877874374,0.011215165257453918,0.006673755124211311
1.7294956393655524e+18,-0.006109409965574741,0.010461248457431793,0.00851619616150856
1.7294956393745526e+18,-0.0032706300262361765,0.010387665592133999,0.009825292974710464
1.7294956393805527e+18,0.0005334708839654922,0.011149346828460693,0.00889839231967926
1.729495639389553e+18,0.0007779803709127009,0.012919549830257893,0.008959525264799595
1.729495639398553e+18,0.00028083386132493615,0.011451813392341137,0.00812970008701086
1.7294956394075533e+18,0.0023975465446710587,0.012144580483436584,0.003957435488700867
1.7294956394165535e+18,-0.005700881592929363,0.014173571951687336,0.007020861841738224
1.7294956394225536e+18,-0.005749732255935669,0.01355808973312378,0.008918501436710358
1.7294956394315538e+18,-0.002345040440559387,0.01637975685298443,0.006715775467455387
1.729495639440554e+18,-0.001135183498263359,0.012635321356356144,0.0062422920018434525
1.7294956394495542e+18,0.0005938506801612675,0.016380760818719864,0.005565789062529802
1.7294956394585544e+18,0.0028703520074486732,0.012117213569581509,0.006132579408586025
1.7294956394675546e+18,0.004737852606922388,0.011443285271525383,0.003928556106984615
1.7294956394735547e+18,0.006832091603428125,0.01021827757358551,0.006429450586438179
1.729495639482555e+18,0.001827523810788989,0.01656588353216648,0.003990767057985067
1.729495639491555e+18,0.0023074494674801826,0.013411853462457657,0.003224922576919198
1.7294956395005553e+18,-0.002097042975947261,0.01861056685447693,0.0034937895834445953
1.7294956395065554e+18,-0.0014198891585692763,0.015722084790468216,0.007843988947570324
1.7294956395155556e+18,-0.0005659731687046587,0.014125827699899673,0.0016857569571584463
1.7294956395245558e+18,0.0011857885401695967,0.014093528501689434,0.003972801845520735
1.729495639533556e+18,0.003835897194221616,0.009652648121118546,0.0023783580400049686
1.7294956395425562e+18,0.0015889136120676994,0.015557687729597092,0.005214582197368145
1.7294956395485563e+18,0.002182320225983858,0.014147346839308739,0.005926304031163454
1.7294956395605565e+18,0.0006216088659130037,0.010961325839161873,0.005343316122889519
1.7294956395665567e+18,-0.0023128273896872997,0.01330053061246872,0.005528220906853676
1.7294956395755569e+18,-0.0012567578814923763,0.013472423888742924,0.0028266673907637596
1.729495639584557e+18,0.002333617303520441,0.01120694074779749,0.0029615084640681744
1.7294956395935572e+18,0.0014325573574751616,0.013948564417660236,0.0019465447403490543
1.7294956395995574e+18,-0.00011820526560768485,0.012602307833731174,-3.515579737722874e-05
1.7294956396085576e+18,-0.0012308533769100904,0.012726837769150734,0.001293644541874528
1.7294956396175578e+18,0.0005955329979769886,0.013432679697871208,0.002322097774595022
1.729495639626558e+18,-0.0005665294011123478,0.010776585899293423,0.002505035838112235
1.7294956396355581e+18,-0.002631386974826455,0.010794783011078835,0.002183138392865658
1.7294956396445583e+18,-0.002222155686467886,0.012074160389602184,0.0034917835146188736
1.7294956396535585e+18,-0.0009503307519480586,0.014227691106498241,0.004274153150618076
1.7294956396625587e+18,-0.0016221300465986133,0.012142866849899292,0.0046880776062607765
1.729495639671559e+18,-0.00048066023737192154,0.01595090702176094,0.0011664454359561205
1.729495639680559e+18,-0.0011090257903560996,0.014343373477458954,-0.0024423166178166866
1.7294956396895593e+18,0.00226697139441967,0.018277088180184364,0.00014415360055863857
1.7294956396985595e+18,0.000250807439442724,0.015088585205376148,0.0013592533068731427
1.7294956397075597e+18,-0.0007317567942664027,0.012028267607092857,0.0011899088276550174
1.72949563971656e+18,-0.00707065686583519,0.012063058093190193,0.0015985501231625676
1.72949563972856e+18,-0.0023505385033786297,0.012103935703635216,0.000605730339884758
1.7294956397375603e+18,0.00042098978883586824,0.015078139491379261,0.002637001220136881
1.7294956397465605e+18,0.004015601240098476,0.014169195666909218,0.0004786811477970332
1.7294956397555607e+18,0.003915582783520222,0.020132670179009438,0.0019209261517971754
1.729495639764561e+18,5.5464799515902996e-05,0.019816681742668152,0.00037137404433451593
1.729495639773561e+18,-0.004005257040262222,0.021059775725007057,0.0012276370543986559
1.7294956397825613e+18,-0.0010604385752230883,0.01851794868707657,0.0014580396236851811
1.7294956397885614e+18,-0.0006546929362230003,0.017179399728775024,-0.000446063291747123
1.7294956397975616e+18,0.002385991159826517,0.018717866390943527,0.0008954097284004092
1.7294956398065618e+18,0.001524667488411069,0.019220581278204918,0.0016621998511254787
1.729495639812562e+18,0.004374271724373102,0.019524475559592247,0.0024783092085272074
1.729495639821562e+18,0.0019200483802706003,0.02093399316072464,-0.00013220547407399863
1.7294956398305623e+18,0.0038477168418467045,0.019168362021446228,-0.00042045346344821155
1.7294956398395625e+18,0.0010837644804269075,0.01765865460038185,-0.0006485586054623127
1.7294956398485627e+18,-0.00040026206988841295,0.016630923375487328,0.0009140924667008221
1.729495639857563e+18,0.001407286967150867,0.015919845551252365,-7.349078077822924e-05
1.7294956398695631e+18,0.002860770560801029,0.017706183716654778,0.0010725922184064984
1.7294956398815634e+18,0.0012849487829953432,0.017751485109329224,-0.0022674668580293655
1.7294956398875635e+18,-0.0001638707472011447,0.016478680074214935,0.0004961804952472448
1.7294956398965637e+18,0.0021652623545378447,0.01650545373558998,-0.0006426369654946029
1.729495639905564e+18,0.00224965438246727,0.01727430522441864,-0.001757283229380846
1.729495639911564e+18,-0.0013571567833423615,0.017445679754018784,0.0020295321010053158
1.7294956399205642e+18,0.002091280883178115,0.018928801640868187,0.0006546177319251001
1.7294956399295644e+18,-0.0020345381926745176,0.018594060093164444,0.0024630441330373287
1.7294956399355645e+18,0.0002687005908228457,0.018236270174384117,-0.0018081552116200328
1.7294956399445647e+18,0.002239007968455553,0.017874017357826233,0.00020213169045746326
1.729495639953565e+18,-0.000785849173553288,0.01829129084944725,0.002627244219183922
1.729495639962565e+18,-0.0025245663709938526,0.020156435668468475,0.0003313367487862706
1.7294956399715653e+18,0.0017905021086335182,0.017670592293143272,-0.0009034204995259643
1.7294956399805655e+18,5.821074591949582e-05,0.020110832527279854,-0.0037099530454725027
1.7294956399895657e+18,0.0022602216340601444,0.01671615242958069,-0.001307541853748262
1.7294956399955658e+18,0.0033717660699039698,0.018325284123420715,0.0019382868194952607
1.729495640004566e+18,0.0010791805107146502,0.019270222634077072,-0.0006960679311305285
1.7294956400135662e+18,0.0007699927664361894,0.01826499216258526,-0.0021687960252165794
1.7294956400195663e+18,-0.0024678558111190796,0.020355625078082085,-0.003405099269002676
1.7294956400285665e+18,-0.0013563382672145963,0.019524596631526947,0.0003809490008279681
1.7294956400375667e+18,0.00175641686655581,0.01669292338192463,-0.004102947190403938
1.729495640046567e+18,0.0027271092403680086,0.01807151921093464,-0.001109439181163907
1.729495640052567e+18,0.004010185599327087,0.01762000471353531,-0.002761785639449954
1.7294956400615672e+18,0.0058580487966537476,0.02176683396100998,-0.003961674869060516
1.7294956400705674e+18,0.004567959811538458,0.02214052528142929,-0.002776283537968993
1.7294956400795676e+18,0.0028311358764767647,0.01875990629196167,-0.0010035621235147119
1.7294956400885678e+18,0.001730182091705501,0.018135512247681618,-0.003950051963329315
1.729495640097568e+18,-0.0009629835840314627,0.016873521730303764,-0.001499098725616932
1.7294956401065682e+18,-6.222538650035858e-05,0.018642421811819077,-0.002353824209421873
1.7294956401155684e+18,0.004877232946455479,0.018962668254971504,-0.001235878560692072
1.7294956401215685e+18,0.006989830173552036,0.013979650102555752,0.002334288554266095
1.7294956401305687e+18,0.007133885286748409,0.014137436635792255,-0.002728348597884178
1.729495640139569e+18,0.006493203341960907,0.01463955920189619,-0.001492653856985271
1.729495640148569e+18,0.004430196713656187,0.014582037925720215,-0.0031609004363417625
1.7294956401575693e+18,0.004087263718247414,0.016312584280967712,-0.002877098973840475
1.7294956401635694e+18,0.002642468549311161,0.019042400643229485,-0.0038187983445823193
1.7294956401725696e+18,-0.0013169784797355533,0.016643013805150986,-0.000699117430485785
1.7294956401785697e+18,0.0014971712371334434,0.01721586287021637,-0.0005400078371167183
1.72949564018757e+18,0.0018659220077097416,0.017058562487363815,-0.0039117601700127125
1.72949564019657e+18,0.0009872815571725368,0.014579018577933311,-0.0047733597457408905
1.7294956402055703e+18,0.005815059412270784,0.014363884925842285,-0.003052355255931616
1.7294956402115704e+18,0.010395598597824574,0.017241403460502625,-0.0019189761951565742
1.7294956402205706e+18,0.0008774516172707081,0.01619698293507099,-0.0036903037689626217
1.7294956402295708e+18,0.0025697823148220778,0.02238217368721962,-0.0023823881056159735
1.729495640238571e+18,0.0018617635359987617,0.020981479436159134,-0.0028275109361857176
1.7294956402475712e+18,0.0010018890025094151,0.02027801424264908,-0.003854061011224985
1.7294956402535713e+18,0.0018850313499569893,0.017673872411251068,-0.004276802763342857
1.7294956402625715e+18,0.0036962428130209446,0.016347810626029968,-0.004968297202140093
1.7294956402715717e+18,0.004839817062020302,0.013014888390898705,-0.0027205103542655706
1.729495640280572e+18,0.007201536558568478,0.01420616079121828,-0.0013445570366457105
1.729495640289572e+18,-0.00101892976090312,0.017582552507519722,-0.0032909137662500143
1.7294956402985723e+18,0.003981304820626974,0.015392457135021687,-0.0041358317248523235
1.7294956403075725e+18,-0.0038051472511142492,0.016054552048444748,-0.003385296557098627
1.7294956403165727e+18,0.0019943525549024343,0.012198715470731258,-0.001470330054871738
1.7294956403255729e+18,0.0038113840855658054,0.012085438705980778,-0.0053701335564255714
1.729495640331573e+18,0.0020099589601159096,0.01224975474178791,-0.00026246090419590473
1.7294956403405732e+18,0.0022997113410383463,0.013657061383128166,-0.0014231681125238538
1.7294956403495734e+18,0.003022989258170128,0.012991508468985558,-0.004157281946390867
1.7294956403585736e+18,0.0022897152230143547,0.014565262012183666,-0.002464242745190859
1.7294956403675738e+18,0.00268725142814219,0.012334252707660198,-0.0041053760796785355
1.729495640376574e+18,0.004877844359725714,0.014186840504407883,-0.003012480679899454
1.729495640382574e+18,0.005412755534052849,0.016580598428845406,-0.002406495390459895
1.7294956403915743e+18,0.0063867042772471905,0.011643592268228531,-0.0017209394136443734
1.7294956404005745e+18,0.00064668501727283,0.014843733981251717,-0.002855775412172079
1.7294956404095747e+18,-0.001075375359505415,0.01683586649596691,-0.003785456996411085
1.7294956404185748e+18,-0.0008063985733315349,0.014845305122435093,-0.003024675650522113
1.729495640427575e+18,0.0013683618744835258,0.013958698138594627,-0.005150662735104561
1.7294956404365752e+18,0.0012296173954382539,0.011022554710507393,-0.004596641752868891
1.7294956404455754e+18,0.0036206459626555443,0.014462284743785858,-0.004533842206001282
1.7294956404545756e+18,0.004117284901440144,0.01398380845785141,-0.00501567218452692
1.729495640466576e+18,0.0028511846903711557,0.011217543855309486,-0.0033807740546762943
1.729495640475576e+18,0.00029970856849104166,0.011628778651356697,-0.004621972795575857
1.7294956404845763e+18,-0.0026913865003734827,0.013575362041592598,-0.004423188045620918
1.7294956404935764e+18,0.0010370769305154681,0.015597373247146606,-0.00262065720744431
1.7294956405025766e+18,0.0034186954144388437,0.013933313079178333,-0.004135570488870144
1.7294956405115768e+18,0.00407600961625576,0.013321144506335258,-0.0034140516072511673
1.729495640520577e+18,0.0031777473632246256,0.01725701242685318,-0.007031095214188099
1.7294956405295772e+18,0.005112882703542709,0.015914570540189743,-0.0027591329999268055
1.7294956405415775e+18,-8.774816524237394e-05,0.012239770032465458,-0.0031001439783722162
1.7294956405505777e+18,0.003122505731880665,0.01103594247251749,-0.006005225703120232
1.7294956405595779e+18,0.0017022623214870691,0.01434529572725296,-0.002259786007925868
1.729495640568578e+18,0.008640136569738388,0.014535343274474144,-0.005447030998766422
1.7294956405775782e+18,0.006937309168279171,0.01374595146626234,-0.002777838846668601
1.7294956405865784e+18,0.010695003904402256,0.014322335831820965,-0.0044734785333275795
1.7294956405955786e+18,0.006647587288171053,0.010720874182879925,-0.002403693273663521
1.7294956406045788e+18,0.003773024305701256,0.011043374426662922,-0.0027510791551321745
1.729495640613579e+18,0.002245875308290124,0.010654688812792301,-0.0007442161440849304
1.7294956406225792e+18,0.0016563236713409424,0.011653292924165726,-0.0021167362574487925
1.7294956406285793e+18,0.0027704460080713034,0.009291421622037888,-0.003695941064506769
1.7294956406375795e+18,0.00455999793484807,0.011053192429244518,-0.002675707684829831
1.7294956406465797e+18,0.004362144507467747,0.009394361637532711,-0.003736332291737199
1.72949564065558e+18,0.0033178802113980055,0.010569712147116661,-0.00027382769621908665
1.72949564066458e+18,0.0017447376158088446,0.008860819041728973,-0.001949439523741603
1.7294956406705802e+18,0.0020159815903753042,0.009804786182940006,0.0007678878027945757
1.7294956406795804e+18,-0.003334036562591791,0.009894784539937973,-0.002290344098582864
1.7294956406885806e+18,-0.006823774892836809,0.009935209527611732,-0.003101721405982971
1.7294956406975808e+18,-0.0016451694536954165,0.0066130757331848145,-0.004320728592574596
1.729495640703581e+18,0.0016388887306675315,0.005839179269969463,-0.0033555973786860704
1.729495640712581e+18,0.0017282339977100492,0.006747748702764511,-0.0020160963758826256
1.7294956407215813e+18,0.004214664921164513,0.009532876312732697,-0.0032253528479486704
1.7294956407305815e+18,0.0031454814597964287,0.009285821579396725,-0.002525885356590152
1.7294956407365816e+18,0.0025218105874955654,0.008721874095499516,-0.002674625487998128
1.7294956407455818e+18,-0.0006072123651392758,0.009599345736205578,-0.0030751756858080626
1.729495640754582e+18,-0.0009130882099270821,0.011096669360995293,-0.0037325071170926094
1.7294956407635822e+18,-0.0008185087935999036,0.008411824703216553,-0.00010310555808246136
1.7294956407725824e+18,-0.000201156159164384,0.00822228193283081,-0.0032068761065602303
1.7294956407845827e+18,0.0032804838847368956,0.005723655689507723,-0.0030119915027171373
1.7294956407905828e+18,0.0011144521413370967,0.004880694206804037,-0.0023528984747827053
1.729495640799583e+18,0.0016329714562743902,0.008730461820960045,-0.0003421367146074772
1.7294956408085832e+18,0.0005852868198417127,0.00408202363178134,-0.0019062008941546082
1.7294956408175834e+18,-0.0002425530692562461,0.005363031756132841,-0.005190268158912659
1.7294956408265836e+18,0.0032770182006061077,0.0029065695125609636,-0.00455032242462039
1.7294956408355837e+18,0.00034850207157433033,0.007082334253937006,-0.004651759751141071
1.7294956408415839e+18,-0.00039172801189124584,0.005230073817074299,-0.0011410252191126347
1.729495640850584e+18,-6.835127715021372e-05,0.0024037910625338554,-0.0007114366162568331
1.7294956408595843e+18,0.0018226148094981909,0.001479682861827314,-0.0012005609460175037
1.7294956408685844e+18,0.003480107756331563,0.00029777028248645365,-0.004428484011441469
1.7294956408775846e+18,0.0036018353421241045,0.0023838540073484182,-0.004574980121105909
1.7294956408865848e+18,0.005781860090792179,0.0036628853995352983,-0.005185903050005436
1.729495640895585e+18,0.0048539843410253525,0.0036727346014231443,-0.0025689403992146254
1.7294956409045852e+18,0.004640569444745779,0.0054303365759551525,-0.0018675692845135927
1.7294956409135854e+18,0.0011799318017438054,0.007567965425550938,-0.0015659837517887354
1.7294956409225856e+18,0.000618219084572047,0.004933066200464964,-0.0044049168936908245
1.7294956409315858e+18,0.0018512723036110401,0.00386771815828979,-0.005142035894095898
1.729495640940586e+18,-6.886757910251617e-05,0.0012039652792736888,-0.003019459079951048
1.7294956409495862e+18,0.000314706820063293,0.0033204799983650446,-0.004749391693621874
1.7294956409555863e+18,0.002655592281371355,0.0022577946074306965,-0.0012414442608132958
1.7294956409645865e+18,0.0025603659451007843,0.002526411786675453,-0.0031624664552509785
1.7294956409735867e+18,0.004440430551767349,0.004937016870826483,-0.0053929416462779045
1.729495640982587e+18,0.0019092742586508393,0.004234526306390762,-0.005175536498427391
1.729495640991587e+18,0.0015403475845232606,0.0011648001382127404,-0.003969705663621426
1.7294956410005873e+18,-0.0005430056480690837,0.0010199741227552295,-0.004162470810115337
1.7294956410065874e+18,0.00041506183333694935,-0.004547333810478449,-0.004183026030659676
1.7294956410155876e+18,0.0031947726383805275,-0.0008749109692871571,-0.004548840690404177
1.7294956410245878e+18,0.0023029844742268324,-0.004149752669036388,-0.002937082899734378
1.729495641033588e+18,0.001153118209913373,-0.0027776022907346487,-0.004004832822829485
1.7294956410425882e+18,0.0015381531557068229,-0.0042035868391394615,-0.004291444085538387
1.7294956410485883e+18,0.002858140505850315,-0.004439960699528456,-0.0039083524607121944
1.7294956410575885e+18,0.0006291073514148593,-0.002481781644746661,-0.0011384598910808563
1.7294956410665887e+18,0.002277154242619872,-0.0033357576467096806,-0.0029684416949748993
1.7294956410755889e+18,0.002831053454428911,-0.00482252798974514,-0.0035379761829972267
1.729495641081589e+18,0.0033262118231505156,-0.006746226921677589,-0.0032901540398597717
1.7294956410905892e+18,0.00037871801760047674,-0.008159635588526726,-0.0016902296338230371
1.7294956410995894e+18,-0.001070583239197731,-0.006979341618716717,-0.004591562319546938
1.7294956411085896e+18,0.0017821582732722163,-0.005769787356257439,-0.004834477324038744
1.7294956411145897e+18,-0.0009676744230091572,-0.0025909249670803547,-0.0014869918813928962
1.72949564112359e+18,0.0026046268176287413,-0.0013844954082742333,-0.0029308877419680357
1.72949564113259e+18,0.004523950628936291,-0.004428733605891466,-0.004192892927676439
1.7294956411415903e+18,0.004042734391987324,-0.004159007221460342,0.0008672093972563744
1.7294956411505905e+18,0.00390663230791688,-0.0027544847689568996,-0.0026445502880960703
1.7294956411595907e+18,-0.003218394238501787,-0.004931609611958265,-0.0030880605336278677
1.7294956411685908e+18,-0.003950890619307756,-0.0053313435055315495,-0.0029798492323607206
1.729495641177591e+18,-0.004769245628267527,-0.004723920486867428,-0.0001338152214884758
1.7294956411865912e+18,-0.0032605151645839214,-0.005656776484102011,-0.003385866293683648
1.7294956411955914e+18,-0.003343230811879039,-0.0038662569131702185,-0.0022031255066394806
1.7294956412015916e+18,0.002373717725276947,-0.006412722170352936,-0.0018963804468512535
1.7294956412105917e+18,0.003222987987101078,-0.0032499965745955706,-0.003689998295158148
1.729495641219592e+18,-0.001575026661157608,-0.008855478838086128,-0.005239035002887249
1.729495641228592e+18,-0.0031391019001603127,-0.006107038352638483,-0.0007057357579469681
1.7294956412375923e+18,-0.00470053730532527,-0.006034847814589739,-0.0025635927449911833
1.7294956412465925e+18,-0.006000090390443802,-0.006493494845926762,-0.003832757705822587
1.7294956412525926e+18,-0.0032790391705930233,-0.004123616497963667,-0.0006707643624395132
1.7294956412615928e+18,-0.005582273006439209,-0.002871914766728878,-0.0008803177624940872
1.729495641273593e+18,0.0007442716741934419,-0.00579129159450531,-0.0037026426289230585
1.7294956412825933e+18,0.0005543217994272709,-0.0043024467304348946,-0.0027661495842039585
1.7294956412885934e+18,0.0008758102194406092,-0.0044050393626093864,-0.003148383926600218
1.7294956413005937e+18,-0.0027953991666436195,-0.005558738950639963,-0.000861237058416009
1.7294956413065938e+18,-0.0031019607558846474,-0.0023800572380423546,-0.004365385975688696
1.729495641315594e+18,-0.0031609730795025826,-0.005341976881027222,-0.0024161371402442455
1.7294956413275942e+18,-0.00012773554772138596,-0.006809100043028593,-0.00018969131633639336
1.7294956413365944e+18,-0.0038367731031030416,-0.007666468620300293,-0.0014703333145007491
1.7294956413455946e+18,0.004582663998007774,-0.004362842068076134,-0.003620617790147662
1.7294956413545948e+18,0.004349324852228165,-0.006129178684204817,-0.0043512918055057526
1.729495641366595e+18,0.003297743620350957,-0.00838154461234808,0.0003631256986409426
1.7294956413785953e+18,0.00045114170643500984,-0.005672092083841562,-0.004775556735694408
1.7294956413875955e+18,-0.003775150515139103,-0.003732576034963131,-0.0034887241199612617
1.7294956413965957e+18,-0.0016522357473149896,-0.003484497545287013,-0.0038256095722317696
1.729495641408596e+18,0.0030713523738086224,-0.004539136774837971,-0.005700287409126759
1.7294956414175962e+18,0.0034301322884857655,-0.005250264890491962,-0.003753713797777891
1.7294956414295964e+18,0.002541039604693651,-0.00904759205877781,-0.002568519441410899
1.7294956414385966e+18,0.0031541837379336357,-0.008419769816100597,-0.003336539026349783
1.7294956414475968e+18,0.001056960318237543,-0.010912464931607246,-0.001988060772418976
1.729495641456597e+18,-0.0013525460381060839,-0.008181906305253506,-0.005438718944787979
1.7294956414655972e+18,0.00017948972526937723,-0.0066761113703250885,-0.0038799047470092773
1.7294956414775974e+18,0.0017945178551599383,-0.005183771718293428,-0.002157018054276705
1.7294956414865976e+18,0.005475398153066635,-0.004928783047944307,-0.003040942130610347
1.729495641498598e+18,0.004232180304825306,-0.007993634790182114,-0.0019407747313380241
1.729495641507598e+18,0.00137519056443125,-0.010044180788099766,-0.0031433000694960356
1.7294956415165983e+18,0.0034094802103936672,-0.010717703029513359,-0.0009833330987021327
1.7294956415255985e+18,0.001988797914236784,-0.01071496307849884,-0.005527553614228964
1.7294956415345987e+18,-0.00363448029384017,-0.009096648544073105,-0.0016190410824492574
1.7294956415435988e+18,0.001160867279395461,-0.006974380929023027,-0.00186261348426342
1.729495641552599e+18,-0.00207240111194551,-0.007323187310248613,-0.004947989247739315
1.7294956415615992e+18,-0.001998040359467268,-0.011116998270154,-0.0026355956215411425
1.7294956415705994e+18,-0.0024961293675005436,-0.006519149988889694,-0.0017717587761580944
1.7294956415765996e+18,-0.0031260305549949408,-0.011291315779089928,-0.0015898921992629766
1.7294956415885998e+18,-0.0036287682596594095,-0.00857981201261282,-0.0041435761377215385
1.7294956415976e+18,-0.004524064250290394,-0.007748335599899292,-0.002024694811552763
1.7294956416066002e+18,-0.0013661460252478719,-0.00846320390701294,-0.002314660931006074
1.7294956416156004e+18,-0.0005782889202237129,-0.010854624211788177,-0.004052554722875357
1.7294956416246006e+18,-0.0027932925149798393,-0.007755733095109463,0.0004828362725675106
1.7294956416336008e+18,0.0012709597358480096,-0.010360082611441612,-0.001967082964256406
1.729495641642601e+18,-0.0029866518452763557,-0.006725153420120478,-0.0017487057484686375
1.7294956416516012e+18,-0.002043930348008871,-0.0051765115931630135,-0.0013661470729857683
1.7294956416606013e+18,-0.00533730024471879,-0.004499815404415131,-0.0022440177854150534
1.7294956416726016e+18,-0.0015272751916199923,-0.005674492567777634,-0.0009595351293683052
1.7294956416816018e+18,-0.0012375414371490479,-0.006913971155881882,-0.00449705496430397
1.729495641690602e+18,0.0013395133428275585,-0.006582988426089287,-0.003308722749352455
1.7294956416996022e+18,0.001735652214847505,-0.00602472061291337,-0.001593052176758647
1.7294956417086024e+18,-0.0015313553158193827,-0.009389104321599007,-0.0035866587422788143
1.7294956417206026e+18,-0.0004985674750059843,-0.009167536161839962,0.0006073424592614174
1.7294956417296028e+18,0.0027199862524867058,-0.008818389847874641,-0.003788962960243225
1.729495641741603e+18,-0.0005339016206562519,-0.0051337541081011295,-0.0003761069383472204
1.7294956417506033e+18,-0.006908758543431759,-0.0030499824788421392,-0.0010775532573461533
1.7294956417596035e+18,-0.0030877888202667236,-0.0076716141775250435,-0.003515967633575201
1.7294956417686036e+18,-0.0061864471063017845,-0.008313645608723164,-0.0024333444889634848
1.729495641780604e+18,-0.00473006023094058,-0.008256061002612114,-0.0018657282926142216
1.729495641789604e+18,-0.004098772071301937,-0.010685396380722523,-0.001343305455520749
1.7294956417986043e+18,-0.0009485766058787704,-0.005269613116979599,-0.0014208124484866858
1.7294956418076045e+18,-0.002580199157819152,-0.005748123396188021,-0.003553713671863079
1.7294956418166047e+18,-0.0010028549004346132,-0.00753987580537796,-0.004257268738001585
1.729495641828605e+18,-0.0005636089481413364,-0.0062741609290242195,-0.005157012026757002
1.729495641837605e+18,-0.002747685881331563,-0.004953562282025814,-0.0023661276791244745
1.7294956418496054e+18,-0.0008743163198232651,-0.008081703446805477,-0.0026254719123244286
1.7294956418586056e+18,0.00024177873274311423,-0.012131087481975555,-0.0046488502994179726
1.7294956418676058e+18,-2.4149660021066666e-05,-0.009287930093705654,-0.0008935022633522749
1.729495641876606e+18,-0.000691499444656074,-0.009124234318733215,-0.0008120749844238162
1.7294956418856061e+18,-0.0016312393127009273,-0.010304473340511322,-0.0029279503505676985
1.7294956418946063e+18,-0.0017172134248539805,-0.004370496608316898,-0.0007425788789987564
1.7294956419066066e+18,0.0009727893630042672,-0.009550832211971283,-0.00443926639854908
1.7294956419156068e+18,0.0009685941622592509,-0.009685276076197624,-0.0005018000956624746
1.729495641927607e+18,-0.0005173164536245167,-0.01529349572956562,-0.002861632499843836
1.7294956419366072e+18,-0.0017156907124444842,-0.013511044904589653,-0.0058909570798277855
1.7294956419456074e+18,-0.002768218284472823,-0.014417641796171665,-0.003901332849636674
1.7294956419546076e+18,-0.002870685886591673,-0.013543087057769299,-0.002489954000338912
1.7294956419636078e+18,-0.003677831497043371,-0.014451826922595501,-0.0017477936344221234
1.729495641975608e+18,-0.004303591325879097,-0.012357552535831928,-0.00452971737831831
1.7294956419846083e+18,-0.0020556501112878323,-0.014170469716191292,-0.002887121867388487
1.7294956419936084e+18,-0.0018900694558396935,-0.014365199021995068,-0.0036281035281717777
1.7294956420056087e+18,-0.0007870771805755794,-0.011119208298623562,-0.0024653980508446693
1.729495642014609e+18,-0.0008681383333168924,-0.015216350555419922,-0.0027399444952607155
1.729495642023609e+18,0.0006547123193740845,-0.01335829310119152,-0.003154048230499029
1.7294956420356093e+18,-0.0009325356222689152,-0.013993176631629467,-0.0034212395548820496
1.7294956420446095e+18,-5.831383168697357e-05,-0.014635154977440834,-0.00038806244265288115
1.7294956420536097e+18,-0.004306542221456766,-0.011512058787047863,-9.670981671661139e-05
1.72949564206561e+18,-0.004753925837576389,-0.012874831445515156,-0.0018835271475836635
1.7294956420746102e+18,-0.0028679624665528536,-0.013155469670891762,-0.0029435434844344854
1.7294956420866104e+18,-0.002921797800809145,-0.015894943848252296,-0.0024927684571594
1.7294956420956106e+18,-0.0008427501888945699,-0.017549559473991394,-0.001991786528378725
1.7294956421046108e+18,-0.0021208280231803656,-0.011787042021751404,-0.001230622292496264
1.729495642113611e+18,-0.001540775178000331,-0.012292117811739445,-0.001997525105252862
1.7294956421226112e+18,-0.00010000084876082838,-0.013740969821810722,-0.0027651689015328884
1.7294956421316114e+18,0.0014866285491734743,-0.010279645211994648,-0.0020543327555060387
1.7294956421406116e+18,-0.0023605129681527615,-0.012586316093802452,-0.0014285290380939841
1.7294956421466117e+18,0.0011906606378033757,-0.013241564854979515,-0.0008303355425596237
1.729495642155612e+18,0.00018952629761770368,-0.015082411468029022,-0.0021408996544778347
1.729495642164612e+18,0.0007492178119719028,-0.014578301459550858,-0.0016524994280189276
1.7294956421736123e+18,0.00397141557186842,-0.012376688420772552,-0.003059760434553027
1.7294956421826125e+18,-0.0013172738254070282,-0.012322849594056606,-0.0029219065327197313
1.7294956421916127e+18,-0.0019690128974616528,-0.012951849028468132,-0.002371320966631174
1.7294956422006129e+18,-0.001390980207361281,-0.008020373061299324,-0.0015465704491361976
1.729495642209613e+18,0.0014377643819898367,-0.010017696768045425,0.0007797629805281758
1.7294956422186132e+18,0.0014828501734882593,-0.013588063418865204,-0.00027435028459876776
1.7294956422246134e+18,0.0029161227867007256,-0.010952799580991268,-0.0007083012023940682
1.7294956422336136e+18,7.708242628723383e-05,-0.015315554104745388,-0.0016142940148711205
1.7294956422426138e+18,-0.0015971960965543985,-0.015187830664217472,-0.0001380279427394271
1.729495642248614e+18,-0.0011907967273145914,-0.012915901839733124,-0.0026254355907440186
1.729495642257614e+18,-0.002563136164098978,-0.011570163071155548,-0.0005998737178742886
1.7294956422666143e+18,-0.0003809488844126463,-0.011451203376054764,0.00014890998136252165
1.7294956422756145e+18,-0.0031251683831214905,-0.01254445780068636,-0.00356327835470438
1.7294956422816146e+18,-0.004840037785470486,-0.014177481643855572,-0.003190743736922741
1.7294956422906148e+18,0.0006982372142374516,-0.013158177025616169,-0.0007510230061598122
1.729495642299615e+18,0.0007218526443466544,-0.014650438912212849,-0.003653718624264002
1.7294956423086152e+18,0.0012274509062990546,-0.01250125840306282,-0.0014278518501669168
1.7294956423146153e+18,0.002279420383274555,-0.015462161041796207,-0.0035456714686006308
1.7294956423236155e+18,0.00299238134175539,-0.015684781596064568,-0.0006765956059098244
1.7294956423326157e+18,-0.00021247765107546002,-0.01536912377923727,-0.0018969830125570297
1.7294956423416159e+18,-0.0028827087953686714,-0.013090822845697403,-0.0006198297487571836
1.729495642350616e+18,-0.002174360677599907,-0.01265074871480465,0.0001513543538749218
1.7294956423596163e+18,-0.0017354630399495363,-0.009861397556960583,0.0006611933931708336
1.7294956423656164e+18,-0.0022777814883738756,-0.007880019024014473,-0.003929265309125185
1.7294956423746166e+18,0.005176528822630644,-0.010734464041888714,-0.003176499158143997
1.7294956423836168e+18,0.001369947800412774,-0.011299001052975655,-0.0011993673397228122
1.729495642392617e+18,0.0007940526702441275,-0.01096498966217041,-0.003654186148196459
1.7294956424016172e+18,-0.0006474271649494767,-0.007023991085588932,-0.000714354042429477
1.7294956424106173e+18,-0.0008601705776527524,-0.007985576055943966,0.00244224164634943
1.7294956424196175e+18,-0.0029493365436792374,-0.005502816289663315,-0.00278281606733799
1.7294956424286177e+18,-0.0007326260674744844,-0.008469713851809502,-0.0003824637969955802
1.7294956424346179e+18,0.00022698557586409152,-0.009286971762776375,-0.0009369198232889175
1.729495642443618e+18,0.003036092035472393,-0.011690299957990646,-0.003497665049508214
1.7294956424526182e+18,0.005885367281734943,-0.01350417360663414,0.0007344477344304323
1.7294956424616184e+18,0.0008940245606936514,-0.009223354049026966,0.0009195915190503001
1.7294956424676186e+18,0.0007856152369640768,-0.00903055164963007,-0.0015045098261907697
1.7294956424766188e+18,-0.0007571221212856472,-0.007107154931873083,0.0006272628670558333
1.729495642485619e+18,-0.006342393811792135,-0.007090058643370867,-0.0014359882334247231
1.729495642491619e+18,-0.0016398560255765915,-0.006436835043132305,-0.0023356187157332897
1.7294956425006193e+18,-0.002223822521045804,-0.008199736475944519,-0.0029631094075739384
1.7294956425096195e+18,-0.0003823126317001879,-0.008101677522063255,-0.0003936368739232421
1.7294956425186196e+18,0.0007371739484369755,-0.009547216817736626,-0.0022254306823015213
1.7294956425276198e+18,0.0018034592503681779,-0.007697783410549164,-0.00028020155150443316
1.72949564253362e+18,0.0008374592289328575,-0.005528525449335575,-7.401686161756516e-05
1.7294956425426202e+18,-0.00046385289169847965,-0.010387450456619263,-0.001805144245736301
1.7294956425516204e+18,0.0006441739969886839,-0.005286457482725382,-0.0021738801151514053
1.7294956425606205e+18,0.00162516999989748,-0.004282285925000906,-0.0014797408366575837
1.7294956425696207e+18,0.0030540204606950283,-0.0032342078629881144,-0.00029528699815273285
1.7294956425756209e+18,0.0022466853260993958,-0.005989020224660635,-0.001967532327398658
1.729495642584621e+18,0.003203458385542035,-0.007940784096717834,-0.0012739108642563224
1.7294956425936212e+18,0.005231870338320732,-0.008888769894838333,-0.003605256788432598
1.7294956426026214e+18,0.0029097716324031353,-0.0032375548034906387,-0.0008850980084389448
1.7294956426116216e+18,0.007371299900114536,-0.0034782541915774345,-0.003577549709007144
1.7294956426176218e+18,0.0031298669055104256,-0.0022099032066762447,-0.0037222825922071934
1.729495642626622e+18,0.004428543150424957,-0.0016144277760758996,-0.0029560395050793886
1.7294956426356221e+18,0.00018101418390870094,-0.005219608079642057,-0.0006456631235778332
1.7294956426446223e+18,-0.00036358844954520464,-0.007012530695647001,-0.0016690349439159036
1.7294956426506225e+18,0.0030528362840414047,-0.005738097243010998,-0.0012488183565437794
1.7294956426596227e+18,0.0015145763754844666,-0.006014665123075247,-0.0012930516386404634
1.7294956426656228e+18,0.0008587903575971723,-0.009652066975831985,-0.004772260785102844
1.729495642674623e+18,0.0015006684698164463,-0.007648630067706108,-0.0003903154283761978
1.7294956426836232e+18,-0.00109498156234622,-0.007008385378867388,0.0018543899059295654
1.7294956426926234e+18,-0.002288821153342724,-0.0005507750902324915,-0.0015485265757888556
1.7294956427016236e+18,0.000727991689927876,-0.004440802615135908,0.0010922291548922658
1.7294956427106237e+18,0.0014855940826237202,-0.0035290191881358624,-0.0030859587714076042
1.729495642719624e+18,0.0023707288783043623,-0.007221580483019352,-0.0020146979950368404
1.729495642728624e+18,0.0011906223371624947,-0.013420840725302696,-0.0026299443561583757
1.7294956427346243e+18,-0.0010851940605789423,-0.009195736609399319,-0.0013453962747007608
1.7294956427436244e+18,-0.00015705963596701622,-0.006497097201645374,0.0008921955013647676
1.7294956427526246e+18,-0.0008591180085204542,-0.0009170344565063715,-0.0006289196317084134
1.7294956427616248e+18,-0.0010830324608832598,-0.000488735327962786,-0.001027895836159587
1.729495642770625e+18,0.000250780867645517,-0.002284193178638816,-0.002079172059893608
1.7294956427796252e+18,0.000981746008619666,-0.00338911940343678,-1.1424650438129902e-05
1.7294956427856253e+18,0.0005368387792259455,-0.0023854353930801153,-0.0033336179330945015
1.7294956427946255e+18,-0.0016553886234760284,-0.008684367872774601,-0.0015394838992506266
1.7294956428036257e+18,0.002080968813970685,-0.004207332152873278,-0.0001419472973793745
1.729495642812626e+18,0.0010040543274953961,-0.0021416950039565563,-0.0008467398001812398
1.729495642821626e+18,0.0002960838028229773,-0.0036296318285167217,-0.0037632742896676064
1.7294956428276262e+18,-0.0009976488072425127,-0.004306043963879347,-0.0020238347351551056
1.7294956428366264e+18,-0.002140107098966837,-0.0016051901038736105,-0.0012035673717036843
1.7294956428456266e+18,6.638240301981568e-05,-0.005728376097977161,-0.0011500217951834202
1.7294956428516268e+18,-4.222219286020845e-05,-0.0036367387510836124,0.00047616101801395416
1.729495642860627e+18,-0.000134661968331784,-0.005422387272119522,-0.004507416859269142
1.7294956428696271e+18,-0.003411700949072838,-0.004320474807173014,0.000991460052318871
1.7294956428786273e+18,-0.0012636660831049085,-0.005960412789136171,-0.002454990753903985
1.7294956428876275e+18,-0.00042116609984077513,-0.003396688960492611,-0.004974289797246456
1.7294956428936276e+18,-0.003308094572275877,-0.0032684062607586384,-0.002296252641826868
1.7294956429026278e+18,0.0029145798180252314,-0.005613436456769705,-0.0032464521937072277
1.729495642911628e+18,0.0021420216653496027,-0.004899998661130667,-0.0001277810661122203
1.7294956429206282e+18,0.001524017658084631,-0.0032761208713054657,0.0006340547697618604
1.7294956429266284e+18,0.0023351770360022783,-0.0074982596561312675,-0.0022045965306460857
1.7294956429356285e+18,0.003575757145881653,-0.005468996241688728,-0.005109757650643587
1.7294956429416287e+18,-0.0004748332721646875,-0.0014839874347671866,-0.003981110639870167
1.7294956429506289e+18,0.0005532905925065279,-0.0020310035906732082,-0.004307915456593037
1.729495642959629e+18,-0.0013247414026409388,-0.00218972098082304,-0.0028836578130722046
1.7294956429686292e+18,-0.0006649178685620427,-0.001036440720781684,0.0007605812279507518
1.7294956429776294e+18,0.002847903873771429,-0.0010168268345296383,-0.003567069536074996
1.7294956429836296e+18,0.0007381493924185634,-0.004562062211334705,-0.0027957321144640446
1.7294956429926298e+18,-5.354429595172405e-05,-0.005650442559272051,0.00011227547656744719
1.72949564300163e+18,0.002961327787488699,-0.0036477530375123024,-0.0021477704867720604
1.7294956430106301e+18,0.0011385474354028702,-0.0023018319625407457,-0.0002661322942003608
1.7294956430196303e+18,0.0013524177484214306,-0.0007514830213040113,-0.0010243402794003487
1.7294956430256305e+18,-0.00020102248527109623,-0.003588855965062976,0.0019994068425148726
1.7294956430346307e+18,0.0009418815025128424,-0.005206433590501547,-0.0011004400439560413
1.7294956430436308e+18,0.0005545378080569208,-0.005205969326198101,-0.0008975095115602016
1.729495643052631e+18,0.0035729743540287018,-0.004763326607644558,-0.0015415073139593005
1.7294956430616312e+18,0.0033211936242878437,-0.002135156886652112,-0.0031941551715135574
1.7294956430676314e+18,0.005679189693182707,-0.0021180498879402876,-0.0011272795964032412
1.7294956430766316e+18,0.003265378065407276,-0.002371584065258503,-0.0003290723543614149
1.7294956430856317e+18,0.004006196279078722,-0.0022271196357905865,-0.0022410028614103794
1.7294956430916319e+18,0.00067831517662853,-0.004075990058481693,0.000650197034701705
1.729495643100632e+18,0.003464700188487768,-0.0006863295566290617,-0.0010116428602486849
1.7294956431096323e+18,0.0028006788343191147,-0.004056158475577831,-0.0007823971682228148
1.7294956431186324e+18,0.004830455407500267,-0.006629824172705412,0.0010303828166797757
1.7294956431276326e+18,0.003957285545766354,-0.0046358490362763405,-0.002879507839679718
1.7294956431336328e+18,0.006922023370862007,-0.005493327043950558,-0.0020287162624299526
1.729495643142633e+18,0.006611271761357784,-0.0049645304679870605,-0.0020553451031446457
1.7294956431516332e+18,0.0032644979655742645,-0.0025196224451065063,0.0015077668940648437
1.7294956431606333e+18,0.001149131334386766,-0.0010244592558592558,-0.0027202595956623554
1.7294956431696335e+18,0.0014810777502134442,-0.0008161378791555762,-0.0005894385976716876
1.7294956431756337e+18,0.00023032724857330322,0.00037236837670207024,-0.003319257404655218
1.7294956431846339e+18,0.00026929634623229504,-0.005662127863615751,-0.001197810168378055
1.729495643193634e+18,0.005776460748165846,-0.002999634249135852,-0.0005477075465023518
1.7294956431996342e+18,0.005430941469967365,-0.0021758286748081446,-0.0029507491271942854
1.7294956432086344e+18,0.00984533317387104,-0.004942234605550766,0.0007447284297086298
1.7294956432176346e+18,0.00587094621732831,-0.002592581557109952,-0.0018283957615494728
1.7294956432236347e+18,0.005925438832491636,9.314739145338535e-05,-0.002233521779999137
1.729495643235635e+18,0.0018434961093589664,-0.0007766487542539835,-0.0028768391348421574
1.729495643241635e+18,0.003531914670020342,-0.0011701532639563084,-0.0007881619967520237
1.7294956432506353e+18,0.0034962778445333242,-0.0016831757966428995,-0.0016357745043933392
1.7294956432596355e+18,0.0019956515170633793,-0.002482736250385642,-0.001160896266810596
1.7294956432686356e+18,-0.0008935867808759212,-0.0015873126685619354,-0.0039839171804487705
1.7294956432746358e+18,0.002646103035658598,-0.002586392220109701,-0.0034332294017076492
1.729495643283636e+18,0.001247163861989975,-0.003912110812962055,-0.00017562106950208545
1.7294956432926362e+18,0.00135104323271662,-0.003951553255319595,0.0019295929232612252
1.7294956433016364e+18,0.0024831134360283613,-0.002063879743218422,-0.0004435110022313893
1.7294956433076365e+18,-0.003289502579718828,-0.00516961794346571,-0.0018845000304281712
1.7294956433166367e+18,-0.002383060520514846,-0.002233845181763172,-0.002540845423936844
1.7294956433256369e+18,9.673438034951687e-05,-0.0013165916316211224,-0.002624071203172207
1.729495643334637e+18,-0.0036377052310854197,-0.0023436425253748894,-0.0006574561120942235
1.7294956433436372e+18,0.0004940924700349569,-0.0002806598786264658,-0.0018292309250682592
1.7294956433496374e+18,-0.0027203757781535387,-0.0011111130006611347,-0.0017696653958410025
1.7294956433586376e+18,-0.0003556355368345976,0.001579040545038879,-0.0015066165942698717
1.7294956433676378e+18,-0.0008614103426225483,0.0015126047655940056,-0.000369841989595443
1.729495643376638e+18,-0.00183927733451128,-0.002863327506929636,-0.005025588907301426
1.729495643382638e+18,-0.0006049704970791936,-0.00023764092475175858,-0.0012580559123307467
1.7294956433916383e+18,-0.0024201995693147182,-0.0012361640110611916,-0.0002732840948738158
1.7294956433976384e+18,-0.0005248162196949124,0.00039114058017730713,-0.0021901465952396393
1.7294956434066386e+18,-0.004189092665910721,-0.0015054853865876794,0.0021596751175820827
1.7294956434156388e+18,-0.0008425441337749362,-0.001093441853299737,-0.0007247369503602386
1.729495643424639e+18,-0.001017971197143197,0.0009303956758230925,-0.0034647611901164055
1.7294956434336392e+18,0.0019530762219801545,0.00086712755728513,-0.002715514274314046
1.7294956434396393e+18,-0.0017440284136682749,0.004686386324465275,-0.00033961032750084996
1.7294956434486395e+18,0.001077722990885377,0.0030771177262067795,3.09899915009737e-05
1.7294956434606397e+18,-0.002105707535520196,0.0038018820341676474,-0.0005832952447235584
1.72949564346664e+18,-0.0041560521349310875,0.0031267921440303326,0.0029036966152489185
1.72949564347564e+18,-0.00400124117732048,0.0005788139533251524,-0.001973882783204317
1.7294956434816402e+18,-0.006302339490503073,0.0022535528987646103,-0.0002186981146223843
1.7294956434906404e+18,-0.003348100697621703,0.0019269610056653619,-0.0026242597959935665
1.7294956434996406e+18,-0.003399523673579097,0.005377752706408501,0.0008031494216993451
1.7294956435056407e+18,-0.0024389021564275026,0.006639952305704355,-0.0032411073334515095
1.729495643517641e+18,-0.004336811602115631,0.008435351774096489,-0.00104360724799335
1.729495643523641e+18,-0.006751145236194134,0.005308435298502445,-0.0015347201842814684
1.7294956435326413e+18,-0.0036596390418708324,0.005436671432107687,-0.0001225591404363513
1.7294956435416415e+18,-0.005470442585647106,0.0043423715978860855,0.0019731526263058186
1.7294956435506417e+18,-0.004743830766528845,0.0029399641789495945,-0.0033954286482185125
1.7294956435566418e+18,-0.004809513222426176,0.002003427129238844,-0.0035795813892036676
1.729495643565642e+18,-0.001923226285725832,0.001254670089110732,-0.0012871013022959232
1.7294956435746422e+18,-0.0027271220460534096,0.006242525298148394,-0.0009548641974106431
1.7294956435836424e+18,-0.0005207427311688662,0.004278305917978287,-0.0016775968251749873
1.7294956435926426e+18,-0.004554335027933121,0.0035935500636696815,0.0011384887620806694
1.7294956435986427e+18,-0.005347433499991894,0.0009215995669364929,1.6243953723460436e-05
1.729495643607643e+18,-0.005970539525151253,0.0026012714952230453,-0.001022170064970851
1.729495643616643e+18,-0.007522771134972572,0.005658586509525776,-0.0005891435430385172
1.7294956436256433e+18,-0.0058945477940142155,0.007547406945377588,-0.0023007518611848354
1.7294956436346435e+18,-0.0029030125588178635,0.005516198929399252,0.002081503625959158
1.7294956436436436e+18,-0.0016671871999278665,0.0018888304475694895,-0.001147888251580298
1.7294956436526438e+18,-0.0023718210868537426,0.00505400262773037,0.0007277366821654141
1.729495643661644e+18,-0.005182730033993721,0.0033601829782128334,-0.0006492104148492217
1.7294956436676442e+18,-0.007251794915646315,0.0046761855483055115,0.0005792634328827262
1.7294956436796444e+18,-0.004248873330652714,0.0017952470807358623,-0.0005739908665418625
1.7294956436886446e+18,-0.004473579116165638,0.003634904744103551,-0.0005921691190451384
1.7294956436976448e+18,-0.0006998382741585374,0.0027634890284389257,0.00026864244136959314
1.729495643706645e+18,-0.14023496210575104,-0.4997020959854126,-0.004050493706017733
1.7294956437156452e+18,-0.3796238303184509,-1.3941352367401123,-0.011769084259867668
1.7294956437246454e+18,-0.6854856610298157,-2.306259870529175,-0.02118811383843422
1.7294956437306455e+18,-0.9835038185119629,-2.7964274883270264,-0.026482831686735153
1.7294956437396457e+18,-1.4300153255462646,-3.188147783279419,-0.03859620541334152
1.729495643748646e+18,-1.7656739950180054,-3.188614845275879,-0.04529191553592682
1.729495643757646e+18,-1.899579405784607,-3.0042977333068848,-0.0595681257545948
1.7294956437636462e+18,-1.8873891830444336,-2.8648886680603027,-0.0656978115439415
1.7294956437726464e+18,-1.7609831094741821,-2.786451578140259,-0.07624120265245438
1.7294956437816466e+18,-1.62356698513031,-2.877835988998413,-0.08677762001752853
1.7294956437936468e+18,-1.5729411840438843,-3.127926826477051,-0.10360907018184662
1.729495643799647e+18,-1.6170639991760254,-3.2096381187438965,-0.10566824674606323
1.7294956438086472e+18,-1.7313417196273804,-3.219555616378784,-0.11709634959697723
1.7294956438176474e+18,-1.80698823928833,-3.060811758041382,-0.12820899486541748
1.7294956438266476e+18,-1.7890818119049072,-2.790177345275879,-0.13813360035419464
1.7294956438356477e+18,-1.6668134927749634,-2.5150628089904785,-0.14927834272384644
1.729495643844648e+18,-1.469515085220337,-2.304509162902832,-0.15039639174938202
1.7294956438536481e+18,-1.269491195678711,-2.1799681186676025,-0.15902960300445557
1.7294956438596483e+18,-1.1698179244995117,-2.126357316970825,-0.15959711372852325
1.7294956438686484e+18,-1.090437650680542,-2.0575852394104004,-0.1676625907421112
1.7294956438776486e+18,-1.081749439239502,-1.9436970949172974,-0.1716873198747635
1.7294956438866488e+18,-1.080600380897522,-1.7718620300292969,-0.17748147249221802
1.729495643892649e+18,-1.0599437952041626,-1.6266428232192993,-0.1800927221775055
1.7294956439016492e+18,-0.9793418049812317,-1.4055284261703491,-0.18423525989055634
1.7294956439136494e+18,-0.7736071944236755,-1.1373927593231201,-0.1885707676410675
1.7294956439196495e+18,-0.6658492088317871,-1.0347988605499268,-0.18788368999958038
1.7294956439286497e+18,-0.5213524103164673,-0.9152756929397583,-0.18901731073856354
1.72949564394065e+18,-0.4272478520870209,-0.783410906791687,-0.19043070077896118
1.7294956439496502e+18,-0.4144342839717865,-0.6747797727584839,-0.1889304220676422
1.7294956439586504e+18,-0.4107225835323334,-0.5521335005760193,-0.1912171095609665
1.7294956439676506e+18,-0.3789656460285187,-0.4201928377151489,-0.19212695956230164
1.7294956439736507e+18,-0.32997825741767883,-0.33168649673461914,-0.19084875285625458
1.729495643985651e+18,-0.20067134499549866,-0.1805013120174408,-0.19297732412815094
1.729495643991651e+18,-0.13126082718372345,-0.11667319387197495,-0.1906481236219406
1.7294956440006513e+18,-0.050399456173181534,-0.051126670092344284,-0.1903028041124344
1.7294956440096515e+18,-0.0010569649748504162,0.012464088387787342,-0.189574733376503
1.7294956440186516e+18,0.007883278653025627,0.06503041088581085,-0.19086019694805145
1.7294956440276518e+18,-0.0031678166706115007,0.1275511533021927,-0.18420779705047607
1.729495644033652e+18,-0.006591082084923983,0.16907870769500732,-0.18729695677757263
1.7294956440426522e+18,0.010401341132819653,0.23140881955623627,-0.18817199766635895
1.7294956440516524e+18,0.05341361463069916,0.2822405695915222,-0.18378262221813202
1.7294956440606525e+18,0.10957391560077667,0.32803869247436523,-0.18132780492305756
1.7294956440666527e+18,0.14569412171840668,0.3498889207839966,-0.17943574488162994
1.7294956440756529e+18,0.18440423905849457,0.3757489025592804,-0.18022704124450684
1.729495644087653e+18,0.19263094663619995,0.4003179669380188,-0.17610986530780792
1.7294956440936532e+18,0.18104113638401031,0.414412260055542,-0.17097115516662598
1.7294956441056535e+18,0.1641736775636673,0.43627840280532837,-0.16993844509124756
1.7294956441116536e+18,0.1625513732433319,0.4516476094722748,-0.16670352220535278
1.7294956441206538e+18,0.1777084320783615,0.4713349938392639,-0.16390326619148254
1.729495644129654e+18,0.20993025600910187,0.4843786358833313,-0.16023367643356323
1.7294956441386542e+18,0.2367141842842102,0.4950263202190399,-0.15782710909843445
1.7294956441476544e+18,0.25459811091423035,0.5033504962921143,-0.1540369987487793
1.7294956441566546e+18,0.25375452637672424,0.5034945607185364,-0.14734108746051788
1.7294956441656548e+18,0.2325146198272705,0.5061641931533813,-0.14959551393985748
1.729495644171655e+18,0.2227192521095276,0.5018326044082642,-0.14621591567993164
1.729495644180655e+18,0.21151164174079895,0.4974283277988434,-0.14184503257274628
1.7294956441896553e+18,0.21317268908023834,0.49798521399497986,-0.13848687708377838
1.7294956441986555e+18,0.22485318779945374,0.5004016757011414,-0.1293031871318817
1.7294956442076557e+18,0.23906782269477844,0.4992416203022003,-0.1286499947309494
1.729495644216656e+18,0.24855078756809235,0.4967085123062134,-0.12817178666591644
1.729495644225656e+18,0.24506621062755585,0.4889775812625885,-0.12104229629039764
1.7294956442346563e+18,0.23547543585300446,0.48865145444869995,-0.11675182729959488
1.7294956442436564e+18,0.2225884646177292,0.48273229598999023,-0.11480171233415604
1.7294956442526566e+18,0.20859214663505554,0.4795488119125366,-0.11070209741592407
1.7294956442616568e+18,0.20692811906337738,0.47907212376594543,-0.10469288378953934
1.729495644270657e+18,0.21498478949069977,0.4749505817890167,-0.09920414537191391
1.7294956442796572e+18,0.22246871888637543,0.471855103969574,-0.09855431318283081
