timestamp,gyro_x,gyro_y,gyro_z
1.729496469150254e+18,-5.234255877439864e-05,0.0007964267279021442,0.003056376939639449
1.7294964691592543e+18,-0.0016177503857761621,-0.004545148927718401,-0.0028265228029340506
1.7294964691682545e+18,0.0023076659999787807,-0.0003338660462759435,0.002405668143182993
1.7294964691772547e+18,0.001608818070963025,2.1989571905578487e-05,0.0013434416614472866
1.7294964691832548e+18,-0.0003626839315984398,0.0018643283983692527,0.0017882109386846423
1.729496469192255e+18,-0.0005389968282543123,0.003054848173633218,0.00038457903428934515
1.7294964692012552e+18,0.00014762832142878324,-0.0010931078577414155,-9.772295925358776e-06
1.7294964692072553e+18,0.0005285021616145968,0.00033373766927979887,0.00033887720201164484
1.7294964692162555e+18,-0.0005338740884326398,-0.00021672112052328885,-0.0013945510145276785
1.7294964692252557e+18,-0.002118621952831745,-0.0019997218623757362,-0.00042387304711155593
1.729496469237256e+18,0.0003208852431271225,0.0005496974335983396,-0.0027470714412629604
1.729496469243256e+18,-0.00376113667152822,-0.005548322107642889,-0.002362897852435708
1.7294964692522563e+18,0.0005435474449768662,-0.0018365558935329318,0.0014060920802876353
1.7294964692612564e+18,0.001940608606673777,0.004188493359833956,0.0031748819164931774
1.7294964692702566e+18,-0.0013846451183781028,-4.0254722989629954e-05,0.00043602671939879656
1.7294964692792568e+18,-0.0006500175804831088,-2.7713114832295105e-05,-0.0016546729020774364
1.729496469288257e+18,0.0013742175651714206,-0.001991081750020385,-0.00021928251953795552
1.7294964692972572e+18,0.0009989271638914943,0.00117548368871212,-0.0018037118716165423
1.7294964693062574e+18,-0.0006688815774396062,-0.001249769818969071,-0.0008057348895817995
1.7294964693122575e+18,0.00418202206492424,0.0005543899605982006,-0.00043245666893199086
1.7294964693212577e+18,-3.224535976187326e-05,0.003589383792132139,-0.0017394005553796887
1.729496469330258e+18,0.001031290041282773,-0.00022500829072669148,-0.0028303801082074642
1.729496469339258e+18,0.0016702782595530152,0.0007440295303240418,3.2922191167017445e-05
1.7294964693482583e+18,0.0019572204910218716,0.003548982786014676,0.000806775176897645
1.7294964693572585e+18,0.00011219873704249039,0.003685940057039261,0.0017572613433003426
1.7294964693632586e+18,0.0010203529382124543,-0.0043458943255245686,-0.00234825792722404
1.7294964693722588e+18,-0.0010082721710205078,0.0003466646303422749,-0.0012416711542755365
1.729496469381259e+18,-8.792053995421156e-05,-0.0028624527622014284,7.741013541817665e-05
1.7294964693872591e+18,-0.0002763848751783371,-0.0012176308082416654,-0.00021005338930990547
1.7294964693962593e+18,0.0016979525098577142,0.002382386941462755,0.0010326247429475188
1.7294964694052595e+18,-4.7012275899760425e-05,0.0006244679680094123,-0.003839878598228097
1.7294964694142597e+18,-0.0007871205452829599,0.002419993979856372,0.00034967338433489203
1.7294964694202598e+18,-0.00027263679658062756,0.003030278254300356,0.001140120904892683
1.72949646942926e+18,-0.0008629406220279634,0.0032129196915775537,0.0007847411907278001
1.7294964694382602e+18,0.0004382964107207954,-0.0002476877998560667,-0.0005015828646719456
1.7294964694472604e+18,0.002499520080164075,-0.0010548151331022382,0.0034498374443501234
1.7294964694532605e+18,0.0009767551673576236,0.0008854225743561983,0.0003778127138502896
1.7294964694622607e+18,-0.0022304316516965628,0.0011681189062073827,-0.0008440022938884795
1.729496469471261e+18,-0.0010730500798672438,-0.0007260711281560361,-0.0011892847251147032
1.729496469480261e+18,0.0004112935857847333,-0.001876574126072228,-0.0013257534010335803
1.7294964694862612e+18,-0.0008986831526271999,0.0013466536765918136,-0.0041313571855425835
1.7294964694952614e+18,-0.0009946248028427362,0.00028128258418291807,-0.0011763031361624599
1.7294964695012616e+18,-0.0017074643401429057,0.002551507670432329,6.189385749166831e-05
1.7294964695102618e+18,-0.0030547711066901684,0.002022371394559741,-0.0006426147883757949
1.729496469519262e+18,-0.0018451192881911993,0.0015398397808894515,0.0012031010119244456
1.7294964695282621e+18,0.003795182565227151,0.0007043132209219038,0.0021364998538047075
1.7294964695342623e+18,0.0008219507290050387,-0.0007306318148039281,0.003306157886981964
1.7294964695432625e+18,-0.00023507729929406196,0.0006729639717377722,0.002674771472811699
1.7294964695492626e+18,-0.0010671369964256883,-0.00031576116452924907,-0.0012736725620925426
1.7294964695582628e+18,-0.0015503916656598449,-6.540038157254457e-05,0.0030907418113201857
1.729496469567263e+18,-0.0009031148510985076,9.431565558770671e-05,-0.0020779611077159643
1.7294964695762632e+18,-0.0007477108738385141,-0.0008488494786433876,0.003923908341675997
1.7294964695822633e+18,-0.0012949072988703847,0.001793806441128254,-0.0011291524861007929
1.7294964695912635e+18,0.0001544930855743587,-0.0005840405938215554,-0.003657771274447441
1.7294964696002637e+18,-6.587489770026878e-05,-0.0005227497313171625,0.002583091612905264
1.7294964696062638e+18,-0.002286299830302596,-0.0005892330664210021,-0.0001423591747879982
1.729496469615264e+18,-0.0014200920704752207,0.0005803537205792964,0.0014704350614920259
1.7294964696242642e+18,0.000690069398842752,0.004102569073438644,-0.0014333529397845268
1.7294964696332644e+18,-0.0008724965155124664,0.0020310215186327696,-0.0013163230614736676
1.7294964696422646e+18,0.0018258225172758102,-0.0006028088973835111,-0.0026726804208010435
1.7294964696482647e+18,0.0010581332026049495,-0.00023339811014011502,0.0021543288603425026
1.729496469657265e+18,0.001539442571811378,-0.0005298515898175538,0.0029559799004346132
1.729496469666265e+18,7.369227387243882e-05,0.0009396912064403296,0.0035511066671460867
1.7294964696722652e+18,-0.0009441804722882807,8.428931323578581e-05,-0.0025713942013680935
1.7294964696812654e+18,-0.0020827092230319977,0.001834909780882299,-0.0015968082007020712
1.7294964696902656e+18,0.0010673388605937362,-0.0034437424037605524,-0.00019155412155669183
1.7294964696962657e+18,-0.0008587104384787381,-0.000615660916082561,-0.0016958296764642
1.729496469705266e+18,-0.000807163305580616,-0.0005785569665022194,0.002385283587500453
1.729496469714266e+18,-0.0016997017664834857,-0.0032487872522324324,-0.0007281242869794369
1.7294964697202662e+18,-8.215607522288337e-05,0.0013340056175366044,0.0016305401222780347
1.7294964697292664e+18,0.0004745969199575484,-0.0015751294558867812,-0.0007389818783849478
1.7294964697352666e+18,0.002293278928846121,-0.0007696840912103653,-0.0018155936850234866
1.7294964697442668e+18,0.0019066197564825416,0.0008769421838223934,0.00037691209581680596
1.729496469750267e+18,0.002112910384312272,0.0009796987287700176,-0.0017752195708453655
1.729496469759267e+18,0.000723019300494343,0.0024305181577801704,0.0007075222092680633
1.7294964697682673e+18,-0.0011439714580774307,-0.0001543541147839278,0.0015610349364578724
1.7294964697772675e+18,-0.00036263803485780954,-0.002526915865018964,-0.0036883775610476732
1.7294964697832676e+18,-0.0006622823420912027,0.0006594115984626114,0.00013145981938578188
1.7294964697922678e+18,-0.0016253760550171137,0.0009173062862828374,0.00158196862321347
1.729496469801268e+18,0.0008401893428526819,0.0032828531693667173,0.0011115727247670293
1.7294964698102682e+18,-0.0016325649339705706,0.00020836123439949006,0.0014433434698730707
1.7294964698192684e+18,0.000927604443859309,-0.00013850750110577792,0.002082837512716651
1.7294964698252685e+18,0.0014780444325879216,0.0007012872956693172,-0.0015537705039605498
1.7294964698372687e+18,-0.0013495032908394933,-0.0004701973812188953,-0.002485940232872963
1.7294964698432689e+18,0.0014851420419290662,0.003973700106143951,0.002155415713787079
1.729496469852269e+18,0.0001869954721769318,-0.0018361916299909353,0.0014232260873541236
1.7294964698612692e+18,0.000154629597091116,0.0018879770068451762,0.0003884118632413447
1.7294964698672694e+18,-0.00026466723647899926,-0.002266878029331565,0.001805175212211907
1.7294964698762696e+18,-0.0022082002833485603,0.000812311889603734,-0.0008667220827192068
1.7294964698852698e+18,0.0019430367974564433,-0.0044773537665605545,0.00015255568723659962
1.72949646989427e+18,-0.002655433025211096,-0.0005359535571187735,0.0037113314028829336
1.72949646990027e+18,-0.0003002265002578497,-0.0009481796878390014,-0.00025891410768963397
1.7294964699092703e+18,7.946748519316316e-05,-0.001161979860626161,0.0012047241907566786
1.7294964699182705e+18,-0.0007672638166695833,0.0024599845055490732,-5.01277027069591e-05
1.7294964699272707e+18,-0.0015581537736579776,-0.0031603509560227394,0.0007524351822212338
1.7294964699362708e+18,-0.0020606983453035355,0.0007197986706160009,0.001163556007668376
1.729496469942271e+18,0.0007332964451052248,-3.2434865715913475e-05,-0.0006468823994509876
1.7294964699512712e+18,-0.0002877670049201697,0.002049943432211876,-0.0038721465971320868
1.7294964699572713e+18,0.0013372090179473162,0.0008253554697148502,-0.00010463257785886526
1.7294964699662715e+18,-0.0017303323838859797,-0.0012136314762756228,0.00037659896770492196
1.7294964699752717e+18,4.281059773347806e-06,0.0004780808521900326,0.00022419933520723134
1.7294964699812718e+18,0.002736510243266821,0.00040707472362555563,0.00025133081362582743
1.729496469990272e+18,0.0025619412772357464,0.0025861372705549,0.0025633000768721104
1.729496469996272e+18,-0.002487120684236288,0.00216883746907115,-0.001963008427992463
1.7294964700052723e+18,0.0010330390650779009,-0.00024349326849915087,-0.0012822975404560566
1.7294964700142725e+18,-0.0016189775196835399,-0.005976730491966009,0.001008130144327879
1.7294964700232727e+18,-0.0031441389583051205,-0.012943304143846035,-0.0019541196525096893
1.729496470032273e+18,-0.004901541862636805,-0.022484729066491127,-0.0023774609435349703
1.729496470038273e+18,-0.003982974216341972,-0.021328222006559372,-0.00027469973429106176
1.7294964700472732e+18,-0.0020169843919575214,-0.02561056613922119,0.000508260156493634
1.7294964700562734e+18,0.001214189687743783,-0.02207103557884693,0.001656252657994628
1.7294964700622735e+18,0.00022445217473432422,-0.022159496322274208,-0.0021142419427633286
1.7294964700712737e+18,-0.0008573243976570666,-0.02076435089111328,-0.0022894793655723333
1.729496470080274e+18,-0.0005452934419736266,-0.01855529472231865,3.217670018784702e-05
1.729496470089274e+18,-0.004050901159644127,-0.022409826517105103,-4.170482134213671e-05
1.7294964700952742e+18,-0.005138636566698551,-0.02035001665353775,3.1745745218358934e-05
1.7294964701042744e+18,-0.006700798869132996,-0.024978403002023697,0.0002031404583249241
1.7294964701132746e+18,-0.0017713154666125774,-0.022862402722239494,-0.0004459490010049194
1.7294964701222748e+18,-0.0006599670159630477,-0.017728477716445923,-0.0015177677851170301
1.729496470131275e+18,0.0027102981694042683,-0.018183492124080658,0.0032174817752093077
1.7294964701372751e+18,0.0025515335146337748,-0.018021881580352783,0.001461755484342575
1.7294964701462753e+18,0.0007250430062413216,-0.013375414535403252,-0.0011677094735205173
1.7294964701552755e+18,-0.001039695693179965,-0.011547072790563107,7.206118607427925e-05
1.7294964701642757e+18,0.0013045939849689603,-0.012354930862784386,-9.675994806457311e-05
1.7294964701702758e+18,0.0008088052272796631,-0.013826437294483185,0.0002470836043357849
1.729496470179276e+18,-0.0033393194898962975,-0.01212592888623476,-0.00020438560750335455
1.7294964701882762e+18,7.942726369947195e-05,-0.012819558382034302,-3.652054874692112e-05
1.7294964701972764e+18,0.003855628427118063,-0.010755624622106552,0.0015102964825928211
1.7294964702062766e+18,0.0019558570347726345,-0.005226644687354565,0.0007786006317473948
1.7294964702122767e+18,0.001888337079435587,-0.006816190667450428,0.000633810821454972
1.729496470221277e+18,0.0022888248786330223,-0.0009851003997027874,-0.0010833261767402291
1.729496470230277e+18,0.0012052186066284776,-0.00381925399415195,0.0006275628693401814
1.7294964702392773e+18,-0.0002844898262992501,-0.002534897066652775,0.0012433237861841917
1.7294964702482775e+18,-0.0016414886340498924,0.0005086724413558841,-0.002258827444165945
1.7294964702542776e+18,-0.0012031650403514504,0.0035390746779739857,0.0016899674665182829
1.7294964702632778e+18,0.00012793528730981052,0.00035708214272744954,0.0009934757836163044
1.729496470272278e+18,0.0012301605893298984,0.00272698444314301,0.0021397380623966455
1.7294964702782781e+18,0.0019683900754898787,0.0006485325284302235,-0.0014270180836319923
1.7294964702872783e+18,0.0036619817838072777,0.0047010136768221855,0.0033472448121756315
1.7294964702962785e+18,0.0018193987198174,0.003290783613920212,-0.00018344735144637525
1.7294964703052787e+18,0.0020938152447342873,0.006643814966082573,0.0010376502759754658
1.729496470314279e+18,-0.0011011278256773949,0.0020008825231343508,-0.001029715407639742
1.729496470323279e+18,0.001669198740273714,0.005570512730628252,-0.0010574591578915715
1.7294964703322793e+18,0.0020032369066029787,0.0034065053332597017,-0.00013163083349354565
1.7294964703382794e+18,0.0006536361179314554,0.005555420648306608,0.0012350527103990316
1.7294964703472796e+18,0.005145917646586895,0.008587591350078583,-0.00085957016563043
1.7294964703562798e+18,0.004128019791096449,0.007673798128962517,0.0015693171881139278
1.72949647036528e+18,0.002530211815610528,0.01040151808410883,0.00012597680324688554
1.7294964703742802e+18,0.002220466732978821,0.007936632260680199,-0.0007894054870121181
1.7294964703802803e+18,0.002923129126429558,0.008730508387088776,0.0030734860338270664
1.7294964703892805e+18,0.003540268400683999,0.011020423844456673,-0.001617804286070168
1.7294964703982807e+18,0.0020360962953418493,0.010327200405299664,-0.00047144058044068515
1.729496470407281e+18,0.0019478410249575973,0.006535347551107407,-0.0009737653890624642
1.729496470416281e+18,0.0009916052222251892,0.008645210415124893,0.0002651923568919301
1.7294964704222812e+18,-0.000506991520524025,0.011160959489643574,0.0003207067493349314
1.7294964704312814e+18,0.0021912306547164917,0.009928053244948387,-0.003980356268584728
1.7294964704372815e+18,0.00036454174551181495,0.01241761352866888,-0.0012766742147505283
1.7294964704462817e+18,0.0023837785702198744,0.01049632765352726,-0.0007957097259350121
1.729496470455282e+18,-0.0015145947691053152,0.01169288158416748,0.0010195954237133265
1.729496470464282e+18,0.0008015859639272094,0.009461313486099243,0.0022270148620009422
1.7294964704702822e+18,-0.001228182460181415,0.011717635206878185,-0.0003082812181673944
1.7294964704792824e+18,0.0019445271464064717,0.010347229428589344,0.0020408635027706623
1.7294964704882826e+18,0.003562214085832238,0.009268518537282944,0.0029944779817014933
1.7294964704972828e+18,-0.0005198813742026687,0.00840410403907299,-0.001514305593445897
1.729496470503283e+18,-0.003784129861742258,0.008603375405073166,0.0022429637610912323
1.7294964705122831e+18,-0.004122563637793064,0.007648987229913473,-0.00018402098794467747
1.7294964705182833e+18,-0.007272778078913689,0.004211587831377983,0.0019226206932216883
1.7294964705272835e+18,-0.004763287492096424,0.008222856558859348,-0.0004692109941970557
1.7294964705362836e+18,0.0007396942819468677,0.005801687482744455,-0.002111813286319375
1.7294964705422838e+18,0.0021863775327801704,0.005983035080134869,-0.0007220808765850961
1.729496470551284e+18,0.006169100757688284,0.0064233592711389065,0.001499671721830964
1.7294964705602842e+18,0.004921669140458107,0.010473018512129784,-0.00037809653440490365
1.7294964705662843e+18,0.002039930084720254,0.007080037612468004,0.0016139831859618425
1.7294964705752845e+18,-7.756664126645774e-05,0.006081219296902418,-0.0012376130325719714
1.7294964705842847e+18,-0.004164465237408876,0.0047039068304002285,-0.0020881497766822577
1.7294964705902848e+18,-0.0010850627440959215,0.003343865741044283,-0.004366734530776739
1.729496470599285e+18,-0.0020634285174310207,0.0032581272535026073,0.00023808045079931617
1.7294964706082852e+18,7.00752716511488e-05,0.005793537478893995,-0.0008114475640468299
1.7294964706172854e+18,0.0017475651111453772,0.004435061942785978,-0.001710511278361082
1.7294964706262856e+18,0.008607485331594944,0.006247830111533403,-0.0023116380907595158
1.7294964706352858e+18,0.004705710336565971,0.006734298076480627,-0.003416308667510748
1.729496470644286e+18,0.0009001302532851696,0.008231146261096,-0.0008619406726211309
1.729496470650286e+18,0.0030349665321409702,0.005143987014889717,0.0011578486301004887
1.7294964706592863e+18,-0.0001446866081096232,0.006611395161598921,-0.002814331091940403
1.7294964706652864e+18,-0.0007695059757679701,0.0027457436081022024,0.0005948935286141932
1.7294964706742866e+18,0.004079804290086031,0.008757054805755615,0.0009438502602279186
1.7294964706832868e+18,0.00611868454143405,0.004659522324800491,-0.0014226138591766357
1.729496470692287e+18,0.008371703326702118,0.006872070953249931,-0.0029280614107847214
1.7294964707012872e+18,0.003985367249697447,0.008600004948675632,-0.0008306435192935169
1.7294964707102874e+18,0.003284097881987691,0.006707671098411083,-0.0005346950492821634
1.7294964707192876e+18,0.0035946546122431755,0.004331297241151333,-0.0001899155613500625
1.7294964707252877e+18,0.0005358951748348773,0.005677140783518553,-0.0008285827934741974
1.729496470734288e+18,0.001939492765814066,0.004034031182527542,-0.0015889157075434923
1.729496470740288e+18,-0.002092018024995923,0.004441737197339535,-0.0026382370851933956
1.7294964707492882e+18,0.003360005095601082,0.004402952268719673,-0.004480424337089062
1.7294964707582884e+18,0.002806300763040781,0.003482576459646225,0.00027107069035992026
1.7294964707672886e+18,0.004006922245025635,0.003646200057119131,-0.0016393348341807723
1.7294964707762888e+18,0.0015538454754278064,0.004192139022052288,-0.001597783761098981
1.729496470785289e+18,0.0014605589676648378,0.00525853643193841,-0.0018426687456667423
1.729496470791289e+18,0.0007951686857268214,0.0019009686075150967,0.001881507458165288
1.7294964708002893e+18,0.0018841183045879006,0.001165070105344057,-0.0006621431675739586
1.7294964708092895e+18,-0.0016857510199770331,0.002467060461640358,-0.0011549696791917086
1.7294964708152896e+18,0.0023369016125798225,0.0032827795948833227,-0.0007725260220468044
1.7294964708242898e+18,-0.0001888196711661294,0.003756788792088628,-0.0002880712563637644
1.72949647083329e+18,0.001592145999893546,0.003744463436305523,0.0008652852266095579
1.7294964708422902e+18,0.0006856547552160919,0.006648002192378044,0.0005618454306386411
1.7294964708512904e+18,0.0011236958671361208,0.004057404585182667,-0.0012063933536410332
1.7294964708602906e+18,-0.0022683795541524887,0.005768079776316881,-0.0026265736669301987
1.7294964708692908e+18,-0.005545470397919416,0.006842376198619604,0.0010131089948117733
1.729496470878291e+18,-0.004554467741400003,0.0039698341861367226,-0.0012499471195042133
1.729496470884291e+18,-0.002891058102250099,0.0035167881287634373,-0.002227501478046179
1.7294964708932913e+18,-0.003073242260143161,0.001065807999111712,-0.0010927293915301561
1.7294964709022915e+18,-0.0015901162987574935,0.0029300095047801733,-0.0010376148857176304
1.7294964709082916e+18,-0.0037099833134561777,0.0013750878861173987,-0.0005451752804219723
1.7294964709172918e+18,-0.0013688423205167055,-0.0008307674434036016,-0.0016812426038086414
1.729496470926292e+18,-0.0003615235909819603,-0.0015062224119901657,0.002536977408453822
1.729496470932292e+18,-0.001482567167840898,-0.00045002246042713523,0.00021228700643405318
1.7294964709412923e+18,-0.004320207983255386,0.005019243340939283,-0.0007788683287799358
1.7294964709472924e+18,-0.004824256990104914,0.0002716542221605778,-0.0009351267945021391
1.7294964709592927e+18,-0.003378680208697915,-0.0030176271684467793,-8.6904939962551e-05
1.7294964709682929e+18,-0.003683936782181263,-0.0006590236444026232,0.0014129877090454102
1.729496470974293e+18,-0.001782882958650589,-0.0019876041915267706,-0.0017545127775520086
1.7294964709832932e+18,-0.0007279714336618781,-0.001026728074066341,-0.0003631704312283546
1.7294964709922934e+18,-0.0021558343432843685,-0.0008801441290415823,0.002008718205615878
1.7294964710012936e+18,0.00017322367057204247,-0.0006593747530132532,0.000827355426736176
1.7294964710102938e+18,-0.0015568395610898733,-0.0013303350424394011,-0.00023881232482381165
1.729496471019294e+18,-0.004953978583216667,0.0027934564277529716,-0.0003379640111234039
1.729496471025294e+18,-0.004941572900861502,0.0023067251313477755,-0.0004912972799502313
1.7294964710342943e+18,-0.00549537455663085,0.0025794426910579205,0.0022513954900205135
1.7294964710432945e+18,-0.007937682792544365,-0.003290040884166956,-0.0015743541298434138
1.7294964710522947e+18,-0.004797755740582943,-0.0035552731715142727,0.0016099202912300825
1.7294964710612948e+18,-0.003640972077846527,-0.003406391479074955,0.000430016138125211
1.729496471067295e+18,-0.005783322267234325,-0.0021279819775372744,-0.0014716474106535316
1.7294964710762952e+18,-0.004631679970771074,-0.0005065547884441912,0.002983781509101391
1.7294964710852954e+18,-0.005763550288975239,-0.0022107779514044523,-0.0021541048772633076
1.7294964710912955e+18,-0.0037698494270443916,-0.000929152243770659,-0.0015223303344100714
1.7294964711002957e+18,-0.004603893030434847,0.00019099688506685197,-0.0005354168824851513
1.7294964711092959e+18,-0.00247569871135056,0.0008876968640834093,0.0009171813144348562
1.729496471118296e+18,-0.0037041879259049892,0.0002770539722405374,0.0009490358643233776
1.7294964711242962e+18,-0.002943434054031968,0.0012062370078638196,-7.206399459391832e-05
1.7294964711332964e+18,0.006486030761152506,0.0028211907483637333,-0.0009271777234971523
1.7294964711392965e+18,-0.0008985239546746016,0.0015769728925079107,-0.0022934838198125362
1.7294964711482967e+18,0.0039759110659360886,0.0016020056791603565,-0.0026980070397257805
1.7294964711542968e+18,-1.05204017017968e-05,0.0037945699878036976,-0.0006946551147848368
1.729496471163297e+18,-0.0011134238447993994,0.003409994300454855,0.0003544699866324663
1.7294964711722972e+18,-0.0037635215558111668,0.0029533137567341328,0.0018712859600782394
1.7294964711812974e+18,-0.0033448021858930588,0.0013539623469114304,1.477514160797e-05
1.7294964711902976e+18,-0.00211402028799057,0.001288028433918953,-0.0005211349343881011
1.7294964711962977e+18,0.0006179659394547343,-7.731840014457703e-06,-0.0007348989602178335
1.729496471205298e+18,0.002373790368437767,0.0022281031124293804,0.0032295240089297295
1.729496471214298e+18,0.0032935738563537598,0.0016884347423911095,-0.003303099889308214
1.7294964712232983e+18,0.004232436418533325,0.0001699489075690508,-0.0017866117414087057
1.7294964712322985e+18,0.0007910438580438495,0.0004099674697499722,-0.0002128642809111625
1.7294964712412987e+18,-0.002214167732745409,0.0002143062010873109,0.0013866978697478771
1.729496471253299e+18,-0.0017254108097404242,-0.0009893897222355008,0.0006402431754395366
1.7294964712622991e+18,0.00045021570986136794,0.0014656883431598544,-0.000328943831846118
1.7294964712712993e+18,0.005462191998958588,-0.0014405172551050782,0.0006101560429669917
1.7294964712802995e+18,0.004185861442238092,0.0011137414257973433,-0.0010558621725067496
1.7294964712892997e+18,0.0030306275002658367,0.0007001053309068084,-0.00087690819054842
1.7294964713013e+18,0.0049274214543402195,0.0025017487350851297,-0.0006512264371849597
1.7294964713103002e+18,0.0016556400805711746,0.002134824637323618,-0.0007674332009628415
1.7294964713193004e+18,0.0024020487908273935,0.000536089763045311,-0.0002578458224888891
1.7294964713283005e+18,0.0007963223615661263,0.0005706626689061522,-0.0015172272687777877
1.7294964713373007e+18,0.0006785226869396865,0.004081785213202238,0.0028045547660440207
1.729496471346301e+18,0.0026755062863230705,0.002491611521691084,0.001753210905008018
1.729496471355301e+18,0.0015519768930971622,0.005279853008687496,-0.0029585983138531446
1.7294964713673014e+18,0.00021731856395490468,0.005518998950719833,0.00020211568335071206
1.7294964713763016e+18,-0.002083568135276437,0.0052571892738342285,0.0002305955276824534
1.7294964713853018e+18,-0.004507088102400303,0.0010624704882502556,-0.0021001172717660666
1.729496471394302e+18,-0.0033884146250784397,0.003433583304286003,-0.0014963087160140276
1.7294964714033021e+18,-0.0018476077821105719,0.00338157219812274,-0.00020627700723707676
1.7294964714123023e+18,-0.002816176973283291,0.001607860904186964,0.0019056068267673254
1.7294964714213025e+18,-0.00026340666227042675,0.0029155872762203217,-0.002454618224874139
1.7294964714303027e+18,0.004538747947663069,0.0034078971948474646,-0.004088729619979858
1.729496471442303e+18,0.000972474692389369,0.001574002206325531,-0.0033644598443061113
1.7294964714513032e+18,0.0021152913104742765,0.0016281496500596404,-0.0034755668602883816
1.7294964714603034e+18,0.00011986313620582223,0.00024465969181619585,0.0005989426863379776
1.7294964714693036e+18,0.001965443603694439,0.0034243264235556126,-0.0015847464092075825
1.7294964714783037e+18,0.0016485783271491528,0.0017941849073395133,0.000987021834589541
1.729496471487304e+18,0.00311137642711401,0.0027228351682424545,0.0006446035695262253
1.729496471496304e+18,0.0011343664955347776,0.0001714153913781047,-0.002761827316135168
1.7294964715053043e+18,-0.0013723443262279034,0.0016454261494800448,0.0005133840022608638
1.7294964715143045e+18,0.002043530810624361,0.00024766329443082213,-0.000986940460279584
1.7294964715233047e+18,-0.0008811925072222948,0.00010580330854281783,-0.0006522451294586062
1.729496471532305e+18,0.0030234502628445625,0.00018044290482066572,-6.1042956076562405e-06
1.729496471541305e+18,0.0038722578901797533,0.0031790360808372498,-0.0042314473539590836
1.7294964715503053e+18,0.0024385242722928524,-0.0014319268520921469,-0.003742089495062828
1.7294964715593055e+18,0.0015789356548339128,0.0005680642207153141,-0.0007392228581011295
1.7294964715683057e+18,-0.0019374177791178226,-0.001220362028107047,-0.0004748844658024609
1.7294964715773059e+18,-0.005281159654259682,0.0008193780086003244,0.001489076646976173
1.729496471586306e+18,-0.004057747311890125,-0.0020205359905958176,0.0018004560843110085
1.7294964715953062e+18,-0.004111140500754118,0.0017103677382692695,0.0010349961230531335
1.7294964716073065e+18,0.0009410986094735563,0.0021962819155305624,-0.00019639218226075172
1.7294964716163067e+18,-0.0010910618584603071,0.0010783375473693013,-0.0006419315468519926
1.7294964716223068e+18,0.0023991060443222523,0.003555426374077797,-0.0006991780828684568
1.729496471631307e+18,-0.0005873157642781734,0.0009948840597644448,0.005265652202069759
1.7294964716403072e+18,-0.0013587685534730554,0.0009004747844301164,0.010915875434875488
1.7294964716493074e+18,-0.002386654494330287,-2.1268569980747998e-05,0.010893266648054123
1.7294964716583076e+18,-0.0018385169096291065,0.0006744439015164971,0.008945242501795292
1.7294964716673078e+18,0.003119426779448986,0.0006938830483704805,0.010712770745158195
1.729496471679308e+18,0.004185081459581852,0.0009069048683159053,0.009052164852619171
1.7294964716883082e+18,0.002845773007720709,0.00015985011123120785,0.010782497003674507
1.7294964716973084e+18,0.0027587171643972397,0.0024042916484177113,0.0075031546875834465
1.7294964717063086e+18,0.003661848371848464,0.0011126752942800522,0.007347842678427696
1.7294964717153088e+18,0.001986039336770773,0.0011480230605229735,0.009199593216180801
1.729496471724309e+18,0.00413906667381525,-0.0011208520736545324,0.005714358761906624
1.7294964717333092e+18,0.0029795679729431868,-5.930522456765175e-05,0.0053522344678640366
1.7294964717423094e+18,0.0035705186892300844,-0.0017343468498438597,0.007093263790011406
1.7294964717513096e+18,0.005565295927226543,0.0012275592889636755,0.011209857650101185
1.7294964717573097e+18,0.003301565069705248,0.002109796740114689,0.005940977483987808
1.72949647176631e+18,0.001997212180867791,0.00021577021107077599,0.008759596385061741
1.72949647177531e+18,0.003356924746185541,0.0008706253720447421,0.006530860438942909
1.7294964717843103e+18,0.001984518487006426,0.002841554582118988,0.008015490137040615
1.7294964717933105e+18,0.0021951282396912575,0.00040658668149262667,0.007030426524579525
1.7294964718023107e+18,0.0061075747944414616,-0.0003115992876701057,0.008299174718558788
1.7294964718113108e+18,0.0036641370970755816,-0.0006425157189369202,0.009887139312922955
1.729496471820311e+18,0.0022759444545954466,0.00022050831466913223,0.008866806514561176
1.7294964718293112e+18,-0.001784728723578155,-0.0006147806998342276,0.006346754729747772
1.7294964718383114e+18,-0.0008753555594012141,0.0028743513394147158,0.006741771474480629
1.7294964718473116e+18,0.0002309365663677454,0.00460404995828867,0.011012455448508263
1.7294964718563118e+18,0.0015074900584295392,0.0029032977763563395,0.008502724580466747
1.729496471865312e+18,0.0020610718056559563,0.003797133220359683,0.009667551144957542
1.7294964718743122e+18,0.0020009141881018877,0.00464540533721447,0.010409875772893429
1.7294964718833124e+18,0.0021445653401315212,0.0012112216791138053,0.011265715584158897
1.7294964718923126e+18,-0.0025853130500763655,0.002956636715680361,0.011233982630074024
1.7294964718983127e+18,-0.002673655515536666,0.00028162915259599686,0.0035958155058324337
1.729496471907313e+18,-0.0040373848751187325,0.00040703394915908575,0.009561842307448387
1.729496471916313e+18,-5.895690992474556e-05,0.0016756497789174318,0.007976342923939228
1.7294964719253133e+18,0.0005516982637345791,0.005375754088163376,0.00885047484189272
1.7294964719313134e+18,0.0014913302147760987,0.005150554236024618,0.006327537819743156
1.7294964719403136e+18,0.0032432787120342255,0.005055374000221491,0.008286183699965477
1.7294964719493138e+18,-0.0006466294871643186,0.005013801623135805,0.009526219218969345
1.729496471955314e+18,0.002833062317222357,0.003897358663380146,0.00883212499320507
1.729496471964314e+18,-0.000877470476552844,0.0030436604283750057,0.006249154917895794
1.7294964719733143e+18,-0.0014332127757370472,0.0030120143201202154,0.007843049243092537
1.7294964719823145e+18,-0.0005823238752782345,0.002592917066067457,0.008086477406322956
1.7294964719883146e+18,-0.002650393173098564,0.002240887377411127,0.008157134056091309
1.7294964719973148e+18,0.0004545446718111634,0.004264496266841888,0.0074116443283855915
1.729496472006315e+18,0.0007157492218539119,0.0036786587443202734,0.006227417849004269
1.7294964720153152e+18,0.0017510856268927455,0.005821258760988712,0.00687588844448328
1.7294964720213153e+18,-0.0006171813583932817,0.0015286356210708618,0.008898151107132435
1.7294964720303155e+18,0.0003852263616863638,0.0006131355185061693,0.006252262741327286
1.7294964720363156e+18,-0.0030752739403396845,0.002991727087646723,0.007724151946604252
1.7294964720453158e+18,-0.004394125193357468,0.0002817115746438503,0.009678822010755539
1.729496472054316e+18,-0.003072613151744008,0.001640010392293334,0.0065887742675840855
1.7294964720633162e+18,-0.0007580199744552374,-0.0014064732240512967,0.007776848040521145
1.7294964720723164e+18,0.002387812826782465,0.0003116615116596222,0.0029126866720616817
1.7294964720813166e+18,0.00010820321040228009,0.001612713560461998,0.007434523664414883
1.7294964720873167e+18,0.0005036150105297565,0.002561527071520686,0.009269091300666332
1.729496472096317e+18,-0.0010088463313877583,0.000258595566265285,0.006826777011156082
1.729496472105317e+18,-0.0018160371109843254,-0.0003420213470235467,0.004498726688325405
1.7294964721143173e+18,-0.0008609582437202334,-0.001980601344257593,0.007388874422758818
1.7294964721203174e+18,-0.0012519017327576876,-0.0018044405151158571,0.008294103667140007
1.7294964721293176e+18,-0.0002722757635638118,0.00024172037956304848,0.006910199299454689
1.7294964721353178e+18,-0.0039108796045184135,0.0001986994466278702,0.0076723587699234486
1.729496472144318e+18,0.0021418461110442877,0.0008049391908571124,0.006065215449780226
1.7294964721533181e+18,0.003662716830149293,0.0003795262018684298,0.006130713503807783
1.7294964721623183e+18,-0.002235670108348131,0.0005350629799067974,0.005231757648289204
1.7294964721713185e+18,0.001318414113484323,-0.0011313052382320166,0.004422362428158522
1.7294964721773187e+18,0.0020160048734396696,-0.00024525285698473454,0.004537349566817284
1.7294964721863188e+18,0.00031455286080017686,-0.00173094030469656,0.00615447573363781
1.729496472195319e+18,0.0006824761512689292,-0.0038879471831023693,0.005448168609291315
1.7294964722043192e+18,-0.0019816106650978327,-0.0019426402868703008,0.004160639829933643
1.7294964722133194e+18,-0.0001946640550158918,-0.0019971197471022606,0.0037267575971782207
1.7294964722193196e+18,-0.0015367574524134398,7.053365698084235e-05,0.0043105073273181915
1.7294964722283197e+18,-4.08487394452095e-05,0.0014428581343963742,0.004714945796877146
1.72949647223732e+18,-0.002127167070284486,0.0019921932835131884,0.00395338237285614
1.72949647224632e+18,-0.00023490935564041138,-0.0046251798048615456,0.0032280064187943935
1.7294964722523203e+18,-0.003648839658126235,-0.0022616658825427294,0.004021358676254749
1.7294964722613204e+18,-0.0055065881460905075,-0.002862215042114258,0.002912180032581091
1.7294964722703206e+18,0.0008187091443687677,0.000505493488162756,0.007105942349880934
1.7294964722793208e+18,0.000551744073163718,-0.0035434486344456673,0.006377662532031536
1.729496472285321e+18,0.0013732679653912783,0.0007275969255715609,0.003840785939246416
1.7294964722943212e+18,0.004903273191303015,-0.0019633937627077103,0.004258151166141033
1.7294964723003213e+18,0.002536947140470147,-0.0003901502932421863,0.003607496153563261
1.7294964723093215e+18,0.003281576558947563,0.0003025452606379986,0.004712480586022139
1.7294964723183217e+18,-0.001600443385541439,-0.00346369412727654,0.005803374573588371
1.7294964723273219e+18,-0.006352968048304319,-0.0024327680002897978,0.007654482498764992
1.729496472336322e+18,-0.005029457621276379,-0.005543699022382498,0.00578642450273037
1.7294964723423222e+18,-0.0012481370940804482,-0.001176485326141119,0.0059961783699691296
1.7294964723513224e+18,0.0024714642204344273,0.0006931943353265524,0.0034515815787017345
1.7294964723603226e+18,0.003354575950652361,0.0021871081553399563,0.003903566859662533
1.7294964723693228e+18,0.003766850335523486,-0.003229369642212987,0.0014199067372828722
1.729496472375323e+18,0.002299392130225897,0.0002462501870468259,0.002575657097622752
1.729496472384323e+18,0.003215154865756631,-0.0033519049175083637,0.004326480440795422
1.7294964723933233e+18,0.001135756028816104,-0.005617949180305004,0.004427160602062941
1.7294964724023235e+18,0.00017984380247071385,-0.004952370189130306,0.004389365203678608
1.7294964724083236e+18,0.00031870391103439033,-0.0017179982969537377,0.001394027378410101
1.7294964724173238e+18,0.00035173739888705313,-0.001037847949191928,0.001569602987729013
1.729496472426324e+18,0.002703335601836443,-0.0002772286534309387,0.002603221219033003
1.729496472432324e+18,0.0005821052473038435,0.0021270131692290306,0.001685278839431703
1.7294964724413243e+18,0.0007438067113980651,0.0014980137348175049,0.002038879320025444
1.7294964724503245e+18,0.0028574171010404825,0.00039515175740234554,0.0010369186056777835
1.7294964724593247e+18,0.0018757421057671309,0.0025433578994125128,0.0015735384076833725
1.7294964724653248e+18,0.0024776228237897158,0.0001165587455034256,0.0018861079588532448
1.729496472474325e+18,-0.00012912333477288485,-0.0002810604637488723,0.004100053571164608
1.7294964724833252e+18,0.00024357603979296982,-0.003569412510842085,0.0019623071420937777
1.7294964724923254e+18,-0.001644125091843307,-0.004059188533574343,0.0019082771614193916
1.7294964725013256e+18,0.0006541750626638532,-0.0014061215333640575,0.004171109292656183
1.7294964725073257e+18,0.00016621453687548637,-0.00040702574187889695,0.0038886552210897207
1.729496472516326e+18,0.0040435646660625935,-0.001546843210235238,0.0012043432798236609
1.729496472525326e+18,0.004363672807812691,-0.000523522961884737,0.002676536561921239
1.7294964725313262e+18,0.0009502372704446316,-0.0010352428071200848,0.0004049167037010193
1.7294964725403264e+18,0.0027366892900317907,-0.0036699853371828794,0.0030558728612959385
1.7294964725493266e+18,-0.003181195817887783,-0.0024004997685551643,0.0014658203581348062
1.7294964725583268e+18,-0.00029566013836301863,-0.004541449248790741,0.0018374713836237788
1.729496472564327e+18,-0.0005393385654315352,-0.003916984423995018,-0.00010069622658193111
1.729496472573327e+18,0.0017045300919562578,-0.0035602711141109467,0.0029020505025982857
1.7294964725793272e+18,0.004637719597667456,-0.0002165279584005475,0.0015703124227002263
1.7294964725883274e+18,0.004146854393184185,-0.0031871157698333263,0.0026215461548417807
1.7294964725973276e+18,0.0027871201746165752,-0.0025008528027683496,0.0030083118472248316
1.7294964726033277e+18,0.005471370182931423,-0.0055655124597251415,0.0013930705608800054
1.729496472612328e+18,0.0013211042387410998,-0.0050554764457046986,0.0008919882238842547
1.729496472618328e+18,0.00256167771294713,-0.004129278473556042,7.00182281434536e-05
1.7294964726273283e+18,0.0043792217038571835,-0.0045755114406347275,0.0015058531425893307
1.7294964726363284e+18,0.0030819387175142765,-0.0016678054817020893,0.001103926682844758
1.7294964726453286e+18,0.0068580638617277145,-0.0038302335888147354,0.0008070577750913799
1.7294964726543288e+18,0.004569816868752241,-0.002077399753034115,0.002072360133752227
1.729496472663329e+18,0.0043314071372151375,-0.004337243735790253,0.0009493787074461579
1.7294964726693292e+18,0.004030046984553337,0.00013355317059904337,0.00474706944078207
1.7294964726783293e+18,0.0031596263870596886,-0.0032942737452685833,0.0010072945151478052
1.7294964726873295e+18,0.0018473952077329159,-0.005104363430291414,0.002050144365057349
1.7294964726963297e+18,0.0019979055505245924,-0.004477733746170998,0.0016170628368854523
1.7294964727023299e+18,0.002557500498369336,-0.002553570084273815,-0.0020283348858356476
1.72949647271133e+18,0.0035186209715902805,-0.0058061182498931885,0.0006963298073969781
1.7294964727203302e+18,0.0007439366891048849,-0.002981720492243767,-0.00014359329361468554
1.7294964727263304e+18,-0.0009662222000770271,-0.006786040961742401,0.0036033052019774914
1.7294964727353306e+18,-0.002488014753907919,-0.002593577839434147,0.003476071637123823
1.7294964727443308e+18,-0.0025973934680223465,-0.0011593764647841454,0.0037010754458606243
1.729496472753331e+18,-0.0008359560742974281,-0.0010991264134645462,0.0003671794547699392
1.729496472759331e+18,-0.00017478715744800866,-9.657652117311954e-05,-0.00046312587801367044
1.7294964727683313e+18,0.0009801534470170736,-0.0018825642764568329,0.004523796495050192
1.7294964727743314e+18,-0.0007685422897338867,-0.003322000615298748,-0.0005721932393498719
1.7294964727833316e+18,0.0032020919024944305,-0.0006902083987370133,0.0018669094424694777
1.7294964727923318e+18,-0.004134451970458031,-0.0008980844868347049,0.0005422787507995963
1.729496472798332e+18,-0.0019547611009329557,0.0006175320595502853,0.0012197047472000122
1.729496472807332e+18,-0.005189934279769659,-0.00193495349958539,-0.0021587517112493515
1.7294964728163323e+18,-0.004365446977317333,-0.0016852993285283446,0.0004982120590284467
1.7294964728253325e+18,-0.005882113240659237,-0.0006835188250988722,-0.00045639119343832135
1.7294964728343327e+18,2.8477166779339314e-05,-0.001951519981957972,-0.0027084997855126858
1.7294964728433329e+18,-0.0019592333119362593,-0.001584052573889494,0.0004993181210011244
1.729496472852333e+18,-0.0015268254792317748,-0.002406155224889517,0.00030395708745345473
1.7294964728583332e+18,-0.0006031327648088336,-0.0026015203911811113,-0.0001850124099291861
1.7294964728673334e+18,-0.006155615206807852,-0.000413718749769032,0.0010161601239815354
1.7294964728763336e+18,-0.005435040686279535,0.0007647052989341319,0.0023199955467134714
1.7294964728853338e+18,-0.004542557522654533,0.0005120208952575922,-0.001167377457022667
1.729496472894334e+18,-0.005832937080413103,-0.0023506246507167816,0.0002568522177170962
1.7294964729033341e+18,-0.0009259580983780324,0.0007398553425446153,-0.00220093154348433
1.7294964729093343e+18,0.00018730579176917672,-0.0021653790026903152,0.0010195347713306546
1.7294964729183345e+18,-0.0018276347545906901,0.001528498949483037,-0.001052057952620089
1.7294964729273347e+18,-0.0014413825701922178,-5.6624761782586575e-05,0.0037951255217194557
1.7294964729363348e+18,-0.002120030578225851,-0.0013950583525002003,-0.0017504268325865269
1.729496472942335e+18,-0.0010707422625273466,0.0033296060282737017,-0.0009591893758624792
1.7294964729513352e+18,-0.0023099989630281925,-0.001933396328240633,-0.0007990142330527306
1.7294964729603354e+18,-0.00234929914586246,-0.0005323662189766765,0.0004797239671461284
1.7294964729693356e+18,-0.0019910947885364294,-0.004259611014276743,0.003668443066999316
1.7294964729753357e+18,-0.0007617435185238719,0.00015283521497622132,-0.0025014784187078476
1.729496472984336e+18,-0.003525996347889304,0.0005921596894040704,0.0017675890121608973
1.729496472993336e+18,0.0007127808639779687,-0.0029270928353071213,0.000222816554014571
1.7294964729993362e+18,0.002077836077660322,0.0007191314944066107,-0.00010768607899080962
1.7294964730083364e+18,-6.009111530147493e-06,-0.0015692950692027807,0.0015320262173190713
1.7294964730143365e+18,0.00022179866209626198,-0.004056986421346664,0.0012073371326550841
1.7294964730233367e+18,-0.0008070074254646897,0.0028879691381007433,0.0019403360784053802
1.729496473032337e+18,-0.0015885720495134592,-0.0017742380732670426,-0.001692758989520371
1.729496473041337e+18,-0.0007499965140596032,-0.0025096905883401632,0.0019288889598101377
1.7294964730473372e+18,0.0006231783190742135,0.00026666978374123573,-0.0025742838624864817
1.7294964730563374e+18,-0.002241329289972782,0.0030155337881296873,0.0021930059883743525
1.7294964730653376e+18,0.0007915360620245337,0.0007716990076005459,0.0004203205753583461
1.7294964730713377e+18,-0.0018416133243590593,0.0010919299675151706,0.0008240767056122422
1.729496473080338e+18,-0.0032835383899509907,-0.0012667473638430238,0.0009328993037343025
1.729496473089338e+18,-0.001531071844510734,-0.0011778525076806545,0.00168037845287472
1.7294964730983383e+18,-0.0013055000454187393,-0.00042558126733638346,-0.0034067388623952866
1.7294964731073385e+18,-0.0033551156520843506,0.0012109193485230207,-6.780921830795705e-05
1.7294964731163387e+18,-0.00015167926903814077,-0.0005333790322765708,0.002156167756766081
1.7294964731223388e+18,0.00010715681128203869,-7.910653948783875e-05,0.00021603968343697488
1.729496473131339e+18,0.0029459120705723763,0.0009077981812879443,-0.0020424569956958294
1.7294964731403392e+18,0.0032948418520390987,0.0009823148138821125,0.002026956994086504
1.7294964731493394e+18,-0.0002133818925358355,0.0018551573157310486,-0.000934073468670249
1.7294964731583396e+18,7.307063788175583e-05,0.002857951680198312,-0.0012034284882247448
1.7294964731673398e+18,-0.001213005860336125,-7.497589103877544e-05,-0.0027767098508775234
1.72949647317634e+18,-0.0009614158188924193,0.0028055435977876186,-0.0003131452831439674
1.72949647318234e+18,0.00036398915108293295,0.0026040070224553347,-0.00279978453181684
1.7294964731913403e+18,0.0020417659543454647,0.0017100167460739613,-0.0006808920879848301
1.7294964732003405e+18,0.0018073299434036016,0.0034589909482747316,-0.0007364678895100951
1.7294964732063406e+18,-7.911579450592399e-05,0.002667693654075265,0.0002719859476201236
1.7294964732153408e+18,-0.0011752300197258592,0.0004860501503571868,0.0005420593079179525
1.729496473221341e+18,-0.0021799798123538494,0.00015184644144028425,-0.000548489042557776
1.729496473230341e+18,-0.0029144741129130125,-0.0017457932699471712,-0.00013751009828411043
1.7294964732393413e+18,-0.002514458494260907,0.0026588616892695427,-1.7719605239108205e-05
1.7294964732483415e+18,-0.004971698392182589,0.0007333969697356224,0.0002353785966988653
1.7294964732543416e+18,-0.002374468371272087,0.00011536991223692894,-0.0018589263781905174
1.7294964732633418e+18,-0.003106412012130022,0.0023904216941446066,-0.0011658391449600458
1.729496473272342e+18,-0.0028819250874221325,0.001938559697009623,-0.001286036567762494
1.7294964732813422e+18,-5.7088444009423256e-05,-0.003528658067807555,-0.003063259180635214
1.7294964732873423e+18,-0.000714375521056354,-0.00037591514410451055,0.0008121792343445122
1.7294964732963425e+18,-0.003749452531337738,-0.001036985544487834,-0.00247904472053051
1.7294964733053427e+18,-0.004506969358772039,-0.0018511046655476093,-0.0005873306654393673
1.729496473314343e+18,-0.0017116041854023933,-0.0025317566469311714,0.0015973533736541867
1.729496473323343e+18,-0.005736691877245903,-0.00041096023051068187,0.0009748610900714993
1.7294964733323433e+18,-0.0005967529723420739,0.0013020322658121586,-0.0028421152383089066
1.7294964733413435e+18,-0.0001660442358115688,-0.0013534114696085453,-0.0017312810523435473
1.7294964733473436e+18,0.0015114722773432732,0.0004148477455601096,0.0018129857489839196
1.7294964733563438e+18,-0.001824893755838275,0.0028316318057477474,0.002427175175398588
1.729496473365344e+18,0.00041474367026239634,0.001670459983870387,0.0010215912479907274
1.7294964733743442e+18,-0.0003474405384622514,0.0019159179646521807,-0.0002333550073672086
1.7294964733833444e+18,0.004117200151085854,0.0020520000252872705,-0.002273882506415248
1.7294964733893445e+18,0.0007288956549018621,-0.00261302525177598,-0.0017132234061136842
1.7294964733983447e+18,0.0036582222674041986,-0.001008572755381465,0.0019558866042643785
1.729496473407345e+18,0.003361864946782589,-0.004279368091374636,0.00044378722668625414
1.729496473413345e+18,0.003940375987440348,-0.005284640472382307,-0.0010422391351312399
1.7294964734223452e+18,0.003092891536653042,-0.001805891515687108,-0.00037351727951318026
1.7294964734283453e+18,-0.00010229635518044233,-0.00040716512012295425,0.0023978205863386393
1.7294964734373455e+18,0.00033397634979337454,0.000319027021760121,-0.0011074349749833345
1.7294964734463457e+18,-0.0007220371626317501,-0.0005106677999719977,0.0014341776259243488
1.729496473455346e+18,0.0008444554405286908,-0.001825917512178421,0.0014937762171030045
1.729496473464346e+18,-0.0021404402796179056,-0.0027493275701999664,-0.0008361333748325706
1.7294964734703462e+18,0.004066844005137682,-0.003970899153500795,0.00134995486587286
1.7294964734793464e+18,-2.0768202375620604e-05,-0.002105030696839094,0.0016693791840225458
1.7294964734883466e+18,-0.0010450100526213646,-0.0022218041121959686,-0.0005285312072373927
1.7294964734973468e+18,-0.0011134870583191514,-0.00026215394609607756,0.0011775833554565907
1.729496473506347e+18,-0.0024452037177979946,-0.002627195557579398,-0.003085941541939974
1.7294964735153472e+18,0.0034485147334635258,0.0007689088815823197,9.34310955926776e-05
1.7294964735243474e+18,0.0006356723606586456,-0.0017147280741482973,0.0017860536463558674
1.7294964735303475e+18,-0.0014850470470264554,-0.0035402397625148296,-0.002485434990376234
1.7294964735393477e+18,0.0021110379602760077,0.0012108131777495146,-0.0017710691317915916
1.729496473548348e+18,0.0018732890021055937,-0.000974528375081718,-0.0013224720023572445
1.729496473557348e+18,0.001716578146442771,0.0022067041136324406,0.00032433291198685765
1.7294964735663483e+18,0.003178308717906475,-0.0004444961668923497,0.00259097246453166
1.7294964735753485e+18,-0.0003982854541391134,0.0030435090884566307,-0.0021334667690098286
1.7294964735843487e+18,-0.0021597761660814285,0.0022783551830798388,-0.0010717420373111963
1.7294964735903488e+18,-0.0004371665418148041,0.001015862450003624,-0.0028014173731207848
1.729496473599349e+18,-0.0024475185200572014,0.0025542527437210083,-0.0013260862324386835
1.7294964736083492e+18,0.0007355195702984929,0.0016578081995248795,-0.0009765366557985544
1.7294964736173494e+18,0.0007191814947873354,0.0014607245102524757,-0.0009445363539271057
1.7294964736263496e+18,-0.0025098349433392286,0.007903758436441422,0.0027901791036128998
1.7294964736353498e+18,2.138080890290439e-05,0.003880596486851573,-0.0005235464195720851
1.72949647364435e+18,0.001370914513245225,0.00041112222243100405,-3.3718126360327005e-05
1.7294964736533501e+18,0.00047023469232954085,0.0021181046031415462,-0.002912941388785839
1.7294964736623503e+18,-0.0006749831954948604,-0.0031951714772731066,-0.0014929850585758686
1.7294964736683505e+18,-0.0028201902750879526,0.0006965924403630197,0.0031082644127309322
1.7294964736773507e+18,0.001384226605296135,-0.0008586668991483748,-0.0013875262811779976
1.7294964736863508e+18,-0.0005040658870711923,0.0022334789391607046,-0.003610980464145541
1.729496473695351e+18,0.0016810536617413163,0.003579671960324049,0.000541865301784128
1.7294964737043512e+18,0.00181247026193887,0.0004332831595093012,0.001241347286850214
1.7294964737133514e+18,-0.0021788659505546093,0.0014155014650896192,-0.0017023830441758037
1.7294964737193516e+18,-0.001787693938240409,0.0009391201310791075,-0.0016647879965603352
1.7294964737283517e+18,-0.002496061148121953,-0.0026553638745099306,-0.0015065055340528488
1.729496473737352e+18,0.0003518005250953138,-0.0027135456912219524,-0.0016541985096409917
1.729496473746352e+18,0.0003648193087428808,-0.004317630082368851,-0.002641130005940795
1.7294964737523523e+18,0.0008625753689557314,-0.00061204400844872,0.0019946713000535965
1.7294964737613524e+18,0.005902213044464588,0.0014752699062228203,-0.004574001766741276
1.7294964737703526e+18,0.001131786615587771,-0.0006088572554290295,-0.001251328270882368
1.7294964737793528e+18,-0.0012482148595154285,0.0010548075661063194,-0.00230171880684793
1.729496473785353e+18,0.0006598584586754441,-0.0033190855756402016,-0.003490836126729846
1.7294964737943532e+18,-0.001340652583166957,-0.002514328109100461,0.0009688264690339565
1.7294964738003533e+18,-0.0023146013263612986,-0.004844581708312035,-0.0004067916888743639
1.7294964738093535e+18,0.0009835383389145136,-0.006156555842608213,0.001554430229589343
1.7294964738183537e+18,-0.0004220455593895167,-0.002957554068416357,0.0006066393107175827
1.7294964738273539e+18,-0.00012088182847946882,-0.0074190404266119,0.00028316216776147485
1.729496473836354e+18,-0.00022036244627088308,-0.00473121739923954,0.002129088155925274
1.7294964738453542e+18,-0.00027923245215788484,0.00034302775748074055,-5.71227865293622e-05
1.7294964738513544e+18,-0.0015262337401509285,-0.00388971040956676,-0.0024864892475306988
1.7294964738603546e+18,0.0020897919312119484,-0.006838595494627953,0.0006199927884154022
1.7294964738693548e+18,0.0016515504103153944,-0.005832199472934008,-0.0030553475953638554
1.729496473878355e+18,0.0034652857575565577,-0.004217788111418486,-0.002426350489258766
1.7294964738873551e+18,0.003556631738319993,-0.0040978495962917805,0.00025361025473102927
1.7294964738963553e+18,0.0003668060526251793,-0.0023751442786306143,-0.002569143660366535
1.7294964739053555e+18,0.00278811389580369,-0.004045994020998478,-0.001749971299432218
1.7294964739143557e+18,-0.001072377897799015,-0.0033408557064831257,-0.0014163905289024115
1.729496473923356e+18,8.606095798313618e-05,-0.00016025127843022346,0.0011654705740511417
1.729496473929356e+18,0.0026551373302936554,-0.0029655781108886003,-0.000602126179728657
1.7294964739383562e+18,0.006129106041043997,-0.00574068259447813,-0.0009174392325803638
1.7294964739473564e+18,0.004641564562916756,-0.004629762843251228,-0.0014055214123800397
1.7294964739563566e+18,0.0029408230911940336,-0.0038739987649023533,3.3816671930253506e-05
1.7294964739653568e+18,0.001574552501551807,-0.00736274803057313,-0.0003914243425242603
1.729496473971357e+18,0.00036172615364193916,-0.005971947684884071,0.001042020390741527
1.729496473980357e+18,0.0011691160034388304,-0.005293670110404491,-0.0005688191158697009
1.7294964739893573e+18,-0.0014253670815378428,-0.004536592401564121,-0.002279701642692089
1.7294964739983575e+18,-0.0021018879488110542,-0.006818955298513174,-0.0030438248068094254
1.7294964740043576e+18,-4.6745233703404665e-05,-0.00472284434363246,-0.0007082208758220077
1.7294964740133578e+18,-0.0005358410417102277,-0.0025375692639499903,-0.0006769178435206413
1.729496474019358e+18,-0.0021549996454268694,-0.006071701645851135,-0.0006266527343541384
1.7294964740283581e+18,-0.0025630583986639977,-0.0007970483275130391,0.0006711598834954202
1.7294964740373583e+18,-0.0017875214107334614,-0.002617176156491041,-0.00231222715228796
1.7294964740463585e+18,-0.0014381746295839548,0.00027559674344956875,0.0005463997949846089
1.7294964740553587e+18,-0.003586158622056246,-0.0035445140674710274,0.0005578534910455346
1.7294964740613588e+18,-0.002363370731472969,-0.002427356317639351,-0.0019516225438565016
1.729496474070359e+18,-0.001222451333887875,-0.003012657631188631,0.0025156913325190544
1.7294964740793592e+18,-0.003018485615029931,-0.004265244118869305,-0.0011948620667681098
1.7294964740853594e+18,-0.0032561400439590216,-0.0015568940434604883,-0.000556865066755563
1.7294964740943596e+18,-0.005107544362545013,-0.005053224042057991,-0.0046120621263980865
1.7294964741033597e+18,-0.0030083777382969856,-0.0020773974247276783,0.00023633294040337205
1.72949647411236e+18,-0.003139376873150468,-0.004072618670761585,0.000509366043843329
1.7294964741213601e+18,-0.005079470109194517,-0.0037022260949015617,0.001242690603248775
1.7294964741303603e+18,-0.0014522630954161286,-0.0016259006224572659,-0.0006054199184291065
1.7294964741363604e+18,0.0019124961690977216,-0.0005435959901660681,-0.0005803563399240375
1.7294964741453606e+18,-0.0007073005544953048,-0.0020143284928053617,-0.0014848742866888642
1.7294964741543608e+18,-0.003084281226620078,-0.00018175574950873852,-0.0012009561760351062
1.729496474160361e+18,-0.0010602633701637387,-0.004654341377317905,-0.00013595214113593102
1.7294964741693612e+18,-0.003707318101078272,-0.0024579216260463,0.0026440464425832033
1.7294964741783613e+18,-0.0064764623530209064,-0.0041883522644639015,-0.0025907536037266254
1.7294964741843615e+18,-0.003790519665926695,-0.001862741424702108,-0.0035117128863930702
1.7294964741933617e+18,-0.0034222980029881,-0.0017232932150363922,-0.0016152064781636
1.7294964742023619e+18,-0.004591602366417646,-0.00042459482210688293,-0.0040681371465325356
1.729496474208362e+18,-0.0051774196326732635,-0.0007505735266022384,-0.0005658132140524685
1.7294964742173622e+18,-0.004314246587455273,0.003487256821244955,-3.897625720128417e-05
1.7294964742263624e+18,0.0008979029953479767,-0.0006756723742000759,-0.002578596118837595
1.7294964742353626e+18,-0.0006633209413848817,0.002032489748671651,0.0003158272011205554
1.7294964742443628e+18,0.00012235966278240085,0.0009335411014035344,-0.0014234763802960515
1.729496474250363e+18,-0.001979100052267313,0.0025831027887761593,0.0003851854708045721
1.729496474259363e+18,-0.0009703288087621331,0.0019479901529848576,-0.001267174375243485
1.7294964742683633e+18,-0.0005349983694031835,0.005862934049218893,-0.002202405594289303
1.7294964742773635e+18,-0.0014342216309159994,-0.0006568701937794685,-0.0018050342332571745
1.7294964742833636e+18,-0.0028860741294920444,0.0013165315613150597,-0.0029072551988065243
1.7294964742923638e+18,0.00045037432573735714,0.001470286981202662,-0.005118055269122124
1.729496474301364e+18,0.0007920052157714963,-0.0027513839304447174,0.0006282986141741276
1.7294964743103642e+18,0.004796997644007206,0.0026346747763454914,-0.003160315565764904
1.7294964743193644e+18,0.0009302387479692698,0.0022800471633672714,-0.0012602421920746565
1.7294964743253645e+18,0.0036676954478025436,0.0001433502184227109,-0.0025361969601362944
1.7294964743343647e+18,0.003958317916840315,0.00221058982424438,-0.002656623488292098
1.7294964743433649e+18,0.003105008043348789,0.0002976347168441862,9.062839671969414e-05
1.729496474349365e+18,0.00035760231548920274,0.0014413540484383702,-0.002228294964879751
1.7294964743583652e+18,-0.0010820814641192555,0.001455165445804596,0.0024480612482875586
1.7294964743673654e+18,0.004577114246785641,-0.0014191179070621729,-0.0026526139117777348
1.7294964743763656e+18,0.001446641981601715,-0.0032113695051521063,-0.0019093446899205446
1.7294964743853658e+18,0.0051385886035859585,-0.0036364076659083366,-0.0015629424015060067
1.729496474391366e+18,0.005940644070506096,-0.0033533265814185143,-0.0006016604602336884
1.729496474400366e+18,0.0028432004619389772,-0.00011735514272004366,-0.004122954327613115
1.7294964744093663e+18,0.0022597413044422865,0.0007807578658685088,-0.003932090941816568
1.7294964744153664e+18,-0.0009816489182412624,-0.0013664276339113712,-0.0025502503849565983
1.7294964744243666e+18,0.00029646308394148946,0.00022895043366588652,-0.003884741570800543
1.7294964744333668e+18,-0.0017918962985277176,-0.0006193226436153054,-0.005428561940789223
1.729496474439367e+18,0.00356361735612154,0.0011759551707655191,-0.001880476949736476
1.729496474448367e+18,0.0019230808829888701,0.002125413855537772,-0.0038390946574509144
1.7294964744573673e+18,0.0022720051929354668,-0.0011818002676591277,-0.006345649249851704
1.7294964744663675e+18,-0.0004464271478354931,-0.003160186344757676,-0.004495385102927685
1.7294964744753677e+18,-0.0010949502466246486,-0.0023384043015539646,-0.001046027522534132
1.729496474484368e+18,0.00034384976606816053,-0.00515218498185277,-0.0037194620817899704
1.729496474493368e+18,-0.0005409733857959509,-0.005999311804771423,-0.0004881040658801794
1.7294964745023683e+18,0.0015780497342348099,-0.008969033136963844,-0.0013594386400654912
1.7294964745113684e+18,0.00038451107684522867,-0.0032715960405766964,-0.0037017976865172386
1.7294964745203686e+18,0.004229768179357052,-0.0026876688934862614,-0.002895928453654051
1.7294964745293688e+18,0.0034660431556403637,5.7694269344210625e-05,-0.0018406277522444725
1.729496474535369e+18,0.003024682868272066,-0.0003821172285825014,-0.002812475897371769
1.7294964745443692e+18,-0.0027983863838016987,-0.002031901618465781,-0.005876929499208927
1.7294964745533693e+18,-0.002791827078908682,-0.003710567019879818,-0.005804702639579773
1.7294964745623695e+18,-0.002248120494186878,-0.0012517129071056843,0.0008854251354932785
1.7294964745713697e+18,-0.0011716507142409682,-0.005230857990682125,-0.004144586622714996
1.72949647458037e+18,-0.0025150792207568884,-0.0027940161526203156,-0.0020418488420546055
1.72949647458937e+18,-0.00039853097405284643,-0.0027413342613726854,-0.005564027465879917
1.7294964745983703e+18,-0.001045944169163704,-0.0011721638729795814,-0.0010469206608831882
1.7294964746073705e+18,-0.004242122173309326,-3.0756054911762476e-05,-0.0015463442541658878
1.7294964746163707e+18,-0.004565550480037928,-0.0009386714082211256,-0.0014402354136109352
1.729496474625371e+18,-0.0035872410517185926,-0.003145375521853566,-0.003996585495769978
1.729496474634371e+18,-0.002139989286661148,0.0009041238809004426,-0.003087159711867571
1.7294964746433713e+18,-0.0031108807306736708,0.0030584337655454874,-0.002189096063375473
1.7294964746523715e+18,0.0005276941228657961,0.00042888871394097805,-0.0024806391447782516
1.7294964746613716e+18,-0.002955538686364889,0.002564975991845131,-0.0028729643672704697
1.7294964746673718e+18,-0.0026050417218357325,0.001495965989306569,-0.00040250271558761597
1.729496474676372e+18,-0.005350607912987471,-0.0004232662031427026,-0.002870837226510048
1.7294964746853722e+18,-0.007940566167235374,-0.0009282766841351986,9.053247049450874e-05
1.7294964746943724e+18,-0.005828154273331165,-0.0031374350655823946,-0.004410983063280582
1.7294964747033725e+18,-0.006931076757609844,-0.0017600897699594498,-0.0017844100948423147
1.7294964747123727e+18,-0.007201828993856907,-0.0019874770659953356,-0.0006799236871302128
1.729496474721373e+18,-0.005654354579746723,-0.0016692087519913912,-0.0036524771712720394
1.729496474727373e+18,-0.007225730922073126,-0.0032053994946181774,-0.002874598139896989
1.7294964747363732e+18,-0.004360095597803593,-0.002814236795529723,-0.003186547663062811
1.7294964747423734e+18,-0.005135692656040192,-0.0025455765426158905,-0.00360930897295475
1.7294964747513736e+18,-0.007477717008441687,8.75124242156744e-05,-0.0036906665191054344
1.7294964747603738e+18,-0.005206096917390823,-0.001583543955348432,-0.0012786295264959335
1.729496474769374e+18,-0.009980439208447933,-0.0041762590408325195,-0.0025165346451103687
1.729496474775374e+18,-0.005842911079525948,-0.0021929910872131586,0.0009452968370169401
1.7294964747843743e+18,-0.008340508677065372,-0.0035246191546320915,-0.0011441962560638785
1.7294964747933745e+18,-0.008853256702423096,-0.0024051249492913485,-0.0035423729568719864
1.7294964748023747e+18,-0.008565016090869904,-0.001898838090710342,-0.003967956639826298
1.7294964748083748e+18,-0.011331047862768173,-0.0049065230414271355,-0.001918654888868332
1.729496474817375e+18,-0.007291403599083424,-0.0030386855360120535,-0.00367934862151742
1.7294964748263752e+18,-0.010587780736386776,-0.00035890121944248676,-0.0029248478822410107
1.7294964748353754e+18,-0.009592289105057716,0.00013766763731837273,-0.001171495532616973
1.7294964748443756e+18,-0.008037733845412731,0.0006842212751507759,-0.0016536948969587684
1.7294964748533757e+18,-0.004268645774573088,-0.0014963060384616256,-0.00021021650172770023
1.729496474862376e+18,-0.004954557865858078,-0.0034336764365434647,-0.002963700797408819
1.729496474868376e+18,-0.00607388187199831,-0.0032822135835886,0.00019353837706148624
1.7294964748773763e+18,-0.004217176698148251,-0.001418369822204113,-0.003520301077514887
1.7294964748863764e+18,-0.005027167499065399,-0.002710802713409066,-0.005019165575504303
1.7294964748953766e+18,-0.0032411692664027214,0.0003131189150735736,-0.0014605897013098001
1.7294964749043768e+18,-0.0013687300961464643,-0.001091150101274252,-0.0018681649817153811
1.729496474913377e+18,-0.0006640693172812462,-0.000721881864592433,0.0010221872944384813
1.7294964749223772e+18,-0.0031435166019946337,-0.0028561712242662907,-0.00036567950155586004
1.7294964749283773e+18,-0.0056247953325510025,-0.001968095079064369,-0.0008927601738832891
1.7294964749373775e+18,-0.005683089140802622,-0.00306514254771173,0.0011615267721936107
1.7294964749463777e+18,-0.0052867466583848,-0.0008680422324687243,-0.00045645772479474545
1.729496474955378e+18,0.0004860504996031523,-0.0049909558147192,-0.0017865272238850594
1.729496474961378e+18,-0.001099026994779706,-0.003610515035688877,4.511978477239609e-05
1.7294964749703782e+18,0.000905103050172329,-0.0029667161870747805,-0.0030522672459483147
1.7294964749793784e+18,-0.0017939533572643995,-0.002880327869206667,-0.0033081332221627235
1.7294964749853786e+18,-0.0015483619645237923,-0.0020781466737389565,-0.00033658131724223495
1.7294964749943788e+18,-0.004210928454995155,-0.0038788565434515476,-0.00047522474778816104
1.729496475003379e+18,-0.0040416712872684,-0.004228178411722183,-0.0005576559342443943
1.7294964750123791e+18,-0.0012074034893885255,0.0002695840084925294,-0.0022522155195474625
1.7294964750183793e+18,-0.00025476119481027126,0.0029152347706258297,-0.0014643368776887655
1.7294964750273795e+18,-0.002772548934444785,0.0026249096263200045,0.002526797354221344
1.7294964750363796e+18,-0.0007603855337947607,0.0015166811645030975,-0.002692879643291235
1.7294964750453798e+18,0.0007122170645743608,0.0018384438008069992,-0.001605966011993587
1.72949647505438e+18,-0.0021299105137586594,-0.000808951270300895,-0.0014961616834625602
1.7294964750633802e+18,-0.002033657394349575,9.901344310492277e-05,-0.0016466116067022085
1.7294964750693804e+18,-0.0021392980124801397,-0.000917748489882797,-0.0028118120972067118
1.7294964750783805e+18,-0.00354045070707798,-4.035496385768056e-05,-0.0008765358361415565
1.7294964750843807e+18,-0.0016351211816072464,-0.001535996445454657,-8.151406655088067e-05
1.7294964750933809e+18,-0.0034751479979604483,0.0010469353292137384,-0.003003060584887862
1.729496475102381e+18,-0.00013290438801050186,-0.00039140309672802687,-9.98170580714941e-05
1.7294964751113812e+18,-0.0029450992587953806,-0.003795954864472151,-0.003008366096764803
1.7294964751203814e+18,-0.002266405150294304,0.0011248334776610136,0.00015715963672846556
1.7294964751293816e+18,-0.004526679404079914,0.00011247792281210423,-0.003604872850701213
1.7294964751353818e+18,-0.004021906293928623,-0.0026719453744590282,0.0005570173379965127
1.729496475144382e+18,-0.00758090615272522,-0.00027881423011422157,0.0007515028701163828
1.7294964751533821e+18,-0.006161087192595005,-0.0007581812678836286,-0.00046140351332724094
1.7294964751623823e+18,-0.0012277272762730718,-0.00027078649145551026,-0.0010724796447902918
1.7294964751683825e+18,-0.0026323965284973383,-0.0012829845072701573,0.0005458382656797767
1.7294964751773827e+18,-9.413823136128485e-05,-0.0020338124595582485,-0.0019408869557082653
1.7294964751833828e+18,-0.0012034799437969923,-0.0010546668199822307,-0.0002681849291548133
1.729496475192383e+18,-0.0023822421208024025,0.0015850185882300138,0.00031557318288832903
1.7294964752013832e+18,-0.0006581445340998471,-0.0010163986589759588,-0.0026715355925261974
1.7294964752103834e+18,-0.0028075813315808773,-0.003948744386434555,0.0015631840797141194
1.7294964752193836e+18,-0.00038678222335875034,-0.002909471280872822,0.0014433995820581913
1.7294964752283837e+18,-0.0005785706453025341,-0.0023857152555137873,0.00028953375294804573
1.729496475234384e+18,-0.0017471855971962214,-0.0013707722537219524,-0.0001477816404076293
1.729496475243384e+18,-0.0011542867869138718,-0.0017060093814507127,-0.001099743414670229
1.7294964752523843e+18,-0.0012852203799411654,-0.004753950983285904,0.0029927350115031004
1.7294964752613844e+18,-0.0011311768321320415,-0.0029897778294980526,-0.00508270226418972
1.7294964752673846e+18,0.0010871879057958722,-0.00280283042229712,-0.0012449836358428001
1.7294964752763848e+18,0.0003479366423562169,-0.002621637424454093,0.0006512259715236723
1.729496475285385e+18,-0.001419069361872971,-0.0023029642179608345,0.0019349412759765983
1.7294964752943852e+18,-0.0009768065065145493,-0.006378050893545151,-0.002273854333907366
1.7294964753033853e+18,-0.0012514989357441664,-0.0026467314455658197,-0.0006515035056509078
1.7294964753093855e+18,-0.001196164172142744,0.002163199009373784,-0.0016846258658915758
1.7294964753183857e+18,-0.0013943046797066927,-0.006801208481192589,0.0017772279679775238
1.7294964753273859e+18,-0.00014466140419244766,-0.002978276927024126,0.0007483619265258312
1.729496475336386e+18,-0.0011426957789808512,-0.0018719634972512722,-0.001820729929022491
1.7294964753423862e+18,-0.0008503353456035256,-0.004540485795587301,0.002815030515193939
1.7294964753513864e+18,-0.0017332788556814194,-0.0014005480334162712,0.0010387783404439688
1.7294964753603866e+18,0.00090939668007195,-0.004166673868894577,0.0003199215279892087
1.7294964753693868e+18,0.0004979254445061088,-0.0025937682949006557,-0.0005852694739587605
1.729496475378387e+18,0.0009046405320987105,-5.3685158491134644e-05,-0.0007016618619672954
1.729496475384387e+18,0.0003986657247878611,-0.0025873121339827776,0.0005080972332507372
1.7294964753933873e+18,0.0003966292133554816,-0.00012051628436893225,-0.0014338156906887889
1.7294964754023875e+18,0.0017105003353208303,0.0006331444019451737,-0.0013979370705783367
1.7294964754113876e+18,0.0007438822649419308,-0.001431364449672401,0.0003344424767419696
1.7294964754173878e+18,-0.0017076947260648012,-0.0025883298367261887,-0.0015784864081069827
1.729496475426388e+18,-0.005054673179984093,-0.0021096188575029373,0.0001417775492882356
1.7294964754353882e+18,-0.0008820445509627461,-0.0025738277472555637,-0.0021093315444886684
1.7294964754443884e+18,-0.001076826942153275,-0.0019764997996389866,-0.0006549464305862784
1.7294964754533885e+18,-0.00028288946487009525,0.002341077197343111,0.0003040726005565375
1.7294964754623887e+18,0.0019149834988638759,0.003196395467966795,-0.0027005758602172136
1.729496475471389e+18,0.0037347779143601656,-0.0011891979956999421,0.0007136896601878107
1.729496475480389e+18,0.004250691272318363,-0.001305553363636136,-0.0017750681145116687
1.7294964754893893e+18,0.003995000850409269,-0.0006258520297706127,-0.0006788646569475532
1.7294964754953894e+18,-0.0013240613043308258,-0.00478916522115469,-0.0022849268279969692
1.7294964755043896e+18,-0.0023453887552022934,0.000536980340257287,0.00228876038454473
1.7294964755133898e+18,-0.0012392235221341252,0.0003639131027739495,0.0012643554946407676
1.72949647552239e+18,0.0018987017683684826,0.000641284859739244,-0.0011277361772954464
1.7294964755313902e+18,0.0034545387607067823,-6.865756586194038e-05,-0.001295962487347424
1.7294964755373903e+18,0.0005466567818075418,0.00439036451280117,-0.00022257173259276897
1.7294964755463905e+18,0.003182556014508009,0.0015498459106311202,0.001561321085318923
1.7294964755553907e+18,0.0016610607272014022,-0.0007577236974611878,-0.00129176105838269
1.729496475564391e+18,0.0024099559523165226,0.00022860022727400064,0.00019391359819564968
1.729496475570391e+18,-0.0004794757696799934,-0.004270559176802635,0.00035286578349769115
1.7294964755793912e+18,-0.0008822851814329624,-0.002200134564191103,-0.002182010328397155
1.7294964755883914e+18,-0.004325777292251587,-0.0023641446605324745,-0.00033059981069527566
1.7294964755973916e+18,0.0004443638026714325,-0.004047292750328779,0.00043951411498710513
1.7294964756063918e+18,0.0036410896573215723,0.0015852272044867277,0.0016341129085049033
1.729496475612392e+18,0.004735324531793594,0.0003721662797033787,-0.0010351118398830295
1.7294964756213921e+18,0.0028933114372193813,0.0013855742290616035,-0.0008958670077845454
1.7294964756303923e+18,0.0027239290066063404,-0.00316661037504673,0.0008813644526526332
1.7294964756393925e+18,0.0010278176050633192,-0.0038663579616695642,0.0009082829346880317
1.7294964756453926e+18,-0.0015422111609950662,-0.003387591103091836,-0.0017789379926398396
1.7294964756543928e+18,-0.002739677205681801,0.00018058111891150475,-0.002531150123104453
1.729496475663393e+18,0.0010673424694687128,0.0029369608964771032,0.002132237423211336
1.7294964756723932e+18,0.001739834202453494,0.0012011583894491196,-0.002886911854147911
1.7294964756813934e+18,0.0035808312240988016,0.0020726576913148165,-0.001137569546699524
1.7294964756873935e+18,0.005442699417471886,0.0016918217297643423,-0.00038886856054887176
1.7294964756963937e+18,0.005142103414982557,-0.00026548682944849133,0.00028102757642045617
1.729496475705394e+18,0.0035246103070676327,1.3350392691791058e-05,-5.713340942747891e-05
1.729496475711394e+18,0.001484907465055585,0.002464145887643099,3.363608266226947e-05
1.7294964757233943e+18,0.0011290081311017275,0.0007609343156218529,-0.002737239468842745
1.7294964757293944e+18,-0.0008916242513805628,0.002970110159367323,-0.001765608787536621
1.7294964757383946e+18,0.0007338002324104309,0.0022594186011701822,0.0003592631546780467
1.7294964757473948e+18,1.553562469780445e-05,0.006004473194479942,-0.0002947157481685281
1.729496475756395e+18,0.0015115819405764341,0.003115103580057621,-0.0004562544054351747
1.7294964757623951e+18,0.0031659500673413277,0.006150556728243828,0.001699569751508534
1.7294964757713953e+18,0.0025265375152230263,0.0028081396594643593,-0.0001349857047898695
1.7294964757803955e+18,0.003260531462728977,0.002999738324433565,-0.0019365930929780006
1.7294964757893957e+18,0.0032103676348924637,0.0028483644127845764,-0.0017554634250700474
1.729496475798396e+18,0.004171974956989288,0.0024994928389787674,0.00018024069140665233
1.729496475804396e+18,0.0022261638659983873,0.0007522616651840508,-0.00039216296863742173
1.7294964758133962e+18,0.0037525221705436707,0.00026182824512943625,0.000923098181374371
1.7294964758223964e+18,0.003022736171260476,0.0014157381374388933,-0.00027946667978540063
1.7294964758283965e+18,0.00718426750972867,0.0016647452721372247,-0.0007610879256390035
1.7294964758373967e+18,0.00500813452526927,0.0009808335453271866,-0.002437941264361143
1.729496475846397e+18,0.005926882848143578,0.0024064520839601755,-0.0005173101089894772
1.729496475855397e+18,0.00312110036611557,0.001640837057493627,-0.0027671940624713898
1.7294964758643973e+18,0.004395719151943922,-0.0021970951929688454,-0.00015241876826621592
1.7294964758703974e+18,0.003240698715671897,-0.0016091503202915192,-0.0009881434962153435
1.7294964758793976e+18,0.008459076285362244,-0.001084382412955165,-0.003172981785610318
1.7294964758883978e+18,0.004990881774574518,-0.0012296389322727919,-0.0012696657795459032
1.729496475897398e+18,0.002844986505806446,-0.0014598985435441136,0.000669358647428453
1.7294964759063982e+18,0.004472126718610525,0.0012362732086330652,-0.00080292415805161
1.7294964759153984e+18,0.0034443980548530817,-0.0015159409958869219,0.0018882888834923506
1.7294964759213985e+18,0.00485180364921689,-0.0021911251824349165,0.0005898186936974525
1.7294964759303987e+18,0.0018487523775547743,-0.0011758413165807724,-0.00152769114356488
1.729496475939399e+18,0.0036052099894732237,-0.002971281763166189,-0.004429577384144068
1.729496475948399e+18,0.005431368947029114,-0.0066694337874650955,0.000477426074212417
1.7294964759573993e+18,0.005911314394325018,-0.0028365515172481537,0.00042691483395174146
1.7294964759633994e+18,0.004548648372292519,-0.0027301909867674112,-0.0016819951124489307
1.7294964759723996e+18,0.007706719450652599,-0.002393096685409546,0.0004059877246618271
1.7294964759783997e+18,0.005126647651195526,-0.00026224832981824875,-0.0005193570395931602
1.7294964759874e+18,0.0016977780032902956,-0.0008219008450396359,0.000634950352832675
1.7294964759964e+18,0.0028388649225234985,-0.0003309553721919656,0.0017602520529180765
1.7294964760054003e+18,0.004915679804980755,-7.874914444983006e-05,0.00016700837295502424
1.7294964760114004e+18,0.0017204181058332324,-0.0008694747230038047,-0.0006393304793164134
1.7294964760204006e+18,0.003466797759756446,-0.0019704625010490417,-4.3238134821876884e-05
1.7294964760294008e+18,0.0012809531763195992,-0.002465729834511876,0.0009267599671147764
1.729496476035401e+18,0.0030476138927042484,0.0007098307833075523,0.0016268896870315075
1.7294964760444012e+18,0.0037361187860369682,0.00048305897507816553,-0.00297837913967669
1.7294964760534013e+18,0.007613414898514748,-0.0029736922588199377,-0.001087499549612403
1.7294964760594015e+18,0.006897284183651209,0.001733394106850028,-0.0002276165905641392
1.7294964760684017e+18,0.0066995141096413136,0.0016501900972798467,-0.0025639934465289116
1.7294964760774019e+18,0.0045488509349524975,0.005490242503583431,0.00040324279689230025
1.729496476086402e+18,0.004816730506718159,0.0044304863549768925,0.0007875278824940324
1.7294964760954022e+18,0.002525195712223649,0.0029646647162735462,0.0004966408014297485
1.7294964761044024e+18,0.0041138711385428905,0.003871420631185174,-0.0003047995560336858
1.7294964761134026e+18,0.0023888316936790943,0.001148113631643355,-0.002328431699424982
1.7294964761194028e+18,0.004249852150678635,4.6675209887325764e-05,0.0010998500511050224
1.729496476128403e+18,0.0018839631229639053,-0.0007343385950662196,-0.0015048807254061103
1.7294964761374031e+18,0.0009037682320922613,-0.0006722357356920838,-0.004085466731339693
1.7294964761464033e+18,0.0021134926937520504,-0.002206775825470686,0.0005661997711285949
1.7294964761524035e+18,0.002529078396037221,0.00443937536329031,0.00015177842578850687
1.7294964761614036e+18,0.0025167549028992653,0.002792009152472019,-0.0018658337648957968
1.7294964761704038e+18,0.0012801237171515822,0.0018206503009423614,-0.001958566252142191
1.729496476179404e+18,0.0022857310250401497,0.002752134809270501,-0.0026903548277914524
1.7294964761884042e+18,0.003820497775450349,0.0016373943071812391,-0.0015637506730854511
1.7294964761974044e+18,0.004741661250591278,0.0014195832191035151,-0.001015794463455677
1.7294964762064046e+18,0.0032077657524496317,0.0006642560474574566,-0.0014795738970860839
1.7294964762124047e+18,0.0002668744418770075,-0.0047019412741065025,0.0018728792201727629
1.729496476221405e+18,0.00277769286185503,0.00022195314522832632,-0.00038453994784504175
1.729496476230405e+18,-0.001151597360149026,0.003341969568282366,0.0004247893812134862
1.7294964762394053e+18,0.0012640109052881598,0.0013592868344858289,0.00316358613781631
1.7294964762484055e+18,0.004530462436378002,0.0015020576538518071,-0.001081140711903572
1.7294964762574057e+18,0.0041808332316577435,0.00224789185449481,-0.0011408544378355145
1.7294964762634058e+18,0.0042370380833745,0.0009171456913463771,0.0026791661512106657
1.729496476272406e+18,0.0044407411478459835,0.001070127240382135,-0.0026354545261710882
1.7294964762814062e+18,-0.0003102521877735853,0.004556671250611544,0.001316683366894722
1.7294964762904064e+18,0.0002766879624687135,0.0029856166802346706,0.0007375509012490511
1.7294964762964065e+18,0.0017149853520095348,0.00345588568598032,-0.0015934808179736137
1.7294964763054067e+18,-0.0025886662770062685,0.0030344680417329073,0.0010148999281227589
1.729496476314407e+18,-1.4330027624964714e-05,-0.00015428662300109863,0.0017020321683958173
1.729496476323407e+18,0.0024920732248574495,4.328112117946148e-05,0.000471276231110096
1.7294964763324073e+18,0.0033183221239596605,-0.0016366108320653439,0.002752764616161585
1.7294964763384074e+18,0.0013107769191265106,0.00026044610422104597,-0.0029032255988568068
1.7294964763474076e+18,0.004678096156567335,0.0026529510505497456,-0.0018508227076381445
1.7294964763564078e+18,0.005379613488912582,0.0037319117691367865,0.0006611683638766408
1.729496476365408e+18,0.0003953955601900816,0.004417214542627335,-0.0016158664366230369
1.7294964763744082e+18,-0.0012985921930521727,0.0026265436317771673,0.0005183176835998893
1.7294964763834084e+18,-0.0021936760749667883,-0.00123100564815104,-0.0011548713082447648
1.7294964763894085e+18,-0.0006003956077620387,5.688499368261546e-05,-0.0002051292103715241
1.7294964763984087e+18,-0.000570044619962573,0.00029057919164188206,-0.000610699353273958
1.729496476407409e+18,0.004100206308066845,0.0021135928109288216,0.0005892525077797472
1.729496476416409e+18,0.004558740183711052,0.006063951179385185,-0.0033154762350022793
1.7294964764254093e+18,0.0006127200904302299,0.0007154979393817484,-0.0005967047181911767
1.7294964764344095e+18,-0.0016790309455245733,0.002265737159177661,9.376253001391888e-05
1.7294964764404096e+18,-0.003968300297856331,-0.0018120845779776573,0.0015060954028740525
1.7294964764494098e+18,-0.0033144005574285984,-0.004768036305904388,0.0002977780532091856
1.72949647645841e+18,0.00030608035740442574,-0.0018385942094027996,-0.0016410823445767164
1.7294964764674102e+18,0.001283264602534473,0.0004828360688406974,0.0007410700782202184
1.7294964764764104e+18,0.006342064123600721,0.0015831593191251159,-0.003581397235393524
1.7294964764824105e+18,0.005780565552413464,0.00024141365429386497,-0.0008532005012966692
1.7294964764914107e+18,0.0019740667194128036,0.003057172056287527,-0.0018774864729493856
1.729496476500411e+18,-0.001148472772911191,-0.0004960651276633143,-0.0016917119501158595
1.729496476506411e+18,0.0017857888014987111,-0.0013867577072232962,0.0021907102782279253
1.7294964765154112e+18,0.0014086009468883276,-0.004057375714182854,-0.003080058842897415
1.7294964765244114e+18,-0.0009723068214952946,-0.0034265639260411263,-0.0024486100301146507
1.7294964765304115e+18,-0.00013246852904558182,-0.006933080032467842,-0.0012632516445592046
1.7294964765394117e+18,0.0018837044481188059,-0.0034186982084065676,-0.002369881374761462
1.729496476548412e+18,2.180272713303566e-05,-0.001995990751311183,-0.002836075611412525
1.729496476557412e+18,0.000670759123750031,-0.0006189147243276238,-0.0007125977426767349
1.7294964765664123e+18,0.00327340979129076,0.0010838883463293314,0.0014735646545886993
1.7294964765724124e+18,0.0032851591240614653,0.0010890992125496268,-0.00028518709586933255
1.7294964765814126e+18,-0.001955001847818494,-0.0010366823989897966,-0.00017136934911832213
1.7294964765874127e+18,1.526111736893654e-05,-0.00110713392496109,-8.448038715869188e-05
1.729496476599413e+18,0.0032539465464651585,-0.003649704623967409,-0.0010538147762417793
1.7294964766084132e+18,0.002739217132329941,-0.002733686240389943,0.0008723652572371066
1.7294964766144133e+18,0.004890901036560535,-0.0017108377069234848,0.000714888097718358
1.7294964766234135e+18,0.0011863026302307844,0.00021305307745933533,0.0005987726035527885
1.7294964766324137e+18,0.004512636922299862,-0.0013064179802313447,-0.0037253666669130325
1.7294964766384138e+18,0.002662032376974821,0.001147885457612574,-0.0022592695895582438
1.729496476647414e+18,0.0009925954509526491,0.00012002160656265914,-0.002102584345266223
1.7294964766564142e+18,0.0007578376680612564,-0.0028960134368389845,-0.002978570992127061
1.7294964766624143e+18,0.0004823313793167472,0.0004188886668998748,-0.0002764107193797827
1.7294964766744146e+18,0.0006803916767239571,-0.00045508408220484853,-0.0012861299328505993
1.7294964766804147e+18,0.0021104910410940647,-0.0028093738947063684,0.00016670304466970265
1.729496476689415e+18,0.0020945430733263493,-0.0008743216749280691,-0.002680448582395911
1.729496476698415e+18,0.00344893173314631,-0.000698600139003247,-0.0012215557508170605
1.7294964767074153e+18,0.0030140522867441177,0.00217020558193326,0.00010257662506774068
1.7294964767164155e+18,-0.0023217364214360714,0.001587606268003583,0.00039449206087738276
1.7294964767224156e+18,0.0024012268986552954,-0.0017558388644829392,0.0004375627904664725
1.7294964767314158e+18,-0.0017933463677763939,0.0016187912551686168,-0.0010493964655324817
1.729496476740416e+18,-0.001861519180238247,-0.0031049661338329315,-0.0028358763083815575
1.729496476746416e+18,-0.0031874387059360743,-0.0005963406292721629,-0.0021458547562360764
1.7294964767554163e+18,-0.0001691486540948972,-0.0015430989442393184,-0.0003971330588683486
1.7294964767644165e+18,0.0009822383290156722,0.0017270519165322185,-0.003387419506907463
1.7294964767734167e+18,0.0013445585500448942,0.001944860676303506,-0.0005410598823800683
1.729496476782417e+18,-0.0005593908717855811,0.0044363015331327915,-0.0009062793687917292
1.729496476788417e+18,0.003484407439827919,0.00582983298227191,-0.0006154527654871345
1.7294964767974172e+18,-0.0019411901012063026,0.004662616178393364,0.002575778169557452
1.7294964768064174e+18,0.001074215630069375,0.004994522780179977,-0.0005350818391889334
1.7294964768154176e+18,-0.0030424820724874735,0.0035905856639146805,0.0036651641130447388
1.7294964768214177e+18,-0.001173386350274086,-0.0018943450413644314,-5.8905716286972165e-05
1.729496476830418e+18,-0.0013108871644362807,0.0015128129161894321,-0.0021378507371991873
1.729496476839418e+18,0.0037660903763026,0.0007169742602854967,-0.0011340336641296744
1.7294964768484183e+18,0.0033124161418527365,0.004622161388397217,-0.0007840933976694942
1.7294964768574185e+18,0.002910562790930271,0.00509537011384964,0.002684918465092778
1.7294964768634186e+18,0.0031287488527595997,0.003599202260375023,-0.0023398061748594046
1.7294964768724188e+18,0.00694227684289217,0.0020163157023489475,9.192927973344922e-05
1.729496476881419e+18,0.004668689798563719,0.002175469882786274,-0.0010774758411571383
1.7294964768904192e+18,0.0025759476702660322,-0.002258709631860256,-0.0024344371631741524
1.7294964768994194e+18,0.0005815144977532327,-6.010476499795914e-05,-0.00042810445302166045
1.7294964769054195e+18,0.00016833993140608072,0.001522171776741743,-0.003790547838434577
1.7294964769144197e+18,-0.18117454648017883,-0.16392578184604645,-0.0019834558479487896
1.72949647692342e+18,-0.7601158022880554,-0.6954482197761536,-0.007281840778887272
1.72949647692942e+18,-1.1950290203094482,-1.1018610000610352,-0.01997852325439453
1.7294964769384202e+18,-1.8891267776489258,-1.6901367902755737,-0.028159650042653084
1.7294964769474204e+18,-2.5508594512939453,-2.0471885204315186,-0.04001588001847267
1.7294964769564206e+18,-2.9299323558807373,-2.1280322074890137,-0.053257185965776443
1.7294964769654208e+18,-3.015610933303833,-2.013073682785034,-0.06834594160318375
1.729496476974421e+18,-2.8953399658203125,-1.8443301916122437,-0.08065681159496307
1.7294964769834212e+18,-2.7215147018432617,-1.753745675086975,-0.09528593719005585
1.7294964769894213e+18,-2.6588733196258545,-1.7647525072097778,-0.10427098721265793
1.7294964769984215e+18,-2.686920404434204,-1.8651026487350464,-0.11360616981983185
1.7294964770074217e+18,-2.8447515964508057,-1.9871816635131836,-0.12466078996658325
1.7294964770134218e+18,-2.95674729347229,-2.0366733074188232,-0.13790258765220642
1.729496477022422e+18,-3.0435469150543213,-2.0208568572998047,-0.14739833772182465
1.7294964770284221e+18,-3.018598794937134,-1.9504683017730713,-0.15647199749946594
1.7294964770374223e+18,-2.83288311958313,-1.7749276161193848,-0.16521266102790833
1.7294964770464225e+18,-2.5401065349578857,-1.5928579568862915,-0.17662960290908813
1.7294964770524227e+18,-2.3304567337036133,-1.48189115524292,-0.18400830030441284
1.7294964770614228e+18,-2.077697515487671,-1.3674010038375854,-0.19264310598373413
1.729496477070423e+18,-1.9503958225250244,-1.3090050220489502,-0.1955055445432663
1.7294964770794232e+18,-1.9233157634735107,-1.2662614583969116,-0.20319324731826782
1.7294964770884234e+18,-1.905776858329773,-1.2021400928497314,-0.2147996872663498
1.7294964770944236e+18,-1.8616037368774414,-1.133124589920044,-0.2180297076702118
1.7294964771034237e+18,-1.71663498878479,-1.009375810623169,-0.2180982381105423
1.729496477112424e+18,-1.4736722707748413,-0.8568271994590759,-0.22502031922340393
1.7294964771214241e+18,-1.202711582183838,-0.7167044878005981,-0.2269558608531952
1.7294964771274243e+18,-1.0419062376022339,-0.6398451328277588,-0.23177121579647064
1.7294964771364244e+18,-0.8736969232559204,-0.5480707287788391,-0.23330296576023102
1.7294964771454246e+18,-0.7894028425216675,-0.47786909341812134,-0.238389790058136
1.7294964771514248e+18,-0.7670798897743225,-0.43893250823020935,-0.23661145567893982
1.729496477160425e+18,-0.7329690456390381,-0.37396690249443054,-0.23994483053684235
1.7294964771694252e+18,-0.662662923336029,-0.3001469075679779,-0.2422558069229126
1.7294964771784253e+18,-0.5386805534362793,-0.21257103979587555,-0.24350261688232422
1.7294964771874255e+18,-0.37200602889060974,-0.1292933076620102,-0.24025124311447144
1.7294964771964257e+18,-0.20535749197006226,-0.052853748202323914,-0.24393494427204132
1.729496477205426e+18,-0.07734330743551254,0.014009068720042706,-0.24442535638809204
1.729496477211426e+18,-0.023484578356146812,0.052037496119737625,-0.24428880214691162
1.7294964772204262e+18,0.01205884013324976,0.09927409142255783,-0.24403180181980133
1.7294964772294264e+18,0.019207466393709183,0.13048213720321655,-0.2422412633895874
1.7294964772384266e+18,0.026832014322280884,0.1660091131925583,-0.24287539720535278
1.7294964772474268e+18,0.08041400462388992,0.1975117325782776,-0.23911237716674805
1.729496477253427e+18,0.12982778251171112,0.22396372258663177,-0.23581278324127197
1.7294964772624271e+18,0.2220352739095688,0.25788044929504395,-0.23888921737670898
1.7294964772714273e+18,0.31046658754348755,0.29412955045700073,-0.23528635501861572
1.7294964772804275e+18,0.36852216720581055,0.32077571749687195,-0.23105987906455994
1.7294964772864276e+18,0.38434070348739624,0.3381785750389099,-0.22972872853279114
1.7294964772954278e+18,0.3887708783149719,0.36084550619125366,-0.22919879853725433
1.729496477304428e+18,0.38884273171424866,0.37918099761009216,-0.22937123477458954
1.7294964773134282e+18,0.3937068283557892,0.395852655172348,-0.22384987771511078
1.7294964773224284e+18,0.42037278413772583,0.407328337430954,-0.22255229949951172
1.7294964773314286e+18,0.44905993342399597,0.41610386967658997,-0.21783261001110077
1.7294964773404288e+18,0.48041704297065735,0.41163602471351624,-0.21400639414787292
1.729496477349429e+18,0.49410179257392883,0.4095110297203064,-0.21205240488052368
1.7294964773584292e+18,0.4942668080329895,0.41072210669517517,-0.20901167392730713
1.7294964773674294e+18,0.4881612956523895,0.41889050602912903,-0.20433206856250763
1.7294964773764296e+18,0.47943946719169617,0.4216524362564087,-0.20282045006752014
1.7294964773854298e+18,0.4863787889480591,0.42683207988739014,-0.2008047103881836
1.72949647739443e+18,0.4874957203865051,0.42657342553138733,-0.192766010761261
1.72949647740043e+18,0.4895131289958954,0.4228140115737915,-0.19047954678535461
1.7294964774094303e+18,0.48655465245246887,0.41077858209609985,-0.18492576479911804
1.7294964774184305e+18,0.4719781279563904,0.394562691450119,-0.18159136176109314
1.7294964774274307e+18,0.4619480073451996,0.3825126588344574,-0.1778721660375595
1.7294964774364308e+18,0.4539092481136322,0.3793480396270752,-0.17220096290111542
1.729496477445431e+18,0.4539830982685089,0.38337093591690063,-0.1677504926919937
1.7294964774514312e+18,0.4597978889942169,0.3861159682273865,-0.1633279025554657
1.7294964774604314e+18,0.4584619402885437,0.3869505524635315,-0.16080912947654724
1.7294964774694316e+18,0.45011210441589355,0.37832963466644287,-0.15442010760307312
1.7294964774784317e+18,0.4440409541130066,0.3639744520187378,-0.1500149369239807
1.729496477484432e+18,0.433538556098938,0.3562757670879364,-0.14972445368766785
1.729496477493432e+18,0.4163364768028259,0.3429213762283325,-0.14129696786403656
1.7294964775024323e+18,0.41094252467155457,0.33631372451782227,-0.1345643252134323
1.7294964775084324e+18,0.40743333101272583,0.3306373357772827,-0.1352989673614502
1.7294964775174326e+18,0.40592020750045776,0.33223384618759155,-0.1286623477935791
1.7294964775264328e+18,0.4164280593395233,0.3328481614589691,-0.12212557345628738
1.729496477535433e+18,0.41926345229148865,0.33094966411590576,-0.11870668083429337
1.7294964775444332e+18,0.41474464535713196,0.32232439517974854,-0.11325324326753616
1.7294964775504333e+18,0.40475723147392273,0.31189727783203125,-0.10997967422008514
1.7294964775594335e+18,0.38238412141799927,0.29783210158348083,-0.1037709191441536
1.7294964775684337e+18,0.36353909969329834,0.2867650091648102,-0.09711787849664688
1.7294964775774339e+18,0.35189247131347656,0.27574411034584045,-0.09417840093374252
1.729496477583434e+18,0.35276365280151367,0.2747902572154999,-0.08970668911933899
1.7294964775924342e+18,0.3532429337501526,0.2697006165981293,-0.08332391083240509
1.7294964776014344e+18,0.36661258339881897,0.26677897572517395,-0.07526039332151413
1.7294964776104346e+18,0.370165079832077,0.2709607183933258,-0.07117485255002975
1.7294964776164347e+18,0.37329643964767456,0.26599931716918945,-0.06782710552215576
1.729496477625435e+18,0.37391185760498047,0.26594194769859314,-0.0631103664636612
1.729496477634435e+18,0.36484837532043457,0.26004162430763245,-0.057015880942344666
1.7294964776434353e+18,0.35666581988334656,0.25003471970558167,-0.05208443105220795
1.7294964776494354e+18,0.34692034125328064,0.24874354898929596,-0.04924852401018143
1.7294964776584356e+18,0.33355048298835754,0.23198308050632477,-0.0436619333922863
1.7294964776674358e+18,0.3251887261867523,0.22580687701702118,-0.039123207330703735
1.729496477676436e+18,0.32560887932777405,0.2215326577425003,-0.029185086488723755
1.7294964776854362e+18,0.33330038189888,0.21769577264785767,-0.025375477969646454
1.7294964776944364e+18,0.3431636393070221,0.21829763054847717,-0.021024245768785477
1.7294964777004365e+18,0.34208571910858154,0.21759887039661407,-0.022029997780919075
1.7294964777094367e+18,0.3374072015285492,0.21115192770957947,-0.014768410474061966
1.7294964777184369e+18,0.3308993875980377,0.20470374822616577,-0.003782992484048009
1.729496477727437e+18,0.3275992274284363,0.2025509774684906,-0.004644399043172598
1.7294964777364372e+18,0.32256585359573364,0.19213932752609253,0.00363367423415184
1.7294964777424374e+18,0.3190690875053406,0.1902160495519638,0.0032035892363637686
1.7294964777514376e+18,0.3220182955265045,0.18563532829284668,0.01190730556845665
1.7294964777604378e+18,0.3278938829898834,0.18123303353786469,0.01834964007139206
1.729496477769438e+18,0.33175820112228394,0.1804780513048172,0.021679425612092018
1.7294964777784381e+18,0.33614659309387207,0.1813001036643982,0.026189008727669716
1.7294964777844383e+18,0.3401256501674652,0.18433375656604767,0.03018331713974476
1.7294964777934385e+18,0.3415132462978363,0.18720309436321259,0.034556031227111816
1.7294964778024387e+18,0.34495002031326294,0.18820485472679138,0.0371721126139164
1.7294964778114388e+18,0.3395252525806427,0.17973916232585907,0.04296012595295906
1.729496477820439e+18,0.33193522691726685,0.17321191728115082,0.0490027591586113
1.7294964778294392e+18,0.33421310782432556,0.16881640255451202,0.05613914132118225
1.7294964778384394e+18,0.3303714394569397,0.1663776934146881,0.05595561861991882
1.7294964778474396e+18,0.33163294196128845,0.16619165241718292,0.06325408071279526
1.7294964778564398e+18,0.33650118112564087,0.1704670935869217,0.0696338564157486
1.72949647786244e+18,0.34400612115859985,0.17334787547588348,0.07085703313350677
1.7294964778714401e+18,0.3502699136734009,0.17124377191066742,0.07462462782859802
1.7294964778804403e+18,0.35170936584472656,0.16579358279705048,0.07802487164735794
1.7294964778894405e+18,0.35026076436042786,0.16703663766384125,0.08050740510225296
1.7294964778984407e+18,0.3457116484642029,0.16374614834785461,0.08924499899148941
1.729496477907441e+18,0.3301311433315277,0.15488465130329132,0.09141427278518677
1.729496477916441e+18,0.32703232765197754,0.14961761236190796,0.09297776967287064
1.7294964779254413e+18,0.32405346632003784,0.14685702323913574,0.09959272295236588
1.7294964779344415e+18,0.3350561261177063,0.14405667781829834,0.10185017436742783
1.7294964779434417e+18,0.3463061451911926,0.14673851430416107,0.10483840852975845
1.7294964779524419e+18,0.35028934478759766,0.15066741406917572,0.11048226058483124
1.729496477961442e+18,0.34734490513801575,0.14548228681087494,0.11311674118041992
1.7294964779704422e+18,0.3306625485420227,0.1372918337583542,0.11533843725919724
1.7294964779794424e+18,0.3155308961868286,0.1301020383834839,0.11920490860939026
1.7294964779884426e+18,0.30918553471565247,0.11703816056251526,0.12447182089090347
1.7294964779974428e+18,0.31820616126060486,0.11368387937545776,0.12390271574258804
1.729496478006443e+18,0.3250039219856262,0.10874079167842865,0.1272938847541809
1.7294964780154432e+18,0.335843026638031,0.10952893644571304,0.13284283876419067
1.7294964780244434e+18,0.34030839800834656,0.11736024171113968,0.1350286453962326
1.7294964780334436e+18,0.34016138315200806,0.11718099564313889,0.13828398287296295
1.7294964780424438e+18,0.3375290036201477,0.11922284960746765,0.13982290029525757
1.729496478048444e+18,0.33338266611099243,0.12287189066410065,0.14140300452709198
1.729496478057444e+18,0.3263765275478363,0.11736288666725159,0.14658883213996887
1.7294964780664443e+18,0.3208260238170624,0.11920495331287384,0.14852900803089142
1.7294964780754445e+18,0.3195289075374603,0.11241782456636429,0.1501811295747757
1.7294964780844447e+18,0.3158058524131775,0.11057008057832718,0.15283264219760895
1.7294964780934449e+18,0.315997451543808,0.1045486256480217,0.15226808190345764
1.729496478099445e+18,0.31650325655937195,0.10254500061273575,0.15621966123580933
1.7294964781084452e+18,0.31900137662887573,0.1055053323507309,0.15671387314796448
1.7294964781144453e+18,0.32238247990608215,0.10952983051538467,0.16087859869003296
1.7294964781234455e+18,0.32063546776771545,0.10937925428152084,0.15929606556892395
1.7294964781324457e+18,0.3193369507789612,0.11696716398000717,0.1636393517255783
1.729496478141446e+18,0.3207385540008545,0.11887951195240021,0.16059009730815887
1.729496478150446e+18,0.3227684497833252,0.11961851269006729,0.16669419407844543
1.7294964781594463e+18,0.33806827664375305,0.1197006031870842,0.16639983654022217
1.7294964781654464e+18,0.34443753957748413,0.1224777027964592,0.16688282787799835
1.7294964781744466e+18,0.35864707827568054,0.12935198843479156,0.17119522392749786
1.7294964781834468e+18,0.3658367395401001,0.1312304139137268,0.17094913125038147
1.729496478189447e+18,0.36924484372138977,0.1391122043132782,0.1701505035161972
1.729496478198447e+18,0.3778875470161438,0.1405201405286789,0.1698303520679474
1.7294964782074473e+18,0.38527703285217285,0.14712078869342804,0.17191863059997559
1.7294964782134474e+18,0.38974615931510925,0.1524369716644287,0.17821840941905975
1.7294964782224476e+18,0.3899286985397339,0.15359801054000854,0.1751733273267746
1.7294964782314478e+18,0.3826669752597809,0.15521082282066345,0.1757831573486328
1.729496478240448e+18,0.3831959068775177,0.1559034138917923,0.17558734118938446
1.729496478246448e+18,0.38269948959350586,0.15640473365783691,0.17528219521045685
1.7294964782554483e+18,0.3858892321586609,0.15971660614013672,0.17773699760437012
1.7294964782644485e+18,0.3952975273132324,0.16358235478401184,0.17670436203479767
1.7294964782734487e+18,0.4061731696128845,0.17228631675243378,0.1782473772764206
1.7294964782794488e+18,0.4187858998775482,0.1747499257326126,0.1789994239807129
1.729496478288449e+18,0.4232962131500244,0.17725564539432526,0.17942535877227783
1.7294964782974492e+18,0.42703089118003845,0.18128091096878052,0.1783689707517624
1.7294964783064494e+18,0.43280357122421265,0.18555663526058197,0.17677909135818481
1.7294964783154496e+18,0.4371449649333954,0.1875964105129242,0.17763762176036835
1.7294964783214497e+18,0.4452531635761261,0.18857881426811218,0.1783008724451065
1.72949647833045e+18,0.4612917900085449,0.19427229464054108,0.17708969116210938
1.72949647833945e+18,0.4692821502685547,0.19676965475082397,0.17930352687835693
1.7294964783484503e+18,0.4678909182548523,0.19773529469966888,0.17725153267383575
1.7294964783574505e+18,0.45382294058799744,0.20229686796665192,0.1759839802980423
1.7294964783634506e+18,0.4527561664581299,0.20353779196739197,0.1772211790084839
1.7294964783724508e+18,0.44810813665390015,0.20573721826076508,0.17420709133148193
1.729496478381451e+18,0.44443562626838684,0.20958030223846436,0.17765431106090546
1.7294964783904512e+18,0.443768709897995,0.20759135484695435,0.17736844718456268
1.7294964783994514e+18,0.4321955144405365,0.20549069344997406,0.17256540060043335
1.7294964784084516e+18,0.43689683079719543,0.20973296463489532,0.17515437304973602
1.7294964784144517e+18,0.4394605755805969,0.20663753151893616,0.17021282017230988
1.729496478423452e+18,0.4429625868797302,0.20979559421539307,0.17062893509864807
1.729496478432452e+18,0.45599719882011414,0.21781061589717865,0.17020510137081146
1.7294964784384522e+18,0.46007251739501953,0.22353115677833557,0.16623741388320923
1.7294964784474524e+18,0.4582740068435669,0.22792288661003113,0.16615962982177734
1.7294964784564526e+18,0.4514780044555664,0.22915998101234436,0.16651701927185059
1.7294964784654528e+18,0.4333646297454834,0.22503067553043365,0.16713069379329681
1.729496478474453e+18,0.41754385828971863,0.22317926585674286,0.1629994809627533
1.7294964784834532e+18,0.4157784879207611,0.21953259408473969,0.15949954092502594
1.7294964784924534e+18,0.43886467814445496,0.22950275242328644,0.15914662182331085
1.7294964784984535e+18,0.4569571912288666,0.23440024256706238,0.16192080080509186
1.7294964785074537e+18,0.48145461082458496,0.24547207355499268,0.15926656126976013
1.729496478516454e+18,0.484212726354599,0.251431405544281,0.15829701721668243
1.729496478525454e+18,0.4695734977722168,0.25618109107017517,0.15820130705833435
1.7294964785344543e+18,0.4402233064174652,0.25411930680274963,0.15372052788734436
1.7294964785404544e+18,0.4238618314266205,0.2495005875825882,0.1505824774503708
1.7294964785494546e+18,0.39884763956069946,0.24272681772708893,0.1483730673789978
1.7294964785584548e+18,0.3895418345928192,0.23122575879096985,0.14798881113529205
1.729496478567455e+18,0.3822464942932129,0.2262200117111206,0.14877422153949738
1.7294964785764552e+18,0.3923164904117584,0.22282031178474426,0.1473613977432251
1.7294964785824553e+18,0.4018350839614868,0.22716927528381348,0.14357995986938477
1.7294964785944556e+18,0.4110725522041321,0.23373134434223175,0.1387803554534912
1.7294964786034557e+18,0.41561394929885864,0.24223186075687408,0.13613013923168182
1.7294964786094559e+18,0.4068937301635742,0.24654492735862732,0.13803860545158386
1.729496478618456e+18,0.39260461926460266,0.24641187489032745,0.13549891114234924
1.7294964786244562e+18,0.38164833188056946,0.24235765635967255,0.13118034601211548
1.7294964786334564e+18,0.37209051847457886,0.2374049872159958,0.13259287178516388
1.7294964786424566e+18,0.37279126048088074,0.2352331429719925,0.12875066697597504
1.7294964786514568e+18,0.37394464015960693,0.23576311767101288,0.1269095093011856
1.729496478660457e+18,0.37856513261795044,0.23916694521903992,0.12322375923395157
1.7294964786694572e+18,0.38500574231147766,0.24266690015792847,0.11912544816732407
1.7294964786784573e+18,0.3678167164325714,0.23811474442481995,0.12012970447540283
1.7294964786844575e+18,0.35769274830818176,0.24056211113929749,0.12034332007169724
1.7294964786934577e+18,0.3320639133453369,0.2342360019683838,0.1149064153432846
1.7294964787024579e+18,0.31576111912727356,0.2328242063522339,0.11805380880832672
1.729496478708458e+18,0.31298497319221497,0.23052076995372772,0.10778392851352692
1.7294964787174582e+18,0.3162408173084259,0.23471851646900177,0.10975714027881622
1.7294964787264584e+18,0.33775514364242554,0.2392146736383438,0.1052151545882225
1.7294964787354586e+18,0.3488398790359497,0.24197101593017578,0.10307439416646957
1.7294964787414587e+18,0.35019099712371826,0.2389923334121704,0.1047544777393341
1.729496478750459e+18,0.3320024609565735,0.23431771993637085,0.1007511168718338
1.729496478759459e+18,0.3009105324745178,0.22950175404548645,0.09368536621332169
1.7294964787684593e+18,0.2733438014984131,0.22584214806556702,0.09194573760032654
1.7294964787774595e+18,0.2547028660774231,0.22235506772994995,0.0902046486735344
1.7294964787864596e+18,0.2516452670097351,0.22037982940673828,0.08635026961565018
1.7294964787954598e+18,0.25564253330230713,0.2114463597536087,0.0843353122472763
1.72949647880446e+18,0.26385000348091125,0.21604284644126892,0.08405346423387527
1.7294964788134602e+18,0.2657877802848816,0.2085469663143158,0.08074353635311127
1.7294964788194604e+18,0.2611217498779297,0.2086533159017563,0.07804243266582489
1.7294964788284605e+18,0.2492540180683136,0.20398171246051788,0.07347278296947479
1.7294964788374607e+18,0.23973506689071655,0.2027796059846878,0.07153600454330444
1.729496478846461e+18,0.22099949419498444,0.1983293890953064,0.0675823912024498
1.729496478855461e+18,0.2106766551733017,0.1922779381275177,0.06619204580783844
1.7294964788614612e+18,0.20740097761154175,0.1915539652109146,0.06587321311235428
1.7294964788704614e+18,0.21017885208129883,0.18884149193763733,0.06194201484322548
1.7294964788794616e+18,0.21286730468273163,0.1915605664253235,0.06037663668394089
1.729496478891462e+18,0.21382851898670197,0.18944546580314636,0.059752047061920166
1.729496478900462e+18,0.2094743847846985,0.19160902500152588,0.050715476274490356
1.7294964789094623e+18,0.20167005062103271,0.1951109617948532,0.05332221835851669
1.7294964789184625e+18,0.19165556132793427,0.19013293087482452,0.046377744525671005
1.7294964789274627e+18,0.17963385581970215,0.18421141803264618,0.045795585960149765
1.7294964789364628e+18,0.17856991291046143,0.17975647747516632,0.042746126651763916
1.729496478945463e+18,0.17949937283992767,0.17699897289276123,0.04658074676990509
1.7294964789544632e+18,0.18358397483825684,0.17371390759944916,0.03702464699745178
1.7294964789634634e+18,0.18181507289409637,0.17396366596221924,0.03781640902161598
1.7294964789724636e+18,0.18719445168972015,0.17396241426467896,0.033984389156103134
1.7294964789814638e+18,0.19196824729442596,0.17638136446475983,0.02942241169512272
1.729496478987464e+18,0.1930190920829773,0.17537233233451843,0.027621282264590263
1.7294964789994642e+18,0.20728684961795807,0.17764000594615936,0.024288926273584366
1.7294964790054643e+18,0.2272549718618393,0.18481554090976715,0.024866871535778046
1.7294964790144645e+18,0.24745209515094757,0.18822334706783295,0.021089226007461548
1.7294964790234647e+18,0.23475031554698944,0.22011230885982513,0.017497554421424866
1.729496479032465e+18,-0.046240877360105515,0.54090815782547,0.01580764353275299
1.729496479041465e+18,-0.4243084192276001,0.9529871940612793,0.01429719664156437
1.7294964790504653e+18,-0.8022305965423584,1.3516795635223389,0.01195717602968216
1.7294964790594655e+18,-1.0495800971984863,1.6395217180252075,0.008273618295788765
1.7294964790654656e+18,-1.0910874605178833,1.7319231033325195,0.007679369766265154
1.7294964790774659e+18,-0.9656584858894348,1.7315293550491333,0.006764700170606375
1.729496479083466e+18,-0.8343253135681152,1.659941554069519,0.0047387611120939255
1.7294964790924662e+18,-0.6790844798088074,1.556615948677063,0.0049423472955822945
1.7294964791014664e+18,-0.6443832516670227,1.515428066253662,0.0024098313879221678
1.7294964791104666e+18,-0.7319628596305847,1.5455824136734009,0.0001157524820882827
1.7294964791194668e+18,-0.880886971950531,1.6136897802352905,-0.002430550754070282
1.729496479125467e+18,-0.9596954584121704,1.6546565294265747,-0.0019515813328325748
1.729496479134467e+18,-0.9879690408706665,1.6739381551742554,-0.004155613016337156
1.7294964791434673e+18,-0.8951292037963867,1.6159032583236694,-0.004156976006925106
1.7294964791494674e+18,-0.7857375741004944,1.54532790184021,-0.005385138094425201
1.7294964791584676e+18,-0.6044692993164062,1.4071122407913208,-0.006586661096662283
1.7294964791674678e+18,-0.4482342004776001,1.2796412706375122,-0.012803055346012115
1.729496479173468e+18,-0.4106278419494629,1.2197312116622925,-0.010522176511585712
1.729496479182468e+18,-0.4256805181503296,1.1592859029769897,-0.011532217264175415
1.7294964791914683e+18,-0.4936167895793915,1.1202701330184937,-0.016328871250152588
1.7294964792004685e+18,-0.5441262722015381,1.0697330236434937,-0.01817977800965309
1.7294964792064686e+18,-0.5425454378128052,1.0318609476089478,-0.01931557059288025
1.7294964792154688e+18,-0.4565444588661194,0.9419931173324585,-0.017870353534817696
1.729496479221469e+18,-0.357820063829422,0.8839557766914368,-0.024807794019579887
1.729496479230469e+18,-0.19774667918682098,0.7993860244750977,-0.02526991441845894
1.7294964792394693e+18,-0.08174502104520798,0.7115899920463562,-0.026356518268585205
1.7294964792484695e+18,-0.0423838272690773,0.6345046162605286,-0.02716389112174511
1.7294964792574697e+18,-0.07397647202014923,0.5621625185012817,-0.030354224145412445
1.72949647926647e+18,-0.1302991360425949,0.4889361560344696,-0.033892035484313965
1.72949647927547e+18,-0.1512724757194519,0.42101702094078064,-0.03480803966522217
1.7294964792844703e+18,-0.10913512110710144,0.35559433698654175,-0.03729641065001488
1.7294964792934705e+18,-0.024937812238931656,0.28983640670776367,-0.037039175629615784
1.7294964792994706e+18,0.048304297029972076,0.25149309635162354,-0.041675545275211334
1.7294964793084708e+18,0.1324906349182129,0.2024608701467514,-0.04083159193396568
1.729496479317471e+18,0.16351592540740967,0.15148305892944336,-0.04297664016485214
1.7294964793264712e+18,0.14555372297763824,0.0998464897274971,-0.046133529394865036
1.7294964793324713e+18,0.12280862033367157,0.07295786589384079,-0.04904085397720337
1.7294964793414715e+18,0.08680204302072525,0.03815090283751488,-0.047776274383068085
1.7294964793504717e+18,0.0817621499300003,0.010046967305243015,-0.05170711502432823
1.7294964793594719e+18,0.11355242878198624,-0.02950218878686428,-0.05310607701539993
1.729496479368472e+18,0.16415849328041077,-0.07287956029176712,-0.0543571300804615
1.7294964793744722e+18,0.198890820145607,-0.0932174026966095,-0.053864985704422
1.7294964793834724e+18,0.22863087058067322,-0.12440358102321625,-0.055349040776491165
1.7294964793924726e+18,0.2306004762649536,-0.13227008283138275,-0.05814129486680031
1.7294964793984727e+18,0.21838359534740448,-0.13448937237262726,-0.05716610699892044
1.729496479407473e+18,0.18492496013641357,-0.1342702955007553,-0.06056147813796997
1.729496479416473e+18,0.15773750841617584,-0.14118608832359314,-0.06043071299791336
1.7294964794224732e+18,0.14948821067810059,-0.15627045929431915,-0.06251294910907745
1.7294964794314734e+18,0.1542779505252838,-0.18809029459953308,-0.0613357275724411
1.7294964794404736e+18,0.17650499939918518,-0.21558590233325958,-0.06177143380045891
1.7294964794494738e+18,0.2034396529197693,-0.2188558727502823,-0.06615134328603745
1.729496479455474e+18,0.21231983602046967,-0.21423225104808807,-0.06261075288057327
1.729496479464474e+18,0.21663038432598114,-0.20278503000736237,-0.0657946914434433
1.7294964794734743e+18,0.1998814195394516,-0.1926514208316803,-0.06500666588544846
1.7294964794824745e+18,0.1709018051624298,-0.18539732694625854,-0.06512173265218735
1.7294964794914747e+18,0.14748407900333405,-0.1921524554491043,-0.0636322945356369
1.7294964794974748e+18,0.14085181057453156,-0.19631575047969818,-0.06820502132177353
1.729496479506475e+18,0.1423170566558838,-0.20146462321281433,-0.06747983396053314
1.7294964795154752e+18,0.15160131454467773,-0.20272226631641388,-0.06505253165960312
1.7294964795244754e+18,0.1657816618680954,-0.20507831871509552,-0.06756908446550369
1.7294964795304755e+18,0.16721782088279724,-0.20022925734519958,-0.06837575137615204
1.7294964795394757e+18,0.1604762077331543,-0.19751177728176117,-0.06662476807832718
1.729496479548476e+18,0.1402374505996704,-0.19315768778324127,-0.07054045796394348
1.729496479557476e+18,0.11858710646629333,-0.1967388242483139,-0.06853538006544113
1.7294964795634762e+18,0.10553865134716034,-0.19922269880771637,-0.07126227766275406
1.7294964795724764e+18,0.09681840986013412,-0.19552060961723328,-0.06958506256341934
1.7294964795784765e+18,0.09550026059150696,-0.19329896569252014,-0.07125218212604523
1.7294964795874767e+18,0.10729396343231201,-0.18599030375480652,-0.06855893135070801
1.729496479596477e+18,0.10773003846406937,-0.1862999051809311,-0.06690114736557007
1.729496479605477e+18,0.10498148947954178,-0.1824769675731659,-0.06725113838911057
1.7294964796114772e+18,0.10224813967943192,-0.17586997151374817,-0.06831815838813782
1.7294964796204774e+18,0.09158411622047424,-0.1705397218465805,-0.07012037187814713
1.7294964796264776e+18,0.08457352221012115,-0.16233398020267487,-0.07014825195074081
1.7294964796384778e+18,0.07726578414440155,-0.15618762373924255,-0.07000304758548737
1.729496479647478e+18,0.07620825618505478,-0.15656909346580505,-0.0695420354604721
1.7294964796534781e+18,0.07220052182674408,-0.1641974002122879,-0.0676492229104042
1.7294964796624783e+18,0.07036519050598145,-0.16820266842842102,-0.06698216497898102
1.7294964796714785e+18,0.06754869222640991,-0.16044867038726807,-0.06797841936349869
1.7294964796804787e+18,0.06800933182239532,-0.1505364328622818,-0.06782843172550201
1.7294964796864788e+18,0.06667923927307129,-0.14339062571525574,-0.06666963547468185
1.729496479695479e+18,0.06480216979980469,-0.13240160048007965,-0.06336156278848648
1.7294964797044792e+18,0.05852114409208298,-0.12673932313919067,-0.06691370159387589
1.7294964797134794e+18,0.05462022125720978,-0.1316681206226349,-0.06573253124952316
1.7294964797194796e+18,0.05390852689743042,-0.13861195743083954,-0.06564394384622574
1.7294964797284797e+18,0.046143461018800735,-0.1425749659538269,-0.0647292360663414
1.72949647973748e+18,0.049744732677936554,-0.14122051000595093,-0.06117473170161247
1.72949647974648e+18,0.044494159519672394,-0.14074383676052094,-0.0606175996363163
1.7294964797524803e+18,0.04228639602661133,-0.13857537508010864,-0.05899504944682121
1.7294964797614804e+18,0.036174606531858444,-0.14050492644309998,-0.06304959952831268
1.7294964797704806e+18,0.032326795160770416,-0.14911046624183655,-0.058023735880851746
1.7294964797794808e+18,0.02731005661189556,-0.15595270693302155,-0.06067506596446037
1.729496479788481e+18,0.02882634475827217,-0.15693123638629913,-0.06038954108953476
1.7294964797974812e+18,0.03243879973888397,-0.15587112307548523,-0.056862108409404755
1.7294964798064814e+18,0.029793106019496918,-0.1535339206457138,-0.05878660827875137
1.7294964798154816e+18,0.03431110456585884,-0.14877347648143768,-0.06143687292933464
1.7294964798214817e+18,0.03072858601808548,-0.15346689522266388,-0.05626663193106651
1.729496479830482e+18,0.02634594775736332,-0.1579250991344452,-0.05474400147795677
1.729496479839482e+18,0.021068068221211433,-0.15984974801540375,-0.05128828063607216
1.7294964798484823e+18,0.017116157338023186,-0.16540709137916565,-0.05326726287603378
1.7294964798574825e+18,0.02063126675784588,-0.1591503769159317,-0.052967242896556854
1.7294964798664827e+18,0.020073406398296356,-0.16248109936714172,-0.052552856504917145
1.7294964798724828e+18,0.02137063629925251,-0.16068291664123535,-0.05101752281188965
1.729496479881483e+18,0.02062055841088295,-0.16233603656291962,-0.04804065078496933
1.7294964798904832e+18,0.021160190925002098,-0.16871826350688934,-0.047355178743600845
1.7294964798994834e+18,0.017716722562909126,-0.1746576577425003,-0.04902918264269829
1.7294964799054835e+18,0.013925988227128983,-0.17709212005138397,-0.04539341852068901
1.7294964799144837e+18,0.01051467563956976,-0.17974498867988586,-0.04346441477537155
1.729496479923484e+18,0.00916109699755907,-0.18061605095863342,-0.04384347423911095
1.729496479932484e+18,0.009194237180054188,-0.17458035051822662,-0.04471961781382561
1.7294964799384842e+18,0.013476630672812462,-0.1752653568983078,-0.04121730476617813
1.7294964799474844e+18,0.015535305254161358,-0.17413412034511566,-0.03990991786122322
1.7294964799594847e+18,0.015005836263298988,-0.17626091837882996,-0.04107775166630745
1.729496479971485e+18,0.014787193387746811,-0.18774950504302979,-0.03913898393511772
1.729496479980485e+18,0.01299203373491764,-0.1863398551940918,-0.03589625284075737
1.7294964799894853e+18,0.006880745757371187,-0.19208243489265442,-0.0350172184407711
1.7294964799984855e+18,0.007593894377350807,-0.18799805641174316,-0.03319079428911209
1.7294964800074857e+18,0.004387977998703718,-0.1848139613866806,-0.03322483226656914
1.7294964800134858e+18,-0.0005986934993416071,-0.1855699121952057,-0.032042380422353745
1.729496480022486e+18,0.0062574357725679874,-0.18829922378063202,-0.03080703131854534
1.7294964800314862e+18,0.004484697710722685,-0.19207048416137695,-0.027831068262457848
1.7294964800404864e+18,0.005825064145028591,-0.1988343894481659,-0.03058013878762722
1.7294964800494866e+18,0.0037622572854161263,-0.19537585973739624,-0.026735737919807434
1.7294964800584868e+18,0.002864648588001728,-0.19205701351165771,-0.025314215570688248
1.729496480067487e+18,-0.003684754017740488,-0.19092033803462982,-0.023852836340665817
1.729496480073487e+18,-0.004329517483711243,-0.18959802389144897,-0.024550344794988632
1.7294964800854874e+18,-0.004456773865967989,-0.19104059040546417,-0.021893875673413277
1.7294964800914875e+18,0.003419338259845972,-0.18916642665863037,-0.019982848316431046
1.7294964801004877e+18,0.005484025459736586,-0.18905586004257202,-0.018512504175305367
1.7294964801064878e+18,0.010761143639683723,-0.18881984055042267,-0.018341345712542534
1.729496480115488e+18,0.007258677389472723,-0.18758031725883484,-0.016853077337145805
1.7294964801244882e+18,0.004104332998394966,-0.1883077323436737,-0.017163213342428207
1.7294964801334884e+18,-0.0009869897039607167,-0.19657517969608307,-0.012772725895047188
1.7294964801424886e+18,-0.0021713075693696737,-0.20573148131370544,-0.013471095822751522
1.7294964801484887e+18,-0.0023060638923197985,-0.20597927272319794,-0.009507905691862106
1.729496480157489e+18,0.00017725047655403614,-0.2056821882724762,-0.012536605820059776
1.729496480166489e+18,-0.00017806747928261757,-0.20127084851264954,-0.007933070883154869
1.7294964801754893e+18,-0.00499555841088295,-0.19651059806346893,-0.008601788431406021
1.7294964801844895e+18,-0.007994545623660088,-0.19740056991577148,-0.01042725145816803
1.7294964801934897e+18,-0.00566496467217803,-0.2041252702474594,-0.004199208226054907
1.7294964802024899e+18,-0.0070119150914251804,-0.20567582547664642,-0.003530561923980713
1.72949648021149e+18,-0.004783831536769867,-0.20849917829036713,-0.003856359515339136
1.7294964802174902e+18,-0.00408235052600503,-0.20705962181091309,-0.0028940183110535145
1.7294964802264904e+18,-0.004958432167768478,-0.1998632550239563,-0.001913774642162025
1.7294964802354906e+18,-0.004744526464492083,-0.1958349645137787,-0.0031058790627866983
1.7294964802414907e+18,-0.0044823577627539635,-0.1960245966911316,0.0005741998320445418
1.729496480250491e+18,-0.0072470190934836864,-0.19593429565429688,0.000844058464281261
1.7294964802624911e+18,-0.008312836289405823,-0.2025771588087082,0.0023023420944809914
1.7294964802714913e+18,-0.012447642162442207,-0.2079557478427887,0.0024353524204343557
1.7294964802774915e+18,-0.010492544621229172,-0.20814618468284607,0.005025176331400871
1.7294964802864916e+18,-0.011415260843932629,-0.20772778987884521,0.0055281901732087135
1.7294964802954918e+18,-0.010179413482546806,-0.20719411969184875,0.008458503521978855
1.729496480301492e+18,-0.011343092657625675,-0.20379163324832916,0.010348936542868614
1.7294964803104922e+18,-0.011937147937715054,-0.20286445319652557,0.007739914581179619
1.7294964803194924e+18,-0.01740993559360504,-0.19993963837623596,0.011183504946529865
1.7294964803284925e+18,-0.01926209218800068,-0.1987600475549698,0.010147144086658955
1.7294964803344927e+18,-0.020614907145500183,-0.19748494029045105,0.01299230195581913
1.7294964803434929e+18,-0.01981748640537262,-0.19477064907550812,0.012850296683609486
1.729496480352493e+18,-0.018625974655151367,-0.197307288646698,0.014623401686549187
1.7294964803584932e+18,-0.017339536920189857,-0.20040275156497955,0.014248675666749477
1.7294964803674934e+18,-0.010472442023456097,-0.20459450781345367,0.014636357314884663
1.7294964803764936e+18,-0.012279471382498741,-0.20532305538654327,0.015037843957543373
1.7294964803854938e+18,-0.018890587612986565,-0.20742669701576233,0.016959605738520622
1.729496480391494e+18,-0.02377062290906906,-0.21195897459983826,0.020569296553730965
1.729496480400494e+18,-0.024117134511470795,-0.20672492682933807,0.018702352419495583
1.7294964804094943e+18,-0.024963174015283585,-0.2059781700372696,0.02161390706896782
1.7294964804184945e+18,-0.023274699226021767,-0.20679238438606262,0.02019350603222847
1.7294964804274947e+18,-0.017489450052380562,-0.20636770129203796,0.022347958758473396
1.7294964804334948e+18,-0.01388927549123764,-0.20626547932624817,0.023916758596897125
1.729496480445495e+18,-0.012657659128308296,-0.20817682147026062,0.025271497666835785
1.7294964804514952e+18,-0.01662968471646309,-0.2099934071302414,0.026563473045825958
1.7294964804604954e+18,-0.02057497575879097,-0.20703835785388947,0.02533319778740406
1.7294964804694956e+18,-0.029968854039907455,-0.2062220573425293,0.028381312265992165
1.7294964804784957e+18,-0.030319159850478172,-0.2044675350189209,0.024974584579467773
1.729496480487496e+18,-0.028344741091132164,-0.20791122317314148,0.02832154370844364
1.729496480496496e+18,-0.01785998046398163,-0.2092117965221405,0.02826857380568981
1.7294964805024963e+18,-0.013904185965657234,-0.21401000022888184,0.03097226843237877
1.7294964805114964e+18,-0.01258745789527893,-0.21453924477100372,0.028562365099787712
1.7294964805174966e+18,-0.010777825489640236,-0.2147003412246704,0.027412133291363716
1.7294964805264968e+18,-0.015378659591078758,-0.21448902785778046,0.029200375080108643
1.729496480535497e+18,-0.022774875164031982,-0.21347860991954803,0.03195277228951454
1.7294964805444972e+18,-0.027734963223338127,-0.21487976610660553,0.030700311064720154
1.7294964805534973e+18,-0.028354613110423088,-0.2177950143814087,0.033105526119470596
1.7294964805624975e+18,-0.02523820847272873,-0.21284161508083344,0.031847137957811356
1.7294964805714977e+18,-0.0203193798661232,-0.21254625916481018,0.033183515071868896
1.7294964805774979e+18,-0.017489517107605934,-0.2115732580423355,0.031124470755457878
1.729496480586498e+18,-0.013171814382076263,-0.20852074027061462,0.03362045809626579
1.7294964805924982e+18,-0.014821204356849194,-0.20855233073234558,0.0363413468003273
1.7294964806014984e+18,-0.01805560663342476,-0.2134198546409607,0.034219540655612946
1.7294964806104986e+18,-0.02511775493621826,-0.21204066276550293,0.036219269037246704
1.7294964806194988e+18,-0.024907132610678673,-0.21448586881160736,0.03691139444708824
1.729496480625499e+18,-0.02761813998222351,-0.21380163729190826,0.035587869584560394
1.729496480634499e+18,-0.027102986350655556,-0.21107801795005798,0.03440932184457779
1.7294964806434993e+18,-0.02132074534893036,-0.21129940450191498,0.03564794734120369
1.7294964806524995e+18,-0.020650682970881462,-0.20880655944347382,0.03712323307991028
1.7294964806614996e+18,-0.0156342051923275,-0.21343834698200226,0.036667969077825546
