timestamp,accel_x,accel_y,accel_z
1.727526953547412e+18,0.035536959767341614,0.036554962396621704,-9.76382827758789
1.727526953553412e+18,0.031021231785416603,-0.027914123609662056,-9.836183547973633
1.7275269535594122e+18,-0.0020472428295761347,0.05225186422467232,-9.862534523010254
1.7275269535654124e+18,-0.006501368246972561,0.021231485530734062,-9.781760215759277
1.7275269535714125e+18,-0.0017596929101273417,0.0013852088013663888,-9.804940223693848
1.7275269535744125e+18,0.010224880650639534,0.047844547778367996,-9.826601028442383
1.7275269535804127e+18,0.07123135030269623,-0.021294133737683296,-9.842523574829102
1.7275269535864128e+18,0.008116206154227257,0.04383006691932678,-9.803784370422363
1.727526953592413e+18,-0.030721429735422134,-0.01962302438914776,-9.75192642211914
1.727526953595413e+18,-0.01272638700902462,0.004220523405820131,-9.884331703186035
1.727526953601413e+18,0.04915270581841469,0.00030638373573310673,-9.819971084594727
1.7275269536074132e+18,0.04291054978966713,-0.07543065398931503,-9.82784652709961
1.7275269536134134e+18,-0.0008919543470256031,0.007873731665313244,-9.793621063232422
1.7275269536194135e+18,0.03826611116528511,-0.03422415256500244,-9.741751670837402
1.7275269536254136e+18,-0.03796226531267166,-0.02036578580737114,-9.827272415161133
1.7275269536314138e+18,-0.08524934947490692,0.016810107976198196,-9.803391456604004
1.7275269536344138e+18,0.032946642488241196,-0.023557519540190697,-9.832931518554688
1.727526953640414e+18,0.00944257527589798,0.014512426219880581,-9.79605484008789
1.727526953646414e+18,0.004437501076608896,0.030994810163974762,-9.837555885314941
1.7275269536524142e+18,0.07639501988887787,-0.039569903165102005,-9.753267288208008
1.7275269536584143e+18,0.061907414346933365,-0.0794970840215683,-9.809085845947266
1.7275269536614144e+18,0.015636727213859558,-0.04616224020719528,-9.854804992675781
1.7275269536674145e+18,-0.0798066183924675,0.008907442912459373,-9.812082290649414
1.7275269536734147e+18,0.0607929565012455,-0.0019251881167292595,-9.77053451538086
1.7275269536794148e+18,0.0027463610749691725,0.09036368131637573,-9.838115692138672
1.727526953685415e+18,-0.03623893857002258,0.04429026320576668,-9.775662422180176
1.727526953688415e+18,-0.059605371206998825,0.08515016734600067,-9.799680709838867
1.727526953694415e+18,-0.008479103446006775,0.04725095257163048,-9.765092849731445
1.7275269537004152e+18,0.055973805487155914,0.012925350107252598,-9.807591438293457
1.7275269537064154e+18,0.020252840593457222,0.0737428069114685,-9.790959358215332
1.7275269537094154e+18,0.031740251928567886,0.010715660639107227,-9.816302299499512
1.7275269537154156e+18,-0.0209302119910717,0.030002199113368988,-9.764275550842285
1.7275269537214157e+18,0.05861235409975052,0.009401275776326656,-9.793886184692383
1.7275269537274158e+18,-0.03584231063723564,-0.01824783720076084,-9.749813079833984
1.7275269537304159e+18,-0.06815357506275177,0.07002246379852295,-9.809392929077148
1.727526953736416e+18,0.0265008807182312,-0.00961295049637556,-9.769440650939941
1.7275269537424161e+18,0.0170223917812109,-0.02841479331254959,-9.806227684020996
1.7275269537484163e+18,0.12459548562765121,-0.0009097909205593169,-9.811668395996094
1.7275269537514163e+18,-0.008975726552307606,-0.05200730636715889,-9.781522750854492
1.7275269537574164e+18,-0.009551445953547955,0.03403084725141525,-9.860834121704102
1.7275269537634166e+18,0.004680543206632137,0.014451174065470695,-9.805752754211426
1.7275269537694167e+18,-0.025967281311750412,0.13211557269096375,-9.80125904083252
1.7275269537724168e+18,-0.016898732632398605,-0.012536206282675266,-9.739182472229004
1.727526953778417e+18,-0.06519624590873718,-0.04876323789358139,-9.752206802368164
1.727526953784417e+18,0.06940022855997086,0.002931679366156459,-9.730387687683105
1.7275269537904172e+18,0.030733712017536163,0.009350447915494442,-9.765625
1.7275269537934172e+18,0.035458821803331375,-0.027278872206807137,-9.861202239990234
1.7275269537994173e+18,0.06866846978664398,-0.03754478693008423,-9.770219802856445
1.7275269538054175e+18,-0.12509401142597198,0.003413198282942176,-9.751179695129395
1.7275269538084175e+18,-0.0055952840484678745,-0.008043878711760044,-9.838967323303223
1.7275269538144177e+18,0.0082200663164258,-0.07989012449979782,-9.805773735046387
1.7275269538204178e+18,0.022301962599158287,-0.04219929873943329,-9.858724594116211
1.7275269538234179e+18,0.04461716115474701,0.07753655314445496,-9.818005561828613
1.727526953829418e+18,-0.02215723507106304,-0.02346215769648552,-9.728971481323242
1.727526953835418e+18,0.008591117337346077,0.028803566470742226,-9.841165542602539
1.7275269538414182e+18,-0.02724495716392994,-2.2412876205635257e-05,-9.84540843963623
1.7275269538444183e+18,0.08677124977111816,0.0026829265989363194,-9.791637420654297
1.7275269538504184e+18,0.018507106229662895,0.06006988510489464,-9.807848930358887
1.7275269538564186e+18,0.014597948640584946,0.012400384992361069,-9.876038551330566
1.7275269538624187e+18,0.031357549130916595,0.10333269834518433,-9.721985816955566
1.7275269538654188e+18,0.020959239453077316,0.061441611498594284,-9.855569839477539
1.727526953871419e+18,-0.008325479924678802,0.06540826708078384,-9.803488731384277
1.727526953877419e+18,0.017145849764347076,-0.025544146075844765,-9.752642631530762
1.7275269538834191e+18,-0.009443899616599083,-0.05454202741384506,-9.820089340209961
1.7275269538864192e+18,0.017681485041975975,-0.03163768723607063,-9.816859245300293
1.7275269538924193e+18,0.04434053227305412,-0.030640562996268272,-9.731639862060547
1.7275269538984195e+18,-0.02045697160065174,0.06991472095251083,-9.80057144165039
1.7275269539014195e+18,0.02769344672560692,0.001975012244656682,-9.762222290039062
1.7275269539074196e+18,-0.05007747933268547,-0.03998684883117676,-9.739078521728516
1.7275269539134198e+18,0.04280818626284599,-0.055013760924339294,-9.915914535522461
1.7275269539164198e+18,-0.02160058170557022,0.055483635514974594,-9.79433536529541
1.72752695392242e+18,-0.047632165253162384,-0.050741665065288544,-9.798343658447266
1.72752695392842e+18,-0.011995173059403896,0.02986193634569645,-9.874110221862793
1.7275269539344202e+18,-0.03726242110133171,-0.00436985120177269,-9.824797630310059
1.7275269539374203e+18,-0.103763647377491,0.009036628529429436,-9.731752395629883
1.7275269539434204e+18,0.10107054561376572,-0.02222963236272335,-9.738134384155273
1.7275269539494205e+18,-0.04867098107933998,0.042005736380815506,-9.755730628967285
1.7275269539554207e+18,-0.01430725958198309,-0.057222288101911545,-9.704839706420898
1.7275269539584207e+18,-0.01597120799124241,0.06667077541351318,-9.827628135681152
1.7275269539644209e+18,-0.027719322592020035,-0.03952253237366676,-9.800698280334473
1.727526953970421e+18,0.039868250489234924,-0.013262300752103329,-9.849770545959473
1.727526953976421e+18,0.02112719416618347,0.06733199954032898,-9.839787483215332
1.7275269539824212e+18,0.03526280075311661,-0.11023122817277908,-9.883545875549316
1.7275269539884214e+18,0.05843912810087204,0.058547258377075195,-9.785945892333984
1.7275269539914214e+18,0.00013420752657111734,0.0030436681117862463,-9.789529800415039
1.7275269539974216e+18,0.053902097046375275,-0.027907075360417366,-9.760238647460938
1.7275269540034217e+18,-0.010878832079470158,0.021959587931632996,-9.770829200744629
1.7275269540064218e+18,0.045262571424245834,0.03538291156291962,-9.790461540222168
1.727526954012422e+18,-0.018050746992230415,0.024747516959905624,-9.835762977600098
1.727526954018422e+18,0.013256278820335865,0.05188751965761185,-9.810131072998047
1.7275269540244221e+18,0.003218675497919321,-0.06911244988441467,-9.7744722366333
1.7275269540274222e+18,-0.038034699857234955,0.030245279893279076,-9.845029830932617
1.7275269540334223e+18,0.034654565155506134,-0.04971848800778389,-9.836505889892578
1.7275269540394225e+18,0.04806142300367355,0.015504392795264721,-9.75694465637207
1.7275269540454226e+18,-0.048876892775297165,0.009433379396796227,-9.82979679107666
1.7275269540514227e+18,-0.030021118000149727,0.019658567383885384,-9.769317626953125
1.7275269540574228e+18,0.02763802371919155,-0.07378256320953369,-9.755414962768555
1.727526954063423e+18,0.02583734132349491,0.04425701126456261,-9.871781349182129
1.727526954069423e+18,0.039789170026779175,-0.020757464691996574,-9.79145336151123
1.7275269540724232e+18,0.03623881936073303,-0.007716217078268528,-9.763463020324707
1.7275269540784233e+18,-0.027774780988693237,0.00030128739308565855,-9.850055694580078
1.7275269540844234e+18,0.04455948248505592,0.018053751438856125,-9.933168411254883
1.7275269540904236e+18,-0.03454439714550972,0.06628488004207611,-9.786983489990234
1.7275269540964237e+18,-0.020885147154331207,-0.006137365009635687,-9.840383529663086
1.7275269541024238e+18,-0.02942398563027382,-0.016734369099140167,-9.819807052612305
1.727526954105424e+18,-0.0211049672216177,-0.007569979410618544,-9.834701538085938
1.727526954114424e+18,-0.006275284104049206,-0.031639400869607925,-9.857425689697266
1.7275269541204242e+18,-0.026026878505945206,0.010429308749735355,-9.88243293762207
1.7275269541264243e+18,-0.008670428767800331,-0.05601346865296364,-9.7666654586792
1.7275269541324244e+18,-0.019039487466216087,0.10041029006242752,-9.79688549041748
1.7275269541354245e+18,-0.08288127183914185,0.08515938371419907,-9.814722061157227
1.7275269541414246e+18,-0.022344987839460373,0.033516936004161835,-9.796966552734375
1.7275269541474248e+18,-0.04454195871949196,-0.019105343148112297,-9.82769775390625
1.727526954153425e+18,-0.01956765726208687,0.002683292143046856,-9.809056282043457
1.727526954159425e+18,-0.09151307493448257,0.021743256598711014,-9.721817970275879
1.7275269541654252e+18,0.014906591735780239,-0.05646298825740814,-9.742472648620605
1.7275269541714253e+18,-0.05209878832101822,-0.04316084459424019,-9.719964027404785
1.7275269541774254e+18,0.003306069178506732,-0.00019623148546088487,-9.762162208557129
1.7275269541834255e+18,-0.03106018528342247,0.007300424389541149,-9.723402976989746
1.7275269541894257e+18,0.0025215663481503725,-0.03893701732158661,-9.820147514343262
1.7275269541954258e+18,0.009946366772055626,-0.009629921987652779,-9.759404182434082
1.727526954201426e+18,-0.05925075337290764,-0.0020429310388863087,-9.80601692199707
1.727526954207426e+18,0.05213788524270058,0.04818898066878319,-9.726551055908203
1.7275269542134262e+18,-0.0279864352196455,-0.012392194010317326,-9.825566291809082
1.7275269542164262e+18,0.010534481145441532,0.03514862805604935,-9.811410903930664
1.7275269542224264e+18,0.08991657942533493,-0.038998547941446304,-9.78034782409668
1.7275269542284265e+18,0.009870108217000961,-0.0801456868648529,-9.804282188415527
1.7275269542344266e+18,0.0570344477891922,-0.008205614984035492,-9.812215805053711
1.7275269542404268e+18,-0.05164186283946037,-0.021304277703166008,-9.759918212890625
1.727526954246427e+18,0.033224042505025864,0.0011005967389792204,-9.806941986083984
1.727526954252427e+18,-0.04419443756341934,-0.01510239951312542,-9.827759742736816
1.7275269542584271e+18,-0.048533082008361816,0.05075268819928169,-9.815835952758789
1.7275269542644273e+18,0.007262708619236946,0.02034677192568779,-9.736002922058105
1.7275269542704274e+18,0.04205606132745743,0.015083974227309227,-9.831499099731445
1.7275269542764275e+18,0.016154542565345764,0.019793802872300148,-9.770305633544922
1.7275269542824276e+18,0.02861754409968853,-0.005816049873828888,-9.858246803283691
1.7275269542854277e+18,-0.018178431317210197,-0.03292519226670265,-9.843511581420898
1.7275269542914278e+18,-0.013270382769405842,-0.044375572353601456,-9.830778121948242
1.727526954297428e+18,-0.010447570122778416,-0.03130060061812401,-9.888527870178223
1.727526954303428e+18,0.06188423931598663,0.07377537339925766,-9.9063081741333
1.7275269543094282e+18,-0.040391311049461365,0.02003367245197296,-9.888769149780273
1.7275269543124283e+18,0.07848720997571945,-0.04381530359387398,-9.815644264221191
1.7275269543184284e+18,-0.009912583976984024,-0.008729769848287106,-9.817761421203613
1.7275269543244285e+18,-0.06953137367963791,0.022029634565114975,-9.831006050109863
1.7275269543304287e+18,-0.008042380213737488,-0.02888568863272667,-9.724263191223145
1.7275269543364288e+18,-0.040885016322135925,0.00785700511187315,-9.718729019165039
1.727526954342429e+18,-0.03302387893199921,-0.005621498450636864,-9.781502723693848
1.727526954348429e+18,0.04606607183814049,0.053186483681201935,-9.855223655700684
1.727526954351429e+18,-0.009943565353751183,0.009370993822813034,-9.877134323120117
1.7275269543574292e+18,-0.014003045856952667,0.026895813643932343,-9.743537902832031
1.7275269543634294e+18,-0.0884065330028534,0.07954027503728867,-9.7470064163208
1.7275269543694295e+18,0.010527060367166996,0.03810591250658035,-9.740767478942871
1.7275269543754296e+18,0.00782677624374628,-0.029292955994606018,-9.779081344604492
1.7275269543814298e+18,0.0350964218378067,-0.0005713985301554203,-9.81419563293457
1.72752695438743e+18,0.048749376088380814,-0.054162267595529556,-9.814384460449219
1.72752695439343e+18,0.010595740750432014,-0.037702444940805435,-9.846915245056152
1.7275269543994301e+18,0.03131648898124695,-0.00783578958362341,-9.75536823272705
1.7275269544054303e+18,0.0440298356115818,0.04346887767314911,-9.843404769897461
1.7275269544114304e+18,0.02565682865679264,-0.025030218064785004,-9.78763484954834
1.7275269544174305e+18,-0.0015435362001881003,-0.006049503572285175,-9.818978309631348
1.7275269544204306e+18,-0.016873203217983246,0.019478648900985718,-9.858417510986328
1.7275269544264307e+18,-0.06907416135072708,0.03192005306482315,-9.81694507598877
1.7275269544324308e+18,0.04649195820093155,0.001793700153939426,-9.825589179992676
1.727526954438431e+18,0.020712517201900482,-0.03698766604065895,-9.835466384887695
1.727526954444431e+18,-0.014915752224624157,-0.04596374183893204,-9.809806823730469
1.7275269544504312e+18,0.020725037902593613,0.0044234092347323895,-9.745977401733398
1.7275269544534313e+18,0.019725028425455093,-0.008409927599132061,-9.793885231018066
1.7275269544594314e+18,-0.019044162705540657,0.0060990653000772,-9.768632888793945
1.7275269544654316e+18,-0.023460039868950844,0.01570085622370243,-9.886252403259277
1.7275269544684316e+18,-0.04727117344737053,0.004550588317215443,-9.781500816345215
1.7275269544744317e+18,0.11206477135419846,0.007060939446091652,-9.787270545959473
1.7275269544804319e+18,0.04219924658536911,-0.028409507125616074,-9.820304870605469
1.727526954486432e+18,0.0720721110701561,0.049824345856904984,-9.884231567382812
1.7275269544924321e+18,0.08093549311161041,0.031199170276522636,-9.807324409484863
1.7275269544984323e+18,0.027031896635890007,-0.061327334493398666,-9.886200904846191
1.7275269545044324e+18,-0.006497098598629236,0.05937027186155319,-9.903054237365723
1.7275269545104325e+18,0.06425200402736664,-0.0434221550822258,-9.791702270507812
1.7275269545134326e+18,0.016900883987545967,-0.017156384885311127,-9.843952178955078
1.7275269545194327e+18,-0.06944646686315536,-0.11634711176156998,-9.782130241394043
1.7275269545254328e+18,-0.04433281719684601,-0.09666839987039566,-9.777141571044922
1.727526954531433e+18,0.030742937698960304,-0.006093129049986601,-9.904644012451172
1.727526954537433e+18,0.0372820608317852,0.02001604065299034,-9.833717346191406
1.7275269545404332e+18,-0.02280166558921337,0.08335381001234055,-9.816017150878906
1.7275269545464333e+18,-0.10344786942005157,-0.05100249499082565,-9.68828010559082
1.7275269545524334e+18,0.0030038286931812763,-0.028339529410004616,-9.748512268066406
1.7275269545584335e+18,-0.05080771446228027,0.055920083075761795,-9.77837085723877
1.7275269545614336e+18,0.02799616940319538,-0.018299860879778862,-9.794812202453613
1.7275269545674337e+18,0.05515352636575699,0.039706308394670486,-9.780817031860352
1.7275269545734339e+18,0.004799843765795231,-0.01784171536564827,-9.817328453063965
1.727526954576434e+18,-0.0017483942210674286,0.03362889215350151,-9.763594627380371
1.727526954582434e+18,-0.012304614298045635,-0.09733712673187256,-9.685540199279785
1.7275269545884342e+18,-0.03610697388648987,-0.016080090776085854,-9.854206085205078
1.7275269545944343e+18,-0.011936242692172527,0.015675872564315796,-9.68464183807373
1.7275269545974344e+18,-0.08279218524694443,-0.06952105462551117,-9.827296257019043
1.7275269546034345e+18,-0.0015178091125562787,0.07262111455202103,-9.801265716552734
1.7275269546094346e+18,0.0057477764785289764,0.11917411535978317,-9.755797386169434
1.7275269546124347e+18,0.056172747164964676,0.07361532002687454,-9.720135688781738
1.7275269546184348e+18,-0.03012998029589653,0.016450071707367897,-9.815987586975098
1.727526954624435e+18,0.010309671983122826,0.04831100255250931,-9.805191993713379
1.727526954630435e+18,-0.004970457870513201,0.016910288482904434,-9.827815055847168
1.7275269546364352e+18,0.005806272383779287,-0.05589868500828743,-9.758103370666504
1.7275269546394353e+18,0.010091537609696388,-0.10732375085353851,-9.781412124633789
1.7275269546454354e+18,-0.027897516265511513,-0.05519092082977295,-9.768869400024414
1.7275269546514355e+18,-0.03997599333524704,0.052500080317258835,-9.76863956451416
1.7275269546574356e+18,-0.008165349252521992,-0.0218148622661829,-9.82622241973877
1.7275269546604357e+18,0.10611313581466675,0.09952956438064575,-9.881512641906738
1.7275269546664358e+18,0.00908080954104662,-0.011968840844929218,-9.746768951416016
1.727526954672436e+18,-0.006898434367030859,-0.07250373065471649,-9.784170150756836
1.727526954678436e+18,-0.00781790167093277,0.0059952219016849995,-9.720821380615234
1.7275269546814362e+18,0.021735642105340958,-0.015064206905663013,-9.828479766845703
1.7275269546874363e+18,0.016534993425011635,0.03202567622065544,-9.821764945983887
1.7275269546934364e+18,-0.009382522664964199,0.011283679865300655,-9.795588493347168
1.7275269546994365e+18,-0.002374358242377639,-0.004588652402162552,-9.837739944458008
1.7275269547024366e+18,-0.0033485388848930597,0.08652328699827194,-9.877336502075195
1.7275269547084367e+18,-0.06936149299144745,0.03482600674033165,-9.78397274017334
1.7275269547144369e+18,0.05661036819219589,0.011936795897781849,-9.745752334594727
1.727526954717437e+18,-0.10192547738552094,-0.05156095325946808,-9.854897499084473
1.727526954723437e+18,0.02967071905732155,-0.020437443628907204,-9.843564987182617
1.7275269547294372e+18,0.056656211614608765,-0.014058507047593594,-9.800039291381836
1.7275269547324372e+18,0.03684963658452034,-0.0031059961766004562,-9.80788803100586
1.7275269547384374e+18,0.006743005011230707,0.0521647147834301,-9.805851936340332
1.7275269547444375e+18,0.041536834090948105,0.07254946976900101,-9.761021614074707
1.7275269547504376e+18,-0.0017968417378142476,-0.020835258066654205,-9.86634349822998
1.7275269547534377e+18,0.0225170087069273,-0.023543721064925194,-9.799055099487305
1.7275269547594378e+18,0.00510829221457243,-0.022849617525935173,-9.810188293457031
1.727526954765438e+18,-0.004524806048721075,0.04932009056210518,-9.796996116638184
1.7275269547744381e+18,0.05485822260379791,-0.008225490339100361,-9.847543716430664
1.7275269547804383e+18,-0.0037016996648162603,0.002103774808347225,-9.844074249267578
1.7275269547864384e+18,0.02629026211798191,0.014120438136160374,-9.781018257141113
1.7275269547924385e+18,-0.023710686713457108,0.01038189698010683,-9.826766967773438
1.7275269547984387e+18,-0.018845727667212486,-0.07641918957233429,-9.737293243408203
1.7275269548014387e+18,-0.017886264249682426,-0.002296527847647667,-9.831840515136719
1.7275269548074388e+18,-0.008761516772210598,0.027675388380885124,-9.802834510803223
1.727526954816439e+18,0.02012030966579914,0.0602644607424736,-9.850811004638672
1.727526954819439e+18,-0.019506290555000305,-0.04548827186226845,-9.839492797851562
1.7275269548254392e+18,0.06034458056092262,0.004803705494850874,-9.821385383605957
1.7275269548314394e+18,0.026152612641453743,0.029371168464422226,-9.809083938598633
1.7275269548374395e+18,0.027361448854207993,0.06492306292057037,-9.79033374786377
1.7275269548434396e+18,-0.10552908480167389,0.050998274236917496,-9.74895191192627
1.7275269548494397e+18,0.03166709467768669,0.03454292193055153,-9.890517234802246
1.72752695485544e+18,0.0008994402596727014,-0.04952085018157959,-9.906844139099121
1.72752695486144e+18,0.013678229413926601,-0.009346754290163517,-9.824834823608398
1.72752695486744e+18,0.033896297216415405,-0.01675242744386196,-9.759594917297363
1.7275269548734403e+18,0.018120646476745605,-0.005751744844019413,-9.84814167022705
1.7275269548794404e+18,0.035758715122938156,0.010197289288043976,-9.789592742919922
1.7275269548824404e+18,-0.009419767186045647,0.030347440391778946,-9.81364917755127
1.7275269548884406e+18,0.07110817730426788,0.11228436976671219,-9.788349151611328
1.7275269548944407e+18,-0.014577335678040981,-0.016754044219851494,-9.802765846252441
1.7275269549004408e+18,0.05526216700673103,-0.060136064887046814,-9.808187484741211
1.727526954903441e+18,0.0130349425598979,0.023935861885547638,-9.712657928466797
1.727526954909441e+18,-0.01316098216921091,-0.036798227578401566,-9.80417537689209
1.7275269549154412e+18,-0.03497980535030365,-0.0413743257522583,-9.781745910644531
1.7275269549214413e+18,0.048862606287002563,-0.015474354848265648,-9.858168601989746
1.7275269549274414e+18,0.0369388572871685,-0.02402595244348049,-9.83498477935791
1.7275269549304415e+18,-0.00997318234294653,-0.030515583232045174,-9.808913230895996
1.7275269549364416e+18,-0.017361892387270927,-0.0704258382320404,-9.852622032165527
1.7275269549424417e+18,0.03263917192816734,-0.05544155463576317,-9.779982566833496
1.7275269549484419e+18,0.013470825739204884,-0.0910508781671524,-9.785538673400879
1.727526954954442e+18,0.02005005069077015,0.04276946932077408,-9.748055458068848
1.727526954957442e+18,-0.03980952501296997,0.007016761228442192,-9.81678581237793
1.7275269549634422e+18,0.021890653297305107,0.05847761407494545,-9.840848922729492
1.7275269549694423e+18,-0.05738220736384392,0.08508177101612091,-9.848671913146973
1.7275269549724424e+18,-0.05680405721068382,-0.030821796506643295,-9.798792839050293
1.7275269549784425e+18,0.0034850032534450293,0.02270723320543766,-9.791112899780273
1.7275269549844426e+18,0.05849292501807213,-0.06063191220164299,-9.799882888793945
1.7275269549904428e+18,-0.05464266985654831,0.0025444766506552696,-9.791436195373535
1.7275269549934428e+18,-0.010144163854420185,-0.028477074578404427,-9.834312438964844
1.727526954999443e+18,0.05471663922071457,0.0586044080555439,-9.709325790405273
1.727526955002443e+18,0.05978529527783394,0.02083074301481247,-9.880147933959961
1.7275269550084431e+18,-0.04214206337928772,0.02286585234105587,-9.785085678100586
1.7275269550144433e+18,-0.034043245017528534,-0.06736530363559723,-9.887330055236816
1.7275269550204434e+18,0.015230531804263592,-0.051848992705345154,-9.8121919631958
1.7275269550234435e+18,0.030219173058867455,-0.04640303552150726,-9.791258811950684
1.7275269550294436e+18,0.056784022599458694,-0.03651837259531021,-9.836358070373535
1.7275269550354437e+18,-0.002637996105477214,0.0007198802777566016,-9.848675727844238
1.7275269550384438e+18,-0.05877392739057541,0.015312716364860535,-9.806340217590332
1.727526955044444e+18,-0.01941504143178463,-0.07831664383411407,-9.785608291625977
1.727526955050444e+18,-0.00274232542142272,-0.0021548632066696882,-9.817242622375488
1.7275269550564442e+18,-0.0081398980692029,-0.0029832436703145504,-9.831554412841797
1.7275269550594442e+18,-0.048028964549303055,-0.015173587016761303,-9.82582950592041
1.7275269550654444e+18,-0.012653891928493977,0.00890060793608427,-9.866994857788086
1.7275269550714445e+18,0.006818974856287241,0.09662417322397232,-9.760319709777832
1.7275269550774446e+18,0.04131026193499565,0.008414184674620628,-9.835550308227539
1.7275269550804447e+18,-0.04631352052092552,-0.06340445578098297,-9.813671112060547
1.7275269550864448e+18,0.014164895750582218,-0.04027227312326431,-9.793488502502441
1.727526955092445e+18,0.030774792656302452,0.03505637124180794,-9.815193176269531
1.727526955098445e+18,0.09144239872694016,-0.03277522698044777,-9.827033996582031
1.7275269551044452e+18,0.007430683355778456,-0.0029746557120233774,-9.764291763305664
1.7275269551104453e+18,-0.03268355503678322,-0.0288876723498106,-9.813486099243164
1.7275269551134454e+18,0.038476087152957916,-0.011677890084683895,-9.774538040161133
1.7275269551194455e+18,0.03626787289977074,-0.010885000228881836,-9.803180694580078
1.7275269551254456e+18,0.041482292115688324,0.03763916343450546,-9.940468788146973
1.7275269551314458e+18,-0.007964926771819592,0.014994921162724495,-9.874558448791504
1.7275269551344458e+18,-0.04878336191177368,-0.05442708730697632,-9.88683032989502
1.727526955140446e+18,0.019111286848783493,-0.0833875983953476,-9.905643463134766
1.727526955146446e+18,0.0013700712006539106,-0.038552191108465195,-9.860755920410156
1.7275269551524462e+18,-0.09104830026626587,-0.03040614351630211,-9.897112846374512
1.7275269551554463e+18,-0.009661424905061722,0.02915755659341812,-9.815905570983887
1.7275269551614464e+18,-0.00945530366152525,0.026054535061120987,-9.862324714660645
1.7275269551674465e+18,0.04592257738113403,0.005529769696295261,-9.974974632263184
1.7275269551734467e+18,-0.03722747042775154,0.026604751124978065,-10.003649711608887
1.7275269551764467e+18,-0.011787892319262028,-0.0075594522058963776,-10.027042388916016
1.7275269551824468e+18,-0.02550968900322914,0.07539393752813339,-9.948714256286621
1.727526955188447e+18,0.0410357303917408,-0.0021763890981674194,-10.053533554077148
1.727526955194447e+18,-0.009081757627427578,0.03583928197622299,-9.984505653381348
1.7275269551974472e+18,-0.010464734397828579,0.023250991478562355,-10.105018615722656
1.7275269552034473e+18,-0.034370046108961105,0.03816148638725281,-10.027167320251465
1.7275269552094474e+18,-0.036460086703300476,-0.07006976008415222,-10.036952018737793
1.7275269552124475e+18,-0.027438318356871605,0.0017999988049268723,-9.96922492980957
1.7275269552184476e+18,0.06168760731816292,0.014665760099887848,-10.115607261657715
1.7275269552244477e+18,0.03519613668322563,-0.02654876932501793,-10.07232666015625
1.7275269552274478e+18,0.058337267488241196,0.040500227361917496,-10.059107780456543
1.727526955233448e+18,0.024815134704113007,0.04094550386071205,-10.065755844116211
1.727526955239448e+18,0.05216645076870918,-0.009217212907969952,-10.042841911315918
1.7275269552454482e+18,-0.05402209237217903,0.0349341556429863,-10.066268920898438
1.7275269552484483e+18,0.009842169471085072,-0.03600740432739258,-10.110953330993652
1.7275269552544484e+18,0.028112785890698433,0.024942053481936455,-10.067854881286621
1.7275269552604485e+18,-0.07302773743867874,-0.013207577168941498,-10.076766014099121
1.7275269552634486e+18,0.05860818177461624,-0.06704860180616379,-10.063956260681152
1.7275269552694487e+18,0.019370824098587036,0.05848616734147072,-10.12208366394043
1.7275269552754488e+18,0.0062056658789515495,-0.005004421807825565,-10.079383850097656
1.727526955281449e+18,-0.029820119962096214,-0.0366220697760582,-10.155466079711914
1.727526955287449e+18,0.05730902776122093,0.0578690730035305,-10.19345760345459
1.7275269552904492e+18,0.0715581402182579,-0.011293500661849976,-10.079808235168457
1.7275269552964493e+18,-0.021041078492999077,0.11334426701068878,-10.227720260620117
1.7275269553024494e+18,0.04600747674703598,-0.021832792088389397,-10.267267227172852
1.7275269553084495e+18,0.02617742493748665,0.029591042548418045,-10.237366676330566
1.7275269553114496e+18,0.009124115109443665,-0.05610290542244911,-10.206113815307617
1.7275269553174497e+18,-0.003339542541652918,0.040940675884485245,-10.259486198425293
1.7275269553234499e+18,-0.02947170101106167,0.07266218215227127,-10.212602615356445
1.72752695532945e+18,-0.08089613169431686,-0.019825220108032227,-10.236425399780273
1.72752695533545e+18,-0.02772209607064724,0.08403703570365906,-10.29774284362793
1.7275269553384502e+18,-0.04622780159115791,0.04082139581441879,-10.31059741973877
1.7275269553444503e+18,-0.07247430831193924,0.030199142172932625,-10.261659622192383
1.7275269553504504e+18,0.0044943043030798435,0.012184616178274155,-10.25387191772461
1.7275269553534505e+18,-0.08925625681877136,0.024655034765601158,-10.237882614135742
1.7275269553594506e+18,0.02075118198990822,-0.026011988520622253,-10.253629684448242
1.7275269553654508e+18,0.008222794160246849,0.013632651418447495,-10.366296768188477
1.727526955371451e+18,0.07931778579950333,0.04116306081414223,-10.26624584197998
1.727526955374451e+18,0.09481234103441238,-0.012790480628609657,-10.25364875793457
1.727526955380451e+18,0.005156895145773888,-0.01726449467241764,-10.282408714294434
1.7275269553864512e+18,-0.003132908372208476,-0.026358587667346,-10.211523056030273
1.7275269553924513e+18,0.06981989741325378,0.07409869134426117,-10.264371871948242
1.7275269553954514e+18,-0.05117461085319519,0.04265666753053665,-10.224026679992676
1.7275269554014515e+18,0.004030843265354633,-0.011347672902047634,-10.258926391601562
1.7275269554074516e+18,0.01771284081041813,0.04251851513981819,-10.308117866516113
1.7275269554134518e+18,-0.004157667513936758,0.000984004931524396,-10.332839012145996
1.7275269554164518e+18,0.055506106466054916,0.010636087507009506,-10.369482040405273
1.727526955422452e+18,0.006985369138419628,-0.05022389814257622,-10.328774452209473
1.727526955428452e+18,0.02916760742664337,-0.0005303546786308289,-10.355534553527832
1.7275269554344522e+18,-0.0768360048532486,-0.025322841480374336,-10.341414451599121
1.7275269554374523e+18,0.0370827354490757,0.0031031998805701733,-10.421385765075684
1.7275269554434524e+18,-0.05655599758028984,-0.0061385189183056355,-10.621420860290527
1.7275269554494525e+18,-0.033356744796037674,-0.016960540786385536,-10.726919174194336
1.7275269554554527e+18,0.01298637967556715,0.08341668546199799,-10.684707641601562
1.7275269554584527e+18,-0.10340811312198639,-0.0770128145813942,-10.734292984008789
1.7275269554644529e+18,-0.004874102305620909,0.048578258603811264,-10.628257751464844
1.727526955470453e+18,-0.04194531589746475,-0.03756187856197357,-10.668646812438965
1.727526955476453e+18,0.03858795762062073,-0.019022759050130844,-10.720365524291992
1.7275269554794532e+18,-0.008392549119889736,-0.019893568009138107,-10.682894706726074
1.7275269554854533e+18,0.09159940481185913,0.027668317779898643,-10.713431358337402
1.7275269554914534e+18,0.030970243737101555,0.04334603250026703,-10.766136169433594
1.7275269554944535e+18,0.018040526658296585,-0.009002937003970146,-10.767532348632812
1.7275269555004536e+18,0.017838822677731514,-0.03503675386309624,-10.715792655944824
1.7275269555064538e+18,-0.029047448188066483,-0.044963590800762177,-10.749053955078125
1.727526955512454e+18,-0.09507843106985092,-0.05703071132302284,-10.75974178314209
1.727526955515454e+18,-0.05744916573166847,-0.0076650758273899555,-10.691666603088379
1.727526955521454e+18,-0.0025302916765213013,-0.02137552760541439,-10.68567180633545
1.7275269555274542e+18,-0.0579080730676651,-0.05907705798745155,-10.737442016601562
1.7275269555304543e+18,-0.05304504930973053,-0.01855146512389183,-10.69599723815918
1.7275269555364544e+18,-0.07148203998804092,-0.05973362550139427,-10.697760581970215
1.7275269555424545e+18,-0.043933410197496414,-0.030621357262134552,-10.765562057495117
1.7275269555484547e+18,-0.006057040300220251,-0.01095661148428917,-10.700814247131348
1.7275269555514547e+18,0.023613428696990013,-0.023282930254936218,-10.714704513549805
1.7275269555574548e+18,0.008510740473866463,0.018547041341662407,-10.727145195007324
1.727526955563455e+18,0.05922384560108185,0.01630975678563118,-10.757084846496582
1.727526955566455e+18,-0.04282036051154137,0.03531018644571304,-10.673784255981445
1.7275269555724552e+18,-0.03231823816895485,-0.0682256743311882,-10.654707908630371
1.7275269555784553e+18,0.04175613075494766,-0.033535946160554886,-10.692734718322754
1.7275269555844554e+18,-0.0029907708521932364,0.027005860581994057,-10.711328506469727
1.7275269555904556e+18,0.016069045290350914,0.03447335958480835,-10.652595520019531
1.7275269555934556e+18,-0.026615029200911522,-0.0011754578445106745,-10.724912643432617
1.7275269555994557e+18,-0.05459165200591087,0.011175476014614105,-10.788666725158691
1.727526955605456e+18,-0.026602284982800484,-0.009710806421935558,-10.69180965423584
1.727526955608456e+18,-0.04020799696445465,-0.004731923807412386,-10.688264846801758
1.727526955614456e+18,0.017234601080417633,-0.02500884234905243,-10.78320598602295
1.7275269556204562e+18,0.04029522463679314,0.010531914420425892,-10.70054817199707
1.7275269556264563e+18,-0.020006751641631126,0.03653132542967796,-10.695980072021484
1.7275269556324564e+18,0.03886622563004494,-0.021845798939466476,-10.635457038879395
1.7275269556354565e+18,-0.009061119519174099,-0.04556668922305107,-10.681194305419922
1.7275269556414566e+18,0.04202180728316307,-0.027229951694607735,-10.666570663452148
1.7275269556474568e+18,0.08493740111589432,0.0038627267349511385,-10.684871673583984
1.7275269556504568e+18,-0.041297465562820435,-0.03301410377025604,-10.672025680541992
1.727526955656457e+18,-0.004255631938576698,-0.08654990047216415,-10.708891868591309
1.727526955662457e+18,0.002369202906265855,-0.046208858489990234,-10.717219352722168
1.7275269556684572e+18,-0.011498118750751019,0.009783013723790646,-10.652937889099121
1.7275269556744573e+18,0.05854404717683792,-0.11762658506631851,-10.705182075500488
1.7275269556774574e+18,0.017429184168577194,-0.009012323804199696,-10.666061401367188
1.7275269556834575e+18,0.0027436213567852974,-0.034343838691711426,-10.696939468383789
1.7275269556894577e+18,0.03742288798093796,0.024616453796625137,-10.644083023071289
1.7275269556924577e+18,0.07791217416524887,-0.008747279644012451,-10.685005187988281
1.7275269556984579e+18,0.017154229804873466,0.003251794259995222,-10.59766674041748
1.727526955704458e+18,0.052186235785484314,-0.010012643411755562,-10.66916561126709
1.727526955710458e+18,-0.005061453673988581,-0.040055956691503525,-10.628000259399414
1.7275269557134582e+18,0.027873704209923744,0.050019994378089905,-10.654767990112305
1.7275269557194583e+18,-0.008954123593866825,0.007947484031319618,-10.679428100585938
1.7275269557254584e+18,-0.03012738563120365,0.026015982031822205,-10.601051330566406
1.7275269557314586e+18,0.041543710976839066,-0.04883385822176933,-10.670917510986328
1.7275269557374587e+18,-0.053995463997125626,0.01686614565551281,-10.667655944824219
1.7275269557404588e+18,-0.03977159038186073,0.012114951387047768,-10.578259468078613
1.727526955746459e+18,-0.04123445972800255,0.015415109694004059,-10.636017799377441
1.727526955752459e+18,-0.07895504683256149,0.02285805530846119,-10.667279243469238
1.7275269557584591e+18,0.023758739233016968,-0.014591081999242306,-10.623001098632812
1.7275269557614592e+18,0.013279177248477936,-0.029443444684147835,-10.62486743927002
1.7275269557674593e+18,0.01120036281645298,0.02390165813267231,-10.584407806396484
1.7275269557734595e+18,0.051392097026109695,-0.028826069086790085,-10.717830657958984
1.7275269557794596e+18,0.04156694933772087,0.060058724135160446,-10.75774097442627
1.7275269557824596e+18,-0.04536602273583412,0.012294690124690533,-10.632835388183594
1.7275269557884598e+18,-0.012739849276840687,0.022067688405513763,-10.633614540100098
1.72752695579446e+18,0.02422092854976654,0.014857744798064232,-10.678502082824707
1.72752695580046e+18,0.018994329497218132,0.00631965696811676,-10.58932876586914
1.72752695580346e+18,-0.019275063648819923,-0.004065206740051508,-10.747867584228516
1.7275269558094602e+18,0.014398433268070221,-0.030567599460482597,-10.642955780029297
1.7275269558154604e+18,0.042706090956926346,-0.012357564643025398,-10.606480598449707
1.7275269558184604e+18,-0.04611698165535927,-0.006860950496047735,-10.56092643737793
1.7275269558244605e+18,0.021821144968271255,-0.002409311942756176,-10.603365898132324
1.7275269558304607e+18,-0.00814096536487341,0.05546204745769501,-10.622279167175293
1.7275269558364608e+18,-0.005055412650108337,0.0067315432243049145,-10.684517860412598
1.7275269558394609e+18,0.03536761552095413,0.012894961051642895,-10.675041198730469
1.727526955845461e+18,-0.028860095888376236,-0.03884433954954147,-10.670093536376953
1.727526955851461e+18,0.006786879617720842,-0.03327508270740509,-10.689920425415039
1.7275269558544612e+18,-0.044686075299978256,0.03154713660478592,-10.704011917114258
1.7275269558604613e+18,0.09493211656808853,0.02852196805179119,-10.595438957214355
1.7275269558664614e+18,-0.057819973677396774,-0.08322735130786896,-10.68505859375
1.7275269558724616e+18,-0.03854313865303993,-0.03936074674129486,-10.652932167053223
1.7275269558754616e+18,-0.04312988370656967,-0.038070280104875565,-10.577810287475586
1.7275269558814618e+18,0.0021096570417284966,-0.018470503389835358,-10.613911628723145
1.727526955887462e+18,-0.005933976732194424,-0.03945555537939072,-10.673768997192383
1.727526955893462e+18,0.08739078789949417,0.030909014865756035,-10.604856491088867
1.727526955896462e+18,-0.00790503341704607,0.016982492059469223,-10.66852855682373
1.7275269559024622e+18,-0.0420091412961483,-0.049741700291633606,-10.606160163879395
1.7275269559084623e+18,0.020200103521347046,-0.05785654857754707,-10.665520668029785
1.7275269559144625e+18,-0.05369902029633522,0.08050267398357391,-10.611599922180176
1.7275269559204626e+18,-0.013823781162500381,0.0579773411154747,-10.591912269592285
1.7275269559234627e+18,0.05024043098092079,0.04640619829297066,-10.638800621032715
1.7275269559294628e+18,0.018446138128638268,0.03018379583954811,-10.676412582397461
1.727526955935463e+18,0.12869256734848022,0.008727463893592358,-10.657529830932617
1.727526955938463e+18,-0.018818913027644157,0.031325772404670715,-10.642321586608887
1.727526955944463e+18,-0.060956817120313644,-0.07772023230791092,-10.596864700317383
1.7275269559504632e+18,0.030638044700026512,-0.08826293796300888,-10.595168113708496
1.7275269559564634e+18,0.04969323053956032,0.04029826074838638,-10.645200729370117
1.7275269559594634e+18,0.01446501910686493,0.029847854748368263,-10.576353073120117
1.7275269559654636e+18,0.029889404773712158,0.017709944397211075,-10.693976402282715
1.7275269559714637e+18,0.021039146929979324,0.015215127728879452,-10.712323188781738
1.7275269559774638e+18,0.0768948346376419,0.03190869465470314,-10.487157821655273
1.7275269559804639e+18,0.05554196983575821,0.00130313984118402,-10.578765869140625
1.727526955986464e+18,0.08238659054040909,0.015421772375702858,-10.575894355773926
1.7275269559924641e+18,-0.05808122083544731,-0.06434796750545502,-10.645417213439941
1.7275269559984643e+18,-0.0021472882945090532,-0.03163896128535271,-10.692909240722656
1.7275269560044644e+18,0.06218772754073143,-0.03926322981715202,-10.631691932678223
1.7275269560074644e+18,-0.05956626683473587,0.006428074557334185,-10.643256187438965
1.7275269560134646e+18,0.022787149995565414,0.024071339517831802,-10.643771171569824
1.7275269560194647e+18,-0.03137539327144623,-0.01574520394206047,-10.654834747314453
1.7275269560254648e+18,-0.06431727111339569,0.06799232214689255,-10.63782787322998
1.727526956031465e+18,0.024995271116495132,-0.07312960922718048,-10.575379371643066
1.727526956034465e+18,-0.02629929594695568,-0.026056500151753426,-10.681288719177246
1.7275269560404652e+18,-0.034996937960386276,-0.006292871665209532,-10.566399574279785
1.7275269560464653e+18,0.006444152910262346,0.027558384463191032,-10.556941986083984
1.7275269560494653e+18,0.02680637501180172,-0.032527800649404526,-10.646770477294922
1.7275269560554655e+18,-0.00041188718751072884,-0.010149606503546238,-10.556012153625488
1.7275269560614656e+18,-0.0006828500772826374,-0.06245015189051628,-10.606558799743652
1.7275269560674657e+18,0.02165883034467697,0.03386849910020828,-10.619821548461914
1.7275269560734659e+18,0.008884089067578316,-0.0020494582131505013,-10.63160514831543
1.727526956076466e+18,0.050885096192359924,-0.028326887637376785,-10.631387710571289
1.727526956082466e+18,-0.0127297667786479,0.12092895805835724,-10.5494966506958
1.7275269560884662e+18,0.06658141314983368,-0.07488134503364563,-10.632913589477539
1.7275269560914662e+18,-0.026658786460757256,-0.0616932138800621,-10.627095222473145
1.7275269560974664e+18,-0.052174825221300125,0.03680628165602684,-10.613476753234863
1.7275269561034665e+18,0.06887860596179962,0.03369753807783127,-10.544278144836426
1.7275269561094666e+18,-0.0749204009771347,0.037974052131175995,-10.606017112731934
1.7275269561154668e+18,-0.01360643096268177,-0.014978062361478806,-10.622832298278809
1.727526956121467e+18,0.011832976713776588,-0.03924725204706192,-10.65434455871582
1.727526956124467e+18,-0.009909586980938911,-0.00563198933377862,-10.562129020690918
1.727526956130467e+18,-0.0034636245109140873,-0.07552457600831985,-10.5661039352417
1.7275269561364672e+18,-0.07173337787389755,0.012406902387738228,-10.64314079284668
1.7275269561424673e+18,-0.013509569689631462,-0.03493450954556465,-10.610748291015625
1.7275269561454674e+18,-0.047140445560216904,0.05104156583547592,-10.637473106384277
1.7275269561514675e+18,0.04664705693721771,-0.031279489398002625,-10.58506965637207
1.7275269561574676e+18,0.003651033155620098,0.02165013551712036,-10.709715843200684
1.7275269561634678e+18,0.030891792848706245,-0.015398189425468445,-10.532617568969727
1.7275269561664678e+18,-0.01767641119658947,-0.062390025705099106,-10.522388458251953
1.727526956172468e+18,-0.0769016370177269,-0.008675660006701946,-10.622005462646484
1.727526956178468e+18,0.0038933244068175554,-0.06748038530349731,-10.510235786437988
1.7275269561844682e+18,0.04202944412827492,0.015603586100041866,-10.64638900756836
1.7275269561904684e+18,-0.024084145203232765,0.015889190137386322,-10.567365646362305
1.7275269561934684e+18,-0.008314087986946106,0.05304788053035736,-10.571112632751465
1.7275269561994685e+18,-0.00496589345857501,0.04350252076983452,-10.584127426147461
1.7275269562054687e+18,-0.04910150542855263,-0.08837525546550751,-10.5647611618042
1.7275269562114688e+18,-0.015850288793444633,-0.008457350544631481,-10.575386047363281
1.727526956217469e+18,-0.028735071420669556,0.04106401279568672,-10.514867782592773
1.727526956220469e+18,0.028571410104632378,-0.001512821763753891,-10.611427307128906
1.727526956226469e+18,-0.023010635748505592,-0.05447789281606674,-10.549429893493652
1.7275269562324692e+18,-0.0017985885497182608,-0.041821885854005814,-10.59242057800293
1.7275269562354693e+18,0.016050558537244797,0.019538268446922302,-10.6179780960083
1.7275269562414694e+18,-0.02652202732861042,-0.04001160338521004,-10.503901481628418
1.7275269562474696e+18,-0.02811918593943119,-0.031094422563910484,-10.572953224182129
1.7275269562504696e+18,-0.01494947075843811,-0.027428995817899704,-10.570558547973633
1.7275269562564698e+18,-0.019691018387675285,-0.007375969551503658,-10.624184608459473
1.72752695626247e+18,0.041863664984703064,-0.0022962340153753757,-10.608857154846191
1.72752695626847e+18,0.060989655554294586,0.036255739629268646,-10.561368942260742
1.7275269562744701e+18,0.04606268182396889,0.09177154302597046,-10.53318977355957
1.7275269562804703e+18,0.020441541448235512,-0.058850254863500595,-10.60396957397461
1.7275269562864704e+18,-0.026591047644615173,-0.07121241837739944,-10.505589485168457
1.7275269562924705e+18,0.01005544327199459,0.016065677627921104,-10.646827697753906
1.7275269562984707e+18,0.11163373291492462,-0.03725103661417961,-10.529146194458008
1.7275269563014707e+18,-0.05827461928129196,0.031172866001725197,-10.521202087402344
1.7275269563074708e+18,0.04862663894891739,0.026672011241316795,-10.54454517364502
1.727526956313471e+18,0.020813269540667534,-0.007706554606556892,-10.458975791931152
1.727526956319471e+18,0.019294822588562965,-0.03649275004863739,-10.600516319274902
1.7275269563254712e+18,0.09345339983701706,-0.02024349384009838,-10.48875904083252
1.7275269563314714e+18,0.07433663308620453,-0.0375685878098011,-10.59359359741211
1.7275269563344714e+18,0.03051275946199894,-0.005039776675403118,-10.499248504638672
1.7275269563404716e+18,0.00034857640275731683,0.004759698640555143,-10.535379409790039
1.7275269563464717e+18,0.03662184253334999,0.008844483643770218,-10.53283405303955
1.7275269563494717e+18,-0.015409694984555244,0.011149841360747814,-10.561481475830078
1.727526956355472e+18,0.01858566701412201,-0.006474291440099478,-10.52269172668457
1.727526956361472e+18,0.09913889318704605,-0.09300075471401215,-10.576582908630371
1.727526956367472e+18,-0.03861870989203453,0.03053019754588604,-10.568549156188965
1.7275269563734723e+18,-0.0061410958878695965,-0.016643954440951347,-10.51708698272705
1.7275269563764723e+18,-0.09019703418016434,0.12966406345367432,-10.550456047058105
1.7275269563824724e+18,-0.015409525483846664,-0.006602689623832703,-10.436871528625488
1.7275269563884726e+18,0.05476602911949158,0.0028883558697998524,-10.527217864990234
1.7275269563944727e+18,0.033028725534677505,-0.006068160757422447,-10.534408569335938
1.7275269563974728e+18,0.06149573251605034,-0.04627139866352081,-10.579923629760742
1.727526956403473e+18,0.07033709436655045,0.09657995402812958,-10.56091022491455
1.727526956409473e+18,0.08705241233110428,0.06046687066555023,-10.594978332519531
1.7275269564154732e+18,0.006476274225860834,-0.005091456230729818,-10.491582870483398
1.7275269564184732e+18,-0.05743098631501198,0.0009756201761774719,-10.651933670043945
1.7275269564244733e+18,0.0016961254877969623,-0.042182378470897675,-10.566631317138672
1.7275269564304735e+18,0.03662260249257088,0.015726737678050995,-10.557445526123047
1.7275269564334735e+18,0.06502905488014221,-0.05112888664007187,-10.579438209533691
1.7275269564394737e+18,0.02006720006465912,0.05346294492483139,-10.504167556762695
1.7275269564454738e+18,-0.053893253207206726,0.03136605769395828,-10.579693794250488
1.727526956451474e+18,0.0027498521376401186,-0.03119293786585331,-10.583230972290039
1.727526956457474e+18,0.033616773784160614,0.02651464194059372,-10.522492408752441
1.727526956460474e+18,-0.031897351145744324,-0.09680484235286713,-10.470474243164062
1.7275269564664742e+18,-0.05766947194933891,-0.01657562516629696,-10.507101058959961
1.7275269564724744e+18,0.0149004515260458,-0.029738182201981544,-10.521467208862305
1.7275269564784745e+18,0.06273440271615982,-0.03235900402069092,-10.567033767700195
1.7275269564814746e+18,-0.018855586647987366,-0.015064316801726818,-10.524052619934082
1.7275269564874747e+18,0.054469745606184006,-0.027021029964089394,-10.4688720703125
1.7275269564934748e+18,-0.016230672597885132,0.023135541006922722,-10.506898880004883
1.727526956499475e+18,0.011856132186949253,4.948527202941477e-05,-10.527246475219727
1.727526956505475e+18,-0.019054042175412178,0.014625631272792816,-10.546159744262695
1.7275269565084751e+18,-0.08360497653484344,0.051133837550878525,-10.542813301086426
1.7275269565144753e+18,-0.09143681824207306,0.011463635601103306,-10.50790786743164
1.7275269565204754e+18,-0.06853288412094116,-0.03351612016558647,-10.470795631408691
1.7275269565264755e+18,-0.011215390637516975,-0.008050734177231789,-10.454057693481445
1.7275269565294756e+18,0.00014048028970137239,0.04642524942755699,-10.536250114440918
1.7275269565354757e+18,0.09196759015321732,-0.0428813174366951,-10.513559341430664
1.7275269565414758e+18,0.02658631093800068,-0.06360849738121033,-10.535955429077148
1.727526956547476e+18,0.034458085894584656,-0.020401550456881523,-10.468436241149902
1.727526956550476e+18,-0.013619918376207352,0.024258466437458992,-10.539085388183594
1.7275269565564762e+18,-0.04203321784734726,0.008834976702928543,-10.510392189025879
1.7275269565624763e+18,-0.0037579622585326433,0.0025776971597224474,-10.578373908996582
1.7275269565684764e+18,0.04436624422669411,0.0900983214378357,-10.53368091583252
1.7275269565714765e+18,-0.014441413804888725,-0.061558932065963745,-10.590770721435547
1.7275269565774766e+18,0.03550782427191734,-0.006128249689936638,-10.58399772644043
1.7275269565834767e+18,-0.08132859319448471,0.02116425335407257,-10.54651165008545
1.7275269565864768e+18,0.017161410301923752,0.01433824934065342,-10.458613395690918
1.727526956592477e+18,0.0051130931824445724,0.010418910533189774,-10.49625015258789
1.727526956598477e+18,-0.07294358313083649,-0.014079079031944275,-10.46208381652832
1.727526956601477e+18,0.08295890688896179,0.023324931040406227,-10.413681030273438
1.7275269566074772e+18,-0.01095708180218935,0.010765090584754944,-10.488593101501465
1.7275269566134774e+18,0.0018304433906450868,-0.05399692431092262,-10.436389923095703
1.7275269566194775e+18,0.01711561530828476,0.03223278373479843,-10.481953620910645
1.7275269566254776e+18,-0.026594478636980057,0.024643855169415474,-10.495844841003418
1.7275269566284777e+18,-0.03028995171189308,0.05108631029725075,-10.53144359588623
1.7275269566344778e+18,0.006816011853516102,0.03089994005858898,-10.5733060836792
1.727526956640478e+18,0.08841294795274734,-0.028850175440311432,-10.462646484375
1.727526956646478e+18,-0.04266032576560974,0.03367731347680092,-10.416793823242188
1.7275269566494781e+18,-0.010732540860772133,0.0070085288025438786,-10.47943115234375
1.7275269566554783e+18,0.0021280779037624598,0.025815503671765327,-10.637545585632324
1.7275269566614784e+18,-0.022688258439302444,0.06533820182085037,-10.610247611999512
1.7275269566674785e+18,0.06770061701536179,0.0701199471950531,-10.498984336853027
1.7275269566704786e+18,-0.05115322768688202,-0.013248336501419544,-10.438895225524902
1.7275269566764787e+18,-0.051777180284261703,-0.08445823937654495,-10.434470176696777
1.7275269566824788e+18,0.04130422696471214,0.010781334713101387,-10.499136924743652
1.727526956688479e+18,0.0071511114947497845,-0.04944470524787903,-10.539756774902344
1.727526956694479e+18,-0.05160928890109062,0.05664151906967163,-10.465003967285156
1.7275269566974792e+18,0.049176737666130066,0.006626316346228123,-10.372995376586914
1.7275269567034793e+18,0.0007039965130388737,-0.06261845678091049,-10.432538986206055
1.7275269567094794e+18,0.025188326835632324,-0.04678536206483841,-10.354390144348145
1.7275269567124795e+18,-0.015905432403087616,-0.010461784899234772,-10.36505126953125
1.7275269567184796e+18,0.010432017035782337,-0.022341737523674965,-10.438911437988281
1.7275269567244797e+18,-0.0011629399377852678,0.025928836315870285,-10.382347106933594
1.7275269567304799e+18,0.008036640472710133,-0.022377459332346916,-10.278701782226562
1.72752695673348e+18,-0.020379872992634773,-0.10605726391077042,-10.23934555053711
1.72752695673948e+18,-0.017478276044130325,-0.0741572305560112,-10.287542343139648
1.7275269567454802e+18,0.024624763056635857,-0.03667987883090973,-10.220996856689453
1.7275269567514803e+18,-0.03309185057878494,-0.06125464662909508,-10.225157737731934
1.7275269567544804e+18,-0.04136471077799797,-0.03486015647649765,-10.308209419250488
1.7275269567604805e+18,-0.012482902966439724,0.11478657275438309,-10.224105834960938
1.7275269567664806e+18,0.08341961354017258,-0.0006868134369142354,-10.246710777282715
1.7275269567724808e+18,0.058010466396808624,-0.06564275920391083,-10.056951522827148
1.727526956778481e+18,-0.04554073140025139,0.01418392825871706,-10.09567642211914
1.727526956781481e+18,0.06603766232728958,-0.03356883302330971,-10.164719581604004
1.727526956787481e+18,0.00647516455501318,0.06003723293542862,-10.112873077392578
1.7275269567934812e+18,-0.027665773406624794,0.06324451416730881,-10.10736083984375
1.7275269567994813e+18,-0.00011639780132099986,0.0626463070511818,-9.937085151672363
1.7275269568054815e+18,-0.035386208444833755,-0.07007506489753723,-10.047213554382324
1.7275269568084815e+18,0.003149803262203932,-0.008599973283708096,-10.034734725952148
1.7275269568144817e+18,-0.012618573382496834,-0.0006257040658965707,-10.006342887878418
1.7275269568204818e+18,0.04860362410545349,-0.02516207844018936,-9.961371421813965
1.727526956826482e+18,0.036861926317214966,0.03889206796884537,-9.966047286987305
1.727526956829482e+18,0.0623384565114975,0.034458138048648834,-9.953303337097168
1.727526956835482e+18,0.015053885988891125,0.055577270686626434,-9.972766876220703
1.7275269568414822e+18,0.002362159313634038,0.00648149149492383,-9.944965362548828
1.7275269568474824e+18,-0.013985468074679375,-0.08856629580259323,-9.892099380493164
1.7275269568504824e+18,-0.002800666494295001,0.021992573514580727,-9.88117790222168
1.7275269568564826e+18,0.0014574959641322494,0.046712376177310944,-9.775993347167969
1.7275269568624827e+18,-0.02897491306066513,-0.02242688648402691,-9.784859657287598
1.7275269568684828e+18,0.028046803548932076,0.05283275991678238,-9.753419876098633
1.727526956874483e+18,-0.007215012330561876,-0.04337961971759796,-9.833060264587402
1.727526956877483e+18,-0.036916304379701614,-0.06422353535890579,-9.738166809082031
1.7275269568834831e+18,0.010350761003792286,-0.018594682216644287,-9.794273376464844
1.7275269568894833e+18,-0.0416330061852932,0.025576530024409294,-9.80360221862793
1.7275269568954834e+18,-0.10156617313623428,-0.026606613770127296,-9.638402938842773
1.7275269568984835e+18,-0.002594107761979103,0.06263347715139389,-9.712159156799316
1.7275269569044836e+18,-0.05963844433426857,0.016820469871163368,-9.627303123474121
1.7275269569104837e+18,0.020530616864562035,0.022511007264256477,-9.699170112609863
1.7275269569134838e+18,-0.009477421641349792,-0.013237452134490013,-9.677712440490723
1.727526956919484e+18,0.03378264978528023,0.021964047104120255,-9.68946361541748
1.727526956925484e+18,0.020397070795297623,-0.015451529994606972,-9.698601722717285
1.7275269569314842e+18,0.021899068728089333,-0.07861632108688354,-9.690614700317383
1.7275269569344842e+18,-0.04092352092266083,-0.019698476418852806,-9.66467571258545
1.7275269569404844e+18,0.00485153729096055,-0.03099154680967331,-9.575069427490234
1.7275269569464845e+18,-0.040455713868141174,-0.08694878965616226,-9.64139175415039
1.7275269569524846e+18,-0.011579732410609722,-0.022624244913458824,-9.654829978942871
1.7275269569554847e+18,0.07980554550886154,0.027630364522337914,-9.593865394592285
1.7275269569614848e+18,-0.05770653113722801,0.01359887607395649,-9.673347473144531
1.727526956967485e+18,0.012817049399018288,-0.07097536325454712,-9.665742874145508
1.727526956973485e+18,0.00976465828716755,0.0023675307165831327,-9.66818618774414
1.7275269569794852e+18,0.002516422187909484,0.04306281730532646,-9.60122299194336
1.7275269569824852e+18,-0.013423441909253597,0.0772186890244484,-9.686306953430176
1.7275269569884854e+18,0.11470487713813782,-0.025593288242816925,-9.65518569946289
1.7275269569944855e+18,-0.03814131021499634,0.06676959991455078,-9.610764503479004
1.7275269570004856e+18,-0.007135041989386082,0.008486265316605568,-9.605142593383789
1.7275269570034857e+18,-0.05572370067238808,0.0032683617901057005,-9.64493179321289
1.7275269570094858e+18,-0.011568337678909302,-0.05171928554773331,-9.62860107421875
1.727526957015486e+18,0.051237739622592926,0.018164537847042084,-9.586606979370117
1.727526957021486e+18,-0.0351719930768013,-0.05158185586333275,-9.571532249450684
1.7275269570274862e+18,-0.015173458494246006,-0.05466825142502785,-9.533944129943848
1.7275269570304863e+18,0.049419790506362915,0.026353567838668823,-9.487154006958008
1.7275269570364864e+18,-0.09209661185741425,-0.0021448873449116945,-9.588068008422852
1.7275269570424865e+18,-0.009406179189682007,-0.024813421070575714,-9.521798133850098
1.7275269570454866e+18,-0.06400419026613235,0.0029583845753222704,-9.552803039550781
1.7275269570514867e+18,-0.04652063176035881,0.05029069259762764,-9.555312156677246
1.7275269570574868e+18,-0.07202981412410736,0.018661508336663246,-9.574872970581055
1.727526957063487e+18,0.014296877197921276,0.045408524572849274,-9.578489303588867
1.727526957066487e+18,-0.06104690209031105,0.026563595980405807,-9.6299467086792
1.7275269570724872e+18,-0.00602363096550107,0.010459070093929768,-9.51037311553955
1.7275269570784873e+18,-0.019517943263053894,0.023639388382434845,-9.498947143554688
1.7275269570844874e+18,0.07050139456987381,0.03829754516482353,-9.590235710144043
1.7275269570904876e+18,-0.024111853912472725,0.02016543596982956,-9.57445240020752
1.7275269570934876e+18,0.059186842292547226,-0.0004851420526392758,-9.634993553161621
1.7275269570994877e+18,-0.025160133838653564,0.03684316948056221,-9.586597442626953
1.727526957105488e+18,-0.07323529571294785,-0.007362731732428074,-9.632923126220703
1.727526957111488e+18,-0.008877279236912727,-0.026129866018891335,-9.582798957824707
1.727526957117488e+18,0.01741267926990986,0.07288159430027008,-9.633768081665039
1.7275269571204882e+18,-0.022389153018593788,-0.006196292117238045,-9.589632987976074
1.7275269571264883e+18,-0.020530562847852707,-0.0436890609562397,-9.706950187683105
1.7275269571324884e+18,0.031209934502840042,0.09705226123332977,-9.556199073791504
1.7275269571384886e+18,0.01564355567097664,-0.02366822399199009,-9.701973915100098
1.7275269571414886e+18,0.0392485149204731,0.0020658541470766068,-9.544937133789062
1.7275269571474888e+18,0.0035607628524303436,-0.07738546282052994,-9.566301345825195
1.727526957153489e+18,-0.03272876515984535,-0.008584171533584595,-9.567914962768555
1.727526957159489e+18,-0.02917538769543171,0.047478340566158295,-9.617006301879883
1.727526957162489e+18,0.013394779525697231,0.05919367074966431,-9.597928047180176
1.7275269571684892e+18,-0.013473578728735447,0.012599735520780087,-9.522613525390625
1.7275269571744893e+18,0.07928421348333359,0.004241021350026131,-9.584319114685059
1.7275269571774894e+18,-0.11207183450460434,-0.011389884166419506,-9.501461029052734
1.7275269571834895e+18,-0.009667341597378254,-0.03945637494325638,-9.611271858215332
1.7275269571894897e+18,-0.0075764125213027,-0.06563028693199158,-9.558107376098633
1.7275269571954898e+18,-0.022922150790691376,-0.02893899194896221,-9.624151229858398
1.7275269571984899e+18,-0.017112473025918007,0.018258098512887955,-9.502996444702148
1.72752695720449e+18,0.0010798219591379166,-0.013895033858716488,-9.585997581481934
1.72752695721049e+18,0.04947514459490776,0.010850989259779453,-9.566146850585938
1.7275269572164902e+18,0.032695431262254715,-0.024353569373488426,-9.58894157409668
1.7275269572224904e+18,0.0006913768593221903,-0.010905624367296696,-9.642706871032715
1.7275269572254904e+18,-0.0008172746747732162,-0.026182537898421288,-9.578266143798828
1.7275269572314906e+18,-0.07734984159469604,0.028729157522320747,-9.521300315856934
1.7275269572374907e+18,0.11249721050262451,0.003515619784593582,-9.604537010192871
1.7275269572404908e+18,0.054759681224823,-0.0484471470117569,-9.557868957519531
1.727526957246491e+18,-0.039710454642772675,0.0851340964436531,-9.514103889465332
1.727526957252491e+18,0.07293805480003357,-0.046874064952135086,-9.631148338317871
1.7275269572584911e+18,0.037530019879341125,-0.05006374791264534,-9.674317359924316
1.7275269572614912e+18,0.04131237417459488,0.042622294276952744,-9.58421516418457
1.7275269572674913e+18,0.0019752918742597103,0.05417255684733391,-9.54858112335205
1.7275269572734915e+18,-0.010405406355857849,0.019790347665548325,-9.6083402633667
1.7275269572794916e+18,-0.06385526061058044,-0.0641988143324852,-9.599576950073242
1.7275269572824916e+18,0.028237344697117805,-0.011144849471747875,-9.581799507141113
1.7275269572884918e+18,0.0383337177336216,0.03309161216020584,-9.599196434020996
1.727526957294492e+18,0.0009326691506430507,0.11504679173231125,-9.658312797546387
1.727526957300492e+18,0.07918179035186768,0.05696114897727966,-9.61291217803955
1.7275269573064922e+18,-0.09499956667423248,0.10282869637012482,-9.576361656188965
1.7275269573094922e+18,0.0707767978310585,0.03273116797208786,-9.602897644042969
1.7275269573154924e+18,0.057686757296323776,0.07498348504304886,-9.627528190612793
1.7275269573214925e+18,0.021735867485404015,0.01671389862895012,-9.661561012268066
1.7275269573274926e+18,0.005694346036761999,0.006894893478602171,-9.588603973388672
1.7275269573334927e+18,-0.06219309940934181,0.015576067380607128,-9.494595527648926
1.7275269573364928e+18,-0.03819722309708595,-0.05185751989483833,-9.537134170532227
1.727526957342493e+18,-0.030820615589618683,0.04822933301329613,-9.604355812072754
1.727526957348493e+18,-0.026159899309277534,-0.04669863358139992,-9.625616073608398
1.727526957351493e+18,-0.025700729340314865,0.03661822900176048,-9.524295806884766
1.7275269573574932e+18,-0.011346259154379368,-0.007304980885237455,-9.593415260314941
1.7275269573634934e+18,-0.023728055879473686,0.029518339782953262,-9.617610931396484
1.7275269573694935e+18,0.018436305224895477,0.02968878112733364,-9.522153854370117
1.7275269573754936e+18,-0.026642033830285072,0.004863576497882605,-9.552817344665527
1.7275269573814938e+18,0.0867406502366066,0.07856802642345428,-9.526198387145996
1.7275269573844938e+18,-0.03157413378357887,0.013863472267985344,-9.532294273376465
1.727526957390494e+18,-0.0011548246257007122,0.040121957659721375,-9.50088119506836
1.727526957396494e+18,-0.025229983031749725,-0.02270083874464035,-9.530587196350098
1.7275269574024942e+18,0.008967375382781029,0.029114030301570892,-9.48692512512207
1.7275269574054943e+18,-0.04927217215299606,-0.05019133538007736,-9.570272445678711
1.7275269574114944e+18,-0.033474378287792206,-0.056117136031389236,-9.467616081237793
1.7275269574174945e+18,0.02163071557879448,-0.007627501152455807,-9.535296440124512
1.7275269574234947e+18,0.03945610299706459,-0.03839694708585739,-9.55971622467041
1.7275269574294948e+18,-0.009943151846528053,-0.044599637389183044,-9.498672485351562
1.7275269574324948e+18,0.01011155266314745,-0.008917153812944889,-9.563109397888184
1.727526957438495e+18,0.005471052136272192,0.027151785790920258,-9.555099487304688
1.727526957444495e+18,0.025713538751006126,0.09662263840436935,-9.558524131774902
1.7275269574504952e+18,-0.009294839575886726,0.03262772038578987,-9.596776962280273
1.7275269574534953e+18,-0.0048936232924461365,0.05104617401957512,-9.489419937133789
1.7275269574594954e+18,0.011479273438453674,-0.055725231766700745,-9.463128089904785
1.7275269574654956e+18,-0.042084094136953354,-0.09626413136720657,-9.488814353942871
1.7275269574684956e+18,0.01371337752789259,0.016747182235121727,-9.539467811584473
1.7275269574744957e+18,-0.0233843382447958,0.015472187660634518,-9.491654396057129
1.7275269574804959e+18,-0.021277528256177902,0.0030664780642837286,-9.465185165405273
1.727526957486496e+18,0.016744868829846382,0.04986271634697914,-9.482316017150879
1.727526957489496e+18,-0.018599264323711395,-0.03898882493376732,-9.575662612915039
1.7275269574954962e+18,0.008583053015172482,0.00942557118833065,-9.61811351776123
1.7275269575014963e+18,-0.022553233429789543,-0.009449074976146221,-9.573529243469238
1.7275269575074964e+18,0.035387974232435226,-0.10679174959659576,-9.488289833068848
1.7275269575134966e+18,0.03418862074613571,-0.0003161440254189074,-9.546897888183594
1.7275269575164966e+18,0.05871617794036865,-0.011155596002936363,-9.571427345275879
1.7275269575224968e+18,-0.040275003761053085,0.034377772361040115,-9.544772148132324
1.727526957528497e+18,-0.02209373749792576,0.045313384383916855,-9.522981643676758
1.727526957534497e+18,0.002905371366068721,0.03284961357712746,-9.51183795928955
1.7275269575404972e+18,0.03228972852230072,-0.002185841090977192,-9.451508522033691
1.7275269575434972e+18,0.02326638624072075,-0.0014986072201281786,-9.471988677978516
1.7275269575494973e+18,-0.03262502700090408,-0.07419978827238083,-9.503767967224121
1.7275269575554975e+18,0.09519252181053162,-0.021936025470495224,-9.523655891418457
1.7275269575614976e+18,-0.014692917466163635,0.017275312915444374,-9.517829895019531
1.7275269575644977e+18,-0.06578070670366287,-0.020656058564782143,-9.47797679901123
1.7275269575704978e+18,0.0010096642654389143,-0.07844571769237518,-9.465909004211426
1.727526957576498e+18,-0.03856072947382927,0.06997119635343552,-9.507194519042969
1.727526957579498e+18,0.014968723058700562,-0.036504168063402176,-9.494102478027344
1.727526957585498e+18,0.009488999843597412,0.05520512908697128,-9.431916236877441
1.7275269575914982e+18,-0.060755886137485504,-0.027830936014652252,-9.50564193725586
1.7275269575974984e+18,0.037392936646938324,-0.006223473232239485,-9.47693920135498
1.7275269576034985e+18,-0.06187184154987335,-0.0478292778134346,-9.415448188781738
1.7275269576094986e+18,0.06928443908691406,0.04816288873553276,-9.517657279968262
1.7275269576124987e+18,-0.044120945036411285,0.0421331562101841,-9.429864883422852
1.7275269576184988e+18,-0.0014912039041519165,0.05127861723303795,-9.45352554321289
1.727526957624499e+18,0.019080711528658867,0.003393822815269232,-9.500394821166992
1.727526957630499e+18,0.034990206360816956,0.08149799704551697,-9.423266410827637
1.7275269576364992e+18,-0.0005665412754751742,-0.039234377443790436,-9.47038459777832
1.7275269576394993e+18,0.07739667594432831,-0.031510788947343826,-9.556146621704102
1.7275269576454994e+18,-0.013509893789887428,0.0031352220103144646,-9.50674057006836
1.7275269576514995e+18,-0.002508212346583605,-0.05421418696641922,-9.426652908325195
1.7275269576574996e+18,0.007306649815291166,0.04402943700551987,-9.4365234375
1.7275269576604997e+18,0.04881845787167549,-0.04733849689364433,-9.492347717285156
1.7275269576664998e+18,-0.03108532726764679,-0.05669853836297989,-9.492416381835938
1.7275269576725e+18,0.04615303874015808,0.012264745309948921,-9.389519691467285
1.7275269576785e+18,0.022466614842414856,0.09165596216917038,-9.382794380187988
1.7275269576845002e+18,0.06010368838906288,-0.013370274566113949,-9.429529190063477
1.7275269576905004e+18,0.027732141315937042,0.009319543838500977,-9.438422203063965
1.7275269576935004e+18,0.013772917911410332,-0.020407769829034805,-9.4497652053833
1.7275269576995005e+18,0.0035628185141831636,0.04508629068732262,-9.405917167663574
1.7275269577055007e+18,0.08343494683504105,-0.0408782921731472,-9.487281799316406
1.7275269577115008e+18,0.09566624462604523,0.005766663234680891,-9.476061820983887
1.727526957717501e+18,-0.04473048821091652,-0.056988656520843506,-9.472814559936523
1.727526957720501e+18,0.04643351584672928,0.07168589532375336,-9.429117202758789
1.727526957726501e+18,0.018160875886678696,-0.03711502254009247,-9.44797420501709
1.7275269577325012e+18,-0.0010603172704577446,-0.030148368328809738,-9.43411922454834
1.7275269577385014e+18,-0.028295792639255524,-0.009888685308396816,-9.50583553314209
1.7275269577445015e+18,-0.0016628976445645094,-0.022795366123318672,-9.447746276855469
1.7275269577475016e+18,0.011170069687068462,-0.021923396736383438,-9.443940162658691
1.7275269577535017e+18,0.009588896296918392,-0.026457274332642555,-9.421244621276855
1.7275269577595018e+18,0.021034611389040947,-0.027304498478770256,-9.441149711608887
1.727526957765502e+18,-0.048464275896549225,-0.05445055663585663,-9.51863956451416
1.727526957768502e+18,0.02771025151014328,0.00913016963750124,-9.48200798034668
1.7275269577745021e+18,-0.0032842238433659077,0.04034518077969551,-9.43680477142334
1.7275269577805023e+18,-0.010523862205445766,0.0766349732875824,-9.394587516784668
1.7275269577865024e+18,-0.0072792754508554935,-0.054994843900203705,-9.482272148132324
1.7275269577895025e+18,-0.03907405212521553,-0.015371069312095642,-9.397051811218262
1.7275269577955026e+18,-0.04976329952478409,-0.00950696598738432,-9.424722671508789
1.7275269578015027e+18,-0.10784419625997543,-0.04335053265094757,-9.469952583312988
1.7275269578045028e+18,-0.004095905460417271,0.004039776511490345,-9.525593757629395
1.727526957810503e+18,0.055619172751903534,0.030909352004528046,-9.418201446533203
1.727526957816503e+18,-0.019560877233743668,0.02261069416999817,-9.491138458251953
1.7275269578225032e+18,-0.013736854307353497,-0.056138645857572556,-9.428977966308594
1.7275269578285033e+18,-0.04898880422115326,-0.020085573196411133,-9.416269302368164
1.7275269578345034e+18,0.07523846626281738,0.0070324488915503025,-9.491851806640625
1.7275269578375035e+18,-0.07772261649370193,0.018185652792453766,-9.47237491607666
1.7275269578435036e+18,0.04059458151459694,-0.00700769666582346,-9.405571937561035
1.7275269578495037e+18,0.05118970572948456,0.01581711694598198,-9.427478790283203
1.727526957855504e+18,0.020288679748773575,0.04751040041446686,-9.420278549194336
1.727526957861504e+18,0.009187462739646435,0.004776479210704565,-9.471126556396484
1.727526957864504e+18,-0.08345396816730499,0.059568408876657486,-9.391674041748047
1.7275269578705042e+18,0.0196288600564003,-0.06007977947592735,-9.4569091796875
1.7275269578765043e+18,-0.0191553495824337,0.014916697517037392,-9.43258285522461
1.7275269578795044e+18,0.06303856521844864,0.09566773474216461,-9.499876976013184
1.7275269578855045e+18,0.04964141920208931,-0.036947786808013916,-9.380203247070312
1.7275269578915046e+18,-0.05378226563334465,0.015786023810505867,-9.50405502319336
1.7275269578975048e+18,0.07433459907770157,-0.01701643131673336,-9.393343925476074
1.7275269579005048e+18,-0.0009015467367134988,-0.041351184248924255,-9.411568641662598
1.727526957906505e+18,-0.028855428099632263,-0.02516208402812481,-9.421006202697754
1.727526957912505e+18,0.02076486498117447,0.0582776814699173,-9.402617454528809
1.7275269579185052e+18,-0.014773130416870117,-0.030780326575040817,-9.362519264221191
1.7275269579215053e+18,-0.05656669661402702,-0.01720716804265976,-9.440790176391602
1.7275269579275054e+18,-0.005050361156463623,-0.020649177953600883,-9.41688346862793
1.7275269579335055e+18,0.0031539786141365767,0.03613656759262085,-9.380510330200195
1.7275269579365056e+18,0.002500140340998769,-0.04240262135863304,-9.378498077392578
1.7275269579425057e+18,-0.04209097847342491,0.012229280546307564,-9.448981285095215
1.7275269579485059e+18,-0.06423359364271164,0.025828471407294273,-9.425602912902832
1.727526957954506e+18,-0.05407833307981491,-0.028232576325535774,-9.473559379577637
1.727526957957506e+18,0.023483876138925552,-0.02621115744113922,-9.486698150634766
1.7275269579635062e+18,-0.02049562893807888,0.01326790452003479,-9.525440216064453
1.7275269579695063e+18,0.06363508105278015,0.04022989794611931,-9.45548152923584
1.7275269579755064e+18,0.021963104605674744,-0.05869923159480095,-9.387125015258789
1.7275269579785065e+18,0.03271777927875519,-0.07181383669376373,-9.409229278564453
1.7275269579845066e+18,0.005631453823298216,-0.01277315802872181,-9.33177661895752
1.7275269579905068e+18,0.011268487200140953,0.01191104855388403,-9.401759147644043
1.727526957996507e+18,-0.014491621404886246,-0.013347599655389786,-9.330981254577637
1.727526957999507e+18,-0.03194417804479599,-0.05572142079472542,-9.393136978149414
1.727526958005507e+18,0.059328313916921616,0.011676645837724209,-9.457865715026855
1.7275269580115072e+18,0.038270629942417145,0.045011356472969055,-9.405647277832031
1.7275269580175073e+18,0.021502211689949036,-0.008061038330197334,-9.344733238220215
1.7275269580235075e+18,-0.0698997899889946,-0.013622910715639591,-9.430702209472656
1.7275269580295076e+18,-0.011977682821452618,-0.031069552525877953,-9.454190254211426
1.7275269580325076e+18,0.034945692867040634,-0.014724110253155231,-9.403573989868164
1.7275269580385078e+18,0.016980072483420372,-0.020788606256246567,-9.431014060974121
1.727526958044508e+18,0.009126902557909489,-0.0011869645677506924,-9.38671875
1.727526958050508e+18,0.005792444571852684,-0.035873208194971085,-9.437285423278809
1.727526958053508e+18,0.03366485610604286,-0.03939979895949364,-9.343057632446289
1.7275269580595082e+18,-0.02371368743479252,-0.05092504248023033,-9.40781307220459
1.7275269580655084e+18,-0.009100783616304398,-0.00020143104484304786,-9.402405738830566
1.7275269580715085e+18,0.005823252722620964,0.05547620728611946,-9.336480140686035
1.7275269580775086e+18,-0.021595055237412453,0.004357699770480394,-9.42797565460205
1.7275269580835087e+18,0.03807809576392174,0.04043428599834442,-9.394481658935547
1.7275269580865088e+18,0.039341289550065994,-0.04242518171668053,-9.39527416229248
1.727526958092509e+18,0.02712317369878292,-0.032776158303022385,-9.3890380859375
1.727526958098509e+18,-0.029209710657596588,0.02624616213142872,-9.351384162902832
1.7275269581045092e+18,-0.0537029467523098,0.016505708917975426,-9.430323600769043
1.7275269581105093e+18,-0.01953890547156334,0.08580625802278519,-9.372193336486816
1.7275269581165094e+18,-0.04575127735733986,0.014182595536112785,-9.335552215576172
1.7275269581195095e+18,0.01086208876222372,-0.045265957713127136,-9.471331596374512
1.7275269581255096e+18,-0.017007658258080482,-0.042922135442495346,-9.376534461975098
1.7275269581315098e+18,0.0178847536444664,-0.004440056160092354,-9.43600845336914
1.7275269581345098e+18,-0.04455903545022011,-0.04038619250059128,-9.351641654968262
1.72752695814051e+18,0.017968352884054184,0.08747529983520508,-9.416950225830078
1.72752695814651e+18,-0.016472995281219482,-0.013167914003133774,-9.476250648498535
1.7275269581525102e+18,-0.024083441123366356,-0.04327920824289322,-9.343852996826172
1.7275269581585103e+18,-0.010960188694298267,-0.04442814737558365,-9.346352577209473
1.7275269581615104e+18,-0.05931771919131279,0.024454444646835327,-9.344893455505371
1.7275269581675105e+18,0.05149057134985924,0.04504536837339401,-9.407661437988281
1.7275269581735107e+18,-0.047217514365911484,-0.04074060916900635,-9.414490699768066
1.7275269581795108e+18,-0.015207120217382908,0.008768077939748764,-9.419685363769531
1.727526958185511e+18,0.008532189764082432,0.014682198874652386,-9.358325958251953
1.727526958191511e+18,-0.02407841384410858,0.014958660118281841,-9.35425090789795
1.727526958194511e+18,-0.026303499937057495,0.025860484689474106,-9.364089965820312
1.7275269582005112e+18,-0.003936599940061569,0.031454794108867645,-9.303858757019043
1.7275269582065114e+18,0.005925159901380539,-0.0009157662279903889,-9.308730125427246
1.7275269582125115e+18,-0.07407574355602264,0.061556681990623474,-9.204327583312988
1.7275269582155116e+18,-0.0512150377035141,-0.07763194292783737,-9.282330513000488
1.7275269582215117e+18,-0.014844624325633049,0.047080930322408676,-9.26701831817627
1.7275269582275118e+18,0.025225970894098282,-0.043838758021593094,-9.280006408691406
1.727526958233512e+18,0.016053957864642143,-0.004663648083806038,-9.266594886779785
1.727526958236512e+18,0.0509987473487854,0.09631597250699997,-9.275506019592285
1.7275269582425121e+18,0.041239410638809204,-0.012428157962858677,-9.202876091003418
1.7275269582485123e+18,0.06449514627456665,-0.0614238865673542,-9.16994857788086
1.7275269582545124e+18,0.018900999799370766,-0.05787285044789314,-9.189826011657715
1.7275269582605125e+18,-0.006286058574914932,-0.054311856627464294,-9.0679931640625
1.7275269582665126e+18,0.012832032516598701,-0.026446519419550896,-9.142157554626465
1.7275269582695127e+18,-0.073905810713768,-0.009876107797026634,-9.13081169128418
1.7275269582755128e+18,-0.02033887803554535,0.043869778513908386,-9.111740112304688
1.727526958281513e+18,0.02930712327361107,-0.008872109465301037,-9.020133018493652
1.727526958287513e+18,-0.03934020549058914,-0.03122439607977867,-9.037067413330078
1.7275269582935132e+18,-0.08465975522994995,-0.10774572938680649,-9.003023147583008
1.7275269582995133e+18,0.05214148759841919,-0.061375752091407776,-8.9789400100708
1.7275269583055135e+18,-0.05630144849419594,0.003486872650682926,-8.985876083374023
1.7275269583115136e+18,-0.007951433770358562,0.021805904805660248,-8.979329109191895
1.7275269583145137e+18,-0.036726802587509155,0.030704937875270844,-8.950798034667969
1.7275269583205138e+18,-0.05480441451072693,-0.018489249050617218,-8.979812622070312
1.727526958329514e+18,-0.007767896167933941,-0.03318091481924057,-8.886399269104004
1.727526958332514e+18,-0.07188573479652405,-0.044149383902549744,-8.907625198364258
1.7275269583385142e+18,0.04571787640452385,0.08301036804914474,-8.908820152282715
1.7275269583475144e+18,0.025118950754404068,-0.039993446320295334,-8.79537582397461
1.7275269583505144e+18,0.005384181626141071,0.015946388244628906,-8.826178550720215
1.7275269583565146e+18,-0.032340582460165024,0.06046348437666893,-8.721525192260742
1.7275269583625147e+18,0.05142581835389137,0.06783650815486908,-8.794397354125977
1.7275269583685148e+18,0.006385148968547583,0.018046710640192032,-8.677389144897461
1.727526958374515e+18,0.0553152821958065,-0.048822857439517975,-8.65709114074707
1.727526958380515e+18,-0.02532716654241085,-0.024493232369422913,-8.713890075683594
1.7275269583865152e+18,-0.06762224435806274,0.04893561452627182,-8.659806251525879
1.7275269583925153e+18,0.031563203781843185,-0.0474773533642292,-8.608197212219238
1.7275269583985155e+18,-0.03988971561193466,-0.03354496508836746,-8.539824485778809
1.7275269584015155e+18,0.028952470049262047,0.08947835117578506,-8.650481224060059
1.7275269584075156e+18,-0.050885703414678574,0.04608522728085518,-8.596518516540527
1.7275269584135158e+18,-0.03722187131643295,-0.08372149616479874,-8.57353401184082
1.727526958419516e+18,0.08763134479522705,0.026653671637177467,-8.53990650177002
1.727526958425516e+18,-0.08531507849693298,0.032244596630334854,-8.584654808044434
1.7275269584315162e+18,0.010568343102931976,-0.01590592972934246,-8.599327087402344
1.7275269584375163e+18,-0.023206988349556923,-0.03435663878917694,-8.540262222290039
1.7275269584435164e+18,0.046700265258550644,-0.045727573335170746,-8.556469917297363
1.7275269584495165e+18,0.011712665669620037,-0.02210777997970581,-8.619855880737305
1.7275269584525166e+18,0.019737692549824715,-0.034146666526794434,-8.479021072387695
1.7275269584585167e+18,0.024890581145882607,-0.03520574793219566,-8.619951248168945
1.7275269584645169e+18,0.003700073342770338,-0.030687229707837105,-8.57004165649414
1.727526958470517e+18,-0.009952819906175137,-0.006561834365129471,-8.616909980773926
1.727526958473517e+18,0.0020391996949911118,0.011748784221708775,-8.6005220413208
1.7275269584795172e+18,-0.009656443260610104,0.01691637933254242,-8.630616188049316
1.7275269584855173e+18,0.0798569917678833,0.02421262487769127,-8.64254379272461
1.7275269584915174e+18,-0.028599264100193977,0.01755986548960209,-8.641016960144043
1.7275269584975176e+18,-0.02291734889149666,0.040993720293045044,-8.636147499084473
1.7275269585035177e+18,0.05195408686995506,-0.002059541642665863,-8.606913566589355
1.7275269585065178e+18,0.008805952034890652,0.04919799044728279,-8.64083194732666
1.727526958512518e+18,-0.06481292098760605,0.033833302557468414,-8.693822860717773
1.727526958518518e+18,0.015149762853980064,-0.0020214677788317204,-8.664007186889648
1.727526958521518e+18,0.029088811948895454,-0.00980063434690237,-8.667344093322754
1.7275269585275182e+18,0.0147146200761199,0.04135070741176605,-8.692642211914062
1.7275269585335183e+18,-0.011194506660103798,0.0013102357042953372,-8.743501663208008
1.7275269585395185e+18,-0.011481386609375477,-0.02726808376610279,-8.724251747131348
1.7275269585455186e+18,0.013600912876427174,0.0073623210191726685,-8.675149917602539
1.7275269585515187e+18,0.02270400896668434,0.08096753060817719,-8.71601676940918
1.7275269585545188e+18,0.02575710229575634,-0.0825403705239296,-8.801671981811523
1.727526958560519e+18,0.006694278679788113,-0.026556557044386864,-8.74301815032959
1.727526958566519e+18,0.03574366122484207,0.004787065554410219,-8.767060279846191
1.7275269585725192e+18,0.06893246620893478,-0.031243734061717987,-8.748115539550781
1.7275269585785193e+18,0.013362530618906021,0.02424265816807747,-8.818514823913574
1.7275269585815194e+18,0.005572191439568996,0.04711110517382622,-8.817866325378418
1.7275269585875195e+18,0.04592990130186081,0.04503948241472244,-8.876203536987305
1.7275269585935196e+18,0.030509432777762413,0.03157705441117287,-8.797831535339355
1.7275269585995197e+18,-0.014445032924413681,-0.011878102086484432,-8.783285140991211
1.72752695860552e+18,0.0723901018500328,-0.02234569936990738,-8.876297950744629
1.72752695861152e+18,-0.0347919724881649,-0.005358942784368992,-8.823163986206055
1.72752695861752e+18,-0.0007404881180264056,-0.009804440662264824,-8.778895378112793
1.7275269586235203e+18,0.012665573507547379,0.00754725793376565,-8.879051208496094
1.7275269586295204e+18,-0.028043756261467934,0.04807465150952339,-12.153767585754395
1.7275269586325204e+18,-0.0159924253821373,-0.0716521292924881,-14.094921112060547
1.7275269586385206e+18,0.0013049726840108633,0.014366045594215393,-15.483516693115234
1.7275269586445207e+18,-0.08682557940483093,-0.08190739154815674,-15.971328735351562
1.7275269586505208e+18,0.006568795070052147,-0.00674173329025507,-16.10006332397461
1.727526958656521e+18,-0.0073890481144189835,-0.0851980671286583,-16.153032302856445
1.727526958662521e+18,0.020129932090640068,0.008067362010478973,-16.2974796295166
1.7275269586685212e+18,-0.031176717951893806,-0.01211448386311531,-16.443727493286133
1.7275269586745213e+18,0.004672124050557613,-0.01694563589990139,-16.362773895263672
1.7275269586805215e+18,-0.025821302086114883,-0.05412755161523819,-16.246585845947266
1.7275269586835215e+18,0.00963621400296688,-0.043299946933984756,-16.289697647094727
1.7275269586895217e+18,0.0026837727054953575,-0.060244906693696976,-16.187686920166016
1.7275269586955218e+18,-0.003542189719155431,-0.055371422320604324,-16.066606521606445
1.727526958701522e+18,-0.05705631524324417,0.026288149878382683,-16.080583572387695
1.727526958707522e+18,-0.030542273074388504,0.008338619023561478,-15.915365219116211
1.7275269587135222e+18,0.034835271537303925,-0.001002774341031909,-15.740338325500488
1.7275269587195223e+18,-0.062099650502204895,0.0007539666257798672,-15.856619834899902
1.7275269587255224e+18,0.020413430407643318,-0.04621350020170212,-15.643633842468262
1.7275269587285225e+18,0.036397650837898254,-0.005535405594855547,-15.638936996459961
1.7275269587345226e+18,-0.05715107172727585,0.10870019346475601,-15.479552268981934
1.7275269587405228e+18,-0.03432951867580414,0.030406270176172256,-15.46731948852539
1.727526958746523e+18,0.011466611176729202,0.0791519358754158,-15.351689338684082
1.727526958752523e+18,0.006266353186219931,-0.10033311694860458,-15.211864471435547
1.7275269587585231e+18,0.05696262791752815,0.027652539312839508,-15.129595756530762
1.7275269587645233e+18,-0.043177951127290726,0.03179767727851868,-15.063721656799316
1.7275269587675233e+18,0.04090472683310509,0.017349647358059883,-15.058791160583496
1.7275269587735235e+18,-0.060136593878269196,-0.008667904883623123,-14.947673797607422
1.7275269587795236e+18,0.04175082966685295,-0.015453657135367393,-14.769275665283203
1.7275269587855237e+18,0.00011896248906850815,0.01117386668920517,-14.708539009094238
1.7275269587915238e+18,0.030327199026942253,-0.08155375719070435,-14.634016990661621
1.727526958797524e+18,0.035388898104429245,0.0005664541386067867,-14.552799224853516
1.727526958803524e+18,-0.061150018125772476,0.02600138820707798,-14.550751686096191
1.7275269588065242e+18,0.031525660306215286,-0.01858554035425186,-14.589437484741211
1.7275269588125243e+18,0.04580140858888626,-0.02143148146569729,-14.47916316986084
1.7275269588185244e+18,0.0515497550368309,0.033449698239564896,-14.422652244567871
1.7275269588245245e+18,-0.07352567464113235,0.030378833413124084,-14.290658950805664
1.7275269588275246e+18,0.016656646504998207,0.02617352269589901,-14.15226936340332
1.7275269588335247e+18,-0.026546984910964966,-0.0013985105324536562,-14.140074729919434
1.7275269588395249e+18,-0.002338024554774165,0.0049831923097372055,-14.031609535217285
1.727526958845525e+18,-0.008083568885922432,-0.060530807822942734,-13.94470500946045
1.727526958848525e+18,0.020660001784563065,0.04273885115981102,-13.875029563903809
1.7275269588545252e+18,-0.017755813896656036,0.0011496723163872957,-13.855082511901855
1.7275269588605253e+18,-0.01715928316116333,0.015396486036479473,-13.875040054321289
1.7275269588665254e+18,0.07161286473274231,-0.030733494088053703,-13.697959899902344
1.7275269588725256e+18,-0.0322938933968544,0.02306804619729519,-13.67374038696289
1.7275269588785257e+18,0.04947696998715401,-0.007065954618155956,-13.601590156555176
1.7275269588815258e+18,0.013900517486035824,0.004088244400918484,-13.64574146270752
1.727526958887526e+18,-0.03204268589615822,-0.018645286560058594,-13.548076629638672
1.727526958893526e+18,0.04985528066754341,0.09455553442239761,-13.453412055969238
1.7275269588995261e+18,-0.0345044769346714,0.052391208708286285,-13.355530738830566
1.7275269589025262e+18,-0.0541757307946682,0.006012086756527424,-13.456535339355469
1.7275269589115264e+18,0.024943914264440536,-0.04282660037279129,-13.289506912231445
1.7275269589145265e+18,0.059392835944890976,-0.07014087587594986,-13.262301445007324
1.7275269589205266e+18,0.012697383761405945,0.043016254901885986,-13.1371488571167
1.7275269589265267e+18,0.04549771919846535,-0.016044551506638527,-13.125743865966797
1.7275269589295268e+18,0.02374972030520439,-0.08643877506256104,-13.067180633544922
1.727526958935527e+18,0.001312096486799419,-0.12436332553625107,-13.109782218933105
1.727526958941527e+18,-0.037872493267059326,-0.008583039976656437,-13.043943405151367
1.7275269589475272e+18,0.05516386777162552,-0.026135731488466263,-12.906489372253418
1.7275269589535273e+18,0.05642825737595558,0.04760213941335678,-12.844136238098145
1.7275269589595274e+18,-0.06407324969768524,0.06609935313463211,-12.914907455444336
1.7275269589625275e+18,-0.03942829370498657,0.07750904560089111,-12.837347030639648
1.7275269589685276e+18,-0.09210288524627686,0.002310211304575205,-12.762056350708008
1.7275269589745277e+18,0.02245183289051056,-0.020422708243131638,-12.77582836151123
1.7275269589805279e+18,0.020717332139611244,0.04640505835413933,-12.680583953857422
1.727526958983528e+18,0.005652124993503094,-0.007919514551758766,-12.71210765838623
1.727526958989528e+18,-0.0023942894767969847,0.07152479887008667,-12.604257583618164
1.7275269589955282e+18,0.056249573826789856,0.024025078862905502,-12.579959869384766
1.7275269590015283e+18,-0.04724356159567833,0.08031518757343292,-12.499756813049316
1.7275269590075284e+18,-0.05045721307396889,0.004797227680683136,-12.48619270324707
1.7275269590105285e+18,0.09268645942211151,-0.025384144857525826,-12.519526481628418
1.7275269590165286e+18,-0.05999932438135147,0.007751140743494034,-12.399101257324219
1.7275269590225288e+18,-0.009411994367837906,-0.04911082237958908,-12.430451393127441
1.727526959028529e+18,-0.026627328246831894,0.03970503434538841,-12.358262062072754
1.727526959031529e+18,0.057925593107938766,-0.03609063848853111,-12.311614036560059
1.727526959037529e+18,0.007411903236061335,0.07610859721899033,-12.273953437805176
1.7275269590435292e+18,-0.05911222845315933,-0.10095714032649994,-12.193504333496094
1.7275269590495293e+18,-0.019264675676822662,0.032886624336242676,-12.169233322143555
1.7275269590555295e+18,-0.017424993216991425,0.07574951648712158,-12.262950897216797
1.7275269590585295e+18,-0.13153184950351715,0.01135033555328846,-12.198979377746582
1.7275269590645297e+18,-0.04270705208182335,0.014617446810007095,-12.240431785583496
1.7275269590705298e+18,0.031037865206599236,-0.00292501924559474,-12.071444511413574
1.72752695907653e+18,0.036411773413419724,0.02191646583378315,-12.041196823120117
1.72752695908253e+18,-0.04464090242981911,-0.09681860357522964,-12.053502082824707
1.7275269590885302e+18,0.02186737023293972,-0.08482516556978226,-12.061417579650879
1.7275269590915302e+18,0.04708891361951828,-0.019136060029268265,-12.032756805419922
1.7275269590975304e+18,-0.013772071339190006,0.04404029622673988,-11.901618957519531
1.7275269591035305e+18,0.029234856367111206,0.026856716722249985,-11.95646858215332
1.7275269591095306e+18,0.05115726590156555,-0.026428472250699997,-11.940715789794922
1.7275269591155308e+18,0.0026233645621687174,0.05330965667963028,-11.874834060668945
1.727526959121531e+18,0.01716817170381546,0.003456053091213107,-11.868138313293457
1.727526959127531e+18,0.03795012831687927,-0.024048585444688797,-11.788169860839844
1.727526959130531e+18,0.013986616395413876,0.028269896283745766,-11.717464447021484
1.7275269591365312e+18,-0.012255345471203327,0.061772845685482025,-11.697978973388672
1.7275269591425313e+18,0.014525968581438065,-0.02030995488166809,-11.797638893127441
1.7275269591485315e+18,-0.01791800931096077,0.08002524077892303,-11.696209907531738
1.7275269591545316e+18,0.06153639778494835,0.04645092785358429,-11.649689674377441
1.7275269591575316e+18,-0.06874260306358337,0.046487823128700256,-11.60177230834961
1.7275269591635318e+18,0.06293237954378128,-0.0585506372153759,-11.64717960357666
1.727526959169532e+18,0.020656857639551163,-0.017181234434247017,-11.58086109161377
1.727526959175532e+18,0.06692887842655182,-0.10018575191497803,-11.589550018310547
1.7275269591815322e+18,-0.006663206499069929,-0.05623380467295647,-11.628745079040527
1.7275269591875323e+18,-0.02341221272945404,-0.03289040923118591,-11.567286491394043
1.7275269591905324e+18,-0.05654754489660263,-0.029454093426465988,-11.56290054321289
1.7275269591965325e+18,0.01820925995707512,0.017868179827928543,-11.416617393493652
1.7275269592025326e+18,0.01627281680703163,-0.04742070287466049,-11.442054748535156
1.7275269592085327e+18,-0.010266602039337158,-0.07538270950317383,-11.432462692260742
1.7275269592145329e+18,-0.029848475009202957,0.03940808027982712,-11.352182388305664
1.727526959220533e+18,0.030645016580820084,-0.00412855064496398,-11.341400146484375
1.727526959223533e+18,0.04873542860150337,-0.01544851716607809,-11.380603790283203
1.7275269592295332e+18,-0.03241170197725296,0.009958546608686447,-11.270203590393066
1.7275269592355333e+18,-0.004970173817127943,0.04551643133163452,-11.332000732421875
1.7275269592415334e+18,-0.009845136664807796,-0.025029631331562996,-11.366579055786133
1.7275269592475336e+18,-0.042229000478982925,0.052818913012742996,-11.278203010559082
1.7275269592505336e+18,0.006886651739478111,-0.010689669288694859,-11.31760311126709
1.7275269592565338e+18,-0.019471462815999985,-0.09574975073337555,-11.208906173706055
1.727526959262534e+18,0.06100649759173393,0.03728161007165909,-11.311338424682617
1.727526959268534e+18,-0.05485706031322479,-0.039564236998558044,-11.26193618774414
1.727526959271534e+18,-0.02609928324818611,-0.07838723063468933,-11.177080154418945
1.7275269592775342e+18,0.06322571635246277,0.04564344882965088,-11.146259307861328
1.7275269592835343e+18,0.050304263830184937,-0.007383360527455807,-11.124125480651855
1.7275269592895345e+18,0.02204855903983116,-0.043423328548669815,-11.093745231628418
1.7275269592955346e+18,0.013153165578842163,0.05423405021429062,-11.16007137298584
1.7275269593015347e+18,0.002399301389232278,-0.019709644839167595,-11.103525161743164
1.7275269593075348e+18,0.005791741888970137,0.02781401388347149,-11.067466735839844
1.727526959313535e+18,-0.03233470395207405,-0.018759550526738167,-11.07833194732666
1.727526959316535e+18,0.027548572048544884,-0.07219793647527695,-11.01962661743164
1.7275269593225352e+18,0.02563103288412094,-0.007887540385127068,-11.055293083190918
1.7275269593285353e+18,0.04745800420641899,-0.008927974849939346,-11.019454956054688
1.7275269593315354e+18,-0.023870006203651428,0.007474156096577644,-11.04334545135498
1.7275269593375355e+18,-0.0556943416595459,0.044087402522563934,-11.019754409790039
1.7275269593435356e+18,-0.04436737671494484,-0.007261861115694046,-11.068323135375977
1.7275269593495357e+18,-0.003772313706576824,-0.04763609543442726,-10.944180488586426
1.7275269593525358e+18,0.04783058166503906,-0.06195302680134773,-10.914130210876465
1.727526959358536e+18,0.030216021463274956,0.011657371185719967,-10.931004524230957
1.727526959364536e+18,-0.03272950276732445,-0.03618887811899185,-10.910531044006348
1.7275269593705362e+18,-0.0942702442407608,0.014045404270291328,-10.901779174804688
1.7275269593735363e+18,-0.05372384935617447,-0.0011656434508040547,-10.843798637390137
1.7275269593795364e+18,-0.013723518699407578,-0.030969586223363876,-10.761726379394531
1.7275269593855365e+18,-0.006563780829310417,-0.08009088784456253,-10.886150360107422
1.7275269593915366e+18,0.05702164024114609,0.020056210458278656,-10.802287101745605
1.7275269593945367e+18,0.0451764315366745,-0.060477789491415024,-10.80173110961914
1.7275269594005368e+18,-0.04033041372895241,0.0072746011428534985,-10.888248443603516
1.727526959406537e+18,-0.053505297750234604,0.02457582950592041,-10.849213600158691
1.727526959409537e+18,0.012059787288308144,-0.04431362822651863,-10.797832489013672
1.7275269594155372e+18,-0.007835508324205875,-0.02497718669474125,-10.818317413330078
1.7275269594215373e+18,0.028842192143201828,0.013013039715588093,-10.768414497375488
1.7275269594275374e+18,-0.05131244659423828,-0.022355489432811737,-10.677266120910645
1.7275269594305375e+18,0.057568132877349854,-0.03707905858755112,-10.731647491455078
1.7275269594365376e+18,-0.05936283990740776,0.02483341284096241,-10.713984489440918
1.7275269594455378e+18,0.012164432555437088,0.029325151816010475,-10.682388305664062
1.7275269594485379e+18,0.004415477160364389,0.0339241623878479,-10.752812385559082
1.727526959454538e+18,0.012211007997393608,0.05301477387547493,-10.699652671813965
1.727526959460538e+18,0.07887500524520874,-0.019261639565229416,-10.647500991821289
1.7275269594635382e+18,0.0037081027403473854,-0.020289594307541847,-10.6736421585083
1.7275269594695383e+18,-0.015726041048765182,-0.0031399575527757406,-10.66788101196289
1.7275269594755384e+18,0.03976702690124512,-0.06656365096569061,-10.626365661621094
1.7275269594815386e+18,0.00016604841221123934,-0.03704359382390976,-10.787238121032715
1.7275269594875387e+18,0.031365327537059784,0.062095604836940765,-10.635313034057617
1.7275269594905388e+18,-0.018368761986494064,-0.012127887457609177,-10.593761444091797
1.727526959496539e+18,-0.03193148598074913,0.027967428788542747,-10.634435653686523
1.727526959502539e+18,0.0022473372519016266,-0.05648123845458031,-10.602845191955566
1.7275269595085391e+18,0.02997940592467785,0.006995310075581074,-10.518386840820312
1.7275269595145393e+18,-0.005102647002786398,0.017693903297185898,-10.53880786895752
1.7275269595205394e+18,-0.03913768753409386,-0.022000890225172043,-10.572383880615234
1.7275269595235395e+18,-0.04266444593667984,-0.033678390085697174,-10.508148193359375
1.7275269595295396e+18,-0.0610404834151268,0.0016036999877542257,-10.47144603729248
1.7275269595355397e+18,-0.06296374648809433,-0.06776726990938187,-10.511662483215332
1.7275269595415398e+18,0.026940546929836273,-0.009858388453722,-10.524717330932617
1.72752695954754e+18,0.06050638109445572,-0.06839898973703384,-10.47376537322998
1.72752695955054e+18,0.02142970636487007,0.03034980595111847,-10.54438304901123
1.7275269595565402e+18,-0.0383911170065403,0.12512166798114777,-10.519253730773926
1.7275269595625403e+18,0.016008589416742325,-0.0069250985980033875,-10.43604564666748
1.7275269595685404e+18,-0.07621105015277863,-0.06196355074644089,-10.471832275390625
1.7275269595715405e+18,0.029918871819972992,-0.04418354108929634,-10.42361068725586
1.7275269595775406e+18,0.09005752950906754,-0.07980407774448395,-10.471574783325195
1.7275269595835407e+18,0.0046063875779509544,-0.059374406933784485,-10.470514297485352
1.7275269595895409e+18,0.002747903810814023,0.018505776301026344,-10.446846008300781
1.727526959595541e+18,0.004814131185412407,0.006446016952395439,-10.408862113952637
1.727526959598541e+18,0.05811912566423416,0.06538563221693039,-10.38433837890625
1.7275269596045412e+18,-0.026295965537428856,-0.03907591477036476,-10.400477409362793
1.7275269596105413e+18,0.04436196759343147,-0.08583168685436249,-10.365660667419434
1.7275269596165414e+18,-0.0533657968044281,-0.019766790792346,-10.33719253540039
1.7275269596195415e+18,0.006954974494874477,0.06577761471271515,-10.402416229248047
1.7275269596255416e+18,0.04531291872262955,0.04999527335166931,-10.386149406433105
1.7275269596315418e+18,0.016627930104732513,-0.026575926691293716,-10.346455574035645
1.727526959637542e+18,-0.022370636463165283,-0.04643804207444191,-10.396720886230469
1.727526959643542e+18,-0.06066976860165596,0.0006639235652983189,-10.359951972961426
1.727526959646542e+18,0.03499637171626091,0.041347797960042953,-10.360527038574219
1.7275269596525422e+18,0.04355509206652641,0.0515461303293705,-10.30709171295166
1.7275269596585423e+18,0.0038911267183721066,0.032743144780397415,-10.414702415466309
1.7275269596645425e+18,0.15105757117271423,-0.022558795288205147,-10.358806610107422
1.7275269596675425e+18,0.029467012733221054,-0.0655616819858551,-10.305502891540527
1.7275269596735427e+18,-0.12736861407756805,-0.045067206025123596,-10.348217964172363
1.7275269596795428e+18,-0.0528685562312603,-0.06761204451322556,-10.226125717163086
1.727526959685543e+18,-0.06256379187107086,-0.03706086799502373,-10.287956237792969
1.727526959691543e+18,0.01545500848442316,-0.0317206084728241,-10.291651725769043
1.727526959694543e+18,-0.035299044102430344,0.04355880245566368,-10.289559364318848
1.7275269597005432e+18,0.05140386521816254,-0.005233119707554579,-10.280821800231934
1.7275269597065434e+18,-0.034625086933374405,-0.010802875272929668,-10.232047080993652
1.7275269597095434e+18,0.05135499686002731,-0.012130118906497955,-10.262760162353516
1.7275269597155436e+18,0.031305473297834396,0.04715254530310631,-10.217475891113281
1.7275269597215437e+18,0.05896146222949028,-0.046549152582883835,-10.232511520385742
1.7275269597275438e+18,0.03177928924560547,0.008484171703457832,-10.242379188537598
1.727526959733544e+18,-0.005605434998869896,0.0023058331571519375,-10.162657737731934
1.727526959736544e+18,0.043709784746170044,0.03889072313904762,-10.147810935974121
1.7275269597425441e+18,0.0004838156164623797,0.02668111026287079,-10.209626197814941
1.7275269597485443e+18,-0.04634639620780945,0.04339440539479256,-10.16313648223877
1.7275269597545444e+18,-0.05183688551187515,-0.02934279479086399,-10.17373275756836
1.7275269597605445e+18,0.007108625024557114,-0.050938837230205536,-10.12972354888916
1.7275269597635446e+18,0.025577673688530922,0.03991811349987984,-10.170639991760254
1.7275269597695447e+18,-0.0117266234010458,0.012842035852372646,-10.122236251831055
1.7275269597755448e+18,0.027882322669029236,0.029863424599170685,-10.1668062210083
1.727526959778545e+18,0.045120805501937866,-0.07087282091379166,-10.206367492675781
1.727526959784545e+18,-0.0019957218319177628,0.03411044180393219,-10.241228103637695
1.7275269597905452e+18,-0.023523584008216858,-0.01246132142841816,-10.11105728149414
1.7275269597965453e+18,-0.11356931179761887,0.023831501603126526,-10.120172500610352
1.7275269598025454e+18,-0.037358708679676056,-0.01683100312948227,-10.146306037902832
1.7275269598055455e+18,-0.022009504958987236,-0.11541898548603058,-10.159847259521484
1.7275269598115456e+18,-0.03352263569831848,0.033842865377664566,-10.115012168884277
1.7275269598175457e+18,-0.03011326864361763,0.040281474590301514,-10.138043403625488
1.7275269598235459e+18,-0.002387828892096877,0.07330948859453201,-10.185969352722168
1.727526959826546e+18,-0.033053819090127945,0.01909160055220127,-10.039387702941895
1.727526959832546e+18,0.07636050134897232,-0.0013847616501152515,-10.146870613098145
1.7275269598385462e+18,-0.017204279080033302,0.005373992025852203,-10.040627479553223
1.7275269598445463e+18,-0.018061766400933266,-0.007971113547682762,-10.029300689697266
1.7275269598505464e+18,-0.06574715673923492,0.03953605145215988,-10.13520622253418
1.7275269598535465e+18,-0.04933378845453262,0.04835774004459381,-10.041271209716797
1.7275269598595466e+18,-0.016230301931500435,-0.01412327028810978,-10.079801559448242
1.7275269598655468e+18,-0.004085535649210215,-0.013150213286280632,-10.087139129638672
1.727526959871547e+18,0.05266692489385605,0.004433517809957266,-10.113106727600098
1.727526959874547e+18,0.007133859675377607,0.10836568474769592,-10.088167190551758
1.727526959880547e+18,-0.009946324862539768,-0.04400305822491646,-10.039469718933105
1.7275269598865472e+18,-0.04151337221264839,0.047573260962963104,-10.047170639038086
1.7275269598925473e+18,-0.05725651979446411,0.018114879727363586,-10.074858665466309
1.7275269598955474e+18,0.014489828608930111,-0.02658272162079811,-10.06494426727295
1.7275269599015475e+18,-0.01607254333794117,-0.02850470505654812,-10.047513961791992
1.7275269599075476e+18,-0.0504491962492466,-0.029610473662614822,-10.005526542663574
1.7275269599135478e+18,-0.05544966459274292,0.020530372858047485,-9.997873306274414
1.7275269599165478e+18,-0.0882345587015152,-0.036994919180870056,-10.02243709564209
1.727526959922548e+18,-0.027647895738482475,0.003703187219798565,-10.039295196533203
1.727526959928548e+18,-0.03386261314153671,-0.02179821766912937,-10.043479919433594
1.7275269599345482e+18,0.04842880368232727,0.03899523243308067,-10.040424346923828
1.7275269599405484e+18,0.002653192263096571,-0.054449766874313354,-10.063653945922852
1.7275269599465485e+18,-0.017524484544992447,0.005053448490798473,-9.967720031738281
1.7275269599525486e+18,-0.027500096708536148,0.005571356508880854,-10.011683464050293
1.7275269599555487e+18,-0.018211305141448975,-0.046169836074113846,-10.035149574279785
1.7275269599615488e+18,-0.03498519957065582,0.000942084938287735,-9.94885540008545
1.727526959967549e+18,-0.05529522895812988,0.01134098507463932,-9.949346542358398
1.727526959973549e+18,-0.03271128982305527,0.04222109541296959,-10.002882957458496
1.727526959976549e+18,0.016976777464151382,-0.025522563606500626,-9.972037315368652
1.7275269599825492e+18,0.04492630064487457,0.08842648565769196,-9.97996711730957
1.7275269599885494e+18,-0.038873687386512756,-0.04732848331332207,-9.963338851928711
1.7275269599945495e+18,0.09284912049770355,0.004873680416494608,-9.97349739074707
1.7275269600005496e+18,-0.041199106723070145,0.0522136464715004,-9.975544929504395
1.7275269600035497e+18,0.05026298388838768,0.034807927906513214,-9.914152145385742
1.7275269600095498e+18,0.03684309870004654,-0.07640709728002548,-9.950798988342285
1.72752696001555e+18,-0.03178727626800537,-0.001167128561064601,-9.997001647949219
1.72752696002155e+18,-0.00010538406786508858,0.05207910016179085,-9.926732063293457
1.7275269600275502e+18,-0.01713438332080841,-0.07933247089385986,-9.934565544128418
1.7275269600305503e+18,0.03541106730699539,-0.04841673746705055,-9.90841293334961
1.7275269600365504e+18,-0.0041623287834227085,0.05073781684041023,-9.869084358215332
1.7275269600425505e+18,-0.10143071413040161,-0.0035752151161432266,-9.931922912597656
1.7275269600485507e+18,-0.018793867900967598,-0.03367045521736145,-9.948806762695312
1.7275269600515507e+18,-0.05435642972588539,0.049015942960977554,-9.872782707214355
1.7275269600575508e+18,0.03982963040471077,0.0020819022320210934,-9.896368026733398
1.727526960063551e+18,0.09524770081043243,0.013479214161634445,-9.902592658996582
1.727526960069551e+18,-0.0032130759209394455,-0.027999037876725197,-9.910326957702637
1.7275269600755512e+18,-0.03192524239420891,-0.05729345232248306,-9.957450866699219
1.7275269600785513e+18,-0.004032635595649481,-0.03016483038663864,-9.926931381225586
1.7275269600845514e+18,0.1034265086054802,-0.05493997037410736,-9.910383224487305
1.7275269600905516e+18,-0.02868450991809368,-0.005183891858905554,-9.891446113586426
1.7275269600965517e+18,-0.040614668279886246,0.048788852989673615,-9.90380859375
1.7275269600995517e+18,0.004261634778231382,0.06710894405841827,-9.976273536682129
1.727526960105552e+18,-0.0237893033772707,0.04515109211206436,-9.887585639953613
1.727526960111552e+18,-0.028523210436105728,0.041405946016311646,-9.893843650817871
1.727526960117552e+18,-0.008733819238841534,0.03314464911818504,-9.893234252929688
1.7275269601235523e+18,-0.05606972798705101,-0.0072927819564938545,-9.87633228302002
1.7275269601295524e+18,0.023820921778678894,-0.06135639175772667,-9.782548904418945
1.7275269601325524e+18,-0.021104278042912483,0.014813444577157497,-9.870471000671387
1.7275269601385526e+18,0.02076091803610325,0.007205854170024395,-9.840404510498047
1.7275269601445527e+18,0.049927860498428345,-0.021697450429201126,-9.869678497314453
1.7275269601505528e+18,-0.01645255833864212,-0.006319209933280945,-9.88818645477295
1.727526960156553e+18,0.011177539825439453,0.03414806351065636,-9.870834350585938
1.727526960159553e+18,0.02729320153594017,0.010351784527301788,-9.853184700012207
1.7275269601655532e+18,-0.014355733059346676,0.01616329699754715,-9.894404411315918
1.7275269601715533e+18,0.027103642001748085,-0.015142785385251045,-9.947015762329102
1.7275269601775534e+18,0.03551476076245308,-0.061624541878700256,-9.920035362243652
1.7275269601835535e+18,0.005423614755272865,0.019536370411515236,-9.795653343200684
1.7275269601895537e+18,-0.05709899216890335,0.014068993739783764,-9.916254997253418
1.7275269601925537e+18,-0.06158069893717766,0.011526867747306824,-9.882108688354492
1.7275269601985539e+18,0.018228989094495773,0.008144248276948929,-9.822338104248047
1.727526960204554e+18,0.06491720676422119,-0.02409225143492222,-9.7410306930542
1.727526960210554e+18,-0.022333616390824318,0.04853218421339989,-9.871208190917969
1.7275269602165542e+18,0.004411866422742605,0.05703376233577728,-9.899641990661621
1.7275269602195543e+18,-0.02612624503672123,-0.02799285016953945,-9.834053039550781
1.7275269602255544e+18,0.04055405035614967,-0.024767667055130005,-9.858166694641113
1.7275269602315546e+18,-0.022559000179171562,-0.010340750217437744,-9.872615814208984
1.7275269602375547e+18,0.05879133567214012,-0.005771933123469353,-9.802339553833008
1.7275269602405548e+18,-0.03798559308052063,0.024577436968684196,-9.895017623901367
1.727526960246555e+18,-0.03270622715353966,0.05244104936718941,-9.835373878479004
1.727526960252555e+18,0.015800226479768753,-0.06491998583078384,-9.809554100036621
1.7275269602585551e+18,-0.0033122629392892122,-0.04262830689549446,-9.805123329162598
1.7275269602645553e+18,-0.005690485239028931,0.056689582765102386,-9.804089546203613
1.7275269602675553e+18,-0.0023114525247365236,-0.05914152413606644,-9.70593547821045
1.7275269602735555e+18,-0.03734453767538071,0.06838349997997284,-9.838247299194336
1.7275269602795556e+18,0.06689532101154327,0.018037987872958183,-9.828530311584473
1.7275269602855557e+18,-0.051093507558107376,-0.047379765659570694,-9.833843231201172
1.7275269602885558e+18,0.040388334542512894,-0.02989576943218708,-9.819785118103027
1.727526960294556e+18,0.0053750514052808285,0.11114487051963806,-9.826309204101562
1.727526960300556e+18,-0.027652570977807045,-0.06149037554860115,-9.805335998535156
1.7275269603065562e+18,-0.02276722900569439,0.026190215721726418,-9.754098892211914
1.7275269603125563e+18,-0.022662436589598656,0.024013908579945564,-9.829349517822266
1.7275269603155564e+18,0.02400537021458149,-0.02344822883605957,-9.749663352966309
1.7275269603215565e+18,-0.0025882611516863108,0.05969616025686264,-9.852855682373047
1.7275269603275566e+18,-0.006023818626999855,0.016975147649645805,-9.856401443481445
1.7275269603305567e+18,0.00955273024737835,-0.007993392646312714,-9.818618774414062
1.7275269603365568e+18,0.01396364625543356,0.04048151150345802,-9.690234184265137
1.727526960342557e+18,-0.025182347744703293,-0.010922779329121113,-9.885001182556152
1.727526960348557e+18,-0.01885170303285122,0.014464830048382282,-9.800710678100586
1.7275269603545572e+18,0.0473615787923336,-0.002401969162747264,-9.82150650024414
1.7275269603605573e+18,-0.045326441526412964,0.006692553870379925,-9.693360328674316
1.7275269603635574e+18,-0.019981134682893753,-0.02383766509592533,-9.77727222442627
1.7275269603695575e+18,0.015200858935713768,-0.052014052867889404,-9.770267486572266
1.7275269603755576e+18,-0.03760290518403053,-0.0033943599555641413,-9.758201599121094
1.7275269603815578e+18,-0.06408964097499847,-0.009138796478509903,-9.818575859069824
1.727526960387558e+18,-0.0017376287141814828,0.006334973033517599,-9.863323211669922
1.727526960393558e+18,0.02868955209851265,-0.01766471564769745,-9.881376266479492
1.727526960396558e+18,-0.030848098918795586,0.024052858352661133,-9.772557258605957
1.7275269604025582e+18,0.03707340732216835,-0.0184965580701828,-9.756092071533203
1.7275269604085583e+18,0.026350943371653557,-0.03965971618890762,-9.840011596679688
1.7275269604145585e+18,0.0767742320895195,-0.0003455076366662979,-9.768345832824707
1.7275269604175585e+18,-0.035506777465343475,0.04970427602529526,-9.782512664794922
1.7275269604235587e+18,-0.040233369916677475,0.03068007528781891,-9.812253952026367
1.7275269604295588e+18,-0.05272897332906723,0.03162412717938423,-9.876925468444824
1.727526960435559e+18,0.018912356346845627,-0.025518974289298058,-9.807332992553711
1.727526960438559e+18,-0.008380289189517498,-0.05759966000914574,-9.691094398498535
1.727526960444559e+18,0.010197427123785019,0.028118394315242767,-9.731430053710938
1.7275269604505592e+18,-0.003428718773648143,-0.012119879946112633,-9.77575397491455
1.7275269604565594e+18,0.01850791461765766,0.01917733997106552,-9.736054420471191
1.7275269604595594e+18,0.05240444093942642,-0.0007165821734815836,-9.72679615020752
1.7275269604655596e+18,0.03880564495921135,0.006082153879106045,-9.734490394592285
1.7275269604715597e+18,0.06948874890804291,0.0017080539837479591,-9.728353500366211
1.7275269604775598e+18,0.01341257430613041,-0.0767577663064003,-9.750143051147461
1.7275269604805599e+18,0.02956123650074005,0.0018612337298691273,-9.837274551391602
1.72752696048656e+18,-0.06837566941976547,0.060821425169706345,-9.780608177185059
1.7275269604925601e+18,-0.06840363889932632,0.0364428348839283,-9.7190580368042
1.7275269604985603e+18,0.05600501969456673,0.0015010775532573462,-9.751312255859375
1.7275269605015603e+18,0.021582821384072304,0.006798658519983292,-9.804764747619629
1.7275269605075604e+18,-0.02681608498096466,-0.03526497632265091,-9.722939491271973
1.7275269605135606e+18,0.06971503049135208,0.013944012112915516,-9.750374794006348
1.7275269605195607e+18,0.0016618726076558232,-0.09407094120979309,-9.719493865966797
1.7275269605255608e+18,0.023063061758875847,0.0426475964486599,-9.78574275970459
1.727526960528561e+18,-0.001377951935864985,0.001610955223441124,-9.82344913482666
1.727526960534561e+18,0.04783570021390915,0.0347517654299736,-9.814780235290527
1.7275269605405612e+18,0.0030417251400649548,0.013262531720101833,-9.72732162475586
1.7275269605465613e+18,-0.005292750895023346,-0.020391542464494705,-9.709529876708984
1.7275269605495613e+18,-0.06043001636862755,-0.02723482996225357,-9.819448471069336
1.7275269605555615e+18,-0.002483251504600048,0.04110405221581459,-9.714073181152344
1.7275269605615616e+18,0.08502006530761719,0.07132569700479507,-9.71834659576416
1.7275269605675617e+18,0.06730398535728455,0.02463567815721035,-9.687591552734375
1.7275269605705618e+18,-0.015150847844779491,0.05940347909927368,-9.738691329956055
1.727526960576562e+18,-0.04911164194345474,-0.017838239669799805,-9.787734031677246
1.727526960582562e+18,-0.017893105745315552,-0.04018727317452431,-9.66346549987793
1.7275269605885622e+18,-0.08615797758102417,0.06645970791578293,-9.716277122497559
1.7275269605915622e+18,-0.02753441222012043,-0.012662181630730629,-9.780111312866211
1.7275269605975624e+18,0.01699942722916603,-0.031957630068063736,-9.78400707244873
1.7275269606035625e+18,0.007291823625564575,-0.1053154468536377,-9.696439743041992
1.7275269606095626e+18,-0.028728656470775604,-0.013957141898572445,-9.777509689331055
1.7275269606125627e+18,0.0427672304213047,0.04513709247112274,-9.784594535827637
1.7275269606185628e+18,0.021587688475847244,0.004668279550969601,-9.765113830566406
1.727526960624563e+18,-0.017484672367572784,0.04597346484661102,-9.721318244934082
1.727526960630563e+18,-0.0010695672826841474,0.0050330632366240025,-9.71524429321289
1.7275269606365632e+18,-0.046300195157527924,-0.03412487730383873,-9.735113143920898
1.7275269606425633e+18,-0.017796501517295837,-0.03256573528051376,-9.751581192016602
1.7275269606455634e+18,0.04124315455555916,0.018723130226135254,-9.738509178161621
1.7275269606515635e+18,0.05725300312042236,0.05047403648495674,-9.689841270446777
1.7275269606575636e+18,0.07944232225418091,0.03930718079209328,-9.630311965942383
1.7275269606635638e+18,-0.03426280990242958,-0.08458974957466125,-9.82361888885498
1.727526960669564e+18,-0.0013238568790256977,0.054769404232501984,-9.662637710571289
1.727526960675564e+18,-0.035544488579034805,-0.06686302274465561,-9.715446472167969
1.727526960678564e+18,-0.05911918729543686,0.031263552606105804,-9.784588813781738
1.7275269606845642e+18,0.015952331945300102,-0.04220039024949074,-9.810271263122559
1.7275269606905644e+18,0.0003182613872922957,0.022586647421121597,-9.782703399658203
1.7275269606965645e+18,0.010115369223058224,0.04120192676782608,-9.732731819152832
1.7275269606995645e+18,-0.04348018020391464,-0.007841704413294792,-9.762237548828125
1.7275269607055647e+18,0.005463744979351759,-0.06352180987596512,-9.752538681030273
1.7275269607115648e+18,-0.03508676588535309,0.01792393997311592,-9.80640697479248
1.727526960717565e+18,0.037810564041137695,0.029936408624053,-9.741426467895508
1.727526960720565e+18,0.015353582799434662,0.003445263020694256,-9.817243576049805
1.727526960726565e+18,-0.009120255708694458,0.016296226531267166,-9.773444175720215
1.7275269607325652e+18,-0.06719741970300674,0.01542084850370884,-9.711973190307617
1.7275269607385654e+18,-0.004232657607644796,0.025914093479514122,-9.77238941192627
1.7275269607415654e+18,0.03854109346866608,-0.07883670926094055,-9.80724811553955
1.7275269607475656e+18,-0.02698477916419506,-0.030114276334643364,-9.771578788757324
1.7275269607535657e+18,0.0019484328804537654,-0.05338076502084732,-9.782007217407227
1.7275269607595658e+18,-0.04880492761731148,0.01987392082810402,-9.797130584716797
1.727526960765566e+18,-0.007989170029759407,-0.03788401931524277,-9.78233528137207
1.727526960768566e+18,0.06924241036176682,-0.04482142999768257,-9.744280815124512
1.7275269607745661e+18,-0.03388512134552002,-0.018372593447566032,-9.78054141998291
1.7275269607805663e+18,-0.04416433349251747,-0.018873702734708786,-9.700237274169922
1.7275269607865664e+18,0.007452220190316439,0.055349547415971756,-9.736979484558105
1.7275269607925665e+18,-0.022122766822576523,0.026394275948405266,-9.715770721435547
1.7275269607955666e+18,-0.043099455535411835,-0.060634080320596695,-9.720884323120117
1.7275269608015667e+18,0.02529447339475155,-0.07416268438100815,-9.67863941192627
1.7275269608075668e+18,-0.0595087893307209,-0.023545540869235992,-9.71503734588623
1.727526960813567e+18,0.07852553576231003,0.03376540169119835,-9.720394134521484
1.727526960819567e+18,0.020367678254842758,0.020583510398864746,-9.722488403320312
1.7275269608225672e+18,-0.084287628531456,0.028431976214051247,-9.785744667053223
1.7275269608285673e+18,-0.0898151844739914,-0.002422583056613803,-9.775507926940918
1.7275269608345674e+18,0.07564210146665573,0.015254367142915726,-9.757814407348633
1.7275269608405676e+18,0.06583554297685623,0.016176976263523102,-9.771658897399902
1.7275269608465677e+18,0.04779651015996933,-0.008904552087187767,-9.787489891052246
1.7275269608495677e+18,-0.04260256141424179,-0.03689505532383919,-9.793087005615234
1.727526960855568e+18,-0.05720360949635506,0.021485215052962303,-9.805641174316406
1.727526960861568e+18,-0.04794897511601448,0.04154295474290848,-9.757455825805664
1.727526960867568e+18,-0.02826349437236786,0.03122774511575699,-9.750794410705566
1.7275269608735683e+18,-0.016450729221105576,-0.01065727137029171,-9.705526351928711
1.7275269608765683e+18,0.0033153886906802654,-0.06437374651432037,-9.716938972473145
1.7275269608825684e+18,-0.06115126982331276,-0.08082606643438339,-9.74576187133789
1.7275269608885686e+18,0.08946302533149719,0.06492921710014343,-9.784506797790527
1.7275269608945687e+18,-0.03954479843378067,-0.0021452405489981174,-9.726572036743164
1.7275269609005688e+18,-0.1431259661912918,-0.027036238461732864,-9.706864356994629
1.727526960903569e+18,0.03895720839500427,-0.06794353574514389,-9.783514976501465
1.727526960909569e+18,-0.0609002523124218,0.006608199328184128,-9.722834587097168
1.7275269609155692e+18,-0.006354786455631256,0.0771905928850174,-9.735180854797363
1.7275269609215693e+18,-0.01663219928741455,0.022062653675675392,-9.87868881225586
1.7275269609245693e+18,0.008050860837101936,0.05902700126171112,-9.660061836242676
1.7275269609305695e+18,-0.0066302865743637085,0.0005316941533237696,-9.81174087524414
1.7275269609365696e+18,0.00836564414203167,0.01743166148662567,-9.716224670410156
1.7275269609425697e+18,0.07267019152641296,0.03439069911837578,-9.716208457946777
1.7275269609485699e+18,-0.05466426908969879,0.04707426205277443,-9.655937194824219
1.72752696095157e+18,-0.027742836624383926,-0.04945254698395729,-9.762742042541504
1.72752696095757e+18,-0.062436543405056,-0.008955031633377075,-9.709113121032715
1.7275269609635702e+18,0.024939648807048798,0.03928156942129135,-9.74122428894043
1.7275269609695703e+18,-0.131630539894104,-0.014240089803934097,-9.790306091308594
1.7275269609755704e+18,-0.016686098650097847,0.029104655608534813,-9.740516662597656
1.7275269609785705e+18,0.005300064105540514,-0.01998172141611576,-9.73490047454834
1.7275269609845706e+18,0.005507566034793854,0.025320429354906082,-9.666683197021484
1.7275269609905708e+18,-0.010683699510991573,0.023026376962661743,-9.694659233093262
1.727526960996571e+18,0.03770257532596588,-0.05457056313753128,-9.655390739440918
1.727526960999571e+18,0.0010477672331035137,-0.01122287753969431,-9.740766525268555
1.727526961005571e+18,-0.02518353797495365,0.022114336490631104,-9.79665756225586
1.7275269610115712e+18,-0.04814736545085907,0.008154932409524918,-9.683627128601074
1.7275269610175713e+18,-0.00529732508584857,0.02214171551167965,-9.691816329956055
1.7275269610205714e+18,0.030710620805621147,-0.01661955937743187,-9.749917030334473
1.7275269610265715e+18,-0.03753805533051491,-0.03912828490138054,-9.763528823852539
1.7275269610325716e+18,-0.04063979908823967,-0.04563681036233902,-9.651019096374512
1.7275269610385718e+18,0.032067734748125076,0.006042595021426678,-9.776004791259766
1.727526961044572e+18,0.07842224836349487,-0.006490814499557018,-9.735306739807129
1.727526961047572e+18,-0.01319485530257225,0.0011290931142866611,-9.660591125488281
1.727526961053572e+18,0.0648728460073471,0.014594417065382004,-9.79184341430664
1.7275269610595722e+18,0.006249118596315384,-0.023093529045581818,-9.714433670043945
1.7275269610655724e+18,-0.016834072768688202,-0.026903489604592323,-9.767629623413086
1.7275269610715725e+18,0.04604267701506615,0.053755663335323334,-9.748636245727539
1.7275269610745725e+18,0.03231382742524147,-0.006651659496128559,-9.719893455505371
1.7275269610805727e+18,0.015663838014006615,0.030067868530750275,-9.709793090820312
1.7275269610865728e+18,0.007783818989992142,0.05275946483016014,-9.763193130493164
1.727526961092573e+18,-0.030503522604703903,0.030160190537571907,-9.699087142944336
1.727526961095573e+18,0.007952029816806316,0.01911330223083496,-9.65018367767334
1.727526961101573e+18,0.08813920617103577,-0.021514542400836945,-9.64880657196045
1.7275269611075732e+18,0.0076865446753799915,-0.015190070495009422,-9.749359130859375
1.7275269611135734e+18,0.028707455843687057,-0.018830852583050728,-9.812236785888672
1.7275269611195735e+18,0.006971844006329775,-0.05510464683175087,-9.69283390045166
1.7275269611225736e+18,-0.005439293570816517,0.11582502722740173,-9.674530029296875
1.7275269611285737e+18,-0.017365483567118645,0.015329156070947647,-9.723624229431152
1.7275269611345738e+18,-0.06832344830036163,0.05842820182442665,-9.74979019165039
1.727526961140574e+18,0.05320535600185394,0.058640897274017334,-9.752862930297852
1.727526961143574e+18,-0.012409346178174019,0.04987204447388649,-9.790437698364258
1.7275269611495741e+18,0.05509563162922859,0.027608660981059074,-9.830572128295898
1.7275269611555743e+18,0.002692445879802108,-0.03424737602472305,-9.749146461486816
1.7275269611615744e+18,-0.023500675335526466,-0.03402446582913399,-9.74600887298584
1.7275269611645745e+18,0.09610100835561752,-0.024272726848721504,-9.741698265075684
1.7275269611705746e+18,0.03709684684872627,0.03884117677807808,-9.723146438598633
1.7275269611765747e+18,-0.00995173305273056,-0.015102268196642399,-9.716358184814453
1.7275269611795748e+18,-0.04608337953686714,0.018545908853411674,-9.72970962524414
1.727526961185575e+18,0.07752054184675217,0.046185098588466644,-9.68075180053711
1.727526961191575e+18,-0.08394379913806915,0.0011023961706086993,-9.710806846618652
