timestamp,accel_x,accel_y,accel_z
1.729495855967173e+18,-0.0822894275188446,-0.03010990098118782,-9.953874588012695
1.7294958559761733e+18,0.061022888869047165,-0.07372409105300903,-9.778453826904297
1.7294958559851735e+18,0.06863486021757126,-0.06625974923372269,-9.792747497558594
1.7294958559941737e+18,-0.04713248088955879,-0.011009316891431808,-9.827459335327148
1.7294958560001738e+18,0.006423468701541424,0.03321390971541405,-9.80411148071289
1.729495856009174e+18,-0.08596520870923996,-0.04117552563548088,-9.737407684326172
1.7294958560151741e+18,-0.030527740716934204,0.10130637139081955,-9.787054061889648
1.7294958560241743e+18,0.057889506220817566,0.05484497547149658,-9.74640941619873
1.7294958560331745e+18,-0.040184855461120605,0.046735189855098724,-9.77894115447998
1.7294958560391747e+18,-0.07099463790655136,0.0153119545429945,-9.84017276763916
1.7294958560481748e+18,0.05250090733170509,0.06803422421216965,-9.757711410522461
1.729495856054175e+18,-0.06511610746383667,-0.020329318940639496,-9.83730411529541
1.7294958560631752e+18,0.07580218464136124,0.015069636516273022,-9.768841743469238
1.7294958560721754e+18,-0.025509625673294067,0.03693579509854317,-9.81974983215332
1.7294958560811756e+18,0.005980677902698517,-0.03155698999762535,-9.793578147888184
1.7294958560871757e+18,-0.043760232627391815,0.035152893513441086,-9.806185722351074
1.7294958560961759e+18,-0.051296722143888474,-0.017189882695674896,-9.75105094909668
1.729495856102176e+18,0.026486428454518318,0.05069921538233757,-9.797080993652344
1.7294958561111762e+18,-0.05211992934346199,0.0401003435254097,-9.814403533935547
1.7294958561171763e+18,0.08900120854377747,0.00158499286044389,-9.75475025177002
1.7294958561261765e+18,0.03228067234158516,0.0003795272496063262,-9.802165985107422
1.7294958561321766e+18,0.03352292999625206,-0.057805825024843216,-9.834637641906738
1.7294958561411768e+18,-0.04497882351279259,-0.0650278702378273,-9.869390487670898
1.729495856147177e+18,-0.060301121324300766,-0.03681645542383194,-9.841191291809082
1.7294958561561772e+18,-0.025608086958527565,-0.06077186390757561,-9.807709693908691
1.7294958561621773e+18,0.04796570539474487,-0.06372702866792679,-9.825303077697754
1.7294958561711775e+18,-0.011705287732183933,-0.013959390111267567,-9.791855812072754
1.7294958561801777e+18,0.03708488121628761,-0.006398030091077089,-9.784727096557617
1.7294958561861778e+18,-0.05435863137245178,-0.029991865158081055,-9.850391387939453
1.729495856195178e+18,0.019019901752471924,0.001174956327304244,-9.838822364807129
1.7294958562041782e+18,0.03681870177388191,-0.060965053737163544,-9.850829124450684
1.7294958562101783e+18,0.010871917940676212,0.05346764251589775,-9.835362434387207
1.7294958562191785e+18,0.010253805667161942,-0.016332263126969337,-9.824355125427246
1.7294958562281787e+18,-0.02475721389055252,0.06544208526611328,-9.760005950927734
1.7294958562341788e+18,0.036804672330617905,0.01227190624922514,-9.849164009094238
1.729495856243179e+18,-0.03955840691924095,-0.006422307807952166,-9.829042434692383
1.7294958562521792e+18,-0.0049584172666072845,-0.028351014479994774,-9.87910270690918
1.7294958562581793e+18,0.009909079410135746,0.06821887195110321,-9.802063941955566
1.7294958562671795e+18,0.066451296210289,-0.019829221069812775,-9.822896003723145
1.7294958562791798e+18,-0.0477408729493618,-0.07661601901054382,-9.805068016052246
1.72949585629118e+18,0.010559072718024254,0.0249332208186388,-9.800697326660156
1.7294958563031803e+18,0.046130988746881485,-0.04806115850806236,-9.824749946594238
1.7294958563091804e+18,-0.004966093227267265,-0.008964264765381813,-9.805140495300293
1.7294958563181806e+18,-0.005751807242631912,0.010706507600843906,-9.865699768066406
1.7294958563241807e+18,-0.08984866738319397,0.12828753888607025,-9.796639442443848
1.729495856333181e+18,-0.029497774317860603,-0.013527815230190754,-9.762600898742676
1.729495856342181e+18,-0.024679560214281082,-0.02921757474541664,-9.828839302062988
1.7294958563481812e+18,-0.05994956195354462,-0.017993731424212456,-9.789266586303711
1.7294958563571814e+18,-0.008656720630824566,-0.024708343669772148,-9.824647903442383
1.7294958563631816e+18,-0.018857760354876518,-0.0027986157219856977,-9.794346809387207
1.7294958563721818e+18,-0.0959160104393959,0.06947027891874313,-9.882562637329102
1.729495856381182e+18,-0.011856160126626492,0.05855964496731758,-9.856128692626953
1.729495856387182e+18,-0.017844023182988167,0.04192085191607475,-9.855843544006348
1.7294958563961823e+18,-0.0044249678030610085,0.03649767115712166,-9.80858039855957
1.7294958564021824e+18,0.07879775017499924,0.05649939924478531,-9.797694206237793
1.7294958564111826e+18,0.0369129404425621,0.01965467259287834,-9.797022819519043
1.7294958564201828e+18,-0.013032683171331882,0.002216728636994958,-9.830519676208496
1.729495856426183e+18,-0.023138489574193954,0.028910847380757332,-9.819137573242188
1.729495856435183e+18,0.08489451557397842,-0.019274959340691566,-9.804312705993652
1.7294958564411832e+18,-0.011845573782920837,-0.06309405714273453,-9.819082260131836
1.7294958564501834e+18,0.002480842173099518,0.008061598986387253,-9.794267654418945
1.7294958564561836e+18,-0.02649002894759178,0.023486031219363213,-9.889300346374512
1.7294958564651837e+18,0.014081981964409351,-0.10846582800149918,-9.783707618713379
1.729495856471184e+18,-0.03545772656798363,-0.05440479889512062,-9.741021156311035
1.729495856480184e+18,-0.021391890943050385,0.030793705955147743,-9.790763854980469
1.7294958564891843e+18,-0.07899033278226852,-0.03861885890364647,-9.766539573669434
1.7294958564951844e+18,0.029408900067210197,-0.04992303252220154,-9.822245597839355
1.7294958565041846e+18,0.02903541550040245,0.00842363853007555,-9.805071830749512
1.7294958565101847e+18,0.12024696916341782,0.016732167452573776,-9.899078369140625
1.7294958565161848e+18,-0.04388803243637085,-0.053923238068819046,-9.795292854309082
1.729495856525185e+18,-0.04461212083697319,0.03768539801239967,-9.835787773132324
1.7294958565341852e+18,-0.02456466667354107,-0.012620935216546059,-9.829861640930176
1.7294958565401853e+18,0.020996730774641037,0.031175309792160988,-9.83997631072998
1.7294958565491855e+18,0.03494276478886604,0.06086567044258118,-9.759257316589355
1.7294958565551857e+18,-0.05160797759890556,-0.014568551443517208,-9.8092041015625
1.7294958565641859e+18,0.03282469883561134,0.054212938994169235,-9.77580451965332
1.729495856570186e+18,0.023681683465838432,0.02611686661839485,-9.75236988067627
1.7294958565791862e+18,0.00878881011158228,-0.028849832713603973,-9.84308910369873
1.7294958565851863e+18,-0.03880838304758072,0.007961723022162914,-9.831085205078125
1.7294958565971866e+18,0.04095490649342537,-0.014339171350002289,-9.740836143493652
1.7294958566031867e+18,-0.07051392644643784,-0.041199762374162674,-9.763418197631836
1.729495856612187e+18,-0.06054914370179176,0.005435311235487461,-9.75956916809082
1.729495856621187e+18,-0.025151528418064117,0.06726279109716415,-9.796515464782715
1.7294958566331873e+18,0.059634387493133545,-0.03318712115287781,-9.798443794250488
1.7294958566421875e+18,0.01203639805316925,0.01838269829750061,-9.794001579284668
1.7294958566511877e+18,-0.030685601755976677,7.35691501176916e-05,-9.829486846923828
1.7294958566571878e+18,-0.025679314509034157,0.019167646765708923,-9.828479766845703
1.729495856666188e+18,-0.019711021333932877,-0.0007912375149317086,-9.839752197265625
1.7294958566751882e+18,-0.015460100956261158,0.03577619791030884,-9.823087692260742
1.7294958566841884e+18,-0.0023653144016861916,0.00707041472196579,-9.818359375
1.7294958566931886e+18,0.010865382850170135,-0.03829914703965187,-9.747002601623535
1.7294958567021888e+18,0.018525661900639534,-0.04885946586728096,-9.848381042480469
1.729495856708189e+18,-0.07587787508964539,-0.0191727876663208,-9.811918258666992
1.729495856717189e+18,0.05899655446410179,0.06367039680480957,-9.791705131530762
1.7294958567231892e+18,-0.04437202960252762,-0.02739015221595764,-9.764726638793945
1.7294958567321894e+18,-0.03634045645594597,-0.0035129215102642775,-9.795496940612793
1.7294958567411896e+18,0.06147662177681923,0.0419933944940567,-9.7702054977417
1.7294958567471898e+18,0.07704273611307144,-0.013227889314293861,-9.817893981933594
1.72949585675619e+18,0.02722443826496601,0.029484033584594727,-9.845372200012207
1.7294958567651901e+18,0.02934369444847107,-0.03725678473711014,-9.829886436462402
1.7294958567741903e+18,0.03000647947192192,-0.07382937520742416,-9.866120338439941
1.7294958567801905e+18,-0.07740457355976105,0.0012798808747902513,-9.799361228942871
1.7294958567891907e+18,0.031748730689287186,0.002796567976474762,-9.813455581665039
1.7294958567951908e+18,0.014056314714252949,-0.018947208300232887,-9.814101219177246
1.729495856804191e+18,-0.03534628450870514,-0.022830961272120476,-9.804617881774902
1.729495856810191e+18,0.05538822337985039,-0.04811449348926544,-9.840335845947266
1.7294958568191913e+18,-0.0009620477212592959,0.0327162891626358,-9.870828628540039
1.7294958568281915e+18,0.04112578183412552,0.06136991083621979,-9.914956092834473
1.7294958568341916e+18,0.05992640554904938,0.022877400740981102,-9.777154922485352
1.7294958568431918e+18,-0.015557467006146908,-0.0166657492518425,-9.772086143493652
1.729495856849192e+18,0.03640466183423996,0.011975163593888283,-9.869565963745117
1.7294958568581921e+18,0.02049189619719982,-0.051193393766880035,-9.825879096984863
1.7294958568671923e+18,-0.01425793394446373,0.05005713552236557,-9.815669059753418
1.7294958568731924e+18,0.031891219317913055,0.02818586863577366,-9.766935348510742
1.7294958568821926e+18,-0.07788155227899551,-0.08525462448596954,-9.79860782623291
1.7294958568881928e+18,-0.07065965235233307,0.08402334153652191,-9.777052879333496
1.729495856897193e+18,0.044797420501708984,-0.027325503528118134,-9.77514934539795
1.729495856903193e+18,0.0018041664734482765,0.005368190351873636,-9.779953956604004
1.7294958569121933e+18,0.016160354018211365,-0.037472158670425415,-9.777182579040527
1.7294958569211935e+18,0.06667009741067886,0.03233515843749046,-9.810385704040527
1.7294958569301937e+18,-0.03579007461667061,-0.10431042313575745,-9.80998706817627
1.7294958569361938e+18,-0.0387343168258667,-0.03440931439399719,-9.766716957092285
1.729495856945194e+18,0.023367416113615036,0.06871979683637619,-9.806239128112793
1.7294958569541942e+18,0.025753295049071312,0.01591375097632408,-9.76679801940918
1.7294958569631944e+18,0.007248377427458763,0.016316385939717293,-9.80010986328125
1.7294958569721946e+18,-0.07054958492517471,-0.0038042478263378143,-9.71188735961914
1.7294958569781947e+18,-0.003994746133685112,0.01543496735394001,-9.878549575805664
1.729495856987195e+18,0.043453048914670944,-0.011338240467011929,-9.776461601257324
1.729495856996195e+18,0.05620326101779938,-0.006039711646735668,-9.736330032348633
1.7294958570051953e+18,0.059558428823947906,0.046047914773225784,-9.744873046875
1.7294958570111954e+18,0.07800964266061783,-0.002496608067303896,-9.791524887084961
1.7294958570201956e+18,-0.020413359627127647,-0.07315497100353241,-9.820079803466797
1.7294958570291958e+18,-0.04334600269794464,-0.044957567006349564,-9.810345649719238
1.729495857038196e+18,-0.05121421068906784,-0.015235991217195988,-9.792027473449707
1.7294958570471962e+18,-0.001936658751219511,0.08970312774181366,-9.806306838989258
1.7294958570531963e+18,-0.06468237191438675,-0.017310481518507004,-9.777146339416504
1.7294958570621965e+18,0.00832848809659481,0.009690881706774235,-9.813063621520996
1.7294958570711967e+18,-0.033208560198545456,0.024312209337949753,-9.79305648803711
1.7294958570771968e+18,0.04316442459821701,0.0033453742507845163,-9.806632041931152
1.729495857086197e+18,0.053392164409160614,-0.05025477707386017,-9.788500785827637
1.7294958570951972e+18,-0.05680682882666588,0.030996065586805344,-9.828971862792969
1.7294958571041974e+18,-0.024892816320061684,-0.05994907021522522,-9.880844116210938
1.7294958571101975e+18,0.0030646703671664,-0.00579611212015152,-9.800701141357422
1.7294958571191977e+18,0.041416626423597336,0.02544461376965046,-9.773962020874023
1.7294958571251978e+18,0.027017885819077492,0.027764638885855675,-9.782069206237793
1.729495857134198e+18,-0.01726367138326168,0.009079408831894398,-9.772549629211426
1.7294958571431982e+18,0.047763168811798096,-0.04176831617951393,-9.771240234375
1.7294958571491983e+18,-0.0060705081559717655,0.0450589694082737,-9.820700645446777
1.7294958571581985e+18,0.004222848452627659,-0.007892973721027374,-9.890084266662598
1.7294958571671987e+18,-0.028496379032731056,-0.052252575755119324,-9.827322959899902
1.7294958571731988e+18,-0.0023419612552970648,-0.08880111575126648,-9.782636642456055
1.729495857182199e+18,0.006003559101372957,-0.053264278918504715,-9.816967964172363
1.7294958571911992e+18,0.007711343467235565,-0.02626100741326809,-9.838136672973633
1.7294958571971994e+18,-0.05037981644272804,0.043091434985399246,-9.853968620300293
1.7294958572061996e+18,0.006789133418351412,-0.013163570314645767,-9.771655082702637
1.7294958572151997e+18,-0.0767841637134552,-0.0620635449886322,-9.777007102966309
1.7294958572212e+18,-0.04305700957775116,0.006997000426054001,-9.843170166015625
1.7294958572302e+18,0.06435317546129227,-0.05321364104747772,-9.773065567016602
1.7294958572392003e+18,0.029146652668714523,-0.04018501564860344,-9.794989585876465
1.7294958572452004e+18,0.00993767473846674,0.003522807266563177,-9.84843635559082
1.7294958572542006e+18,0.02900138683617115,0.08444524556398392,-9.798452377319336
1.7294958572602007e+18,-0.04963350668549538,0.008983367122709751,-9.817261695861816
1.729495857269201e+18,0.07746802270412445,0.03886698558926582,-9.775254249572754
1.729495857275201e+18,-0.01217716559767723,-0.0417095422744751,-9.778605461120605
1.7294958572842012e+18,-0.06901820003986359,0.02967425249516964,-9.785077095031738
1.7294958572932014e+18,-0.028902897611260414,0.014249333180487156,-9.757966041564941
1.7294958572992015e+18,0.024424634873867035,-0.03017323464155197,-9.760024070739746
1.7294958573082017e+18,0.001367490622214973,-0.007270819041877985,-9.815271377563477
1.7294958573142019e+18,0.02461489476263523,-0.004024970345199108,-9.89038372039795
1.729495857323202e+18,0.0643487498164177,0.03223976492881775,-9.783944129943848
1.7294958573322022e+18,-0.06283167004585266,-0.02802758663892746,-9.73910903930664
1.7294958573382024e+18,-0.026273980736732483,0.02249208465218544,-9.745991706848145
1.7294958573472026e+18,-0.05843043699860573,0.12892398238182068,-9.787446022033691
1.7294958573532027e+18,0.012732666917145252,0.009803233668208122,-9.84695816040039
1.729495857362203e+18,0.02827799879014492,-0.027101874351501465,-9.806828498840332
1.729495857368203e+18,0.046088386327028275,-0.021376635879278183,-9.803625106811523
1.7294958573772032e+18,0.030680540949106216,0.03533262014389038,-9.820832252502441
1.7294958573862034e+18,0.0034254472702741623,-0.018646592274308205,-9.76180648803711
1.7294958573922035e+18,-0.01947776973247528,0.036553431302309036,-9.818206787109375
1.7294958574012037e+18,-0.04568914324045181,0.029319677501916885,-9.890443801879883
1.7294958574072038e+18,-0.031048325821757317,-0.015718616545200348,-9.803051948547363
1.729495857416204e+18,-0.020869651809334755,-0.06629320979118347,-9.782562255859375
1.7294958574252042e+18,0.0006533733103424311,0.02960744872689247,-9.805930137634277
1.7294958574312044e+18,-0.003868384985253215,-0.0009961273754015565,-9.75403881072998
1.7294958574402045e+18,0.019080720841884613,-0.00916703324764967,-9.899740219116211
1.7294958574462047e+18,0.10297252982854843,0.018942439928650856,-9.798169136047363
1.7294958574552049e+18,-0.05731196701526642,0.06696382164955139,-9.801669120788574
1.729495857464205e+18,-0.039699774235486984,-0.08961991965770721,-9.812067031860352
1.7294958574702052e+18,-0.046011220663785934,0.06236586719751358,-9.76601505279541
1.7294958574792054e+18,-0.06914568692445755,-0.024738749489188194,-9.833044052124023
1.7294958574852055e+18,-0.016512036323547363,-0.01776481606066227,-9.766544342041016
1.7294958574942057e+18,-0.024384504184126854,-0.058180175721645355,-9.840450286865234
1.729495857503206e+18,-0.07766450941562653,0.01508302427828312,-9.753744125366211
1.729495857509206e+18,0.056871019303798676,-0.054852694272994995,-9.789854049682617
1.7294958575182062e+18,-0.012467371299862862,-0.008312350139021873,-9.82188892364502
1.7294958575272064e+18,0.01735181361436844,0.05929754674434662,-9.788935661315918
1.7294958575332065e+18,0.061010830104351044,-0.027130767703056335,-9.83889389038086
1.7294958575422067e+18,-0.06525513529777527,-0.017795376479625702,-9.782536506652832
1.729495857551207e+18,0.04165499284863472,-0.023242423310875893,-9.826618194580078
1.729495857557207e+18,0.0666058138012886,0.0028585076797753572,-9.89804458618164
1.7294958575662072e+18,0.0542549230158329,0.05234001204371452,-9.824810981750488
1.7294958575752074e+18,-0.11268836259841919,-0.00018037170229945332,-9.811812400817871
1.7294958575812076e+18,0.007682809140533209,0.05746139958500862,-9.84644603729248
1.7294958575902077e+18,-0.012260030023753643,-0.05714273825287819,-9.896505355834961
1.7294958575962079e+18,-0.03580272197723389,-0.001573039684444666,-9.752063751220703
1.7294958576082081e+18,-0.049656666815280914,-0.00610745744779706,-9.738125801086426
1.7294958576142083e+18,0.013930389657616615,0.05808626487851143,-9.747525215148926
1.7294958576232084e+18,0.038674503564834595,0.058409254997968674,-9.777481079101562
1.7294958576322086e+18,0.046329546719789505,-0.023439770564436913,-9.777056694030762
1.7294958576412088e+18,-0.025546004995703697,-0.03328512981534004,-9.791059494018555
1.729495857647209e+18,-0.006479001138359308,0.007347623817622662,-9.791770935058594
1.7294958576622093e+18,-0.0011259042657911777,0.07046271860599518,-9.828229904174805
1.7294958576682094e+18,-0.022553417831659317,-0.10709615051746368,-9.789948463439941
1.7294958576772096e+18,0.03610105812549591,-0.010684939101338387,-9.915005683898926
1.7294958576862098e+18,0.01561481412500143,-0.0023594992235302925,-9.860880851745605
1.72949585769521e+18,0.002333186799660325,-0.015093708410859108,-9.877315521240234
1.7294958577042102e+18,0.02122228778898716,-0.004885195288807154,-9.902568817138672
1.7294958577132104e+18,-0.03990733250975609,-0.012263202108442783,-9.772168159484863
1.7294958577222106e+18,-0.0059332288801670074,-0.0024152733385562897,-9.797494888305664
1.7294958577342108e+18,-0.03680695965886116,-0.010236907750368118,-9.813926696777344
1.729495857740211e+18,-0.050825439393520355,-0.10359177738428116,-9.806795120239258
1.7294958577492111e+18,-0.011375796981155872,0.018419649451971054,-9.883095741271973
1.7294958577612114e+18,0.029781918972730637,0.06330439448356628,-9.766838073730469
1.7294958577672115e+18,-0.01044122688472271,0.037442829459905624,-9.804783821105957
1.7294958577792118e+18,-0.0377795547246933,-0.020351622253656387,-9.780406951904297
1.729495857788212e+18,-0.04207903519272804,-0.033270787447690964,-9.900236129760742
1.7294958577972122e+18,-0.04511120915412903,0.0006846427568234503,-9.858537673950195
1.7294958578032123e+18,0.04449739307165146,0.04597969725728035,-9.789412498474121
1.7294958578152125e+18,-0.007059594616293907,-0.06321801990270615,-9.812105178833008
1.7294958578242127e+18,0.01442139595746994,0.06294093281030655,-9.876957893371582
1.7294958578302129e+18,-0.07363956421613693,-0.008037739433348179,-9.746116638183594
1.729495857842213e+18,0.012645366601645947,0.028107721358537674,-9.798182487487793
1.7294958578512133e+18,-0.013078148476779461,0.020142419263720512,-9.808940887451172
1.7294958578572134e+18,-0.0449790358543396,-0.05296976864337921,-9.78000259399414
1.7294958578662136e+18,-0.050376635044813156,0.04485916346311569,-9.7489013671875
1.7294958578722138e+18,-0.01848588138818741,-0.04424360767006874,-9.824079513549805
1.729495857881214e+18,-0.006295361556112766,-0.013869416899979115,-9.769998550415039
1.7294958578902141e+18,0.03956432640552521,0.058775581419467926,-9.84607219696045
1.7294958578962143e+18,0.040450528264045715,0.05428825318813324,-9.766530990600586
1.7294958579052145e+18,-0.012046084739267826,0.02430816926062107,-9.810184478759766
1.7294958579142147e+18,0.007093499414622784,0.07038410007953644,-9.803186416625977
1.7294958579202148e+18,-0.021470271050930023,-0.018547488376498222,-9.829546928405762
1.729495857929215e+18,-0.016444023698568344,0.005991167388856411,-9.810539245605469
1.7294958579382152e+18,-0.007594541180878878,-0.026008037850260735,-9.793699264526367
1.7294958579442153e+18,-0.06779557466506958,-0.0225441362708807,-9.848867416381836
1.7294958579532155e+18,0.033752720803022385,0.07556426525115967,-9.78569507598877
1.7294958579592156e+18,-0.005715472623705864,-0.008248953148722649,-9.749229431152344
1.7294958579682158e+18,-0.004231727682054043,-0.028207605704665184,-9.830442428588867
1.729495857977216e+18,0.011152034625411034,-0.04029615595936775,-9.781811714172363
1.729495857983216e+18,0.028470847755670547,0.04433947801589966,-9.782998085021973
1.7294958579922163e+18,0.0768192932009697,-0.04805735498666763,-9.820344924926758
1.7294958580072166e+18,-0.013012529350817204,0.0340023972094059,-9.853487968444824
1.7294958580132168e+18,-0.035526253283023834,-0.01899293251335621,-9.86378288269043
1.729495858022217e+18,0.03017706423997879,-0.022777575999498367,-9.770862579345703
1.7294958580312172e+18,0.007694834377616644,-0.0023195780813694,-9.734763145446777
1.7294958580402173e+18,-0.09910458326339722,0.061067163944244385,-9.8101167678833
1.7294958580492175e+18,-0.02231188490986824,-0.0677705854177475,-9.833070755004883
1.7294958580552177e+18,-0.013484125956892967,0.04181035980582237,-9.862199783325195
1.7294958580642179e+18,0.05923234298825264,0.012203884311020374,-9.73832893371582
1.729495858073218e+18,-0.030039021745324135,-0.012996898032724857,-9.844255447387695
1.7294958580792182e+18,-0.005753832869231701,-0.0004687124746851623,-9.788833618164062
1.7294958580882184e+18,-0.05670243129134178,0.0212642140686512,-9.849234580993652
1.7294958580972186e+18,0.0620238371193409,0.002532013226300478,-9.872332572937012
1.7294958581032187e+18,0.01809951849281788,-0.01625388115644455,-9.779722213745117
1.729495858112219e+18,-0.028964679688215256,0.02165118232369423,-9.816049575805664
1.729495858121219e+18,-0.033868640661239624,-0.02481512352824211,-9.775530815124512
1.7294958581272192e+18,-0.056718651205301285,0.03488709032535553,-9.872075080871582
1.7294958581362194e+18,0.033736515790224075,0.015600364655256271,-9.784497261047363
1.7294958581422195e+18,0.024364596232771873,-0.05470262095332146,-9.788033485412598
1.7294958581512197e+18,-0.1508566290140152,-0.009036704897880554,-9.839274406433105
1.72949585816322e+18,-0.055734943598508835,0.0003885763289872557,-9.815421104431152
1.7294958581722202e+18,-0.08800841122865677,0.045720793306827545,-9.800385475158691
1.7294958581782203e+18,0.014588197693228722,0.002879150677472353,-9.825261116027832
1.7294958581872205e+18,-0.007197930011898279,-0.002113568829372525,-9.78434944152832
1.7294958581962207e+18,0.05688725411891937,-0.0003061507595703006,-9.777273178100586
1.7294958582022208e+18,-0.028701795265078545,-0.008502554148435593,-9.804498672485352
1.729495858211221e+18,-0.08540935814380646,0.00863233394920826,-9.758526802062988
1.729495858217221e+18,-0.041735801845788956,0.0013778585707768798,-9.808002471923828
1.7294958582262213e+18,-0.02393271028995514,-0.029332617297768593,-9.808479309082031
1.7294958582352215e+18,-0.04763146862387657,0.07381071150302887,-9.850349426269531
1.7294958582412216e+18,0.000436023052316159,-0.011049618013203144,-9.76395034790039
1.7294958582502218e+18,0.015528951771557331,0.010827811434864998,-9.810023307800293
1.729495858259222e+18,-0.05991619452834129,0.012241288088262081,-9.790184020996094
1.7294958582652221e+18,-0.008752340450882912,-0.0019574661273509264,-9.794778823852539
1.7294958582742223e+18,-0.060171108692884445,0.012174369767308235,-9.805337905883789
1.7294958582802225e+18,0.05474916473031044,-0.029892271384596825,-9.7287015914917
1.7294958582892227e+18,0.029714131727814674,-0.01271616481244564,-9.879362106323242
1.7294958582982228e+18,0.0032203767914325,-0.022264987230300903,-9.846000671386719
1.729495858307223e+18,-0.03876768797636032,-0.013494797982275486,-9.846619606018066
1.7294958583162232e+18,-0.0017996715614572167,0.04214752838015556,-9.824174880981445
1.7294958583222234e+18,0.10273990780115128,0.05489884316921234,-9.806381225585938
1.7294958583312236e+18,0.03134946525096893,-0.022664617747068405,-9.859818458557129
1.7294958583402237e+18,-0.054548390209674835,-0.061012208461761475,-9.903048515319824
1.729495858349224e+18,-0.05582302808761597,-0.03334156796336174,-9.867932319641113
1.729495858355224e+18,-0.0290866419672966,0.0156550295650959,-9.847013473510742
1.7294958583642243e+18,-0.049679286777973175,-0.07022122293710709,-9.844427108764648
1.7294958583732244e+18,0.036028530448675156,0.030801083892583847,-9.781203269958496
1.7294958583792246e+18,0.03091648407280445,-0.06471443176269531,-9.847491264343262
1.7294958583882248e+18,-0.006584926974028349,-0.04541889950633049,-9.792824745178223
1.729495858397225e+18,0.010765818879008293,-0.10390534996986389,-9.86577320098877
1.7294958584062252e+18,0.015314238145947456,-0.016810666769742966,-9.833832740783691
1.7294958584122253e+18,-0.04719835892319679,0.03478929027915001,-9.94794750213623
1.7294958584212255e+18,0.02665223926305771,-0.013361453078687191,-9.988946914672852
1.7294958584302257e+18,-0.10236328840255737,0.038219161331653595,-9.989704132080078
1.7294958584362258e+18,-0.006617743521928787,0.004999644123017788,-9.92272663116455
1.729495858445226e+18,-0.010816017165780067,-0.04585600644350052,-9.949579238891602
1.7294958584542262e+18,-0.027844272553920746,-0.04415296018123627,-9.971841812133789
1.7294958584632264e+18,-0.06962310522794724,-0.00015663454541936517,-10.005819320678711
1.7294958584692265e+18,-0.03015693835914135,0.025509284809231758,-10.071239471435547
1.7294958584782267e+18,0.032293472439050674,0.058875445276498795,-10.00949764251709
1.729495858487227e+18,-0.027536891400814056,-0.02816189080476761,-10.10497760772705
1.729495858496227e+18,0.06336015462875366,0.021425608545541763,-10.06589412689209
1.7294958585052273e+18,-0.05547945946455002,0.04140859469771385,-10.139958381652832
1.7294958585112274e+18,0.006659088656306267,-0.05237865820527077,-10.143168449401855
1.7294958585202276e+18,-0.021053843200206757,-0.02593725360929966,-10.066323280334473
1.7294958585292278e+18,-0.05125011131167412,-0.0226451326161623,-10.081178665161133
1.729495858538228e+18,0.057062938809394836,-0.045081574469804764,-10.299777030944824
1.7294958585472282e+18,0.05414871126413345,-0.03525766730308533,-10.466235160827637
1.7294958585562284e+18,-0.02767525054514408,0.01827148348093033,-10.486872673034668
1.7294958585652285e+18,0.014580866321921349,-0.05272340029478073,-10.56971549987793
1.7294958585712287e+18,0.036072954535484314,-0.009955284185707569,-10.501947402954102
1.7294958585802289e+18,-0.027123725041747093,-0.055405113846063614,-10.527408599853516
1.729495858589229e+18,-0.04930049180984497,-0.014540208503603935,-10.468003273010254
1.7294958585982292e+18,0.04208606481552124,-0.034385137259960175,-10.511921882629395
1.7294958586042294e+18,0.004249235149472952,-0.019984984770417213,-10.481099128723145
1.7294958586132296e+18,-0.00827509630471468,-0.04993138089776039,-10.515689849853516
1.7294958586222298e+18,-0.027890939265489578,-0.009738607332110405,-10.559812545776367
1.72949585862823e+18,-0.027423826977610588,-0.011201000772416592,-10.574586868286133
1.72949585863723e+18,0.0037999884225428104,0.0026300151366740465,-10.57333755493164
1.7294958586462303e+18,-0.037363216280937195,0.03465697541832924,-10.530742645263672
1.7294958586552305e+18,-0.04741622507572174,0.03475978597998619,-10.469433784484863
1.7294958586612306e+18,0.007647532969713211,-0.08786627650260925,-10.499101638793945
1.7294958586702308e+18,-0.03718672692775726,0.0429258719086647,-10.53744125366211
1.729495858679231e+18,-0.06877575069665909,0.03274690732359886,-10.526076316833496
1.729495858685231e+18,-0.045585762709379196,0.036567799746990204,-10.574837684631348
1.7294958586942313e+18,-0.090604767203331,0.010990732349455357,-10.62363338470459
1.7294958587032315e+18,-0.0028453930281102657,-0.10283057391643524,-10.520744323730469
1.7294958587122317e+18,-0.11760838329792023,-0.08345133811235428,-10.561452865600586
1.729495858721232e+18,0.0150441350415349,0.11912938207387924,-10.544722557067871
1.729495858730232e+18,0.032558441162109375,0.015579065307974815,-10.62594223022461
1.7294958587392323e+18,0.044175587594509125,-0.016041619703173637,-10.633929252624512
1.7294958587452324e+18,0.029614022001624107,-0.00860362034291029,-10.600970268249512
1.7294958587542326e+18,-0.009554832242429256,-0.02499099262058735,-10.65971851348877
1.7294958587632328e+18,0.024371931329369545,-0.03530924394726753,-10.552706718444824
1.729495858772233e+18,-0.002276961226016283,-0.07542510330677032,-10.548736572265625
1.7294958587812332e+18,-0.12722380459308624,0.06645030528306961,-10.596646308898926
1.7294958587872333e+18,0.04496001452207565,0.05778486281633377,-10.658610343933105
1.7294958587962335e+18,0.027276495471596718,0.03870348259806633,-10.549044609069824
1.7294958588052337e+18,-0.026423737406730652,0.06208944320678711,-10.545351028442383
1.7294958588112338e+18,-0.001428551971912384,0.03107442520558834,-10.5670166015625
1.729495858820234e+18,-0.03937998041510582,-0.04379143938422203,-10.629758834838867
1.7294958588292342e+18,-0.07665404677391052,0.029072018340229988,-10.615081787109375
1.7294958588352343e+18,0.03953797370195389,-0.06282241642475128,-10.538812637329102
1.7294958588442345e+18,0.07727746665477753,0.03243475407361984,-10.575685501098633
1.7294958588502346e+18,-0.01603107713162899,-0.0005091872299090028,-10.600120544433594
1.7294958588592348e+18,0.011803821660578251,0.0003349287435412407,-10.546113014221191
1.729495858868235e+18,0.017976904287934303,0.04815543070435524,-10.516463279724121
1.7294958588742351e+18,-0.011002282612025738,-0.03374743461608887,-10.596048355102539
1.7294958588832353e+18,-0.021562930196523666,-0.04333823546767235,-10.689617156982422
1.7294958588892355e+18,-0.026777420192956924,-0.10395149141550064,-10.605217933654785
1.7294958588982356e+18,0.051643189042806625,0.03052017092704773,-10.605452537536621
1.7294958589072358e+18,-0.0009094403358176351,-0.001873480505309999,-10.614802360534668
1.729495858913236e+18,-0.008466995321214199,-0.03922880440950394,-10.566535949707031
1.7294958589222362e+18,0.004178442992269993,-0.004827427212148905,-10.547442436218262
1.7294958589312364e+18,0.03881751745939255,-0.017382167279720306,-10.577470779418945
1.7294958589372365e+18,-0.010605407878756523,-0.006929431576281786,-10.560487747192383
1.7294958589462367e+18,0.039607204496860504,-0.022864820435643196,-10.609880447387695
1.7294958589522368e+18,-0.04731006175279617,0.06322292983531952,-10.640876770019531
1.729495858961237e+18,0.027996761724352837,-0.007451323792338371,-10.637297630310059
1.729495858967237e+18,-0.024063903838396072,0.03976379707455635,-10.599836349487305
1.7294958589762373e+18,-0.05017196387052536,-0.06983798742294312,-10.586711883544922
1.7294958589852375e+18,-0.016380293294787407,-0.12115348875522614,-10.58505630493164
1.7294958589942377e+18,-0.002871042350307107,0.027849849313497543,-10.598480224609375
1.7294958590002378e+18,0.02942371368408203,0.055304959416389465,-10.570279121398926
1.729495859009238e+18,-0.01072667259722948,0.024502407759428024,-10.668082237243652
1.7294958590182382e+18,0.0724756196141243,0.13331283628940582,-10.61939811706543
1.7294958590242383e+18,-0.03767961636185646,-0.060578517615795135,-10.616040229797363
1.7294958590452388e+18,-0.032394178211688995,-0.0769849568605423,-10.54683780670166
1.729495859057239e+18,0.0187284704297781,-0.022033823654055595,-10.621856689453125
1.7294958590662392e+18,0.060531772673130035,-0.024010369554162025,-10.628857612609863
1.7294958590752394e+18,-0.046289749443531036,0.013594843447208405,-10.58258056640625
1.7294958590842396e+18,-0.020830677822232246,-0.06456398963928223,-10.558416366577148
1.7294958590932398e+18,-0.037363555282354355,0.019137458875775337,-10.576506614685059
1.72949585910224e+18,0.008298831060528755,0.025488391518592834,-10.57756519317627
1.7294958591112402e+18,0.02498611807823181,-0.05287322774529457,-10.515713691711426
1.7294958591172403e+18,-0.0027747477870434523,-0.0018013437511399388,-10.613380432128906
1.7294958591262405e+18,0.06790570169687271,-0.02484492026269436,-10.603752136230469
1.7294958591352407e+18,-0.0032649498898535967,0.0379202626645565,-10.636162757873535
1.7294958591412408e+18,-0.06592676043510437,0.041755300015211105,-10.679802894592285
1.729495859150241e+18,-0.011191993951797485,-0.010622015222907066,-10.67357349395752
1.7294958591592412e+18,0.07300466299057007,-0.010428004898130894,-10.632925987243652
1.7294958591652413e+18,-0.08614663779735565,0.013532327488064766,-10.549262046813965
1.7294958591742415e+18,-0.005442061927169561,0.013686529360711575,-10.650217056274414
1.7294958591832417e+18,-0.03812654688954353,0.00697167357429862,-10.533370971679688
1.7294958591892419e+18,-0.016043322160840034,-0.05297787860035896,-10.654237747192383
1.729495859198242e+18,-0.024257631972432137,-0.031507521867752075,-10.574459075927734
1.7294958592072422e+18,-0.037011828273534775,0.025332242250442505,-10.664225578308105
1.7294958592162424e+18,0.009014819748699665,0.028393829241394997,-10.545949935913086
1.7294958592222426e+18,-0.04156600311398506,0.07609883695840836,-10.549084663391113
1.7294958592312428e+18,-0.009191932156682014,0.01986420527100563,-10.63984489440918
1.729495859240243e+18,0.08416543155908585,0.026704201474785805,-10.672889709472656
1.7294958592492431e+18,0.00838502123951912,0.008272499777376652,-10.589037895202637
1.7294958592582433e+18,-0.032926782965660095,0.018416419625282288,-10.533584594726562
1.7294958592672435e+18,-0.0248066745698452,0.06386176496744156,-10.600231170654297
1.7294958592732436e+18,0.02124423161149025,-0.04088056460022926,-10.51270580291748
1.7294958592822438e+18,0.027576139196753502,-0.028147801756858826,-10.717191696166992
1.729495859291244e+18,-0.07400327920913696,0.04470384120941162,-10.616647720336914
1.7294958593002442e+18,0.05704102665185928,-0.002981046913191676,-10.594261169433594
1.7294958593092444e+18,-0.06405207514762878,0.0073624178767204285,-10.596524238586426
1.7294958593182446e+18,0.06431436538696289,0.05336884781718254,-10.656017303466797
1.7294958593272448e+18,0.04536336287856102,-0.08310810476541519,-10.656947135925293
1.729495859333245e+18,-0.007656657602638006,-0.10887353867292404,-10.651581764221191
1.729495859342245e+18,-0.02952280081808567,0.0030188383534550667,-10.569917678833008
1.7294958593512453e+18,0.05287095904350281,-0.017151931300759315,-10.57632064819336
1.7294958593572454e+18,0.010038495995104313,0.01690639555454254,-10.497564315795898
1.7294958593662456e+18,-0.02294163592159748,-0.03750225901603699,-10.562957763671875
1.7294958593752458e+18,-0.040828634053468704,0.04456916078925133,-10.534751892089844
1.729495859384246e+18,-0.051174815744161606,0.012784305028617382,-10.656720161437988
1.7294958593902461e+18,-0.02131948061287403,0.007093445397913456,-10.537298202514648
1.7294958593992463e+18,0.05957728996872902,-0.037357356399297714,-10.543971061706543
1.7294958594082465e+18,-0.028713250532746315,-0.02815166488289833,-10.674020767211914
1.7294958594172467e+18,-0.06420353055000305,0.02690550871193409,-10.610257148742676
1.7294958594232468e+18,-0.037769630551338196,-0.03070724382996559,-10.53730583190918
1.729495859432247e+18,0.04694578796625137,-0.01586446724832058,-10.553201675415039
1.7294958594382472e+18,0.05369837209582329,0.021027330309152603,-10.58505630493164
1.7294958594472474e+18,-0.011594289913773537,-0.047581855207681656,-10.571324348449707
1.7294958594562476e+18,0.027544107288122177,-0.02156536467373371,-10.584366798400879
1.7294958594652477e+18,0.0029232308734208345,0.010076725855469704,-10.5408296585083
1.729495859471248e+18,-0.0403897762298584,0.0208707507699728,-10.584146499633789
1.729495859480248e+18,-0.04564054310321808,-0.007575996685773134,-10.629923820495605
1.7294958594862482e+18,0.0665544718503952,-0.017992829903960228,-10.636706352233887
1.7294958594952484e+18,0.06131284311413765,-0.020039282739162445,-10.550721168518066
1.7294958595042486e+18,-0.014079755172133446,0.02003876492381096,-10.631966590881348
1.7294958595102487e+18,-0.07972545176744461,0.06394283473491669,-10.539205551147461
1.729495859519249e+18,0.03110376186668873,0.042068906128406525,-10.634018898010254
1.729495859528249e+18,-0.01870151422917843,0.07285137474536896,-10.583671569824219
1.7294958595342492e+18,-0.0006373453070409596,-0.030706390738487244,-10.517617225646973
1.7294958595432494e+18,-0.05274399369955063,0.0364900566637516,-10.592265129089355
1.7294958595492495e+18,-0.06381575018167496,0.025137437507510185,-10.525994300842285
1.7294958595612498e+18,-0.06762078404426575,0.08131257444620132,-10.56735610961914
1.72949585956725e+18,0.05195454880595207,-0.018390534445643425,-10.676263809204102
1.72949585957625e+18,0.015003533102571964,0.01990554854273796,-10.553268432617188
1.7294958595852503e+18,-0.09270709753036499,-0.07650498300790787,-10.575346946716309
1.7294958595942505e+18,-0.05651511251926422,0.052660003304481506,-10.495609283447266
1.7294958596002506e+18,-0.04689999297261238,0.009267201647162437,-10.501143455505371
1.7294958596092508e+18,-0.049864888191223145,-0.056988488882780075,-10.615389823913574
1.729495859618251e+18,0.06850618124008179,-0.03224826976656914,-10.563541412353516
1.7294958596272512e+18,0.00663331151008606,-0.0016679656691849232,-10.63696575164795
1.7294958596332513e+18,0.008734419010579586,-0.06453405320644379,-10.586653709411621
1.7294958596422515e+18,-0.0003954244893975556,0.018322691321372986,-10.542435646057129
1.7294958596482516e+18,-0.024383889511227608,0.017745183780789375,-10.693778038024902
1.7294958596572518e+18,0.020068958401679993,0.013420808129012585,-10.501542091369629
1.729495859663252e+18,0.009437636472284794,-0.012276706285774708,-10.59626579284668
1.7294958596722522e+18,-0.023035481572151184,-0.041733335703611374,-10.553640365600586
1.7294958596812524e+18,-0.07737190276384354,-0.06507116556167603,-10.586602210998535
1.7294958596872525e+18,0.014850936830043793,0.04770283401012421,-10.519049644470215
1.7294958596962527e+18,-0.020538553595542908,0.015393615700304508,-10.5104398727417
1.7294958597052529e+18,-0.0202183797955513,-0.10263432562351227,-10.498930931091309
1.729495859714253e+18,0.01839461550116539,-0.029906898736953735,-10.50033187866211
1.7294958597202532e+18,-0.0586053691804409,-0.0651806890964508,-10.568944931030273
1.7294958597292534e+18,0.004879475571215153,0.011665874160826206,-10.509064674377441
1.7294958597352535e+18,-0.05253937095403671,0.006452993489801884,-10.600807189941406
1.7294958597442537e+18,-0.004361027851700783,0.02580072358250618,-10.538576126098633
1.729495859753254e+18,0.018361737951636314,0.02858169749379158,-10.50167179107666
1.729495859759254e+18,-0.04623711109161377,0.001923884148709476,-10.59750747680664
1.7294958597682542e+18,-0.01723247952759266,0.0375208705663681,-10.594086647033691
1.7294958597772544e+18,0.004848900251090527,0.035675015300512314,-10.579170227050781
1.7294958597832545e+18,0.034062717109918594,0.04430147632956505,-10.537590026855469
1.7294958597922547e+18,-0.04071300849318504,-0.027947381138801575,-10.5357027053833
1.7294958597982548e+18,-0.0008326460374519229,0.03271982818841934,-10.558915138244629
1.729495859807255e+18,-0.022839484736323357,0.03617549687623978,-10.483766555786133
1.7294958598192553e+18,-0.035756029188632965,0.052153330296278,-10.516661643981934
1.7294958598252554e+18,0.008462011814117432,-0.035401441156864166,-10.565897941589355
1.7294958598342556e+18,0.050563715398311615,-0.05984032154083252,-10.412928581237793
1.7294958598432558e+18,0.04637417569756508,-0.010467018000781536,-10.43343448638916
1.729495859852256e+18,0.0027611814439296722,-0.012198373675346375,-10.50163745880127
1.7294958598582561e+18,0.021889157593250275,-0.033909548074007034,-10.420587539672852
1.7294958598672563e+18,0.038835301995277405,0.03260108083486557,-10.365826606750488
1.7294958598732564e+18,0.04039838910102844,-0.0017365601379424334,-10.354781150817871
1.7294958598822566e+18,-0.008632182143628597,0.0352691188454628,-10.291128158569336
1.7294958598912568e+18,0.08422638475894928,0.042256731539964676,-10.358956336975098
1.729495859897257e+18,-0.002376103075221181,-0.02790517546236515,-10.252492904663086
1.7294958599062572e+18,-0.0028221087995916605,0.04137077182531357,-10.297520637512207
1.7294958599152573e+18,-0.03570832684636116,0.042381979525089264,-10.18430233001709
1.7294958599212575e+18,0.04233606904745102,-0.01113196648657322,-10.232897758483887
1.7294958599302577e+18,-0.04251320660114288,0.0859217718243599,-10.104816436767578
1.7294958599362578e+18,-0.02728131227195263,0.0881255641579628,-10.187871932983398
1.729495859945258e+18,0.020207103341817856,-0.030003303661942482,-10.127202987670898
1.7294958599542582e+18,-0.02838716097176075,-0.0754183828830719,-10.073899269104004
1.7294958599602583e+18,0.0031748968176543713,-0.047945618629455566,-10.099138259887695
1.7294958599692585e+18,-0.00198767171241343,-0.034770458936691284,-9.919641494750977
1.7294958599752586e+18,-0.033754874020814896,0.02629130706191063,-10.024287223815918
1.7294958599842588e+18,-0.03233622759580612,-0.007675135973840952,-9.987953186035156
1.729495859993259e+18,0.007891898974776268,-0.033470962196588516,-10.009961128234863
1.7294958600052593e+18,0.03634786605834961,0.04073365777730942,-9.959190368652344
1.7294958600142595e+18,0.012717465870082378,-0.06269232928752899,-9.894296646118164
1.7294958600202596e+18,0.03684765473008156,0.045854367315769196,-9.972111701965332
1.7294958600292598e+18,0.1007867306470871,-0.01211684662848711,-9.874523162841797
1.72949586003826e+18,0.07542144507169724,0.03716428205370903,-9.820901870727539
1.72949586004426e+18,0.04131709039211273,-0.0038535555358976126,-9.810381889343262
1.7294958600532603e+18,0.0057977959513664246,-0.02347087301313877,-9.765387535095215
1.7294958600592604e+18,0.01366854552179575,-0.024694744497537613,-9.731536865234375
1.7294958600682606e+18,0.03744693472981453,-0.04087917506694794,-9.747335433959961
1.7294958600772608e+18,0.01640830561518669,-0.07149339467287064,-9.779033660888672
1.729495860086261e+18,0.03465152531862259,-0.023639708757400513,-9.763778686523438
1.729495860092261e+18,0.058171968907117844,0.045929454267024994,-9.681917190551758
1.7294958601012613e+18,0.005468419753015041,0.038799162954092026,-9.731986045837402
1.7294958601072614e+18,0.054249465465545654,0.03542249649763107,-9.703741073608398
1.7294958601162616e+18,-0.042366255074739456,-0.05570603162050247,-9.70103931427002
1.7294958601252618e+18,0.058176010847091675,-0.06966913491487503,-9.679266929626465
1.729495860131262e+18,-0.04391892999410629,0.0019469477701932192,-9.614538192749023
1.7294958601402621e+18,0.05947786569595337,0.04996836930513382,-9.635672569274902
1.7294958601462623e+18,0.045763853937387466,0.024283094331622124,-9.628417015075684
1.7294958601552625e+18,-0.014740699902176857,-0.05062578245997429,-9.706825256347656
1.7294958601642627e+18,0.06326568126678467,-0.022768916562199593,-9.719161987304688
1.7294958601702628e+18,-0.014576774090528488,-0.05266393721103668,-9.70751667022705
1.729495860179263e+18,0.029804252088069916,-0.042982861399650574,-9.605748176574707
1.729495860185263e+18,0.059424132108688354,0.002507002092897892,-9.652348518371582
1.7294958601942633e+18,0.049706559628248215,-0.022031676024198532,-9.626943588256836
1.7294958602032635e+18,-0.1092313900589943,0.0691303238272667,-9.704739570617676
1.7294958602092636e+18,-0.012712078168988228,-0.02032804675400257,-9.676971435546875
1.7294958602182638e+18,0.10365185886621475,-0.03341007977724075,-9.740761756896973
1.729495860224264e+18,0.0446222759783268,-0.04273629188537598,-9.728846549987793
1.729495860233264e+18,0.018633117899298668,0.009943986311554909,-9.651183128356934
1.7294958602392643e+18,-0.060943953692913055,0.10699740797281265,-9.662694931030273
1.7294958602482644e+18,-0.0333145447075367,0.059254419058561325,-9.628870964050293
1.7294958602572646e+18,-0.022360509261488914,0.027832401916384697,-9.67135238647461
1.7294958602632648e+18,0.034498583525419235,0.0347398966550827,-9.591495513916016
1.729495860272265e+18,0.002962373197078705,-0.005079726688563824,-9.650856971740723
1.7294958602812652e+18,-0.020394342020154,-0.06263341009616852,-9.695731163024902
1.7294958602872653e+18,-0.05124251917004585,-0.01017795316874981,-9.64879322052002
1.7294958602962655e+18,-0.017370926216244698,0.04474771395325661,-9.660614967346191
1.7294958603112658e+18,0.034602951258420944,0.03088710457086563,-9.674908638000488
1.729495860317266e+18,0.06072443723678589,-0.03610267490148544,-9.64918041229248
1.729495860326266e+18,-0.025702722370624542,-0.015967916697263718,-9.651577949523926
1.7294958603352663e+18,-0.08635091781616211,0.021501151844859123,-9.623990058898926
1.7294958603412664e+18,-0.09532027691602707,-0.020546192303299904,-9.72560977935791
1.7294958603502666e+18,0.09162979573011398,0.05239393562078476,-9.708438873291016
1.7294958603562668e+18,0.018594559282064438,0.003812306560575962,-9.61788272857666
1.729495860365267e+18,-0.02178955264389515,-0.029030591249465942,-9.627117156982422
1.729495860371267e+18,0.023424750193953514,-0.026616951450705528,-9.643237113952637
1.7294958603802673e+18,0.014009797014296055,0.01679801009595394,-9.658984184265137
1.7294958603862674e+18,-0.01616492122411728,0.04531678929924965,-9.675002098083496
1.7294958603952676e+18,-0.009701574221253395,0.050358302891254425,-9.58686637878418
1.7294958604042678e+18,-0.051716409623622894,-0.09790093451738358,-9.73223876953125
1.729495860410268e+18,-0.0021664067171514034,0.053719084709882736,-9.65018367767334
1.729495860419268e+18,-0.02786615863442421,0.04065670818090439,-9.566629409790039
1.7294958604252682e+18,0.054145440459251404,0.011661466211080551,-9.665987968444824
1.7294958604342684e+18,0.014010288752615452,0.05362199619412422,-9.667481422424316
1.7294958604432686e+18,-0.01887231133878231,0.032106854021549225,-9.63296890258789
1.7294958604492687e+18,0.07482997328042984,-0.022723345085978508,-9.685133934020996
1.729495860458269e+18,0.0037824707105755806,0.06538166850805283,-9.67630386352539
1.729495860467269e+18,0.025599302724003792,-0.001239581499248743,-9.660655975341797
1.7294958604732692e+18,-0.015057620592415333,0.050148673355579376,-9.563165664672852
1.7294958604822694e+18,0.07130279392004013,-0.030365675687789917,-9.5582275390625
1.7294958604912696e+18,0.054637372493743896,0.06306202709674835,-9.595100402832031
1.7294958604972698e+18,0.08213251829147339,-0.035180140286684036,-9.596433639526367
1.72949586050627e+18,0.036526892334222794,-0.036433979868888855,-9.658489227294922
1.7294958605152701e+18,-0.08303377032279968,0.054261595010757446,-9.656538009643555
1.7294958605212703e+18,-0.005676227156072855,-0.03836570307612419,-9.596772193908691
1.7294958605332705e+18,-0.0692894458770752,0.05823027342557907,-9.698285102844238
1.7294958605392707e+18,0.05236046388745308,-0.03205922245979309,-9.547566413879395
1.7294958605482708e+18,0.01563776284456253,-0.017256366088986397,-9.61368179321289
1.729495860557271e+18,-0.03414858877658844,0.014088812284171581,-9.681705474853516
1.7294958605632712e+18,0.06577827781438828,-0.11560505628585815,-9.573373794555664
1.7294958605722714e+18,0.06936373561620712,0.022653646767139435,-9.647483825683594
1.7294958605782715e+18,0.017068149521946907,-0.052367594093084335,-9.59792709350586
1.7294958605872717e+18,-0.02686528116464615,0.0241224505007267,-9.747076034545898
1.7294958605962719e+18,-0.019420022144913673,0.011902319267392159,-9.55200481414795
1.729495860602272e+18,-0.0066564916633069515,0.04366358369588852,-9.59756088256836
1.7294958606112722e+18,0.06319604068994522,-0.033313777297735214,-9.617708206176758
1.7294958606202724e+18,0.029090745374560356,0.013266009278595448,-9.599295616149902
1.7294958606262725e+18,0.003964024595916271,0.004487156867980957,-9.493922233581543
1.7294958606352727e+18,-0.08472761511802673,-0.04238785803318024,-9.498886108398438
1.7294958606412728e+18,-0.009314256720244884,0.06941871345043182,-9.590267181396484
1.729495860650273e+18,0.039029575884342194,-0.03683258220553398,-9.625481605529785
1.7294958606592732e+18,-0.040993038564920425,-0.005044529214501381,-9.53360366821289
1.7294958606652733e+18,-0.018313048407435417,-0.010113461874425411,-9.50467586517334
1.7294958606742735e+18,0.02463698387145996,0.03433745726943016,-9.58869743347168
1.7294958606802737e+18,-0.015402551740407944,-0.07301494479179382,-9.5150146484375
1.7294958606892739e+18,0.010045832023024559,0.03500842675566673,-9.610359191894531
1.729495860698274e+18,0.03421527519822121,-0.03235575929284096,-9.570413589477539
1.7294958607072742e+18,0.021664520725607872,0.03259973227977753,-9.632699966430664
1.7294958607132744e+18,0.015822043642401695,-0.0026083323173224926,-9.585301399230957
1.7294958607222746e+18,-0.020939527079463005,-0.015540014952421188,-9.531285285949707
1.7294958607312748e+18,0.03495871648192406,-0.013122976757586002,-9.582076072692871
1.729495860737275e+18,0.007974782027304173,-0.08807984739542007,-9.550609588623047
1.729495860746275e+18,0.007765497080981731,-0.06845056265592575,-9.591194152832031
1.7294958607522752e+18,-0.043135855346918106,0.024647725746035576,-9.563403129577637
1.7294958607612754e+18,-0.0762169286608696,-0.0070746662095189095,-9.558606147766113
1.7294958607702756e+18,0.008007601834833622,-0.01063340250402689,-9.566274642944336
1.7294958607762757e+18,0.03261130675673485,-0.09905648231506348,-9.541459083557129
1.729495860785276e+18,-0.018677538260817528,0.029786232858896255,-9.55367660522461
1.729495860794276e+18,0.009107673540711403,-0.04472438246011734,-9.521528244018555
1.7294958608002762e+18,-0.011936621740460396,-0.08401200920343399,-9.46419906616211
1.7294958608152765e+18,-0.0403420515358448,-0.030362028628587723,-9.475459098815918
1.7294958608242767e+18,0.0070655858144164085,-0.06770429015159607,-9.537823677062988
1.729495860833277e+18,-0.02873712033033371,-0.03377555310726166,-9.50889778137207
1.729495860839277e+18,-0.029395174235105515,0.1077238917350769,-9.531231880187988
1.7294958608482772e+18,0.04759829863905907,-0.030251778662204742,-9.57509994506836
1.7294958608542774e+18,-0.025821944698691368,0.08159926533699036,-9.61542797088623
1.7294958608632776e+18,-0.06996608525514603,-0.08393130451440811,-9.556262016296387
1.7294958608722778e+18,-0.06752658635377884,-0.06741420924663544,-9.536352157592773
1.729495860878278e+18,0.02022191509604454,0.026276299729943275,-9.498526573181152
1.729495860887278e+18,-0.011817802675068378,-0.0491098091006279,-9.532891273498535
1.7294958608932782e+18,-0.04309463873505592,0.08979643881320953,-9.573257446289062
1.7294958609022784e+18,0.035332463681697845,0.043584663420915604,-9.526891708374023
1.7294958609112786e+18,-0.0256644394248724,0.016636181622743607,-9.471348762512207
1.7294958609172787e+18,-0.03009544126689434,0.07573337852954865,-9.55756664276123
1.729495860926279e+18,0.043997135013341904,-0.04789113625884056,-9.466979026794434
1.729495860935279e+18,0.038571879267692566,0.0022377565037459135,-9.52487564086914
1.7294958609472794e+18,0.070497065782547,-0.011526351794600487,-9.548541069030762
1.7294958609562796e+18,0.03383207693696022,0.007554639130830765,-9.484089851379395
1.7294958609652797e+18,0.020047280937433243,0.03056519478559494,-9.594286918640137
1.72949586097428e+18,0.014306235127151012,0.01375447679311037,-9.474729537963867
1.72949586098028e+18,0.035363588482141495,0.09718449413776398,-9.507278442382812
1.7294958609892803e+18,-0.017315272241830826,0.05757781118154526,-9.424485206604004
1.7294958609952804e+18,0.038882777094841,0.062449779361486435,-9.542885780334473
1.7294958610042806e+18,0.01637537218630314,-0.012608135119080544,-9.526079177856445
1.7294958610132808e+18,-0.037917736917734146,-0.009618440642952919,-9.513826370239258
1.729495861019281e+18,0.02282608114182949,0.006409088149666786,-9.553832054138184
1.729495861028281e+18,0.05674479529261589,0.04837051033973694,-9.484619140625
1.7294958610342812e+18,-0.06576529890298843,0.014310896396636963,-9.543852806091309
1.7294958610432814e+18,-0.006991270929574966,0.00039536264375783503,-9.377845764160156
1.7294958610492815e+18,-0.008602061308920383,-0.008568651042878628,-9.528722763061523
1.7294958610582817e+18,-0.046252477914094925,0.06195053085684776,-9.460987091064453
1.729495861067282e+18,0.024725545197725296,0.030842365697026253,-9.46088981628418
1.729495861073282e+18,0.003419187618419528,-0.013188078068196774,-9.545369148254395
1.7294958610822822e+18,0.05042440816760063,-0.043517276644706726,-9.428954124450684
1.7294958610882824e+18,0.07081739604473114,0.07117486000061035,-9.475336074829102
1.7294958610972826e+18,0.02841183729469776,-0.037178508937358856,-9.594854354858398
1.7294958611062828e+18,0.06683410704135895,-0.009353917092084885,-9.435857772827148
1.729495861112283e+18,0.004894932731986046,-0.015694638714194298,-9.398941993713379
1.729495861121283e+18,-0.0051492443308234215,0.022518234327435493,-9.546891212463379
1.7294958611302833e+18,-0.017135905101895332,-0.02797177992761135,-9.573450088500977
1.7294958611392835e+18,-0.04766319692134857,-0.020382847636938095,-9.494355201721191
1.7294958611452836e+18,0.09409503638744354,-0.06394103169441223,-9.499963760375977
1.7294958611542838e+18,0.010257561691105366,0.0021105888299643993,-9.432398796081543
1.729495861160284e+18,-0.12750178575515747,-0.027526110410690308,-9.535304069519043
1.729495861169284e+18,0.07267672568559647,-0.02124921977519989,-9.44128704071045
1.7294958611812844e+18,-0.028467418625950813,-0.010372932069003582,-9.509493827819824
1.7294958611872845e+18,-0.04295726120471954,-0.011044178158044815,-9.396897315979004
1.7294958611962847e+18,0.017558332532644272,-0.02266279235482216,-9.526122093200684
1.7294958612022848e+18,-0.002112253801897168,0.0035428765695542097,-9.560803413391113
1.729495861211285e+18,0.027426976710557938,0.0912344828248024,-9.416579246520996
1.7294958612202852e+18,-0.0006228969432413578,-0.02399851195514202,-9.423248291015625
1.7294958612262853e+18,-0.010535940527915955,-0.035477250814437866,-9.503846168518066
1.7294958612352855e+18,0.009772595018148422,0.002881422871723771,-9.478004455566406
1.7294958612442857e+18,-0.011801925487816334,-0.029124172404408455,-9.445765495300293
1.729495861253286e+18,-0.026998745277523994,-0.03061935119330883,-9.438458442687988
1.729495861259286e+18,0.04344237968325615,0.02540004253387451,-9.423323631286621
1.7294958612682862e+18,0.03704711049795151,0.027161460369825363,-9.432860374450684
1.7294958612742863e+18,-0.04713427647948265,0.08503738045692444,-9.464773178100586
1.7294958612832865e+18,-0.1280244141817093,-0.03677523881196976,-9.475485801696777
1.7294958612922867e+18,-0.012328043580055237,-0.035707905888557434,-9.441173553466797
1.7294958612982868e+18,0.0735427737236023,-0.004295583348721266,-9.35155963897705
1.729495861307287e+18,0.001131608383730054,0.01811019331216812,-9.496642112731934
1.7294958613162872e+18,0.001600121147930622,0.016627397388219833,-9.513123512268066
1.7294958613222874e+18,-0.006586823146790266,-0.03988806903362274,-9.47153377532959
1.7294958613312876e+18,-0.009861532598733902,0.01620434783399105,-9.549467086791992
1.7294958613372877e+18,0.0013539557112380862,0.03146035224199295,-9.456294059753418
1.7294958613462879e+18,0.027994422242045403,0.034932494163513184,-9.37590217590332
1.729495861355288e+18,0.020190026611089706,-0.017237618565559387,-9.422890663146973
1.7294958613612882e+18,-0.0014443113468587399,0.03046768344938755,-9.374029159545898
1.7294958613702884e+18,0.005306442268192768,-0.015927249565720558,-9.44577407836914
1.7294958613792886e+18,0.021308008581399918,0.07208914309740067,-9.522969245910645
1.7294958613852887e+18,0.03420162945985794,-0.05481771379709244,-9.373451232910156
1.729495861394289e+18,0.010274993255734444,0.020922066643834114,-9.501744270324707
1.729495861403289e+18,-0.03514464199542999,-0.07246951013803482,-9.455781936645508
1.7294958614092892e+18,0.03488998860120773,-0.06210957467556,-9.420877456665039
1.7294958614182894e+18,-0.0024768169969320297,0.01798039861023426,-9.438371658325195
1.7294958614242895e+18,0.024235039949417114,-0.01118741650134325,-9.410619735717773
1.7294958614332897e+18,-0.020806625485420227,0.011015309952199459,-9.439794540405273
1.72949586144229e+18,0.03695245832204819,0.030825315043330193,-9.450389862060547
1.72949586144829e+18,0.0490216389298439,-0.012292933650314808,-9.382647514343262
1.7294958614572902e+18,0.04594874754548073,0.04628753289580345,-9.450761795043945
1.7294958614662904e+18,-0.007391680032014847,-0.04946128651499748,-9.431360244750977
1.7294958614752906e+18,0.05039098858833313,-0.05088786408305168,-9.373773574829102
1.7294958614812908e+18,-0.04465625062584877,0.0362454317510128,-9.443158149719238
1.729495861490291e+18,0.03754406049847603,-0.03917979821562767,-9.417226791381836
1.729495861496291e+18,-0.0725066065788269,-0.06939727813005447,-9.406951904296875
1.7294958615052913e+18,-0.013829336501657963,-0.05606403946876526,-9.511906623840332
1.7294958615112914e+18,0.005096979904919863,0.1143011525273323,-9.475118637084961
1.7294958615202916e+18,0.027820050716400146,-0.015449454076588154,-9.435290336608887
1.7294958615262917e+18,0.0780336782336235,-0.007422932889312506,-9.443020820617676
1.729495861535292e+18,-0.015324404463171959,-0.023388978093862534,-9.445199966430664
1.729495861544292e+18,0.042244743555784225,0.0746665969491005,-9.357017517089844
1.7294958615502922e+18,0.026038851588964462,-0.016575247049331665,-9.40853214263916
1.7294958615592924e+18,0.06940589100122452,0.001072893152013421,-9.361740112304688
1.7294958615682926e+18,0.0069898259826004505,0.02646012045443058,-9.36669635772705
1.7294958615742927e+18,0.00429507764056325,-0.046905990689992905,-9.286279678344727
1.729495861583293e+18,-0.02079140953719616,0.025619899854063988,-9.262833595275879
1.729495861589293e+18,0.01919579692184925,-0.06467828154563904,-9.238677024841309
1.7294958615982932e+18,0.03851884976029396,0.042034558951854706,-9.22806453704834
1.7294958616042934e+18,-0.010126427747309208,-0.008297562599182129,-9.255563735961914
1.7294958616132936e+18,0.11351572722196579,-0.059126049280166626,-9.183403015136719
1.7294958616192937e+18,0.04685395210981369,-0.006499527022242546,-9.116605758666992
1.729495861628294e+18,-0.005175007972866297,-0.021015945822000504,-9.136319160461426
1.729495861634294e+18,-0.0703543946146965,0.002186283003538847,-9.137158393859863
1.7294958616432942e+18,-0.004755690228193998,0.042669627815485,-9.126213073730469
1.7294958616492943e+18,0.07228333503007889,0.03683080896735191,-9.030344009399414
1.7294958616582945e+18,-0.026624366641044617,-0.01682482846081257,-9.02495288848877
1.7294958616672947e+18,-0.06260780990123749,0.02112446539103985,-8.970645904541016
1.7294958616732948e+18,0.0487886406481266,0.034898918122053146,-8.987166404724121
1.729495861682295e+18,0.033806659281253815,0.00548986392095685,-8.92895221710205
1.7294958616912952e+18,0.03982086107134819,0.06194497272372246,-8.946385383605957
1.7294958616972954e+18,-0.02247997559607029,-0.0060918619856238365,-8.869935989379883
1.7294958617062956e+18,0.07591719925403595,0.04699702933430672,-8.846631050109863
1.7294958617122957e+18,0.023497449234128,-0.019394170492887497,-8.901762008666992
1.729495861721296e+18,-0.0037653520703315735,-0.0360289067029953,-8.814188957214355
1.729495861730296e+18,0.06598441302776337,-0.09827809780836105,-8.709723472595215
1.7294958617392963e+18,-0.007283682934939861,-0.053408410400152206,-8.796869277954102
1.7294958617452964e+18,-0.0011946442537009716,-0.05327904596924782,-8.698352813720703
1.7294958617542966e+18,0.028257573023438454,0.03992065042257309,-8.627752304077148
1.7294958617632968e+18,-0.011041623540222645,0.08529927581548691,-8.62025260925293
1.729495861772297e+18,0.016300134360790253,-0.00601654639467597,-8.635557174682617
1.729495861778297e+18,-0.025660449638962746,-0.010054133832454681,-8.598079681396484
1.7294958617872973e+18,-0.020803339779376984,0.07705730199813843,-8.585691452026367
1.7294958617932974e+18,0.021264486014842987,-0.10264698415994644,-8.604125022888184
1.7294958618052977e+18,-0.040213510394096375,-0.006386755499988794,-8.688279151916504
1.7294958618112978e+18,-0.03216461092233658,-0.023505818098783493,-8.655928611755371
1.729495861820298e+18,-0.033981747925281525,-0.01403864473104477,-8.681656837463379
1.7294958618292982e+18,-0.08840546011924744,-0.061630383133888245,-8.736725807189941
1.7294958618352983e+18,-0.03137080371379852,-0.02292315661907196,-8.687905311584473
1.7294958618442985e+18,-0.01206509955227375,0.001416485640220344,-8.71988582611084
1.7294958618532987e+18,0.0574227012693882,-0.07148444652557373,-8.784292221069336
1.7294958618592988e+18,0.014432499185204506,-0.06555718183517456,-8.792285919189453
1.729495861868299e+18,0.006429603323340416,0.010913006030023098,-8.730237007141113
1.7294958618772992e+18,0.03570258617401123,-0.04496154934167862,-8.754875183105469
1.7294958618832993e+18,0.04330739378929138,0.008903955109417439,-8.753999710083008
1.7294958618922995e+18,0.04712129384279251,0.0645902007818222,-8.833992004394531
1.7294958619012997e+18,-0.037007130682468414,0.0431172251701355,-8.913200378417969
1.7294958619072998e+18,0.03742280974984169,0.010300450958311558,-8.870970726013184
1.7294958619163e+18,-0.022870736196637154,0.03877049311995506,-8.855053901672363
1.7294958619223002e+18,0.06193584203720093,-0.046933792531490326,-8.87341022491455
1.7294958619313004e+18,0.014144625514745712,0.0411137118935585,-8.895803451538086
1.7294958619433006e+18,-0.0051217530854046345,-0.03490440547466278,-8.8930025100708
1.7294958619523008e+18,-0.04639344662427902,-0.041248973459005356,-14.987041473388672
1.729495861961301e+18,0.08455917239189148,-0.037795670330524445,-16.113399505615234
1.729495861967301e+18,-0.020720960572361946,-0.03692776337265968,-16.223140716552734
1.7294958619763013e+18,0.016196690499782562,0.01761041209101677,-16.32292366027832
1.7294958619853015e+18,-0.0777747854590416,0.011880206875503063,-16.268823623657227
1.7294958619913016e+18,0.012879075482487679,0.03531580790877342,-16.265727996826172
1.7294958620003018e+18,-0.054689496755599976,0.01861882023513317,-16.157299041748047
1.729495862006302e+18,-0.012427810579538345,0.012658180668950081,-16.095565795898438
1.7294958620153021e+18,-0.03575434535741806,0.01531208585947752,-15.969244003295898
1.7294958620243023e+18,-0.00873059406876564,0.0025253440253436565,-15.77816390991211
1.7294958620333025e+18,0.011270459741353989,0.010603177361190319,-15.66297721862793
1.7294958620393027e+18,0.0661671832203865,-0.008503406308591366,-15.593255996704102
1.7294958620483028e+18,0.03085082769393921,0.004130821209400892,-15.463061332702637
1.729495862054303e+18,-0.042768437415361404,-0.0613885298371315,-15.36180305480957
1.7294958620633032e+18,-0.00902815256267786,-0.05871983617544174,-15.293656349182129
1.7294958620723034e+18,-0.024548226967453957,-0.0021465253084897995,-15.095359802246094
1.7294958620783035e+18,-0.028218800202012062,-0.06525489687919617,-15.004766464233398
1.7294958620873037e+18,-0.10094571113586426,0.07491608709096909,-14.867813110351562
1.7294958620963039e+18,0.01435903087258339,0.019225072115659714,-14.663900375366211
1.729495862102304e+18,-0.05218867212533951,0.007920577190816402,-14.717276573181152
1.7294958621113042e+18,-0.05304601043462753,-0.010463947430253029,-14.523762702941895
1.7294958621203044e+18,0.05334597826004028,0.0022658882662653923,-14.451777458190918
1.7294958621263045e+18,-0.002585951704531908,-0.12612538039684296,-14.438520431518555
1.7294958621353047e+18,-0.01946203038096428,-0.020745588466525078,-14.273259162902832
1.729495862144305e+18,0.09662139415740967,-0.007627029903233051,-14.202229499816895
1.729495862150305e+18,0.013374495320022106,-0.021012824028730392,-14.104381561279297
1.7294958621593052e+18,0.0035358662717044353,-0.07550321519374847,-14.061432838439941
1.7294958621653053e+18,-0.08399572223424911,0.006737432908266783,-13.934724807739258
1.7294958621743055e+18,-0.031028803437948227,-0.019219068810343742,-13.866861343383789
1.7294958621833057e+18,-0.042571354657411575,-0.004247190430760384,-13.711630821228027
1.7294958621893059e+18,0.03799755498766899,0.011256426572799683,-13.631257057189941
1.729495862198306e+18,-0.015826642513275146,-0.0021963578183203936,-13.565886497497559
1.7294958622073062e+18,0.011332064867019653,-0.015731360763311386,-13.465422630310059
1.7294958622133064e+18,-0.05557221174240112,0.018295863643288612,-13.46126651763916
1.7294958622223066e+18,-0.010486296378076077,-0.03587005287408829,-13.37419319152832
1.7294958622283067e+18,-0.07411039620637894,0.05649147555232048,-13.417889595031738
1.729495862237307e+18,0.05421368405222893,0.022908134385943413,-13.19691276550293
1.729495862246307e+18,0.023346999660134315,0.06806842982769012,-13.068543434143066
1.7294958622523072e+18,-0.04587896913290024,0.032383792102336884,-13.085420608520508
1.7294958622613074e+18,0.028064625337719917,0.0594596266746521,-13.025956153869629
1.7294958622703076e+18,0.007939046248793602,0.12849308550357819,-12.91855525970459
1.7294958622763077e+18,0.11809493601322174,0.036604057997465134,-12.83736801147461
1.729495862285308e+18,-0.009510846808552742,0.04324337840080261,-12.812536239624023
1.729495862294308e+18,0.0263319481164217,0.04149250313639641,-12.719911575317383
1.7294958623033083e+18,-0.04207007214426994,0.04147375375032425,-12.72055435180664
1.7294958623123085e+18,-0.07877670973539352,0.022434227168560028,-12.584147453308105
1.7294958623183086e+18,-0.024808401241898537,-0.014149468392133713,-12.525521278381348
1.7294958623273088e+18,0.02048768661916256,0.0379909910261631,-12.518082618713379
1.729495862336309e+18,-0.06679827719926834,0.09534672647714615,-12.418123245239258
1.729495862342309e+18,0.005941029638051987,0.07486226409673691,-12.353795051574707
1.7294958623513093e+18,-0.0636243224143982,-0.03148528188467026,-12.355572700500488
1.7294958623603095e+18,-0.038478296250104904,0.010427681729197502,-12.281123161315918
1.7294958623723098e+18,0.024901406839489937,-0.0044468361884355545,-12.183557510375977
1.72949586238131e+18,-0.03322956711053848,-0.0170694999396801,-12.11316967010498
1.72949586238731e+18,0.015140220522880554,-0.0545797273516655,-12.136307716369629
1.7294958623963103e+18,0.023686207830905914,0.05094165354967117,-12.055826187133789
1.7294958624053105e+18,0.07020696252584457,-0.004432754125446081,-12.102615356445312
1.7294958624113106e+18,-0.05334816128015518,0.042531996965408325,-11.939408302307129
1.7294958624203108e+18,-0.031934160739183426,0.009320838376879692,-11.91952133178711
1.729495862429311e+18,0.007293748669326305,0.010931805707514286,-11.88031005859375
1.729495862435311e+18,-0.05892769992351532,0.03756604716181755,-11.86948013305664
1.7294958624443113e+18,0.02506871707737446,0.011194325983524323,-11.774840354919434
1.7294958624533115e+18,-0.04762871563434601,-0.022119592875242233,-11.777153968811035
1.7294958624593116e+18,-0.037263430655002594,-0.023558974266052246,-11.801139831542969
1.7294958624683118e+18,0.00031990883871912956,0.0317411832511425,-11.614469528198242
1.729495862477312e+18,-0.004616972990334034,0.041239116340875626,-11.592931747436523
1.729495862483312e+18,-0.0012036169646307826,-0.007907675579190254,-11.578213691711426
1.7294958624923123e+18,-0.004821205977350473,-0.022757453843951225,-11.668102264404297
1.7294958625013125e+18,0.005033119581639767,-0.028503041714429855,-11.602775573730469
1.7294958625103127e+18,0.01747291535139084,-0.02731458656489849,-11.533747673034668
1.7294958625163128e+18,0.002580943750217557,0.03563179448246956,-11.409930229187012
1.729495862525313e+18,-0.06426039338111877,-0.04962124302983284,-11.434919357299805
1.7294958625343132e+18,-0.07288189232349396,0.045805398374795914,-11.443304061889648
1.7294958625403133e+18,-0.014809135347604752,-0.03328784555196762,-11.438149452209473
1.7294958625493135e+18,0.03731876239180565,-0.0022723632864654064,-11.327320098876953
1.7294958625583137e+18,-0.0017560499254614115,0.06437337398529053,-11.394790649414062
1.729495862567314e+18,0.02931673638522625,-0.04198151081800461,-11.28469181060791
1.729495862573314e+18,-0.031114136800169945,0.03361528366804123,-11.335538864135742
1.7294958625823142e+18,-0.11805641651153564,-0.020355578511953354,-11.228107452392578
1.7294958625913144e+18,-0.01627643033862114,-0.056436531245708466,-11.284395217895508
1.7294958626063148e+18,0.10055448859930038,0.0034905108623206615,-11.150768280029297
1.729495862618315e+18,0.031030943617224693,-0.014699617400765419,-11.120595932006836
1.7294958626303153e+18,0.009070759639143944,-0.0294269397854805,-11.104565620422363
1.7294958626393155e+18,-0.007113256026059389,-0.004209055099636316,-11.087881088256836
1.7294958626483156e+18,-0.022843195125460625,-0.07553472369909286,-11.092944145202637
1.7294958626573158e+18,-0.03471788391470909,0.09308779984712601,-11.078546524047852
1.729495862663316e+18,0.05974350869655609,-0.015999840572476387,-11.055935859680176
1.7294958626723162e+18,0.025653831660747528,-0.0013372815446928144,-10.9714994430542
1.7294958626783163e+18,-0.00984195526689291,-0.03573547303676605,-10.968389511108398
1.7294958626873165e+18,-0.013832100667059422,0.009912270121276379,-10.90707015991211
1.7294958626963167e+18,-0.00944363884627819,-0.009759292006492615,-10.908310890197754
1.7294958627023168e+18,0.05620603263378143,-0.03187374025583267,-10.856475830078125
1.729495862711317e+18,0.030504601076245308,0.05792262777686119,-10.87175178527832
1.7294958627203172e+18,0.021814344450831413,0.014092219062149525,-10.839208602905273
1.7294958627263173e+18,0.02794487215578556,-0.022771239280700684,-10.817748069763184
1.7294958627353175e+18,-0.055142953991889954,0.00138129573315382,-10.810415267944336
1.7294958627413176e+18,0.006406562402844429,0.02731379121541977,-10.77133846282959
1.7294958627503178e+18,-0.06014276295900345,-0.029495546594262123,-10.782095909118652
1.729495862759318e+18,0.053576864302158356,-0.02408572845160961,-10.757023811340332
1.7294958627653181e+18,-0.04783272743225098,-0.018464036285877228,-10.737244606018066
1.7294958627743183e+18,0.027267418801784515,-0.07386844605207443,-10.74667739868164
1.7294958627833185e+18,0.0016682979185134172,0.04289093241095543,-10.649809837341309
1.7294958627923187e+18,-0.058822643011808395,-0.033133164048194885,-10.671597480773926
1.729495862801319e+18,-0.04446195438504219,0.029746538028120995,-10.661779403686523
1.729495862810319e+18,-0.0791332796216011,-0.08438942581415176,-10.596714973449707
1.7294958628163192e+18,0.028378279879689217,-0.016348181292414665,-10.672384262084961
1.7294958628253194e+18,0.08052653819322586,0.03413103148341179,-10.609909057617188
1.7294958628343196e+18,0.07761410623788834,-0.05033574998378754,-10.586108207702637
1.7294958628433198e+18,-0.058112021535634995,0.02769269049167633,-10.618091583251953
1.72949586284932e+18,-0.0684150978922844,0.010087976232171059,-10.49658203125
1.7294958628583201e+18,0.07574827969074249,0.0016659456305205822,-10.566020011901855
1.7294958628673203e+18,-0.05253319814801216,0.09826154261827469,-10.527896881103516
1.7294958628763205e+18,0.0484745129942894,0.01935768499970436,-10.52838134765625
1.7294958628823206e+18,-0.02420530840754509,0.008221784606575966,-10.498693466186523
1.7294958628913208e+18,0.00852739904075861,0.013747381046414375,-10.510579109191895
1.729495862900321e+18,-0.06411805748939514,-0.013664276339113712,-10.494292259216309
1.7294958629093212e+18,0.08541623502969742,0.049683406949043274,-10.387778282165527
1.7294958629153213e+18,-0.1142246276140213,-0.03237767145037651,-10.40707778930664
1.7294958629243215e+18,0.04521937295794487,0.09551868587732315,-10.39478588104248
1.7294958629333217e+18,0.016490809619426727,0.04230906814336777,-10.387454986572266
1.729495862942322e+18,-0.1157771423459053,0.04650452733039856,-10.376073837280273
1.729495862948322e+18,-0.042020611464977264,0.04956984519958496,-10.425039291381836
1.7294958629573222e+18,0.021992050111293793,-0.015137833543121815,-10.342806816101074
1.7294958629663224e+18,0.0875750333070755,0.02912917546927929,-10.39008903503418
1.7294958629753226e+18,-0.019806351512670517,-0.03938944265246391,-10.383634567260742
1.7294958629843228e+18,-0.020764820277690887,0.023134687915444374,-10.368229866027832
1.729495862990323e+18,-0.04204835742712021,-0.03875565156340599,-10.402885437011719
1.7294958629993231e+18,-0.04561504349112511,-0.016361678019165993,-10.295600891113281
1.7294958630083233e+18,0.0036790259182453156,-0.03451109677553177,-10.296156883239746
1.7294958630173235e+18,0.015116516500711441,-0.03388521075248718,-10.307995796203613
1.7294958630233236e+18,-0.00758576113730669,0.09572576731443405,-10.291226387023926
1.7294958630323238e+18,-0.007785907480865717,0.01747758314013481,-10.261489868164062
1.729495863041324e+18,0.030810972675681114,0.0066238208673894405,-10.287555694580078
1.7294958630473242e+18,-0.07311712950468063,0.005787451285868883,-10.1948823928833
1.7294958630563244e+18,-0.022915486246347427,0.07523735612630844,-10.239686965942383
1.7294958630653245e+18,-0.021026311442255974,-0.007859260775148869,-10.251914978027344
1.7294958630743247e+18,-0.00829674769192934,-0.005343584809452295,-10.159943580627441
1.729495863083325e+18,0.007091328036040068,0.04161296412348747,-10.123483657836914
1.729495863089325e+18,0.06857337057590485,-0.04952787235379219,-10.119550704956055
1.7294958630983252e+18,-0.017367566004395485,-0.07898438721895218,-10.199640274047852
1.7294958631073254e+18,-0.04310203716158867,-0.0015081947203725576,-10.083635330200195
1.7294958631163256e+18,-0.0482635535299778,-0.02546885423362255,-10.221790313720703
1.7294958631223258e+18,0.024998245760798454,0.08321952819824219,-10.15436840057373
1.729495863131326e+18,0.037289366126060486,-0.004076473414897919,-10.144420623779297
1.7294958631403261e+18,-0.02440614439547062,0.001098364358767867,-10.094012260437012
1.7294958631463263e+18,0.01490212045609951,-0.03801215440034866,-10.139654159545898
1.7294958631553265e+18,-0.024635396897792816,0.008266126736998558,-10.131514549255371
1.7294958631643267e+18,0.04653385281562805,-0.015747571364045143,-10.084294319152832
1.7294958631733268e+18,0.011691487394273281,0.017342127859592438,-10.134113311767578
1.729495863179327e+18,-0.0044138082303106785,0.04801185429096222,-10.13815689086914
1.7294958631883272e+18,-0.011960558593273163,0.0023005257826298475,-10.060412406921387
1.7294958631973274e+18,-0.06810939311981201,-0.05790150538086891,-10.079108238220215
1.7294958632033275e+18,-0.06737366318702698,-0.0633629560470581,-10.033164024353027
1.7294958632123277e+18,0.003436801489442587,-0.060467950999736786,-10.04382610321045
1.729495863221328e+18,0.028642689809203148,0.07754001766443253,-10.025236129760742
1.729495863230328e+18,-0.026539476588368416,-0.08608400076627731,-10.04294204711914
1.7294958632363282e+18,0.04688955098390579,-0.04526678845286369,-10.108779907226562
1.7294958632453284e+18,-0.032984182238578796,-0.03141499683260918,-9.980514526367188
1.7294958632543286e+18,0.06368972361087799,-0.013160936534404755,-10.008933067321777
1.7294958632633288e+18,-0.06960940361022949,0.00419632950797677,-9.942203521728516
1.729495863269329e+18,0.029387103393673897,0.004775752313435078,-10.018198013305664
1.729495863278329e+18,0.014464156702160835,-0.08489834517240524,-9.95764446258545
1.7294958632873293e+18,0.02617136389017105,-0.03161363676190376,-9.89603328704834
1.7294958632963295e+18,0.0034867546055465937,0.06779706478118896,-10.015596389770508
1.7294958633023296e+18,-0.03525779768824577,0.035463206470012665,-9.959866523742676
1.7294958633113298e+18,-0.07632695138454437,-0.02379678003489971,-9.9693603515625
1.72949586332033e+18,-0.031042810529470444,-0.015997860580682755,-9.964268684387207
1.72949586332633e+18,-0.058523472398519516,0.00039456141530536115,-9.982134819030762
1.7294958633353303e+18,0.024852821603417397,0.03658008947968483,-9.91010856628418
1.7294958633443305e+18,0.03390754386782646,-0.07708040624856949,-9.956472396850586
1.7294958633503306e+18,-0.029006658121943474,-0.001831366796977818,-9.947904586791992
1.7294958633593308e+18,-0.032211318612098694,-0.016149749979376793,-9.987390518188477
1.729495863368331e+18,0.035449739545583725,-0.03257984668016434,-9.891380310058594
1.7294958633743311e+18,0.02902689203619957,0.07005935907363892,-9.948651313781738
1.7294958633833313e+18,0.024522991850972176,0.04716039448976517,-9.922468185424805
1.7294958633923315e+18,0.03212952986359596,-0.0013112444430589676,-9.841960906982422
1.7294958634013317e+18,0.08104559779167175,-0.058273736387491226,-9.943836212158203
1.729495863410332e+18,0.00108067668043077,-0.020823141559958458,-9.881406784057617
1.729495863416332e+18,-0.0374910794198513,-0.02214088663458824,-9.923921585083008
1.7294958634253322e+18,-0.005238373763859272,0.0883256271481514,-9.867459297180176
1.7294958634343324e+18,-0.0012624918017536402,-0.009999601170420647,-9.893156051635742
1.7294958634403325e+18,-0.02392023243010044,0.0031013654079288244,-9.92128849029541
1.7294958634493327e+18,0.025686655193567276,0.0022183526307344437,-9.926697731018066
1.729495863458333e+18,0.02162398025393486,0.01001895871013403,-9.86612606048584
1.729495863467333e+18,0.019248105585575104,0.023032046854496002,-9.866926193237305
1.7294958634763333e+18,0.036459557712078094,0.0184875950217247,-9.808673858642578
1.7294958634853335e+18,-0.07003989815711975,-0.010008386336266994,-9.910429000854492
1.7294958634973338e+18,-0.008396860212087631,-0.06896103918552399,-9.89401912689209
1.729495863506334e+18,0.01897936314344406,-0.006557621993124485,-9.836180686950684
1.7294958635153341e+18,-0.027024002745747566,0.055906906723976135,-9.911612510681152
1.7294958635243343e+18,-0.014882558956742287,-0.04123564064502716,-9.805560111999512
1.7294958635333345e+18,0.03879910707473755,0.041851501911878586,-9.831141471862793
1.7294958635423347e+18,0.044933658093214035,0.0020875255577266216,-9.790959358215332
1.729495863551335e+18,0.008620424196124077,-0.015146195888519287,-9.912986755371094
1.729495863560335e+18,0.011912386864423752,0.011088532395660877,-9.74491024017334
1.7294958635693353e+18,-0.03230307623744011,-0.02206450328230858,-9.793797492980957
1.7294958635783355e+18,-0.030512874945998192,-0.01650281250476837,-9.835066795349121
1.7294958635843356e+18,0.015882177278399467,0.08393920212984085,-9.809235572814941
1.7294958635933358e+18,-0.0014887257711961865,0.013976934365928173,-9.761597633361816
1.729495863602336e+18,0.0017693334957584739,0.04890402406454086,-9.815749168395996
1.7294958636113362e+18,-0.05053296312689781,0.08050447702407837,-9.789345741271973
1.7294958636203364e+18,0.09749342501163483,0.014781557023525238,-9.770163536071777
1.7294958636263365e+18,0.01440487615764141,0.011514716781675816,-9.836627006530762
1.7294958636353367e+18,0.029903806746006012,0.012844636105000973,-9.733805656433105
1.729495863644337e+18,0.03529660031199455,0.02384377084672451,-9.798881530761719
1.729495863650337e+18,-0.06762038916349411,-0.01725253090262413,-9.791191101074219
1.7294958636593372e+18,-0.06342703104019165,-0.051896657794713974,-9.808552742004395
1.7294958636683374e+18,0.06843894720077515,0.016924183815717697,-9.851091384887695
1.7294958636773376e+18,0.032403018325567245,0.0204152874648571,-9.814839363098145
1.7294958636863378e+18,0.022141262888908386,-0.004857126623392105,-9.835946083068848
1.729495863692338e+18,-0.04592525586485863,0.011928724125027657,-9.773063659667969
1.729495863701338e+18,-0.08110658824443817,-0.018685752525925636,-9.815502166748047
1.7294958637103383e+18,-0.002910095266997814,0.0445978082716465,-9.794075012207031
1.7294958637163384e+18,-0.031631950289011,0.08711855113506317,-9.764065742492676
1.7294958637253386e+18,-0.009747172705829144,0.0018816685769706964,-9.728554725646973
1.7294958637313388e+18,-0.0024870417546480894,-0.0009780782274901867,-9.758170127868652
1.729495863740339e+18,0.002196292392909527,-0.0414452999830246,-9.787312507629395
1.7294958637493391e+18,0.08054669201374054,0.015361660160124302,-9.83416748046875
1.7294958637583393e+18,0.017854679375886917,0.0006936501013115048,-9.849530220031738
1.7294958637643395e+18,0.00374315376393497,-0.05828176811337471,-9.805509567260742
1.7294958637733396e+18,-0.0162626001983881,0.02005484700202942,-9.840575218200684
1.7294958637823398e+18,0.010848697274923325,0.02646973915398121,-9.807574272155762
1.72949586379134e+18,-0.018609313294291496,-0.04638943821191788,-9.742069244384766
1.7294958638003402e+18,0.026692593470215797,0.01506060641258955,-9.743854522705078
1.7294958638093404e+18,0.07417041063308716,0.06916956603527069,-9.75706672668457
1.7294958638153405e+18,-0.05895030125975609,-0.0037225724663585424,-9.722478866577148
1.7294958638243407e+18,-0.07369492202997208,0.009445264004170895,-9.767729759216309
1.7294958638303409e+18,-0.006801452022045851,0.0592525415122509,-9.691497802734375
1.729495863839341e+18,0.005336678121238947,0.029581986367702484,-9.823116302490234
1.7294958638513413e+18,0.01836840808391571,-0.03549979254603386,-9.688733100891113
1.7294958638603415e+18,0.02807540073990822,0.013915120624005795,-9.69382095336914
1.7294958638693417e+18,0.04333221912384033,-0.05887223407626152,-9.762614250183105
1.7294958638753418e+18,0.09190957248210907,-0.028703492134809494,-9.722654342651367
1.729495863884342e+18,0.018066920340061188,0.0007116476772353053,-9.726846694946289
1.7294958638933422e+18,0.06340234726667404,0.009285678155720234,-9.66064167022705
1.7294958639023424e+18,-0.11457285284996033,0.04732157662510872,-9.7564115524292
1.7294958639113426e+18,-0.0004369306261651218,0.020826013758778572,-9.70307445526123
1.7294958639203428e+18,0.015546695329248905,-0.04884910583496094,-9.694519996643066
1.729495863926343e+18,0.04834839701652527,-0.03022340126335621,-9.743871688842773
1.729495863935343e+18,-0.01676073484122753,0.015563646331429482,-9.710493087768555
1.7294958639443433e+18,0.0006857687258161604,-0.006979284342378378,-9.682796478271484
1.7294958639533435e+18,-0.020280657336115837,0.05236032232642174,-9.74637222290039
1.7294958639593436e+18,0.08845128118991852,0.011534970253705978,-9.722033500671387
1.7294958639683438e+18,0.0427561029791832,-0.00040971729322336614,-9.798320770263672
1.729495863977344e+18,0.02959330752491951,0.006270116660743952,-9.75673770904541
1.7294958639863442e+18,-0.05267636105418205,-0.006379880476742983,-9.862666130065918
1.7294958639953444e+18,0.015902988612651825,0.012315829284489155,-9.871191024780273
1.7294958640013445e+18,-0.04143721982836723,0.03720453381538391,-9.858846664428711
1.7294958640103447e+18,0.01314428448677063,0.017914585769176483,-9.832792282104492
1.729495864019345e+18,0.04975633695721626,0.03176906332373619,-9.811539649963379
1.729495864028345e+18,0.04616151377558708,-0.04418858140707016,-9.796566009521484
1.7294958640343452e+18,0.05172942578792572,-0.039166830480098724,-9.837491989135742
1.7294958640433454e+18,-0.012287812307476997,0.008556321263313293,-9.778850555419922
1.7294958640523456e+18,0.08257295191287994,-0.036853302270174026,-9.857935905456543
1.7294958640613458e+18,-0.044925518333911896,0.05156588554382324,-9.815956115722656
1.729495864067346e+18,0.04372857138514519,-0.022314658388495445,-9.766130447387695
1.729495864076346e+18,0.06477068364620209,-0.04312566667795181,-9.825666427612305
1.7294958640853463e+18,-0.040419504046440125,-0.011340159922838211,-9.74924087524414
1.7294958640913464e+18,0.05396458879113197,-0.04596259444952011,-9.814104080200195
1.7294958641003466e+18,0.05624952167272568,0.005983197595924139,-9.774727821350098
1.729495864112347e+18,0.04836145043373108,0.004435586277395487,-9.851869583129883
1.729495864121347e+18,0.04386347159743309,0.00019668233289849013,-9.80111026763916
1.7294958641273472e+18,-0.031106999143958092,0.023467956110835075,-9.722575187683105
1.7294958641363474e+18,-0.015415037982165813,0.06389378756284714,-9.763391494750977
1.7294958641453476e+18,0.0034493147395551205,-0.03071415238082409,-9.754908561706543
1.7294958641513477e+18,-0.03297099098563194,0.0023731274995952845,-9.7423095703125
1.729495864160348e+18,0.006065032444894314,0.0364103801548481,-9.787529945373535
1.729495864169348e+18,0.030952582135796547,-0.007725473027676344,-9.80427360534668
1.7294958641753482e+18,-0.01932935230433941,-0.04297912120819092,-9.731287956237793
1.7294958641843484e+18,0.03172975406050682,-0.004038581624627113,-9.753743171691895
1.7294958641933486e+18,-0.08790218085050583,-0.0395577996969223,-9.755084037780762
1.7294958642023488e+18,0.024829436093568802,-0.10432003438472748,-9.768752098083496
1.729495864208349e+18,-0.017022721469402313,0.04438816383481026,-9.801819801330566
1.729495864217349e+18,0.04776370897889137,0.051167670637369156,-9.752375602722168
1.7294958642263493e+18,-0.02142169512808323,0.025254162028431892,-9.839465141296387
1.7294958642353495e+18,-0.046969786286354065,0.017161741852760315,-9.740002632141113
1.7294958642443497e+18,-0.03937568515539169,-0.016708215698599815,-9.727981567382812
1.72949586425335e+18,0.03188866376876831,-0.040970731526613235,-9.81307601928711
1.72949586426235e+18,-0.015820221975445747,-0.007624531630426645,-9.732529640197754
1.7294958642713503e+18,0.008809625171124935,-0.06336720287799835,-9.714834213256836
1.7294958642803505e+18,0.06262967735528946,-0.013902676291763783,-9.810856819152832
1.7294958642923507e+18,0.08646012842655182,-0.04587159678339958,-9.751108169555664
1.729495864304351e+18,-0.08641612529754639,-0.04910849779844284,-9.692404747009277
1.7294958643163512e+18,0.05749721825122833,0.022194169461727142,-9.766739845275879
1.7294958643253514e+18,0.07318060845136642,0.0028032478876411915,-9.69831657409668
1.7294958643373517e+18,0.060911767184734344,0.0022051427513360977,-9.721915245056152
1.7294958643463519e+18,-0.011716480366885662,-0.002582704881206155,-9.749397277832031
1.7294958643583521e+18,0.01059857476502657,0.06803464144468307,-9.680036544799805
1.7294958643703524e+18,-0.03500210866332054,0.04454214870929718,-9.716536521911621
1.7294958643793526e+18,0.03724341094493866,-0.031982291489839554,-9.72677993774414
1.7294958643913528e+18,0.07069286704063416,-0.0069060418754816055,-9.684003829956055
1.729495864400353e+18,-0.010165748186409473,0.08634879440069199,-9.735037803649902
1.7294958644123533e+18,-0.05061011016368866,-0.10718575865030289,-9.785439491271973
1.7294958644213535e+18,-0.00670061307027936,0.02200223319232464,-9.717330932617188
1.7294958644333537e+18,0.00926230102777481,-0.023013534024357796,-9.724130630493164
1.729495864442354e+18,-0.02448287233710289,-0.077090784907341,-9.752167701721191
1.729495864451354e+18,-0.031975310295820236,0.07008341699838638,-9.7891845703125
1.7294958644603543e+18,0.06266027688980103,0.02218892239034176,-9.7210111618042
1.7294958644723546e+18,0.012461237609386444,0.05756232514977455,-9.762995719909668
1.7294958644813548e+18,-0.022947635501623154,-0.009644739329814911,-9.756913185119629
1.729495864493355e+18,0.040969330817461014,0.0637030377984047,-9.680561065673828
1.7294958645023552e+18,-0.002221177564933896,-0.028147727251052856,-9.833036422729492
1.7294958645143555e+18,-0.017366323620080948,-0.028494659811258316,-9.6896390914917
1.7294958645233556e+18,0.0475713349878788,-0.012193925678730011,-9.734672546386719
1.729495864535356e+18,0.01065056212246418,0.02599436230957508,-9.709268569946289
1.729495864544356e+18,0.010574103333055973,-0.00574574014171958,-9.784245491027832
1.7294958645533563e+18,0.01870705559849739,0.04178290814161301,-9.770194053649902
1.7294958645653565e+18,-0.0023248824290931225,-0.016080928966403008,-9.65544319152832
1.7294958645743567e+18,0.01951536536216736,-0.03933646157383919,-9.791129112243652
1.729495864583357e+18,-0.029637446627020836,0.04654323309659958,-9.759605407714844
1.729495864592357e+18,0.04457633197307587,0.008351840078830719,-9.779866218566895
1.7294958646013573e+18,0.005642765201628208,-0.02542085014283657,-9.686579704284668
1.7294958646103575e+18,0.034065403044223785,-0.0002935064840130508,-9.77111530303955
1.7294958646223578e+18,0.011853627860546112,-0.006096271798014641,-9.68067455291748
1.729495864631358e+18,0.026319636031985283,-0.03709661588072777,-9.743551254272461
1.7294958646403581e+18,-0.05550602823495865,-0.030805956572294235,-9.698486328125
1.7294958646493583e+18,0.03280484676361084,0.007584345061331987,-9.646419525146484
1.7294958646583585e+18,-0.061028849333524704,0.0012246216647326946,-9.779619216918945
1.7294958646673587e+18,0.06124714016914368,0.014777216129004955,-9.720629692077637
1.729495864676359e+18,0.03311892971396446,0.024760808795690536,-9.734853744506836
1.729495864685359e+18,0.004456741735339165,0.05552035570144653,-9.760242462158203
1.7294958646943593e+18,-0.020936371758580208,-0.011298228055238724,-9.784302711486816
1.7294958647063596e+18,0.0017550605116412044,0.08801723271608353,-9.750006675720215
1.7294958647153597e+18,-0.0625229924917221,-0.025315089151263237,-9.76572322845459
1.72949586472436e+18,0.02242222987115383,0.08090236037969589,-9.724580764770508
1.72949586473336e+18,-0.01932670921087265,-0.017745226621627808,-9.786337852478027
1.7294958647393603e+18,-0.017267713323235512,0.008405664935708046,-9.6993989944458
1.7294958647483604e+18,0.07913370430469513,-0.06373266875743866,-9.70736026763916
1.7294958647573606e+18,0.006010180804878473,0.05986436456441879,-9.722593307495117
1.7294958647663608e+18,-0.025760648772120476,0.03064657188951969,-9.744263648986816
1.729495864775361e+18,0.08120217174291611,-0.03343350440263748,-9.710901260375977
1.7294958647843612e+18,-0.07110714912414551,0.018249383196234703,-9.696426391601562
1.7294958647933614e+18,-0.02707015350461006,-0.0755947008728981,-9.696118354797363
1.7294958648023616e+18,-0.0052304682321846485,-0.03071565553545952,-9.752959251403809
1.7294958648113618e+18,0.032438430935144424,-0.02142895571887493,-9.761816024780273
1.729495864823362e+18,-0.01017172820866108,0.0396297313272953,-9.705723762512207
1.7294958648323622e+18,0.03345085307955742,0.0052370717748999596,-9.705465316772461
1.7294958648413624e+18,-0.01940944232046604,-0.011631470173597336,-9.749284744262695
1.7294958648503626e+18,0.051711488515138626,-0.0718487799167633,-9.688011169433594
1.7294958648563628e+18,0.013562537729740143,-0.03195454180240631,-9.722840309143066
1.729495864865363e+18,-0.07485083490610123,0.04087817296385765,-9.683279991149902
1.7294958648743631e+18,-0.08259180933237076,0.017954042181372643,-9.797942161560059
1.7294958648833633e+18,-0.046220362186431885,0.021264731884002686,-9.664718627929688
1.7294958648923635e+18,-0.04540775716304779,-0.053697481751441956,-9.727127075195312
1.7294958649013637e+18,0.01237007137387991,0.011857838369905949,-9.740273475646973
1.7294958649073638e+18,-0.06459510326385498,0.030918149277567863,-9.771831512451172
1.729495864916364e+18,0.04659001901745796,0.030261699110269547,-9.786055564880371
1.7294958649253642e+18,-0.04385540261864662,-0.00567786255851388,-9.744845390319824
1.7294958649343644e+18,-0.03637060895562172,-0.02015797421336174,-9.694135665893555
1.7294958649463647e+18,0.00763954222202301,0.013341905549168587,-9.690901756286621
1.7294958649553649e+18,0.07726601511240005,0.03430328518152237,-9.707172393798828
1.729495864964365e+18,0.06563146412372589,-0.009661552496254444,-9.695627212524414
1.7294958649703652e+18,0.012155042961239815,0.07588105648756027,-9.758760452270508
1.7294958649793654e+18,-0.06990350782871246,-0.027995647862553596,-9.803129196166992
1.7294958649883656e+18,-0.13258953392505646,0.05708593502640724,-9.732230186462402
1.7294958649973658e+18,0.031276553869247437,-0.01635003834962845,-9.819574356079102
1.729495865006366e+18,-0.053367406129837036,-0.04443679749965668,-9.731297492980957
1.7294958650153661e+18,0.008152395486831665,0.023246439173817635,-9.711143493652344
1.7294958650243663e+18,0.019996752962470055,0.06141744181513786,-9.690530776977539
1.7294958650303665e+18,0.0882813036441803,-0.0015503258910030127,-9.776987075805664
1.7294958650393667e+18,0.019563473761081696,-0.0051193637773394585,-9.71606159210205
1.7294958650483668e+18,-0.026813458651304245,-0.03636791184544563,-9.789063453674316
1.729495865060367e+18,-0.03780337795615196,0.027057860046625137,-9.749067306518555
1.7294958650693673e+18,-0.03798030689358711,0.003907536622136831,-9.71816635131836
1.7294958650783675e+18,-0.009246066212654114,0.02634979784488678,-9.767919540405273
1.7294958650903677e+18,0.07348978519439697,0.01171595137566328,-9.745616912841797
1.729495865099368e+18,0.03851791471242905,-0.049875106662511826,-9.67539119720459
1.7294958651083681e+18,0.06554649770259857,0.043983254581689835,-9.810502052307129
1.7294958651203684e+18,0.031188705936074257,-0.011047901585698128,-9.736799240112305
1.7294958651293686e+18,0.06933940947055817,-0.08300656825304031,-9.726481437683105
1.7294958651383688e+18,0.012244039215147495,-0.012883600778877735,-9.768760681152344
1.729495865147369e+18,0.012164388783276081,0.00865583773702383,-9.79892349243164
1.7294958651563692e+18,0.08442343771457672,-0.01838795654475689,-9.72704792022705
1.7294958651683694e+18,0.02450435236096382,-0.03380254656076431,-9.71113109588623
1.7294958651773696e+18,0.07622824609279633,-0.012646295130252838,-9.821019172668457
1.7294958651863698e+18,0.07028913497924805,-0.05033327639102936,-9.753149032592773
1.72949586519537e+18,-0.0270491112023592,0.011334231123328209,-9.75404167175293
1.7294958652043702e+18,0.08005032688379288,0.05750925466418266,-9.740971565246582
1.7294958652163704e+18,0.01896783523261547,-0.029016444459557533,-9.748167037963867
1.7294958652253706e+18,0.029996657744050026,-0.10527600347995758,-9.79360294342041
1.7294958652343708e+18,0.04897433519363403,-0.02955845184624195,-9.702157974243164
1.729495865246371e+18,-0.01631280966103077,-0.022173495963215828,-9.74220085144043
1.7294958652583713e+18,0.014178246259689331,-0.007933493703603745,-9.807765007019043
1.7294958652673715e+18,0.00878373347222805,0.05643445625901222,-9.788628578186035
1.7294958652763717e+18,0.008237363770604134,0.030242932960391045,-9.850030899047852
1.729495865288372e+18,0.039328306913375854,-0.11366334557533264,-9.734909057617188
1.7294958652973722e+18,-0.007697943598031998,0.023640494793653488,-9.80226993560791
1.7294958653093724e+18,-0.044454652816057205,-0.003248642198741436,-9.814144134521484
1.7294958653183726e+18,-0.001671632518991828,0.0454021617770195,-9.712321281433105
1.7294958653273728e+18,-0.07258196920156479,-0.024987898766994476,-9.744118690490723
1.729495865339373e+18,0.027650469914078712,-0.05146525800228119,-9.744499206542969
1.7294958653483732e+18,0.027607280761003494,-0.05813512206077576,-9.77027702331543
1.7294958653573734e+18,-0.0007757552666589618,0.009789352305233479,-9.732405662536621
1.7294958653693737e+18,-0.003996498882770538,-0.11082399636507034,-9.62483024597168
1.7294958653753738e+18,0.03344728425145149,-0.04504377767443657,-9.741759300231934
1.729495865384374e+18,-0.010825065895915031,0.01138740312308073,-9.77275276184082
1.7294958653963743e+18,0.030749084427952766,0.00015771097969263792,-9.766646385192871
1.7294958654053745e+18,-0.007863839156925678,0.02167680487036705,-9.763683319091797
1.7294958654143747e+18,-0.009608530439436436,-0.019935570657253265,-9.848701477050781
1.7294958654203748e+18,0.019742337986826897,-0.011869656853377819,-9.745065689086914
1.729495865429375e+18,-0.023332737386226654,-0.020287007093429565,-9.743019104003906
1.7294958654383752e+18,-0.02488347701728344,-0.04704967513680458,-9.824570655822754
1.7294958654443753e+18,-0.03294432535767555,-0.05936780944466591,-9.734196662902832
1.7294958654533755e+18,0.039385538548231125,0.06804554909467697,-9.672598838806152
1.7294958654593756e+18,0.06050426885485649,0.008290576748549938,-9.769932746887207
1.7294958654683758e+18,0.039509791880846024,-0.05073634535074234,-9.809605598449707
1.729495865474376e+18,-0.021156834438443184,-0.04265840724110603,-9.75772762298584
1.729495865483376e+18,-0.031931500881910324,0.008268693462014198,-9.712018966674805
1.7294958654893763e+18,0.0710935890674591,-0.03397881239652634,-9.766783714294434
1.7294958654983764e+18,-0.028355175629258156,-0.03330037742853165,-9.715869903564453
1.7294958655043766e+18,0.024417733773589134,-0.06443983316421509,-9.731512069702148
1.7294958655133768e+18,0.07797884196043015,-0.09058468043804169,-9.788403511047363
1.729495865519377e+18,0.0721200704574585,0.014311892911791801,-9.762372970581055
1.729495865528377e+18,0.007383787073194981,0.0326891653239727,-9.75540542602539
1.7294958655373773e+18,-0.038339436054229736,-0.05713718757033348,-9.733405113220215
1.7294958655433774e+18,-0.020296471193432808,0.0039731962606310844,-9.81521224975586
1.7294958655523776e+18,0.06364422291517258,-0.005129009485244751,-9.7743501663208
1.7294958655613778e+18,-0.09858439862728119,-0.01291944831609726,-9.749990463256836
1.729495865567378e+18,0.009205827489495277,0.06901375949382782,-9.760149955749512
1.729495865576378e+18,0.0021195451263338327,0.000862610584590584,-9.761829376220703
1.7294958655853783e+18,0.006113177631050348,0.059159282594919205,-9.776056289672852
1.7294958655943785e+18,-0.01248849742114544,-0.003400449175387621,-9.68475341796875
1.7294958656033787e+18,-0.030259056016802788,0.006092519033700228,-9.765111923217773
1.7294958656093788e+18,-0.035430826246738434,-0.05127176269888878,-9.739605903625488
1.729495865621379e+18,-0.03102344274520874,-0.015983225777745247,-9.78179931640625
1.7294958656333793e+18,0.0070230369456112385,0.0018104411428794265,-9.782337188720703
1.7294958656423795e+18,0.010188072919845581,0.11426632851362228,-9.740130424499512
1.7294958656513797e+18,-0.011072630994021893,0.014466400258243084,-9.817631721496582
1.72949586566038e+18,0.00924264919012785,0.03570171818137169,-9.805002212524414
1.72949586566938e+18,0.033754970878362656,0.02546263299882412,-9.704916000366211
1.7294958656783803e+18,-0.04418008401989937,-0.04528677463531494,-9.809588432312012
1.7294958656873805e+18,-0.04968695342540741,0.013442051596939564,-9.801486015319824
1.7294958656933806e+18,-0.0008627778734080493,-9.682720701675862e-06,-9.7822265625
1.7294958657023808e+18,-0.01309919636696577,-0.0851459950208664,-9.781397819519043
1.729495865711381e+18,-0.029454616829752922,-0.04991624876856804,-9.78675651550293
1.7294958657203812e+18,0.010942552238702774,0.029279056936502457,-9.797550201416016
1.7294958657293814e+18,0.006093586795032024,0.08744876831769943,-9.791248321533203
1.7294958657383816e+18,-0.0052025471813976765,-0.016355037689208984,-9.753838539123535
1.7294958657473818e+18,0.07285379618406296,0.01267710980027914,-9.75770092010498
1.729495865756382e+18,-0.06068594008684158,-0.000619454134721309,-9.831971168518066
1.7294958657653821e+18,-0.058718420565128326,-0.08545748889446259,-9.828814506530762
1.7294958657773824e+18,-0.039758529514074326,0.046800512820482254,-9.838502883911133
1.7294958657863826e+18,-0.03879978880286217,-0.05536719784140587,-9.79752254486084
1.7294958657953828e+18,-0.025310544297099113,0.01290888898074627,-9.82282543182373
1.729495865804383e+18,-0.010061283595860004,0.03949062153697014,-9.789711952209473
1.7294958658133832e+18,0.04514218121767044,0.004215694032609463,-9.839361190795898
1.7294958658223834e+18,0.013182326219975948,0.0033401192631572485,-9.868133544921875
1.7294958658313836e+18,0.07890267670154572,-0.03512134030461311,-9.758541107177734
1.7294958658403837e+18,0.05309941619634628,-0.05824330449104309,-9.705787658691406
1.7294958658463839e+18,-0.006088295020163059,-0.011304969899356365,-9.757256507873535
1.729495865855384e+18,-0.07288682460784912,-0.08175104111433029,-9.699163436889648
1.7294958658643843e+18,-0.0827450081706047,-0.029905833303928375,-9.779157638549805
1.7294958658703844e+18,-0.00556509243324399,0.041408661752939224,-9.824701309204102
1.7294958658793846e+18,-0.04756973311305046,0.016734814271330833,-9.77717113494873
1.7294958658853847e+18,-0.010696019977331161,-0.025784386321902275,-9.81273078918457
1.729495865894385e+18,-0.04530450701713562,-0.005252748262137175,-9.805917739868164
1.729495865900385e+18,0.025164980441331863,-0.010579202324151993,-9.846087455749512
1.7294958659093852e+18,-0.002786441706120968,-0.00946933962404728,-9.745672225952148
1.7294958659183854e+18,-0.02978884056210518,-0.0046083503402769566,-9.799564361572266
1.7294958659243855e+18,0.00021482916781678796,0.0157738346606493,-9.871909141540527
1.7294958659333857e+18,-0.06738775968551636,0.011124897748231888,-9.815361022949219
1.729495865942386e+18,-0.0507611520588398,0.046177223324775696,-9.77836799621582
1.729495865951386e+18,0.02581118978559971,-0.006140762008726597,-9.763351440429688
1.7294958659573862e+18,-0.06408236175775528,-0.01860148459672928,-9.784483909606934
1.7294958659663864e+18,-0.05602838099002838,-0.008031272329390049,-9.855074882507324
1.7294958659753866e+18,0.08468765765428543,-0.05681181699037552,-9.847190856933594
1.7294958659813868e+18,-0.03264821320772171,0.0004710633074864745,-9.806976318359375
1.729495865990387e+18,0.00586959021165967,0.01637057401239872,-9.76651668548584
1.7294958659993871e+18,-0.05995699763298035,-0.06380341947078705,-9.803121566772461
1.7294958660083873e+18,0.1070340946316719,-0.04139068350195885,-9.762565612792969
1.7294958660143875e+18,-0.012859569862484932,-0.01876339316368103,-9.702194213867188
1.7294958660233876e+18,0.039290498942136765,0.03561612218618393,-9.757064819335938
1.7294958660293878e+18,0.033838335424661636,-0.08613225817680359,-9.769580841064453
1.729495866038388e+18,-0.005353760439902544,0.06388024240732193,-9.747727394104004
1.729495866044388e+18,0.03258733078837395,0.03247489407658577,-9.811697959899902
1.7294958660533883e+18,0.009519355371594429,-0.033123284578323364,-9.730899810791016
1.7294958660623885e+18,-0.019247714430093765,0.06207748502492905,-9.773239135742188
1.7294958660683886e+18,-0.012580242939293385,-0.0042102644219994545,-9.806800842285156
1.7294958660773888e+18,0.03907901793718338,0.0036401802208274603,-9.779237747192383
1.729495866086389e+18,0.04192209988832474,-0.061855003237724304,-9.77635383605957
1.729495866092389e+18,0.08669944852590561,0.049969542771577835,-9.810066223144531
1.7294958661013893e+18,-0.036941125988960266,0.009150332771241665,-9.797743797302246
1.7294958661073894e+18,-0.05162626504898071,-0.06280007213354111,-9.844141006469727
1.7294958661163896e+18,-0.038752149790525436,0.04541189223527908,-9.791961669921875
1.7294958661253898e+18,0.021882586181163788,0.028563154861330986,-9.840048789978027
1.72949586613139e+18,-0.06325464695692062,0.05722879245877266,-9.766690254211426
1.7294958661403901e+18,-0.005846037995070219,0.02018059976398945,-9.788631439208984
1.7294958661463903e+18,-0.017146775498986244,-0.05491284653544426,-9.766803741455078
1.7294958661553905e+18,0.017228489741683006,-0.032039206475019455,-9.738202095031738
1.7294958661643907e+18,0.05529013276100159,0.03206152468919754,-9.855709075927734
1.7294958661703908e+18,0.01296691969037056,0.03309472277760506,-9.806940078735352
1.729495866179391e+18,-0.09841460734605789,0.04390585049986839,-9.830331802368164
1.729495866185391e+18,-0.08077823370695114,0.10472923517227173,-9.802623748779297
1.7294958661943913e+18,0.0485859178006649,-0.05814047157764435,-9.789008140563965
1.7294958662033915e+18,0.0005323682562448084,-0.005729366559535265,-9.782146453857422
1.7294958662093916e+18,0.07468672841787338,-0.056309774518013,-9.724861145019531
1.7294958662183918e+18,0.09576927125453949,0.03261207416653633,-9.740242958068848
1.729495866227392e+18,0.007865793071687222,0.06123337149620056,-9.835897445678711
1.7294958662363922e+18,0.015434770844876766,-0.018574893474578857,-9.788053512573242
1.7294958662453924e+18,0.052475616335868835,0.02504877932369709,-9.817449569702148
1.7294958662513925e+18,0.03424493223428726,-0.030360080301761627,-9.79075813293457
1.7294958662603927e+18,-0.03418140858411789,-0.051329273730516434,-9.818817138671875
1.729495866269393e+18,0.03983151167631149,-0.028110673651099205,-9.797582626342773
1.729495866278393e+18,-0.0682893842458725,-0.00892372615635395,-9.75236988067627
1.7294958662843932e+18,0.022185886278748512,0.06264083087444305,-9.819293022155762
1.7294958662933934e+18,0.01679117977619171,0.0020619845017790794,-9.836699485778809
1.7294958663023936e+18,-0.08756547421216965,0.020784471184015274,-9.740769386291504
1.7294958663083937e+18,0.006662152241915464,-0.06682164967060089,-9.74936580657959
1.729495866317394e+18,0.05335276201367378,0.010170971974730492,-9.722094535827637
1.729495866326394e+18,0.03230910375714302,0.012138488702476025,-9.882134437561035
1.7294958663323942e+18,0.029700761660933495,0.01702738367021084,-9.746273040771484
1.7294958663413944e+18,-0.04936101287603378,0.001391946105286479,-9.761704444885254
1.7294958663473946e+18,0.03404320776462555,-0.030053336173295975,-9.824393272399902
1.7294958663563948e+18,-0.06877230852842331,-0.01119430921971798,-9.800337791442871
1.729495866365395e+18,-0.04664866626262665,-0.05194758251309395,-9.799256324768066
1.729495866371395e+18,-0.033099330961704254,-0.04849101975560188,-9.76626968383789
1.7294958663803953e+18,0.002286131028085947,0.04297807440161705,-9.717439651489258
1.7294958663893955e+18,-0.030191577970981598,-0.04815804213285446,-9.800976753234863
1.7294958663953956e+18,0.03628632426261902,0.049692630767822266,-9.823227882385254
1.7294958664043958e+18,-0.006271890830248594,0.024058151990175247,-9.849618911743164
1.729495866413396e+18,0.02027902379631996,-0.04573629051446915,-9.771029472351074
1.7294958664223962e+18,0.0009385591838508844,0.010432980954647064,-9.775646209716797
1.7294958664283963e+18,0.06352656334638596,0.02747277542948723,-9.813088417053223
1.7294958664373965e+18,0.0022239985410124063,-0.006175007205456495,-9.89957332611084
1.7294958664433966e+18,0.0060967872850596905,-0.07252350449562073,-9.774998664855957
1.7294958664523968e+18,0.04397008568048477,0.0010577592765912414,-9.737396240234375
1.729495866461397e+18,-0.026579897850751877,-0.03805510699748993,-9.760688781738281
1.729495866467397e+18,-0.0020345868542790413,0.022064292803406715,-9.827763557434082
1.7294958664763973e+18,0.07651002705097198,0.010980179533362389,-9.785914421081543
1.7294958664853975e+18,0.012196226045489311,-0.015063105151057243,-9.793119430541992
1.7294958664913976e+18,0.04363736882805824,-0.07170608639717102,-9.820480346679688
1.7294958665003978e+18,0.08289212733507156,0.00739335548132658,-9.806608200073242
1.729495866509398e+18,-0.038060273975133896,-0.02334710955619812,-9.778398513793945
1.7294958665153981e+18,0.047238390892744064,-0.0402124859392643,-9.874216079711914
1.7294958665243983e+18,-0.017569895833730698,-0.03241904079914093,-9.791366577148438
1.7294958665333985e+18,0.018237145617604256,0.0169490035623312,-9.791921615600586
1.7294958665423987e+18,-0.005568987224251032,-0.007691055536270142,-9.826225280761719
1.7294958665483988e+18,0.042432863265275955,-0.0092668067663908,-9.890835762023926
1.7294958665633992e+18,-0.08535175025463104,0.04735707864165306,-9.829181671142578
1.7294958665723994e+18,0.045597489923238754,-0.15688036382198334,-9.863175392150879
1.7294958665783995e+18,-0.0748746395111084,-0.03477802500128746,-9.75970458984375
1.7294958665873997e+18,-0.010412598960101604,-0.01602899841964245,-9.826919555664062
1.7294958665963999e+18,0.016845019534230232,0.06972403824329376,-9.75842571258545
1.7294958666024e+18,-0.03528951108455658,-0.018390944227576256,-9.792555809020996
1.7294958666114002e+18,-0.014247773215174675,-0.005846813786774874,-9.811375617980957
1.7294958666174003e+18,0.009686887264251709,-0.04779164120554924,-9.785333633422852
1.7294958666264005e+18,0.004532431717962027,0.05752651020884514,-9.782333374023438
1.7294958666354007e+18,-0.06192287430167198,0.058792293071746826,-9.842784881591797
1.7294958666414008e+18,0.028614602982997894,-0.052529461681842804,-9.770371437072754
1.729495866650401e+18,-0.051719628274440765,0.030270567163825035,-9.767744064331055
1.7294958666594012e+18,-0.07104945182800293,-0.03693370521068573,-9.776910781860352
1.7294958666654013e+18,-0.005146856419742107,0.019093364477157593,-9.894693374633789
1.7294958666744015e+18,-0.007210953161120415,0.028677189722657204,-9.753013610839844
1.7294958666804017e+18,-0.007299313321709633,0.06721914559602737,-9.869027137756348
1.7294958666894019e+18,0.017685487866401672,-0.06726352125406265,-9.779013633728027
1.729495866698402e+18,-0.03148085996508598,0.0030759291257709265,-9.775569915771484
1.7294958667074022e+18,-0.02282458357512951,0.04882621392607689,-9.789928436279297
1.7294958667194025e+18,-0.005873373709619045,0.02323446236550808,-9.897703170776367
1.7294958667284027e+18,-0.030134452506899834,-0.006072729825973511,-9.696456909179688
1.729495866737403e+18,0.00982251763343811,0.08541691303253174,-9.789538383483887
1.729495866746403e+18,0.0685836598277092,-0.06510824710130692,-9.777789115905762
1.7294958667554033e+18,-0.03788554668426514,0.032076645642519,-9.849215507507324
1.7294958667644035e+18,-0.013059286400675774,-0.1086818128824234,-9.762205123901367
1.7294958667734036e+18,0.06706717610359192,-0.004329233430325985,-9.845356941223145
1.7294958667824038e+18,-0.0053375493735075,-0.06473912298679352,-9.83803653717041
1.729495866791404e+18,0.09179450571537018,-0.063016377389431,-9.7968111038208
1.7294958668034043e+18,-0.021331684663891792,-0.05316754803061485,-9.793234825134277
1.7294958668124045e+18,-0.10036443918943405,-0.01553242839872837,-9.777292251586914
1.7294958668214047e+18,-0.08579901605844498,-0.05850474536418915,-9.819572448730469
1.7294958668304049e+18,0.04956665262579918,0.06748239696025848,-9.859100341796875
1.729495866839405e+18,-0.000701111915986985,0.007776819635182619,-9.816730499267578
1.7294958668484052e+18,-0.027599915862083435,-0.015746301040053368,-9.868785858154297
1.7294958668574054e+18,0.052104655653238297,0.037361469119787216,-9.758563995361328
1.7294958668694057e+18,0.06025777384638786,-0.018727242946624756,-9.870759963989258
1.729495866878406e+18,-0.01575668714940548,-0.03772670403122902,-9.829648971557617
1.729495866887406e+18,0.03352948650717735,-0.09530996531248093,-9.850831985473633
1.7294958668964063e+18,0.051673609763383865,-0.07899992913007736,-9.83278751373291
1.7294958669054065e+18,-0.004667321220040321,-0.018446866422891617,-9.815935134887695
1.7294958669144067e+18,-0.0124890161678195,-0.07413170486688614,-9.811551094055176
1.7294958669204068e+18,0.05160945653915405,-0.04705500602722168,-9.818461418151855
1.729495866932407e+18,-0.01200205646455288,0.05259201303124428,-9.846116065979004
1.7294958669384072e+18,0.023727137595415115,0.00798887386918068,-9.78690242767334
1.7294958669474074e+18,0.029598334804177284,-0.02596142515540123,-9.766050338745117
1.7294958669534075e+18,-0.09417512267827988,0.07744265347719193,-9.77169132232666
1.7294958669624077e+18,-0.05589048191905022,-0.0395594984292984,-9.961414337158203
1.7294958669684078e+18,-0.014220266602933407,0.026329945772886276,-9.799032211303711
1.729495866977408e+18,0.07573094218969345,0.0024460263084620237,-9.813091278076172
1.7294958669864082e+18,-0.07795088738203049,0.03400062397122383,-9.752378463745117
1.7294958669924083e+18,0.06466519087553024,0.026745883747935295,-9.661565780639648
1.7294958670014085e+18,-0.016576342284679413,-0.012949034571647644,-9.734010696411133
1.7294958670104087e+18,-0.0075002023950219154,-0.07951821386814117,-9.791426658630371
1.729495867019409e+18,0.029416952282190323,-0.05933402106165886,-9.837459564208984
1.729495867025409e+18,0.01904793456196785,0.0015820510452613235,-9.810653686523438
1.7294958670344092e+18,0.05087066814303398,-0.00562898488715291,-9.814434051513672
1.7294958670434094e+18,0.025621872395277023,-0.06047430634498596,-9.72339916229248
1.7294958670494095e+18,0.008943294174969196,-0.0001249560300493613,-9.72994327545166
1.7294958670584097e+18,-0.09166556596755981,0.03965120017528534,-9.77169132232666
1.72949586706741e+18,0.02874576300382614,-0.018994363024830818,-9.8040771484375
1.7294958670794102e+18,-0.015816129744052887,0.08209159970283508,-9.81899356842041
1.7294958670884104e+18,-0.013713622465729713,-0.031685009598731995,-9.798908233642578
1.7294958670974106e+18,-0.003413936821743846,0.06054156273603439,-9.79524040222168
1.7294958671034107e+18,0.00788392499089241,0.042784277349710464,-9.86152172088623
1.729495867112411e+18,0.05110466852784157,-0.057003844529390335,-9.797320365905762
1.729495867121411e+18,-0.052909005433321,-0.0035847497638314962,-8.838436126708984
1.7294958671274112e+18,-0.04957045987248421,0.06600967049598694,-8.123302459716797
1.7294958671364114e+18,-0.07699380815029144,0.13603952527046204,-7.855314254760742
1.7294958671454116e+18,-0.0041457973420619965,0.0812244564294815,-7.830148696899414
1.7294958671544118e+18,-0.05085522308945656,0.07370778918266296,-9.407869338989258
1.729495867163412e+18,-0.14607077836990356,0.18782579898834229,-11.686217308044434
1.729495867169412e+18,-0.0712171271443367,0.004235126078128815,-12.101003646850586
1.7294958671784123e+18,-0.04868878424167633,0.11624767631292343,-12.282569885253906
1.7294958671874125e+18,-0.05216756463050842,0.1626737117767334,-12.181856155395508
1.7294958671964127e+18,-0.10352998971939087,0.04102366417646408,-12.271735191345215
1.7294958672054129e+18,-0.024548523128032684,0.21114958822727203,-11.769887924194336
1.729495867214413e+18,-0.09145665913820267,0.10228117555379868,-11.676102638244629
1.7294958672204132e+18,-0.031096547842025757,0.10198527574539185,-11.487102508544922
1.7294958672294134e+18,-0.03351636603474617,0.09274710714817047,-11.257251739501953
1.7294958672384136e+18,-0.056071192026138306,0.1288946568965912,-11.282830238342285
1.7294958672444137e+18,0.02618146687746048,0.13817618787288666,-11.22634220123291
1.729495867253414e+18,-0.03587230294942856,0.02655501291155815,-10.884954452514648
1.729495867262414e+18,-0.04468553513288498,0.021411720663309097,-10.728581428527832
1.7294958672714143e+18,0.0051138512790203094,0.09115101397037506,-10.404128074645996
1.7294958672804145e+18,-0.003915185108780861,0.08474979549646378,-10.187697410583496
1.7294958672894147e+18,0.009444192051887512,0.009775392711162567,-9.985139846801758
1.729495867301415e+18,-0.025024009868502617,0.05516156554222107,-9.869446754455566
1.7294958673134152e+18,-0.043448276817798615,-0.00122017040848732,-9.560258865356445
1.7294958673224154e+18,-0.05811518430709839,0.02837168239057064,-9.435568809509277
1.7294958673344156e+18,-0.02772439830005169,0.06950008869171143,-9.213347434997559
1.7294958673434158e+18,-0.0831446424126625,-0.015193585306406021,-9.217803001403809
1.729495867355416e+18,0.0026968279853463173,0.010149326175451279,-9.217755317687988
1.7294958673644163e+18,-0.013821757398545742,0.013603324070572853,-9.236637115478516
1.7294958673704164e+18,0.1085178479552269,0.06641916930675507,-9.067008018493652
1.7294958673824166e+18,0.020079584792256355,-0.08207416534423828,-8.934545516967773
1.7294958673914168e+18,-0.026887722313404083,0.03242647647857666,-8.927131652832031
1.729495867400417e+18,-0.06891334056854248,0.027571888640522957,-8.946394920349121
1.7294958674094172e+18,0.050740595906972885,-0.03959309682250023,-8.820034980773926
1.7294958674184174e+18,0.04315336048603058,-0.008745242841541767,-8.763775825500488
1.7294958674274176e+18,-0.03793518617749214,-0.05103658139705658,-8.807107925415039
1.7294958674364178e+18,0.018531810492277145,0.062218911945819855,-8.88048267364502
1.729495867445418e+18,-0.030202068388462067,0.060987211763858795,-8.76125431060791
1.7294958674544182e+18,0.06713229417800903,-0.005619386676698923,-8.703141212463379
1.7294958674634184e+18,0.037183620035648346,-0.0017436039634048939,-8.760842323303223
1.7294958674724186e+18,0.01555390004068613,-0.020007260143756866,-8.776548385620117
1.7294958674814188e+18,0.019829895347356796,-0.014593031257390976,-8.669032096862793
1.729495867490419e+18,-0.0128135085105896,-0.03476765751838684,-8.666459083557129
1.7294958674994191e+18,0.06164928525686264,-0.03547476977109909,-8.731695175170898
1.7294958675084193e+18,0.03980095684528351,0.011445526033639908,-8.553750991821289
1.7294958675174195e+18,-0.03255719318985939,0.020167667418718338,-8.511126518249512
1.7294958675234196e+18,0.03933650255203247,-0.006882787682116032,-8.610471725463867
1.7294958675324198e+18,0.14019635319709778,-0.021005764603614807,-8.581689834594727
1.72949586754142e+18,0.01311912015080452,-0.05109358951449394,-8.571762084960938
1.7294958675474202e+18,0.025028321892023087,-0.012660827487707138,-8.514057159423828
1.7294958675564204e+18,-0.03328976780176163,-0.08164379000663757,-8.54279899597168
1.7294958675654205e+18,0.08456367254257202,-0.012348831631243229,-8.588990211486816
1.7294958675714207e+18,0.01324925571680069,0.011695394292473793,-8.618587493896484
1.7294958675804209e+18,0.0332782007753849,0.04186294600367546,-8.6148099899292
1.729495867586421e+18,-0.027568873018026352,0.020792227238416672,-8.612677574157715
1.7294958675954212e+18,-0.005736919119954109,0.002766543999314308,-8.516108512878418
1.7294958676044214e+18,0.06664649397134781,-0.007598971948027611,-8.663734436035156
1.7294958676104215e+18,0.012596884742379189,-0.018185026943683624,-8.537750244140625
1.7294958676194217e+18,0.02994278445839882,0.046940404921770096,-8.550294876098633
1.7294958676254218e+18,0.00076287891715765,0.014455126598477364,-8.635895729064941
1.729495867634422e+18,-0.07088781148195267,-0.02307181805372238,-8.698108673095703
1.7294958676434222e+18,0.042254067957401276,0.01449173130095005,-8.722270965576172
1.7294958676494223e+18,0.050326570868492126,-0.013024638406932354,-8.56886100769043
1.7294958676584225e+18,-0.025477435439825058,0.005452791228890419,-8.68315315246582
1.7294958676644227e+18,0.029604632407426834,0.09544187039136887,-8.725452423095703
1.7294958676734228e+18,-0.0004915441386401653,-0.050163742154836655,-8.63390064239502
1.729495867682423e+18,-0.013707764446735382,-0.06496317684650421,-8.63850212097168
1.7294958676884232e+18,0.12764054536819458,-0.07020119577646255,-8.731451988220215
1.7294958676974234e+18,-0.015473458915948868,0.032663214951753616,-8.624845504760742
1.7294958677034235e+18,0.03767574578523636,0.011887358501553535,-8.819948196411133
1.7294958677124237e+18,-0.01046835444867611,-0.01841786503791809,-8.750750541687012
1.729495867721424e+18,-0.04716608300805092,0.04585609957575798,-8.797858238220215
1.729495867727424e+18,-0.06485327333211899,0.018840380012989044,-8.747862815856934
1.7294958677364242e+18,-0.06392315030097961,0.025806089863181114,-8.708306312561035
1.7294958677454244e+18,-0.03900424763560295,0.002594609512016177,-8.71731948852539
1.7294958677514245e+18,0.02474876679480076,-0.029753267765045166,-8.792255401611328
1.7294958677604247e+18,0.010170902125537395,-0.05820595473051071,-8.791522979736328
1.7294958677664248e+18,0.06882389634847641,-0.056163035333156586,-8.842493057250977
1.729495867775425e+18,-0.05548490211367607,0.0004217198002152145,-8.842981338500977
1.7294958677844252e+18,-0.0011205896735191345,0.004137306474149227,-8.822224617004395
1.7294958677904253e+18,0.039526645094156265,-0.08575379103422165,-8.905228614807129
1.7294958677994255e+18,-0.003948067780584097,-0.03898089379072189,-8.868447303771973
1.7294958678084257e+18,-0.012762700207531452,0.05970541387796402,-8.954227447509766
1.7294958678144259e+18,-0.13734595477581024,0.020166631788015366,-8.94321346282959
1.729495867823426e+18,0.03835547715425491,-0.003209487535059452,-8.86221694946289
1.7294958678324262e+18,-0.052809759974479675,0.05057855322957039,-8.975610733032227
1.7294958678414264e+18,-0.017064619809389114,0.03851053863763809,-8.925320625305176
1.7294958678504266e+18,-0.026275230571627617,-0.0425901859998703,-8.96925163269043
1.7294958678564268e+18,-0.03394709900021553,-0.018744075670838356,-8.935263633728027
1.729495867865427e+18,0.010124720633029938,0.06574440747499466,-8.918540954589844
1.7294958678744271e+18,0.0771615207195282,0.0607253834605217,-9.038795471191406
1.7294958678804273e+18,-0.04408454895019531,0.033064570277929306,-8.967117309570312
1.7294958678894275e+18,-0.02831500768661499,-0.015454074367880821,-8.943831443786621
