timestamp,gyro_x,gyro_y,gyro_z
1.729495855967173e+18,-0.0032677603885531425,4.1712621168699116e-05,-0.0009115570574067533
1.7294958559761733e+18,-0.0011492818593978882,-0.003132645972073078,-0.0004447398241609335
1.7294958559851735e+18,0.001411584671586752,-0.0009006320033222437,0.00047660694690421224
1.7294958559941737e+18,0.00048677457380108535,-0.0007721562287770212,-0.003370596095919609
1.7294958560001738e+18,-0.001745641347952187,0.0016478189500048757,0.001242858706973493
1.729495856009174e+18,0.0004175675567239523,-0.00046883622417226434,-0.0028851544484496117
1.7294958560151741e+18,0.0025631857570260763,-0.001617645611986518,0.0016736057586967945
1.7294958560241743e+18,0.0020443208049982786,0.0028749636840075254,-0.0016999068902805448
1.7294958560331745e+18,0.000667452288325876,0.0013041980564594269,0.001881373580545187
1.7294958560391747e+18,-0.0016967823030427098,0.0010869913967326283,0.0016292532673105597
1.7294958560481748e+18,0.0007652667700313032,0.0023402434308081865,-0.001340094138868153
1.729495856054175e+18,-0.00182152830529958,0.0005497941165231168,-0.0021014446392655373
1.7294958560631752e+18,0.0003703270049300045,-0.0007986744749359787,-0.0007386893848888576
1.7294958560721754e+18,-0.0019506575772538781,0.0009057865245267749,-0.0022019250318408012
1.7294958560811756e+18,-0.0028202314861118793,0.0018716469639912248,0.0006372139323502779
1.7294958560871757e+18,0.0010310083162039518,-0.0007038517505861819,-0.0011643992038443685
1.7294958560961759e+18,-0.000954255519900471,0.001527864602394402,0.0006084225024096668
1.729495856102176e+18,0.000449920044047758,0.0010716927936300635,0.0012373412027955055
1.7294958561111762e+18,-0.002107445150613785,-0.0025151774752885103,0.003776000114157796
1.7294958561171763e+18,-0.0026053907349705696,-5.350552237359807e-05,-0.002143195364624262
1.7294958561261765e+18,0.00040352315409108996,-0.0009991421829909086,0.0025204361882060766
1.7294958561321766e+18,-0.0007078418275341392,-0.0014142156578600407,0.0006862460868433118
1.7294958561411768e+18,0.00055828841868788,-0.0006166935781948268,0.0016189723974093795
1.729495856147177e+18,0.0023672208189964294,-0.0026482504326850176,-0.001996102975681424
1.7294958561561772e+18,-0.002215710701420903,0.00045118597336113453,-0.0013345193583518267
1.7294958561621773e+18,0.0017630174988880754,-0.0010962056694552302,0.0018326244316995144
1.7294958561711775e+18,-0.0014398838393390179,0.0009867686312645674,-0.001926341443322599
1.7294958561801777e+18,0.0009508138173259795,-5.5909335060277954e-05,0.0007310892688110471
1.7294958561861778e+18,-0.0014498827513307333,0.001968435477465391,0.0037601401563733816
1.729495856195178e+18,-0.0003458013234194368,0.0002290033589815721,-0.00021328766888473183
1.7294958562041782e+18,-0.0008786584949120879,9.136310836765915e-05,0.0010678377002477646
1.7294958562101783e+18,-0.0029227149207144976,0.0005865016719326377,0.0012223137309774756
1.7294958562191785e+18,0.002000577747821808,0.002922325860708952,-0.0009342918056063354
1.7294958562281787e+18,-0.0009270170121453702,0.002439367352053523,-0.0008452616748400033
1.7294958562341788e+18,-0.0007962804520502687,-0.0012913073878735304,0.004618144128471613
1.729495856243179e+18,-0.0014637834392488003,0.0023428527638316154,-0.002273619407787919
1.7294958562521792e+18,0.0012552468106150627,0.0007161679095588624,-0.0003731992619577795
1.7294958562581793e+18,0.0004654289805330336,-0.00018867738253902644,-0.002372365677729249
1.7294958562671795e+18,-0.0003040258015971631,0.001741280546411872,0.00044707974302582443
1.7294958562791798e+18,0.00038194749504327774,-0.00226509477943182,-0.0003046007186640054
1.72949585629118e+18,-0.00015432479267474264,0.003360745729878545,-0.0009528808295726776
1.7294958563031803e+18,0.0002555214741732925,-0.000535443308763206,0.0022031699772924185
1.7294958563091804e+18,0.0017221447778865695,0.0020620303694158792,-0.001311497762799263
1.7294958563181806e+18,0.0017869904404506087,0.002155813854187727,0.0012964921770617366
1.7294958563241807e+18,-0.003739182371646166,-0.0005816923221573234,-0.001652391511015594
1.729495856333181e+18,0.0036049906630069017,0.0029039557557553053,-0.0004253614752087742
1.729495856342181e+18,-0.00101085111964494,0.0031897681765258312,0.0017563855508342385
1.7294958563481812e+18,-0.0005730119301006198,-0.0006188791594468057,-0.0007667365134693682
1.7294958563571814e+18,0.0014867210993543267,-0.0006152152200229466,-0.0002625369234010577
1.7294958563631816e+18,0.0027466455940157175,0.0018280218355357647,0.00028934169677086174
1.7294958563721818e+18,-0.0006734760827384889,0.001381209585815668,-0.00046125942026264966
1.729495856381182e+18,0.0012918990105390549,0.0010465725790709257,0.0021738854702562094
1.729495856387182e+18,0.00189331138972193,0.0013172001345083117,0.00024976921849884093
1.7294958563961823e+18,0.001118460320867598,-0.00024578848388046026,-0.0017662675818428397
1.7294958564021824e+18,-0.0017298947786912322,0.0009375200024805963,0.0005556938122026622
1.7294958564111826e+18,-0.0013425274519249797,-0.0006334630306810141,-0.001774331321939826
1.7294958564201828e+18,-0.0008220929885283113,-0.00040758075192570686,0.0020524582359939814
1.729495856426183e+18,-0.0015954547561705112,-0.0024371840991079807,-0.0006850833888165653
1.729495856435183e+18,3.6178436857881024e-05,-0.0021049617789685726,-0.000752875639591366
1.7294958564411832e+18,2.214505002484657e-05,0.0010474558221176267,-0.0010765960905700922
1.7294958564501834e+18,-0.002340191975235939,0.001386586227454245,0.0010843782220035791
1.7294958564561836e+18,-0.002531963400542736,-0.0020467110443860292,-0.001570451189763844
1.7294958564651837e+18,-0.0006760258693248034,-0.00026816243189387023,-0.0003180610074196011
1.729495856471184e+18,0.0005257275770418346,-0.0011323638027533889,-0.0008842864190228283
1.729495856480184e+18,-0.001405553543008864,-0.0016783451428636909,-0.0016403849003836513
1.7294958564891843e+18,-0.00048588740173727274,-0.004207591991871595,0.0021323002874851227
1.7294958564951844e+18,0.0012259995564818382,-0.0017762326169759035,-0.003488360671326518
1.7294958565041846e+18,-0.0014322219649329782,-0.00010338036372559145,-0.001571106375195086
1.7294958565101847e+18,0.0010239011608064175,-0.001027039485052228,-0.003351563587784767
1.7294958565161848e+18,-0.0015287093119695783,-7.719543646089733e-05,-0.0023850342258810997
1.729495856525185e+18,0.0003854396636597812,-0.0005267391679808497,-0.0049142986536026
1.7294958565341852e+18,-2.930097616626881e-05,-0.001871070358902216,-0.0007680693524889648
1.7294958565401853e+18,0.0011385015677660704,-0.0015275441110134125,-0.0011261142790317535
1.7294958565491855e+18,0.000499904272146523,-0.0024255274329334497,-0.0016392705729231238
1.7294958565551857e+18,-0.0012961034663021564,-0.0024374087806791067,0.0020818838384002447
1.7294958565641859e+18,0.0008488439489156008,0.00034334795782342553,0.001838825410231948
1.729495856570186e+18,0.002573898993432522,-0.002986492356285453,0.0030921620782464743
1.7294958565791862e+18,-9.766503353603184e-05,-0.0006317553925327957,-0.00016001664334908128
1.7294958565851863e+18,-0.00034290237817913294,-0.0014448735164478421,0.0020191161893308163
1.7294958565971866e+18,0.0007472367724403739,0.0016457188175991178,0.0008249157690443099
1.7294958566031867e+18,0.0004468359693419188,0.004042018670588732,0.00024581191246397793
1.729495856612187e+18,-0.002814551815390587,5.6971963203977793e-05,0.0024717370979487896
1.729495856621187e+18,0.0019160300726071,0.00037630758015438914,-0.0006690064910799265
1.7294958566331873e+18,-0.0020325141958892345,0.0010701095452532172,0.0016552683664485812
1.7294958566421875e+18,-0.0037423460744321346,-0.0016874000430107117,0.00032174086663872004
1.7294958566511877e+18,-0.0011749470140784979,-0.001346750883385539,0.0011337825562804937
1.7294958566571878e+18,0.00048167130444198847,-0.0003894917026627809,-0.0010601102840155363
1.729495856666188e+18,0.0009234542958438396,0.0025459809694439173,0.0015732147730886936
1.7294958566751882e+18,0.0036502317525446415,0.0025135339237749577,0.0015002788277342916
1.7294958566841884e+18,-0.001032578875310719,-0.003295892383903265,-3.157323590130545e-05
1.7294958566931886e+18,-0.0005574585520662367,0.0013812546385452151,-0.0006082784384489059
1.7294958567021888e+18,-5.970520214759745e-05,0.0008516025845892727,-0.0034743298310786486
1.729495856708189e+18,3.3387375879101455e-05,-0.0009531890973448753,0.0003679583314806223
1.729495856717189e+18,-0.0020675247069448233,0.00018553122936282307,0.0007394238491542637
1.7294958567231892e+18,0.0004809358506463468,-0.0017725089564919472,0.0029982260894030333
1.7294958567321894e+18,0.0009633902227506042,0.0028542468789964914,-0.0015698384959250689
1.7294958567411896e+18,0.0005465088761411607,-0.0016092370497062802,0.0022151421289891005
1.7294958567471898e+18,0.0022517808247357607,-0.000577020924538374,0.0015315612545236945
1.72949585675619e+18,-0.0008324190275743604,-0.0006514053093269467,0.0005776773323304951
1.7294958567651901e+18,-2.391706766502466e-05,0.0024344855919480324,0.0005696303560398519
1.7294958567741903e+18,-0.00013989019498694688,-0.0005217021098360419,-0.0029788000974804163
1.7294958567801905e+18,-0.001669608405791223,0.00012031133519485593,-0.0003681780945044011
1.7294958567891907e+18,0.0012198911281302571,0.0016979525098577142,-5.7463614211883396e-05
1.7294958567951908e+18,0.00038439317722804844,0.001385989598929882,-0.0014557186514139175
1.729495856804191e+18,4.866772360401228e-05,-0.0030403942801058292,0.0016836083959788084
1.729495856810191e+18,0.0020762316416949034,-0.0008900364045985043,-0.0007317877025343478
1.7294958568191913e+18,0.0001980122469831258,0.0002522403374314308,-0.0009177470346912742
1.7294958568281915e+18,-0.0014598803827539086,-0.0012757357908412814,-0.00019273806537967175
1.7294958568341916e+18,0.0008233966655097902,0.0004663856525439769,0.0019357954151928425
1.7294958568431918e+18,-0.0006259545916691422,-0.001599397393874824,-0.0015101160388439894
1.729495856849192e+18,-0.0006412153597921133,-0.0026439002249389887,0.002158922841772437
1.7294958568581921e+18,-0.002839150605723262,-0.00012572506966535002,-0.000802714261226356
1.7294958568671923e+18,0.0017714054556563497,0.00045926382881589234,0.0003428831114433706
1.7294958568731924e+18,0.0012411132920533419,-0.0026625352911651134,0.0021595258731395006
1.7294958568821926e+18,0.0008594549144618213,-0.0016546437982469797,-0.0017872181488201022
1.7294958568881928e+18,-0.001237326767295599,0.0005271445261314511,-0.0015109957894310355
1.729495856897193e+18,0.000435125723015517,0.0010169242741540074,0.0028615794144570827
1.729495856903193e+18,-0.0011615414405241609,-0.00012541371688712388,0.0025264346040785313
1.7294958569121933e+18,0.0014290163526311517,0.002266120631247759,0.0016833646222949028
1.7294958569211935e+18,-0.0012903035385534167,-0.004283778835088015,0.0002951070200651884
1.7294958569301937e+18,0.0022476885933429003,-0.0006181494100019336,-0.0012084216577932239
1.7294958569361938e+18,0.00019864097703248262,-0.0021730749867856503,-0.003387041389942169
1.729495856945194e+18,0.0025629939045757055,-0.00033335608895868063,0.0014656446874141693
1.7294958569541942e+18,0.0018047454068437219,-0.0024016471579670906,0.0002869603631552309
1.7294958569631944e+18,0.0011888305889442563,-0.0028819909784942865,0.0006318250671029091
1.7294958569721946e+18,0.00028594929608516395,-0.00011887646542163566,-0.00010498439223738387
1.7294958569781947e+18,-0.0025731532368808985,0.0005580330616794527,0.0034004515036940575
1.729495856987195e+18,-0.0008724097278900445,0.0021524897310882807,0.0017138656694442034
1.729495856996195e+18,0.0011243484914302826,-0.0008511174819432199,0.001369054545648396
1.7294958570051953e+18,-0.0015097911236807704,-0.0018359975656494498,0.00037328313919715583
1.7294958570111954e+18,0.00042442037374712527,-0.001956235384568572,-0.00027952564414590597
1.7294958570201956e+18,-0.0005632733227685094,0.0015184306539595127,1.1557615835044999e-05
1.7294958570291958e+18,-0.0004764141049236059,0.0014013481559231877,-0.001234773313626647
1.729495857038196e+18,0.00033347218413837254,0.0004118754295632243,0.00044587464071810246
1.7294958570471962e+18,-0.004596404731273651,-0.001237343531101942,0.0006150691187940538
1.7294958570531963e+18,0.0015945574268698692,-0.0027854403015226126,0.0001633280626265332
1.7294958570621965e+18,0.002033906988799572,-0.0006281574605964124,-0.0005163609166629612
1.7294958570711967e+18,0.0011793769663199782,0.0003137012536171824,-0.001524103106930852
1.7294958570771968e+18,-0.0018768145237118006,0.0020272857509553432,0.00042092561488971114
1.729495857086197e+18,-0.00022430066019296646,0.0028175394982099533,-0.0018960859160870314
1.7294958570951972e+18,-0.0025034542195498943,-0.00046057195868343115,0.0003685085102915764
1.7294958571041974e+18,-0.001067431876435876,-0.0014497906668111682,-0.00021438475232571363
1.7294958571101975e+18,0.0015610081609338522,-0.0015793421771377325,0.0003428788622841239
1.7294958571191977e+18,0.0016885680379346013,-0.0008082072017714381,0.0009200542699545622
1.7294958571251978e+18,-0.002720942720770836,0.00030559999868273735,0.00048746573156677186
1.729495857134198e+18,-0.0017073203343898058,0.0005034676869399846,0.001348485122434795
1.7294958571431982e+18,-0.002533688209950924,0.0015719725051894784,-0.00043441279558464885
1.7294958571491983e+18,0.0010141129605472088,0.0005521887796930969,-0.0009868575725704432
1.7294958571581985e+18,0.000997437397018075,0.0006736048380844295,-0.0015025475295260549
1.7294958571671987e+18,0.0005267906817607582,-0.002720004878938198,0.00019429688109084964
1.7294958571731988e+18,-0.0005549772176891565,-0.00017875189951155335,0.0006134167779237032
1.729495857182199e+18,0.0007386745419353247,0.003408858086913824,-1.51663480210118e-05
1.7294958571911992e+18,-0.0020726483780890703,-0.0007717347471043468,0.00033676650491543114
1.7294958571971994e+18,0.0010302106384187937,0.00019889636314474046,0.0031402374152094126
1.7294958572061996e+18,-0.0008335098391398787,-0.00041007346590049565,0.0007588466396555305
1.7294958572151997e+18,-0.000755691435188055,-0.0016892957501113415,-0.0004907507682219148
1.7294958572212e+18,-0.0013596531935036182,0.0015113151166588068,-0.0017933935159817338
1.7294958572302e+18,0.0017672847025096416,-0.0006004603346809745,-0.0008210086380131543
1.7294958572392003e+18,-0.000282825727481395,-0.0017955604707822204,-0.0019816879648715258
1.7294958572452004e+18,-0.0011717468732967973,0.00036343486863188446,0.0012305830605328083
1.7294958572542006e+18,-0.001363846124149859,0.003895301604643464,-0.000993601162917912
1.7294958572602007e+18,0.0009071634849533439,0.001500678132288158,0.0004592058539856225
1.729495857269201e+18,-0.00028076008311472833,0.0014303269563242793,-0.00019296476966701448
1.729495857275201e+18,-0.00171371188480407,0.0004942084779031575,0.002796571934595704
1.7294958572842012e+18,-0.0012299753725528717,0.003088900353759527,-0.0033993616234511137
1.7294958572932014e+18,-0.001586951082572341,-0.0008363470551557839,-0.0006960651371628046
1.7294958572992015e+18,-0.0019160816445946693,0.0017521915724501014,-0.0009162749047391117
1.7294958573082017e+18,-0.0009370241314172745,-0.00013182222028262913,-0.0006269961013458669
1.7294958573142019e+18,-0.001154308789409697,-0.0022652894258499146,0.0006258275243453681
1.729495857323202e+18,0.0012912594247609377,0.0006048258510418236,-0.0003578018513508141
1.7294958573322022e+18,0.0006257822387851775,0.00238522095605731,-0.0014699259772896767
1.7294958573382024e+18,-0.0003534423012752086,-0.0029385974630713463,-0.0010122843086719513
1.7294958573472026e+18,0.0019500299822539091,-0.0021686546970158815,-0.0004759810690302402
1.7294958573532027e+18,0.0029832003638148308,0.00014789303531870246,0.0036597757134586573
1.729495857362203e+18,-0.002652312396094203,0.0002989128406625241,-0.00042698706965893507
1.729495857368203e+18,-0.001108862808905542,-0.00018739976803772151,0.001487943110987544
1.7294958573772032e+18,-0.0012091501848772168,-0.0019342413870617747,-0.003421667730435729
1.7294958573862034e+18,-0.0008178204880096018,-0.0011737291933968663,0.002070775255560875
1.7294958573922035e+18,-0.0009745071292854846,0.0021203001961112022,-0.0007390351966023445
1.7294958574012037e+18,0.001650410471484065,0.0006942139007151127,0.00027759966906160116
1.7294958574072038e+18,0.0019585611298680305,-0.0014591943472623825,0.0008924274588935077
1.729495857416204e+18,-0.0015437452821061015,0.0005304493242874742,-0.0007750008953735232
1.7294958574252042e+18,-0.0002594662655610591,-0.0014259209856390953,-0.00046283533447422087
1.7294958574312044e+18,-0.0007271604263223708,0.0012272580061107874,0.0008676116704009473
1.7294958574402045e+18,0.0009609626140445471,0.0017777122557163239,-4.773881664732471e-05
1.7294958574462047e+18,-0.0019050370901823044,0.0018024997552856803,-0.0010169732850044966
1.7294958574552049e+18,7.710469617450144e-06,0.0005122714792378247,1.2324446288403124e-05
1.729495857464205e+18,-0.0007997268112376332,0.0007903416990302503,0.00020727755327243358
1.7294958574702052e+18,-0.0023908817674964666,0.0011910881148651242,0.001709291827864945
1.7294958574792054e+18,-0.0015731877647340298,-0.0004414466384332627,9.685933036962524e-05
1.7294958574852055e+18,-0.0005083162104710937,9.43952636589529e-06,-0.0021566746290773153
1.7294958574942057e+18,-0.00014111977361608297,0.0025333222001791,-0.0009444609750062227
1.729495857503206e+18,0.0001815563446143642,-0.0004564375849440694,0.0021446337923407555
1.729495857509206e+18,0.002647878136485815,0.0005376969929784536,-0.0034030808601528406
1.7294958575182062e+18,0.0017092153429985046,-0.0007377586443908513,0.0011646277271211147
1.7294958575272064e+18,-0.0013026007218286395,0.0018570508109405637,0.00019432253611739725
1.7294958575332065e+18,-0.002071574330329895,0.0007920803618617356,0.0018184710061177611
1.7294958575422067e+18,-0.0006930826930329204,0.000501805916428566,0.0015010314527899027
1.729495857551207e+18,-0.0003341101109981537,-0.0008161119767464697,0.0007132943137548864
1.729495857557207e+18,0.0008275176514871418,-0.001804681378416717,-0.0008109654881991446
1.7294958575662072e+18,0.0015388556057587266,-0.000387012172723189,-0.0005846768035553396
1.7294958575752074e+18,-0.0014801067300140858,-0.0006833243533037603,0.0011108525795862079
1.7294958575812076e+18,0.0007523061358369887,-0.0005261294427327812,0.0014851792948320508
1.7294958575902077e+18,-0.0023094858042895794,-0.0007501077488996089,-0.0005905083962716162
1.7294958575962079e+18,0.0016319712158292532,-8.266975055448711e-05,0.0010996321216225624
1.7294958576082081e+18,0.0012524264166131616,-0.0023192318622022867,-0.0007369063096120954
1.7294958576142083e+18,-0.0010232391068711877,-0.0005551248323172331,0.0023483422119170427
1.7294958576232084e+18,0.0017427299171686172,0.0021195372100919485,-0.0008466328145004809
1.7294958576322086e+18,-5.505132776306709e-06,0.002057259436696768,0.000858890067320317
1.7294958576412088e+18,-0.0018830911722034216,-0.001198316691443324,-0.0015993521083146334
1.729495857647209e+18,-0.002721373224630952,-0.0001327043864876032,0.0010740768630057573
1.7294958576622093e+18,0.0015702089294791222,-0.0019615241326391697,0.0013380668824538589
1.7294958576682094e+18,-0.0007218566606752574,0.0017951946938410401,0.00013687825412489474
1.7294958576772096e+18,-0.0027520323637872934,0.0016851293621584773,0.0006875546532683074
1.7294958576862098e+18,0.0024001114070415497,-0.0017428337596356869,0.0009704598342068493
1.72949585769521e+18,9.98444011202082e-05,0.002166076097637415,0.0037963574286550283
1.7294958577042102e+18,0.00021146655490156263,0.0022960801143199205,0.002709656022489071
1.7294958577132104e+18,0.0010487198596820235,-0.004191693849861622,-0.0012127334484830499
1.7294958577222106e+18,-0.001320838462561369,0.0015581167535856366,-0.0013512307778000832
1.7294958577342108e+18,0.0016397436847910285,-0.00021831266349181533,0.001803412102162838
1.729495857740211e+18,-0.001810108427889645,0.002071977127343416,0.0009414225933142006
1.7294958577492111e+18,-1.3926683095633052e-05,0.00047664716839790344,0.0003303585108369589
1.7294958577612114e+18,-0.0009568309178575873,-0.0006533237756229937,0.00012721409439109266
1.7294958577672115e+18,0.0003034099063370377,0.0010823971824720502,-0.0020945363212376833
1.7294958577792118e+18,0.003093267558142543,0.0018802313134074211,0.005138926208019257
1.729495857788212e+18,8.693158451933414e-05,0.00046898721484467387,-7.858314347686246e-05
1.7294958577972122e+18,0.0015997375594452024,0.0011279027676209807,0.0009034062386490405
1.7294958578032123e+18,0.0024493811652064323,0.002365096705034375,0.0013724997406825423
1.7294958578152125e+18,0.0010584559058770537,-0.0001861462224042043,0.0004273201047908515
1.7294958578242127e+18,-0.0007773449178785086,-0.0001408450334565714,-0.0010477672331035137
1.7294958578302129e+18,-0.0021452512592077255,-0.0015357686206698418,0.0016238862881436944
1.729495857842213e+18,-0.0027686418034136295,0.0006967010558582842,0.0003953265259042382
1.7294958578512133e+18,-0.0021988358348608017,0.0005534492083825171,-0.0006824643351137638
1.7294958578572134e+18,-0.0005511395866051316,-0.0015798251843079925,0.00013417983427643776
1.7294958578662136e+18,0.0015225872630253434,0.002766852732747793,0.0012019063578918576
1.7294958578722138e+18,-0.004342568106949329,-0.0006140659097582102,0.0013002891791984439
1.729495857881214e+18,-0.0012983452761545777,0.00207685143686831,0.00032682204619050026
1.7294958578902141e+18,0.0003641762596089393,-0.0018681773217394948,0.00013446844241116196
1.7294958578962143e+18,-0.002572124358266592,-6.487529026344419e-05,-0.0015586146619170904
1.7294958579052145e+18,0.000274729507509619,0.003202920313924551,0.0010143007384613156
1.7294958579142147e+18,-0.0012653928715735674,-0.002058324171230197,-0.0027371037285774946
1.7294958579202148e+18,-0.00039053181535564363,-0.0023844235111027956,0.0002755741006694734
1.729495857929215e+18,0.00011834668111987412,-0.001415299717336893,0.002069405745714903
1.7294958579382152e+18,0.0005839546211063862,-0.0009005381143651903,-0.0003447476483415812
1.7294958579442153e+18,-0.0010269477497786283,0.0017425657715648413,-0.0006390077178366482
1.7294958579532155e+18,-0.0018545029452070594,0.0035908652935177088,-0.0008489016909152269
1.7294958579592156e+18,0.001456853118725121,4.124677070649341e-05,0.001332600018940866
1.7294958579682158e+18,0.002451328095048666,0.0009893003152683377,0.0003225807740818709
1.729495857977216e+18,0.002039231127128005,0.00027244811644777656,0.0008678929298184812
1.729495857983216e+18,-0.0002521794813219458,-0.0005440932000055909,0.00041032189619727433
1.7294958579922163e+18,0.0007320197764784098,0.0012308339355513453,-0.000928168767131865
1.7294958580072166e+18,0.00023474532645195723,0.003222101368010044,-0.001234860741533339
1.7294958580132168e+18,-0.0009618336334824562,-0.001503683510236442,-0.0008560621063224971
1.729495858022217e+18,-0.0021861419081687927,-0.00021920255676377565,-0.00024252633738797158
1.7294958580312172e+18,-0.0012768249725922942,0.0012277633650228381,-0.0005392406019382179
1.7294958580402173e+18,0.0006162945064716041,0.003010075306519866,-0.0018367699813097715
1.7294958580492175e+18,-0.00010547885904088616,-0.0026549366302788258,0.0017979182302951813
1.7294958580552177e+18,-0.00041719028376974165,0.0002367724518990144,0.0019630773458629847
1.7294958580642179e+18,-0.0012611160054802895,-7.77595050749369e-05,-9.980134200304747e-05
1.729495858073218e+18,0.0004901696811430156,0.0001516158226877451,-0.00056682393187657
1.7294958580792182e+18,-0.0014123268192633986,0.00011305746011203155,0.0017184907337650657
1.7294958580882184e+18,-0.001836171722970903,0.0023651381488889456,0.0015151725383475423
1.7294958580972186e+18,-0.0017178033012896776,0.002999246586114168,-0.0011269267415627837
1.7294958581032187e+18,-0.000199636779143475,-0.00232312292791903,0.0005080131231807172
1.729495858112219e+18,0.0009350715554319322,0.00011966862803092226,-0.00040737076778896153
1.729495858121219e+18,0.0002238020533695817,0.000742908101528883,0.0015247896080836654
1.7294958581272192e+18,0.0030672545544803143,-0.0005469278548844159,-0.0029555826913565397
1.7294958581362194e+18,0.0004962955717928708,-0.0006504646735265851,0.00261882902123034
1.7294958581422195e+18,-0.00041173415957018733,-0.0017340555787086487,0.0015203197253867984
1.7294958581512197e+18,-0.0033965404145419598,-0.00028605852276086807,1.2320850146352313e-05
1.72949585816322e+18,0.0008690315298736095,-0.0005382462404668331,0.0005529882619157434
1.7294958581722202e+18,0.0027487606275826693,-0.0008132716175168753,-0.0004582487454172224
1.7294958581782203e+18,-0.0013710593339055777,0.0016343318857252598,-0.001727381139062345
1.7294958581872205e+18,-0.0012696553021669388,0.002167755039408803,0.002358437515795231
1.7294958581962207e+18,-0.0008891315665096045,0.0007602396071888506,0.0022678012028336525
1.7294958582022208e+18,-0.003604070283472538,0.0020868282299488783,-0.004085983149707317
1.729495858211221e+18,-0.0007357498980127275,-0.0005779746570624411,-0.0017570260679349303
1.729495858217221e+18,-0.00029321887996047735,0.00178526493255049,-0.0021479669958353043
1.7294958582262213e+18,-0.00046652561286464334,-0.0017747202655300498,-0.0017960952827706933
1.7294958582352215e+18,-0.0010845618089661002,-0.0034063945058733225,0.0007924463134258986
1.7294958582412216e+18,0.0009267812129110098,-0.001522738952189684,-8.79181461641565e-05
1.7294958582502218e+18,0.0007845126092433929,0.0023105833679437637,-0.0012015770189464092
1.729495858259222e+18,0.0008583154412917793,0.00020497791410889477,0.002061904640868306
1.7294958582652221e+18,9.42540864343755e-05,-0.0007961001247167587,0.0021881270222365856
1.7294958582742223e+18,0.003340434981510043,-0.0009173121070489287,-0.0007829605019651353
1.7294958582802225e+18,-0.00033643958158791065,-0.0009027044288814068,0.0014946265146136284
1.7294958582892227e+18,-0.0009444268071092665,-0.0005964284646324813,-0.00011377195914974436
1.7294958582982228e+18,-0.0005421749083325267,-0.0008824006072245538,-0.0004694191156886518
1.729495858307223e+18,0.00014841929078102112,-0.0002476723457220942,-0.00018229785200674087
1.7294958583162232e+18,0.0003610953572206199,0.0014942465350031853,-0.0008315345621667802
1.7294958583222234e+18,0.0004923891392536461,-0.0011301679769530892,0.002147203078493476
1.7294958583312236e+18,-0.0006663920357823372,0.0013266908936202526,-0.0013931572902947664
1.7294958583402237e+18,0.0025862851180136204,-0.0017489832825958729,-0.002918367274105549
1.729495858349224e+18,0.00010422443301649764,-0.0018963993061333895,-0.0029363231733441353
1.729495858355224e+18,0.0002409536245977506,-0.0006703126709908247,-0.0010471061104908586
1.7294958583642243e+18,-0.0002582068264018744,0.0011974662775173783,-0.0021388204768300056
1.7294958583732244e+18,-0.001542059937492013,0.0007677532266825438,-0.000443110940977931
1.7294958583792246e+18,-0.003660785499960184,-0.01611984334886074,0.0005400780355557799
1.7294958583882248e+18,-0.01170622743666172,-0.0374627411365509,-0.0005320883356034756
1.729495858397225e+18,-0.013586903922259808,-0.060949329286813736,-0.003401615424081683
1.7294958584062252e+18,-0.018647149205207825,-0.06774981319904327,-0.002829316072165966
1.7294958584122253e+18,-0.01574082486331463,-0.07704371213912964,-0.0007167240837588906
1.7294958584212255e+18,-0.012548263184726238,-0.06848404556512833,-0.0030017748940736055
1.7294958584302257e+18,-0.01132985856384039,-0.0628637745976448,0.0005612235981971025
1.7294958584362258e+18,-0.006363001652061939,-0.06133834645152092,-0.0035286606289446354
1.729495858445226e+18,-0.009092058055102825,-0.05411210656166077,-0.0014356381725519896
1.7294958584542262e+18,-0.009082942269742489,-0.05920279398560524,-0.0010317303240299225
1.7294958584632264e+18,-0.014116316102445126,-0.06103131175041199,-0.0065078046172857285
1.7294958584692265e+18,-0.013426112942397594,-0.06443561613559723,-0.006425123196095228
1.7294958584782267e+18,-0.013395329937338829,-0.06551361829042435,-0.0072565022855997086
1.729495858487227e+18,-0.007234030868858099,-0.06341077387332916,-0.006375022232532501
1.729495858496227e+18,-0.009975033812224865,-0.05433289706707001,-0.005463986657559872
1.7294958585052273e+18,-0.006013654172420502,-0.041887324303388596,-0.0018533612601459026
1.7294958585112274e+18,-0.006282690912485123,-0.03830350935459137,-0.008742064237594604
1.7294958585202276e+18,-0.00573703134432435,-0.03274158388376236,-0.008828654885292053
1.7294958585292278e+18,-0.008490103296935558,-0.03293135389685631,-0.005210228264331818
1.729495858538228e+18,-0.007140671834349632,-0.03288336843252182,-0.008265365846455097
1.7294958585472282e+18,-0.0065568978898227215,-0.03106381930410862,-0.006930478848516941
1.7294958585562284e+18,-0.0066481721587479115,-0.024592144414782524,-0.00709629338234663
1.7294958585652285e+18,-0.005421255715191364,-0.01769842952489853,-0.007075761444866657
1.7294958585712287e+18,-0.001992778154090047,-0.014408175833523273,-0.009556809440255165
1.7294958585802289e+18,0.0017827101983129978,-0.0054740444757044315,-0.00915348157286644
1.729495858589229e+18,0.0005503700231201947,-0.002166295889765024,-0.009527845308184624
1.7294958585982292e+18,5.1424955017864704e-05,0.0016921412898227572,-0.009196667931973934
1.7294958586042294e+18,-0.000624686770606786,0.005368894897401333,-0.011286640539765358
1.7294958586132296e+18,-0.0014665568014606833,0.007639313582330942,-0.012010490521788597
1.7294958586222298e+18,0.005028954707086086,0.007921832613646984,-0.008604122325778008
1.72949585862823e+18,0.0062371413223445415,0.01320209726691246,-0.00863299798220396
1.72949585863723e+18,0.006672576069831848,0.014138756319880486,-0.010164046660065651
1.7294958586462303e+18,0.007213384844362736,0.019039588049054146,-0.011281229555606842
1.7294958586552305e+18,0.007078623399138451,0.02035483904182911,-0.009524645283818245
1.7294958586612306e+18,0.004229298792779446,0.01976221241056919,-0.007710270583629608
1.7294958586702308e+18,0.005595485679805279,0.02546549402177334,-0.011056844145059586
1.729495858679231e+18,0.003291192464530468,0.02664509415626526,-0.010394519194960594
1.729495858685231e+18,0.006871381308883429,0.026224210858345032,-0.01025078259408474
1.7294958586942313e+18,0.006491039413958788,0.027494894340634346,-0.009140603244304657
1.7294958587032315e+18,0.006717107258737087,0.028414057567715645,-0.013124670833349228
1.7294958587122317e+18,0.011149631813168526,0.02720244973897934,-0.013113198801875114
1.729495858721232e+18,0.006449960172176361,0.027727538719773293,-0.009732384234666824
1.729495858730232e+18,0.004608672112226486,0.02932746522128582,-0.012317235581576824
1.7294958587392323e+18,0.0021554697304964066,0.03254096955060959,-0.011959263123571873
1.7294958587452324e+18,0.006946887820959091,0.031236736103892326,-0.009017666801810265
1.7294958587542326e+18,0.005590343382209539,0.030269037932157516,-0.012623963877558708
1.7294958587632328e+18,0.006530061364173889,0.028805410489439964,-0.010951027274131775
1.729495858772233e+18,0.0077722202986478806,0.029697764664888382,-0.013048751279711723
1.7294958587812332e+18,0.008367971517145634,0.025892548263072968,-0.012725869193673134
1.7294958587872333e+18,0.006281014531850815,0.027359280735254288,-0.01257923524826765
1.7294958587962335e+18,0.006137707736343145,0.02839593216776848,-0.011558856815099716
1.7294958588052337e+18,0.003738421481102705,0.026887226849794388,-0.013635317794978619
1.7294958588112338e+18,0.00642338627949357,0.03214848041534424,-0.01277359202504158
1.729495858820234e+18,0.005692685022950172,0.028422323986887932,-0.015987355262041092
1.7294958588292342e+18,0.0020059244707226753,0.02736971154808998,-0.013069375418126583
1.7294958588352343e+18,0.007858268916606903,0.0278057511895895,-0.013262986205518246
1.7294958588442345e+18,0.007672643288969994,0.02705405279994011,-0.0125793581828475
1.7294958588502346e+18,0.003416013205423951,0.023345403373241425,-0.012394823133945465
1.7294958588592348e+18,0.004823776427656412,0.02457691915333271,-0.01252235658466816
1.729495858868235e+18,0.00449374970048666,0.024500397965312004,-0.01341623067855835
1.7294958588742351e+18,0.006224036682397127,0.022180387750267982,-0.013794057071208954
1.7294958588832353e+18,0.006517351604998112,0.02524932473897934,-0.013420233502984047
1.7294958588892355e+18,0.006529734469950199,0.025021623820066452,-0.013337713666260242
1.7294958588982356e+18,0.005484924651682377,0.02340434119105339,-0.01233629509806633
1.7294958589072358e+18,0.005299555137753487,0.020132403820753098,-0.015007304958999157
1.729495858913236e+18,0.0022632961627095938,0.016635682433843613,-0.011373134329915047
1.7294958589222362e+18,0.0036505497992038727,0.014084313064813614,-0.01322260219603777
1.7294958589312364e+18,0.004880959168076515,0.013582654297351837,-0.011618091724812984
1.7294958589372365e+18,0.0015646027168259025,0.016689196228981018,-0.013887980952858925
1.7294958589462367e+18,0.002634868025779724,0.018690625205636024,-0.012477611191570759
1.7294958589522368e+18,0.0019065283704549074,0.018310239538550377,-0.012681146152317524
1.729495858961237e+18,0.0015613528667017817,0.01561495941132307,-0.014117095619440079
1.729495858967237e+18,0.0022845640778541565,0.014209034852683544,-0.012447298504412174
1.7294958589762373e+18,-0.00023864058312028646,0.011852379888296127,-0.012220203876495361
1.7294958589852375e+18,0.00013274303637444973,0.009714920073747635,-0.012635350227355957
1.7294958589942377e+18,9.66847874224186e-05,0.009165323339402676,-0.01252849493175745
1.7294958590002378e+18,0.001976151717826724,0.010855210945010185,-0.013121764175593853
1.729495859009238e+18,0.001645304961130023,0.013138669542968273,-0.011045027524232864
1.7294958590182382e+18,0.002336357720196247,0.01422383077442646,-0.015672795474529266
1.7294958590242383e+18,0.0043281433172523975,0.009174248203635216,-0.011082954704761505
1.7294958590452388e+18,0.001059330883435905,0.007929270155727863,-0.01112694013863802
1.729495859057239e+18,0.0012864648597314954,0.007782740518450737,-0.009243658743798733
1.7294958590662392e+18,-0.00045806990237906575,0.0106244757771492,-0.01030491478741169
1.7294958590752394e+18,-0.000300319807138294,0.010872511193156242,-0.01165273692458868
1.7294958590842396e+18,-0.0003941571922041476,0.00893687829375267,-0.01112985610961914
1.7294958590932398e+18,-0.0002823363756760955,0.01167591754347086,-0.009397591464221478
1.72949585910224e+18,0.0021704304963350296,0.009765831753611565,-0.009959196671843529
1.7294958591112402e+18,-0.0007778764120303094,0.008512909524142742,-0.010880334302783012
1.7294958591172403e+18,-0.0012460312573239207,0.004176349379122257,-0.011847501620650291
1.7294958591262405e+18,0.0010866944212466478,0.008939707651734352,-0.011732066981494427
1.7294958591352407e+18,0.0009727127617225051,0.00976354070007801,-0.009818353690207005
1.7294958591412408e+18,0.0016884978394955397,0.011445391923189163,-0.0075126755982637405
1.729495859150241e+18,0.0031098807230591774,0.009048156440258026,-0.010073289275169373
1.7294958591592412e+18,0.003927015233784914,0.012073309160768986,-0.009879815392196178
1.7294958591652413e+18,0.0038940454833209515,0.010083884932100773,-0.015133872628211975
1.7294958591742415e+18,0.00022820360027253628,0.01002691499888897,-0.009221354499459267
1.7294958591832417e+18,0.00047486729454249144,0.00884594488888979,-0.010548053309321404
1.7294958591892419e+18,-0.003367509227246046,0.013964538462460041,-0.01065765880048275
1.729495859198242e+18,-0.0030976654961705208,0.009387226775288582,-0.01008999440819025
1.7294958592072422e+18,-0.0013971119187772274,0.010170905850827694,-0.00956274289637804
1.7294958592162424e+18,0.0005221448373049498,0.010044981725513935,-0.012279413640499115
1.7294958592222426e+18,0.0026382452342659235,0.007072381675243378,-0.007627391256392002
1.7294958592312428e+18,0.004806587006896734,0.00918849278241396,-0.009246552363038063
1.729495859240243e+18,0.00045886653242632747,0.007642640266567469,-0.008733097463846207
1.7294958592492431e+18,-0.0015209682751446962,0.0074212695471942425,-0.008846420794725418
1.7294958592582433e+18,-0.0004900379572063684,0.008081589825451374,-0.008686065673828125
1.7294958592672435e+18,-0.006174291949719191,0.007409230340272188,-0.01064255554229021
1.7294958592732436e+18,-0.004704145714640617,0.009033736772835255,-0.00916803628206253
1.7294958592822438e+18,-0.0026065302081406116,0.007048071827739477,-0.008689255453646183
1.729495859291244e+18,-0.0005183549365028739,0.0085673276335001,-0.009472508914768696
1.7294958593002442e+18,-0.001369364676065743,0.007285022176802158,-0.008746274746954441
1.7294958593092444e+18,-0.0012026289477944374,0.002910982584580779,-0.006803625263273716
1.7294958593182446e+18,-0.00273271300829947,0.0053349826484918594,-0.009067953564226627
1.7294958593272448e+18,-0.00039906660094857216,0.003170701675117016,-0.008533441461622715
1.729495859333245e+18,-0.0021940728183835745,0.00608244352042675,-0.004912354052066803
1.729495859342245e+18,-0.006692476570606232,0.005700432695448399,-0.006909945048391819
1.7294958593512453e+18,-0.00476327259093523,0.004394796676933765,-0.009250529110431671
1.7294958593572454e+18,-0.004682551603764296,0.0037065765354782343,-0.004483647644519806
1.7294958593662456e+18,-0.005093847401440144,0.004927799105644226,-0.008412759751081467
1.7294958593752458e+18,0.000915462092962116,0.008939895778894424,-0.00563787342980504
1.729495859384246e+18,0.0018842787249013782,0.008293600752949715,-0.005958330351859331
1.7294958593902461e+18,0.0016041018534451723,0.010977405123412609,-0.0054420288652181625
1.7294958593992463e+18,-0.00018987846851814538,0.009516604244709015,-0.005998694803565741
1.7294958594082465e+18,-0.0019646063446998596,0.005388866178691387,-0.007006645202636719
1.7294958594172467e+18,-0.005202233791351318,0.006455294322222471,-0.007594024296849966
1.7294958594232468e+18,-0.002920409431681037,0.006105353590101004,-0.007314310409128666
1.729495859432247e+18,-0.0026786313392221928,0.008532686159014702,-0.0054828450083732605
1.7294958594382472e+18,0.0004461605567485094,0.011082209646701813,-0.005409626290202141
1.7294958594472474e+18,0.0008339753840118647,0.008351129479706287,-0.007301177363842726
1.7294958594562476e+18,0.0016879530157893896,0.006126297637820244,-0.003939859569072723
1.7294958594652477e+18,0.003557694610208273,0.0024355980567634106,-0.006281179375946522
1.729495859471248e+18,0.0011195887345820665,0.005867214873433113,-0.006419996730983257
1.729495859480248e+18,0.0009113720152527094,0.0006131906993687153,-0.004383014980703592
1.7294958594862482e+18,0.00024430121993646026,0.006470188498497009,-0.004535956773906946
1.7294958594952484e+18,-0.0001986550778383389,0.002995302900671959,-0.0032125329598784447
1.7294958595042486e+18,0.0012455782853066921,0.005682971328496933,-0.003625701880082488
1.7294958595102487e+18,0.0013707646867260337,0.0027331975288689137,-0.006998291239142418
1.729495859519249e+18,0.0011662213364616036,0.004186517558991909,-0.002137275179848075
1.729495859528249e+18,0.005968956742435694,0.00015507417265325785,-0.005767750088125467
1.7294958595342492e+18,0.005452930461615324,0.0030743086244910955,-0.004011307843029499
1.7294958595432494e+18,0.002880498766899109,-0.0009849626803770661,-0.0036733155138790607
1.7294958595492495e+18,0.00013281757128424942,0.0003070477396249771,-0.002932639792561531
1.7294958595612498e+18,-0.001919224625453353,0.004277311265468597,-0.004867073148488998
1.72949585956725e+18,-0.004249819554388523,0.0019368163775652647,-0.0024355468340218067
1.72949585957625e+18,-0.0038820847403258085,0.0043760305270552635,-0.004547640681266785
1.7294958595852503e+18,-0.001287500374019146,0.005105361342430115,-0.0020425012335181236
1.7294958595942505e+18,0.0006877960404381156,-0.000732828862965107,-0.0036222345661371946
1.7294958596002506e+18,0.000801362912170589,0.0015192850260064006,-0.003254404291510582
1.7294958596092508e+18,-0.0004936425248160958,5.499258986674249e-05,-0.002432671608403325
1.729495859618251e+18,3.8271595258265734e-05,0.0006826412864029408,-0.0041396161541342735
1.7294958596272512e+18,-0.0026086452417075634,0.0035116770304739475,0.0008301569614559412
1.7294958596332513e+18,-0.003395546693354845,0.0007347636274062097,-0.003373127430677414
1.7294958596422515e+18,-0.002538184402510524,0.002865004353225231,-0.0017976786475628614
1.7294958596482516e+18,-0.0013335170224308968,-0.0015852410579100251,-0.0004427230451256037
1.7294958596572518e+18,0.0007223677821457386,0.0014869222650304437,-0.0005269050598144531
1.729495859663252e+18,-0.0020074357744306326,-0.00042198807932436466,-0.0015013315714895725
1.7294958596722522e+18,4.713539965450764e-06,-0.002905364613980055,0.0013911944115534425
1.7294958596812524e+18,0.0016333170933648944,-0.002057790756225586,-0.0017982741119340062
1.7294958596872525e+18,0.002651489805430174,-0.0022552681621164083,-0.0018921442097052932
1.7294958596962527e+18,-0.0018725763075053692,0.0015712367603555322,0.003916769288480282
1.7294958597052529e+18,-0.000172348169144243,-0.0013015965232625604,-0.0003593872534111142
1.729495859714253e+18,0.00015345588326454163,-0.0005379704525694251,-0.0013969461433589458
1.7294958597202532e+18,5.536421667784452e-07,0.001612683990970254,-0.0025267351884394884
1.7294958597292534e+18,0.0012078280560672283,-0.0018538195872679353,0.0004988310392946005
1.7294958597352535e+18,0.0031978643964976072,0.0023864051327109337,-0.0006972407572902739
1.7294958597442537e+18,0.0014100867556408048,-0.001060226233676076,-0.00010117294732481241
1.729495859753254e+18,0.0020950331818312407,0.0007474602898582816,0.002658064942806959
1.729495859759254e+18,-0.0007972250459715724,-0.002243644557893276,0.0013029694091528654
1.7294958597682542e+18,-0.0003060128656215966,-0.0004809154779650271,6.354652578011155e-05
1.7294958597772544e+18,3.899869625456631e-06,-0.0005921486881561577,-0.000381692050723359
1.7294958597832545e+18,-0.0004180526011623442,-0.00031605770345777273,-0.0020982958376407623
1.7294958597922547e+18,0.000267193594481796,-0.0007636404479853809,-0.0013493450824171305
1.7294958597982548e+18,0.000744104734621942,-0.0016370329540222883,-0.00031334656523540616
1.729495859807255e+18,-0.002947981236502528,0.0020477157086133957,-0.0011751399142667651
1.7294958598192553e+18,0.0019202935509383678,0.00027089586365036666,0.003688002936542034
1.7294958598252554e+18,-0.0004680850252043456,-0.0005106585449539125,-0.004792539868503809
1.7294958598342556e+18,0.0008175488328561187,-0.0009483934263698757,-0.0011009841691702604
1.7294958598432558e+18,-0.0012086108326911926,-0.0028631952591240406,-0.000744318647775799
1.729495859852256e+18,-0.0019121092045679688,0.0008031146135181189,0.000143987504998222
1.7294958598582561e+18,-0.004101112484931946,0.00030418112874031067,-0.000991773558780551
1.7294958598672563e+18,-0.007714646868407726,0.0002862051478587091,0.0006385322194546461
1.7294958598732564e+18,-0.000636253273114562,0.0005625587655231357,9.4445793365594e-05
1.7294958598822566e+18,-0.0014519207179546356,0.0038219280540943146,0.0025284485891461372
1.7294958598912568e+18,0.0035613863728940487,0.002969245193526149,0.0014154118252918124
1.729495859897257e+18,0.003566199215129018,0.002495378255844116,0.0019377714488655329
1.7294958599062572e+18,0.002123994752764702,0.0007260177517309785,-0.00038229761412367225
1.7294958599152573e+18,-0.0007014464354142547,0.0030907830223441124,0.0001334279077127576
1.7294958599212575e+18,-0.0010689778719097376,0.004013766534626484,-0.0012555152643471956
1.7294958599302577e+18,-0.004895147867500782,0.0032344127539545298,0.00169379822909832
1.7294958599362578e+18,0.0008113393560051918,0.0022787456400692463,-0.0006764095742255449
1.729495859945258e+18,-0.0011033595073968172,0.0011627080384641886,0.003483918961137533
1.7294958599542582e+18,0.0024894694797694683,0.0014728745445609093,-0.0002754931338131428
1.7294958599602583e+18,0.0034422893077135086,0.004129316657781601,0.0011704718926921487
1.7294958599692585e+18,0.0024064911995083094,0.003605990204960108,-0.0005114165833219886
1.7294958599752586e+18,-0.0015913589159026742,0.003799618221819401,0.00025816139532253146
1.7294958599842588e+18,0.0003235351759940386,0.004236242733895779,-0.003265336388722062
1.729495859993259e+18,-0.0019753931555896997,0.004593461751937866,-0.0006745548453181982
1.7294958600052593e+18,-0.004024467431008816,0.0010212926426902413,-0.000638018362224102
1.7294958600142595e+18,0.0007700014393776655,0.0012556505389511585,0.00011524706496857107
1.7294958600202596e+18,0.001903656404465437,-0.0025641354732215405,0.002593440003693104
1.7294958600292598e+18,-0.0016469224356114864,-0.0007385379867628217,-0.0007606213912367821
1.72949586003826e+18,0.003286811988800764,0.00047300878213718534,-0.002567160874605179
1.72949586004426e+18,0.0004956508637405932,0.0022784844040870667,-8.63882596604526e-05
1.7294958600532603e+18,0.0012441532453522086,0.0018413347424939275,-0.00177283666562289
1.7294958600592604e+18,-0.00021010416094213724,0.0013722095172852278,0.0016506342217326164
1.7294958600682606e+18,-0.0002043322310782969,0.0021137066651135683,-0.0007104018586687744
1.7294958600772608e+18,0.00036107562482357025,0.006993372458964586,-0.0008944126311689615
1.729495860086261e+18,0.001972958678379655,0.00458916649222374,-0.0029071036260575056
1.729495860092261e+18,0.0016551490407437086,0.004435875918716192,0.0016748406924307346
1.7294958601012613e+18,-0.0008125092717818916,0.006035675294697285,-0.00033980270382016897
1.7294958601072614e+18,-0.0017284636851400137,0.0017109892796725035,-0.0013455691514536738
1.7294958601162616e+18,0.001960254739969969,0.008723197504878044,0.0019342326559126377
1.7294958601252618e+18,-0.0011774525046348572,0.004905792884528637,0.0008945012232288718
1.729495860131262e+18,0.0030375069472938776,0.006421026773750782,-0.0007026971434243023
1.7294958601402621e+18,0.0008946878369897604,0.00656390655785799,-0.0002321350621059537
1.7294958601462623e+18,0.0044405339285731316,0.0032493858598172665,0.0017912685871124268
1.7294958601552625e+18,0.00287503469735384,0.00178619590587914,0.005169339012354612
1.7294958601642627e+18,0.005042752251029015,0.0020928001031279564,-0.00022727216128259897
1.7294958601702628e+18,0.0019163301913067698,0.003985426388680935,0.0015803552232682705
1.729495860179263e+18,0.002049272181466222,0.0018221399514004588,0.0005227492074482143
1.729495860185263e+18,0.0032515369821339846,0.004973315633833408,0.0025353715755045414
1.7294958601942633e+18,0.001351501327008009,0.0013548850547522306,0.0006328243180178106
1.7294958602032635e+18,0.0002890590112656355,0.005040009506046772,1.5008379705250263e-05
1.7294958602092636e+18,0.0020495608914643526,0.002533228136599064,0.00012952415272593498
1.7294958602182638e+18,0.0014620366273447871,0.001021852600388229,0.00021761399693787098
1.729495860224264e+18,0.0045931171625852585,0.0014132072683423758,-0.0010873561259359121
1.729495860233264e+18,0.0032763632480055094,0.0003410609206184745,0.002369122114032507
1.7294958602392643e+18,0.0012559563620015979,-0.001960635418072343,0.002182486467063427
1.7294958602482644e+18,0.0033547505736351013,-0.0029617995023727417,0.0010919159976765513
1.7294958602572646e+18,-0.0015133209526538849,-0.0036890325136482716,0.0005939393304288387
1.7294958602632648e+18,0.0001257925177924335,-0.0013150102458894253,-0.00034442555624991655
1.729495860272265e+18,0.0008720767800696194,-0.0014769749250262976,0.0014535411028191447
1.7294958602812652e+18,0.0019705630838871002,-0.002958895405754447,-0.0003229893045499921
1.7294958602872653e+18,0.0034109768457710743,-0.0005412301979959011,0.0005532238865271211
1.7294958602962655e+18,0.00126578938215971,-0.005496635101735592,0.001255083130672574
1.7294958603112658e+18,0.0012272531166672707,-0.005573139991611242,0.0018278674688190222
1.729495860317266e+18,0.0019755633547902107,-0.0053311558440327644,0.0013188810553401709
1.729495860326266e+18,-0.0005474052159115672,-0.002041927305981517,-0.0023966110311448574
1.7294958603352663e+18,-0.00016039330512285233,-0.006566593423485756,0.0037149302661418915
1.7294958603412664e+18,0.0026853932067751884,-0.004549138247966766,0.00024327420396730304
1.7294958603502666e+18,-0.0020508989691734314,-0.005706252530217171,0.00016620435053482652
1.7294958603562668e+18,0.0031651309691369534,-0.007981032133102417,0.00285537401214242
1.729495860365267e+18,0.0038309877272695303,-0.009268982335925102,0.0016600850503891706
1.729495860371267e+18,0.0022517878096550703,-0.008528058417141438,0.0012644815724343061
1.7294958603802673e+18,0.0021958211436867714,-0.00764814717695117,0.0006054698606021702
1.7294958603862674e+18,0.002827005460858345,-0.010042424313724041,0.001058652880601585
1.7294958603952676e+18,0.0016146685229614377,-0.00805719941854477,0.0001005105150397867
1.7294958604042678e+18,0.0005132714286446571,-0.002631348790600896,0.0037469363305717707
1.729495860410268e+18,0.00046547502279281616,-0.006075022276490927,0.0012007160112261772
1.729495860419268e+18,-2.1597370505332947e-06,-0.001640178496018052,-0.0019393879920244217
1.7294958604252682e+18,0.001308733131736517,-0.0020561390556395054,0.0013220262480899692
1.7294958604342684e+18,0.002351948292925954,-0.0035533744376152754,0.0009882893646135926
1.7294958604432686e+18,0.0013284838059917092,-0.003079643938690424,-0.0008483158890157938
1.7294958604492687e+18,0.0014038864756003022,-0.004327808506786823,0.0005889077438041568
1.729495860458269e+18,0.0012262313393875957,-0.00617619464173913,0.00022147224808577448
1.729495860467269e+18,-0.0007525656837970018,-0.007894374430179596,0.0011245550122112036
1.7294958604732692e+18,-0.004272339399904013,-0.006588843185454607,-0.0013784930342808366
1.7294958604822694e+18,-0.0047292853705585,-0.005124095361679792,0.0004426526138558984
1.7294958604912696e+18,-0.003264104714617133,-0.004296818748116493,-0.0008775523747317493
1.7294958604972698e+18,-0.0014285559300333261,-0.0033136270940303802,-0.0022728207986801863
1.72949586050627e+18,0.00185956503264606,-0.007492701523005962,-7.277861732291058e-05
1.7294958605152701e+18,-0.00217619352042675,-0.004908799193799496,-0.0022724338341504335
1.7294958605212703e+18,-0.00024835020303726196,-0.00429182592779398,-0.0005590572254732251
1.7294958605332705e+18,-0.00012063153553754091,-0.003957617096602917,0.00036788382567465305
1.7294958605392707e+18,-0.002058700192719698,-0.0001416520681232214,4.01526631321758e-06
1.7294958605482708e+18,-0.0025157334748655558,-0.0029417267069220543,-0.002385480562224984
1.729495860557271e+18,-0.0029857689514756203,-0.0009919239673763514,0.00105770374648273
1.7294958605632712e+18,0.0018526302883401513,-0.00245546642690897,-0.001351954648271203
1.7294958605722714e+18,0.0013519746717065573,-0.0022987299598753452,-0.0008426473359577358
1.7294958605782715e+18,-0.00027875666273757815,0.000357790500856936,-0.0007050710264593363
1.7294958605872717e+18,-0.0011048212181776762,-0.0003828807966783643,-0.0019298023544251919
1.7294958605962719e+18,0.003196017351001501,-0.0022610542364418507,-0.0028185639530420303
1.729495860602272e+18,-0.0017072692280635238,-0.0002333459269721061,-0.0014906558208167553
1.7294958606112722e+18,0.0006130093242973089,-0.0017463067779317498,-0.0015298707876354456
1.7294958606202724e+18,-0.0012976507423445582,-0.0001807996304705739,0.0024490670766681433
1.7294958606262725e+18,0.00027604459319263697,-0.001707573188468814,-0.0015096956631168723
1.7294958606352727e+18,-0.00425522169098258,-0.0016981590306386352,-0.0015702571254223585
1.7294958606412728e+18,-0.0025924211367964745,-0.004376524593681097,-0.0004905725363641977
1.729495860650273e+18,-0.0023032804019749165,-0.0027039977721869946,-0.0012238887138664722
1.7294958606592732e+18,0.0018961270106956363,-0.003618045011535287,0.0008456857758574188
1.7294958606652733e+18,0.0017682004254311323,0.0007986535783857107,0.0005721673951484263
1.7294958606742735e+18,-0.0017570997588336468,-0.0009130395483225584,0.0011519374093040824
1.7294958606802737e+18,0.001910023856908083,-0.00513193616643548,-0.0005146489711478353
1.7294958606892739e+18,-0.0034815380349755287,-0.0015809228643774986,-0.0004887614632025361
1.729495860698274e+18,-0.0005151017103344202,0.0024091319646686316,-0.0012056836858391762
1.7294958607072742e+18,0.0028340397402644157,-0.0020195397082716227,0.0009843455627560616
1.7294958607132744e+18,-0.002019422361627221,-0.0004109892179258168,-0.000435270689195022
1.7294958607222746e+18,0.0007263215957209468,-0.002897050930187106,0.001197658246383071
1.7294958607312748e+18,0.00034214352490380406,-0.004636351950466633,-0.002477229107171297
1.729495860737275e+18,-0.0003361656272318214,-0.004126954823732376,-0.0009332899935543537
1.729495860746275e+18,0.0011372612789273262,-4.049157723784447e-05,-0.0011570905335247517
1.7294958607522752e+18,-0.0007388920057564974,-0.0012037151027470827,0.0005690469988621771
1.7294958607612754e+18,0.0014849734725430608,-0.0017711310647428036,-0.0003623434458859265
1.7294958607702756e+18,-0.0008679302409291267,-0.0009982433402910829,-0.0022727269679307938
1.7294958607762757e+18,0.0015104336198419333,-0.0008676654542796314,-0.0012408902402967215
1.729495860785276e+18,0.0020220710430294275,-5.5908458307385445e-06,0.0010131632443517447
1.729495860794276e+18,0.0032608890905976295,-0.0032703119795769453,-0.0009323216509073973
1.7294958608002762e+18,0.0026662175077944994,-0.0022566397674381733,-0.0032080695964396
1.7294958608152765e+18,0.004600882530212402,-0.0014431485906243324,-0.030611012130975723
1.7294958608242767e+18,0.00592130608856678,-0.002733544446527958,-0.043933283537626266
1.729495860833277e+18,0.008015516214072704,-0.00016398215666413307,-0.0454377643764019
1.729495860839277e+18,0.00879020057618618,-0.0023221683222800493,-0.04742356762290001
1.7294958608482772e+18,0.006889994256198406,-0.0036629277747124434,-0.047117479145526886
1.7294958608542774e+18,0.0034568007104098797,-0.0018032005755230784,-0.05012961104512215
1.7294958608632776e+18,0.00142240384593606,0.00019576470367610455,-0.04524723440408707
1.7294958608722778e+18,0.0006456658011302352,-0.0017162237782031298,-0.04629328101873398
1.729495860878278e+18,0.0005863935220986605,-0.0035442456137388945,-0.04649808257818222
1.729495860887278e+18,0.002210481557995081,-0.001325064105913043,-0.046436507254838943
1.7294958608932782e+18,0.002497395034879446,-0.0049751210026443005,-0.047599054872989655
1.7294958609022784e+18,0.005071769002825022,-0.004300057888031006,-0.0458558090031147
1.7294958609112786e+18,0.005041477736085653,-0.006918848492205143,-0.04482632502913475
1.7294958609172787e+18,0.003901564283296466,-0.0033677807077765465,-0.045854393392801285
1.729495860926279e+18,0.003648770973086357,-0.005166593939065933,-0.04040908068418503
1.729495860935279e+18,-0.0009295486379414797,-0.0030669239349663258,-0.04323044419288635
1.7294958609472794e+18,0.002064888598397374,-0.0013040798949077725,-0.04093160480260849
1.7294958609562796e+18,0.001744364039041102,-0.0035531502217054367,-0.04222782701253891
1.7294958609652797e+18,-0.00034194206818938255,-0.0022506690584123135,-0.03407999500632286
1.72949586097428e+18,-0.0013230934273451567,-0.0020382506772875786,-0.03829164430499077
1.72949586098028e+18,-0.0005197725840844214,-0.0027839390095323324,-0.036662507802248
1.7294958609892803e+18,-0.0003952295519411564,-0.0018058109562844038,-0.038302768021821976
1.7294958609952804e+18,-0.000383024918846786,-0.0011617694981396198,-0.034942883998155594
1.7294958610042806e+18,-0.003716388950124383,0.0017673816764727235,-0.034576985985040665
1.7294958610132808e+18,-0.002224031137302518,-0.00340934912674129,-0.0328374020755291
1.729495861019281e+18,-0.0072709061205387115,-0.002917226403951645,-0.031090853735804558
1.729495861028281e+18,-0.004725618287920952,-0.0030275306198745966,-0.029183287173509598
1.7294958610342812e+18,-0.004165155813097954,-0.006275033112615347,-0.02994016744196415
1.7294958610432814e+18,-0.0017046108841896057,-0.0046554626896977425,-0.02842174470424652
1.7294958610492815e+18,-0.0008502114797011018,-0.008088083937764168,-0.027860619127750397
1.7294958610582817e+18,-0.0009752506157383323,-0.0042320298962295055,-0.02892506681382656
1.729495861067282e+18,-0.0005994555540382862,-0.0036317119374871254,-0.027164962142705917
1.729495861073282e+18,-0.0031798197887837887,-0.004481850191950798,-0.0261163879185915
1.7294958610822822e+18,-0.00389648973941803,-0.0026720056775957346,-0.02734725922346115
1.7294958610882824e+18,-0.0016067798715084791,-0.004463255405426025,-0.025402843952178955
1.7294958610972826e+18,0.0010510350111871958,-0.0016761441947892308,-0.02893146499991417
1.7294958611062828e+18,0.0038050785660743713,-0.0017853337340056896,-0.028200829401612282
1.729495861112283e+18,-0.0036963701713830233,-0.0031098085455596447,-0.03135421872138977
1.729495861121283e+18,-0.0011845305562019348,0.0005337230977602303,-0.03435192257165909
1.7294958611302833e+18,0.0015788747696205974,0.00023233293904922903,-0.031068487092852592
1.7294958611392835e+18,-0.005006405990570784,-0.0020420453511178493,-0.031719133257865906
1.7294958611452836e+18,-0.0010235065128654242,0.0008786362013779581,-0.03816291689872742
1.7294958611542838e+18,-0.0005544601008296013,0.0012492462992668152,-0.0340779684484005
1.729495861160284e+18,-0.0021954039111733437,-0.0047962781973183155,-0.033079277724027634
1.729495861169284e+18,-0.0013216349761933088,0.0014236114220693707,-0.03158773109316826
1.7294958611812844e+18,-0.00022547910339199007,-9.534880518913269e-06,-0.028341466560959816
1.7294958611872845e+18,0.0036149718798696995,0.0017611156217753887,-0.02914753183722496
1.7294958611962847e+18,0.0012056526029482484,0.0006687946151942015,-0.028371213003993034
1.7294958612022848e+18,0.00014524685684591532,-0.0013817768776789308,-0.02946905419230461
1.729495861211285e+18,0.0010381924221292138,-0.0005423257825896144,-0.0259268656373024
1.7294958612202852e+18,-0.00015732075553387403,-0.003043713979423046,-0.026213407516479492
1.7294958612262853e+18,-0.0011292224517092109,-0.0012225850950926542,-0.026447542011737823
1.7294958612352855e+18,-0.0012878659181296825,-0.002768600592389703,-0.021494176238775253
1.7294958612442857e+18,0.0011973013170063496,-0.0052986741065979,-0.02242983505129814
1.729495861253286e+18,-0.0006767676677554846,-0.002107902429997921,-0.020388051867485046
1.729495861259286e+18,0.0026387404650449753,-0.0014921780675649643,-0.018875688314437866
1.7294958612682862e+18,0.004902295768260956,-0.0025805507320910692,-0.017887961119413376
1.7294958612742863e+18,0.0013368958607316017,-0.003352342639118433,-0.01751752942800522
1.7294958612832865e+18,-9.449649951420724e-05,-0.0037514474242925644,-0.014444857835769653
1.7294958612922867e+18,-0.0029870381113141775,-0.0031568994745612144,-0.014188271015882492
1.7294958612982868e+18,-0.003377519780769944,-0.003799507860094309,-0.0147653017193079
1.729495861307287e+18,-0.0008969662594608963,-0.0012922023888677359,-0.014419622719287872
1.7294958613162872e+18,-0.0014142431318759918,-0.0020389750134199858,-0.0137392682954669
1.7294958613222874e+18,0.00019006218644790351,-0.001205378444865346,-0.010006314143538475
1.7294958613312876e+18,-0.0010360073065385222,-0.0032703406177461147,-0.00893379095941782
1.7294958613372877e+18,0.002056836150586605,-0.003948787227272987,-0.005410030484199524
1.7294958613462879e+18,0.003077547997236252,-0.0014591752551496029,-0.0050442577339708805
1.729495861355288e+18,0.002118059666827321,-0.003979905508458614,-0.004248389042913914
1.7294958613612882e+18,0.0023018191568553448,-0.003160641063004732,-0.0015728528378531337
1.7294958613702884e+18,0.0006778126698918641,-0.003958366345614195,-0.0007435451843775809
1.7294958613792886e+18,-0.0038982213009148836,-0.005113854072988033,0.004122913349419832
1.7294958613852887e+18,-0.003372677369043231,-0.0008714785799384117,0.006420250982046127
1.729495861394289e+18,-0.004156163893640041,-0.0026194045785814524,0.002542677102610469
1.729495861403289e+18,-0.0027075582183897495,-0.004773827735334635,0.008518910966813564
1.7294958614092892e+18,-0.001247189473360777,-0.002571339486166835,0.010064602829515934
1.7294958614182894e+18,-0.0035126861184835434,-0.0023623364977538586,0.010698394849896431
1.7294958614242895e+18,-0.0011887585278600454,-0.001701992005109787,0.01573314517736435
1.7294958614332897e+18,0.0007953461026772857,-0.0016214950010180473,0.013060413300991058
1.72949586144229e+18,-0.0005135586252436042,-0.004156872164458036,0.014864431694149971
1.72949586144829e+18,-0.0011137935798615217,-0.000940796104259789,0.01897813193500042
1.7294958614572902e+18,-0.0022523971274495125,-0.002757343929260969,0.01919504627585411
1.7294958614662904e+18,-0.004414047580212355,0.0031023691408336163,0.02088276296854019
1.7294958614752906e+18,0.0007117212517186999,-0.000501818023622036,0.024685757234692574
1.7294958614812908e+18,0.0002700237091630697,-0.0004788543446920812,0.026092413812875748
1.729495861490291e+18,0.0043501234613358974,-0.003516801167279482,0.02715729922056198
1.729495861496291e+18,0.0027374504134058952,-0.0016816346906125546,0.027426864951848984
1.7294958615052913e+18,0.0010841849725693464,-0.0013444176875054836,0.031510986387729645
1.7294958615112914e+18,0.0031137980986386538,-0.0009593308204784989,0.03255300223827362
1.7294958615202916e+18,0.0029110093601047993,-0.0004844691138714552,0.034035418182611465
1.7294958615262917e+18,0.0010380741441622376,-0.00045991671504452825,0.03585315868258476
1.729495861535292e+18,0.0017767249373719096,-0.0014803328085690737,0.03545437753200531
1.729495861544292e+18,-0.0024551921524107456,-0.0020196824334561825,0.03708168491721153
1.7294958615502922e+18,-0.0007841103943064809,-0.002402768936008215,0.03666768968105316
1.7294958615592924e+18,0.001595258479937911,-0.004299302585422993,0.043411362916231155
1.7294958615682926e+18,0.0025616325438022614,-0.002527693286538124,0.04180276393890381
1.7294958615742927e+18,0.00529783871024847,-0.004323097877204418,0.0417722724378109
1.729495861583293e+18,0.0029585224110633135,-0.005472914315760136,0.04332532733678818
1.729495861589293e+18,0.0019515110179781914,-0.0028599512297660112,0.043349478393793106
1.7294958615982932e+18,-0.00021994794951751828,-0.003319981973618269,0.048613544553518295
1.7294958616042934e+18,0.0008585745235905051,-0.0023994201328605413,0.04898761212825775
1.7294958616132936e+18,-0.001523112179711461,-0.0024564228951931,0.045330557972192764
1.7294958616192937e+18,-0.0013044225051999092,-0.0007194331847131252,0.048581525683403015
1.729495861628294e+18,-0.0017979512922465801,0.001486882334575057,0.052214961498975754
1.729495861634294e+18,1.966042327694595e-05,-0.0001175139332190156,0.05076916888356209
1.7294958616432942e+18,0.001332686166279018,0.0003880735021084547,0.05003710836172104
1.7294958616492943e+18,-0.0010176105424761772,-0.001757717807777226,0.05333534628152847
1.7294958616582945e+18,0.0014784239465370774,-0.007029751781374216,0.05305594950914383
1.7294958616672947e+18,-0.0025479886680841446,4.350277595221996e-05,0.056820549070835114
1.7294958616732948e+18,-0.00034324382431805134,-0.004775792360305786,0.052998464554548264
1.729495861682295e+18,-0.0006939853774383664,0.003719329135492444,0.05747944861650467
1.7294958616912952e+18,0.0005026544677093625,-0.0004917592741549015,0.05726844072341919
1.7294958616972954e+18,0.0015265047550201416,0.0016286283498629928,0.05974424257874489
1.7294958617062956e+18,0.0017935052746906877,-0.0017129001207649708,0.05754385516047478
1.7294958617122957e+18,0.0024334206245839596,-0.003134387545287609,0.05955294147133827
1.729495861721296e+18,0.003564683021977544,-0.002353149466216564,0.06099596247076988
1.729495861730296e+18,-0.0014959118561819196,-0.0038121568504720926,0.06165171042084694
1.7294958617392963e+18,0.00044209195766597986,-0.0016886686207726598,0.05981554836034775
1.7294958617452964e+18,-0.0021834741346538067,-0.002593790180981159,0.06362537294626236
1.7294958617542966e+18,-0.0004989577573724091,-0.001890048966743052,0.06356871128082275
1.7294958617632968e+18,0.0021917950361967087,-0.002160122850909829,0.06087012588977814
1.729495861772297e+18,-0.002350262366235256,-0.0024954555556178093,0.06333314627408981
1.729495861778297e+18,0.0005006291903555393,-0.0027038867119699717,0.06486093252897263
1.7294958617872973e+18,0.00079300970537588,-0.0024250189308077097,0.06401164829730988
1.7294958617932974e+18,0.0003061125462409109,-0.004087092820554972,0.06355403363704681
1.7294958618052977e+18,-0.0010180757381021976,-0.0034512097481638193,0.06463418155908585
1.7294958618112978e+18,-0.0007046623504720628,0.0009628090774640441,0.06261136382818222
1.729495861820298e+18,-0.002352916169911623,0.00026948261074721813,0.06487366557121277
1.7294958618292982e+18,-0.002862729365006089,0.0005218674778006971,0.06738666445016861
1.7294958618352983e+18,-0.0002490333281457424,-0.0003056321875192225,0.06557366997003555
1.7294958618442985e+18,-0.0012371351476758718,-0.0033956491388380527,0.06642627716064453
1.7294958618532987e+18,-0.002117890166118741,-0.0031971982680261135,0.06917073577642441
1.7294958618592988e+18,-0.0016424141358584166,-0.003009569365531206,0.06612619012594223
1.729495861868299e+18,-0.001031416468322277,-0.006256007589399815,0.0675814300775528
1.7294958618772992e+18,-0.0002661467297002673,-0.007010539993643761,0.0706525444984436
1.7294958618832993e+18,0.002345938701182604,-0.004106313921511173,0.06792252510786057
1.7294958618922995e+18,0.002379521494731307,-1.9445549696683884e-05,0.06792725622653961
1.7294958619012997e+18,0.0011133416555821896,-0.0016692039789631963,0.06830249726772308
1.7294958619072998e+18,-0.0008398417849093676,-0.0012434603413566947,0.06856821477413177
1.7294958619163e+18,0.0017334342701360583,-0.00012721132952719927,0.06866807490587234
1.7294958619223002e+18,0.002752244472503662,-0.0032754146959632635,0.06721339374780655
1.7294958619313004e+18,0.002905289176851511,-0.001552467467263341,0.06799562275409698
1.7294958619433006e+18,0.0017866368871182203,-0.001034902292303741,0.07138349115848541
1.7294958619523008e+18,-0.0007382165640592575,-0.002755213063210249,0.06737371534109116
1.729495861961301e+18,-0.004640958737581968,-0.00797404907643795,0.06746886670589447
1.729495861967301e+18,-0.005798427853733301,-0.00948349479585886,0.0653650090098381
1.7294958619763013e+18,-0.009574704803526402,-0.011980443261563778,0.06396162509918213
1.7294958619853015e+18,-0.007622538600116968,-0.015691814944148064,0.06206886097788811
1.7294958619913016e+18,-0.006804680917412043,-0.01388748362660408,0.06209627538919449
1.7294958620003018e+18,-0.004518677014857531,-0.014030816033482552,0.05962108448147774
1.729495862006302e+18,-0.0033471458591520786,-0.016430983319878578,0.06213171407580376
1.7294958620153021e+18,-0.0017661270685493946,-0.01301516592502594,0.058792755007743835
1.7294958620243023e+18,-0.005958921276032925,-0.016933301463723183,0.05602997913956642
1.7294958620333025e+18,-0.006565527990460396,-0.013829326257109642,0.05814902111887932
1.7294958620393027e+18,-0.007801488973200321,-0.017977628856897354,0.05399051681160927
1.7294958620483028e+18,-0.011160042136907578,-0.017159992828965187,0.05375305563211441
1.729495862054303e+18,-0.010388222523033619,-0.021884800866246223,0.05751343071460724
1.7294958620633032e+18,-0.00526115857064724,-0.02321820706129074,0.053565386682748795
1.7294958620723034e+18,-0.0010821314062923193,-0.023457318544387817,0.05305630713701248
1.7294958620783035e+18,-0.0050988104194402695,-0.018721096217632294,0.04985154792666435
1.7294958620873037e+18,-0.0007157449726946652,-0.015212355181574821,0.050727713853120804
1.7294958620963039e+18,-0.003971906378865242,-0.016380125656723976,0.0482422411441803
1.729495862102304e+18,-0.00454871216788888,-0.012137076817452908,0.04693727195262909
1.7294958621113042e+18,-0.0062964861281216145,-0.014105590060353279,0.0461302176117897
1.7294958621203044e+18,-0.006562899798154831,-0.017857151105999947,0.04475352168083191
1.7294958621263045e+18,-0.007636377587914467,-0.021010521799325943,0.04424600675702095
1.7294958621353047e+18,-0.0018849053885787725,-0.019784558564424515,0.042527228593826294
1.729495862144305e+18,-0.0033533810637891293,-0.01814194768667221,0.04022398591041565
1.729495862150305e+18,-0.0016512072179466486,-0.016993144527077675,0.04180268198251724
1.7294958621593052e+18,-0.002642781240865588,-0.01023269072175026,0.040977876633405685
1.7294958621653053e+18,-0.0031363361049443483,-0.013063168153166771,0.041698914021253586
1.7294958621743055e+18,-0.0022103656083345413,-0.015399153344333172,0.03827908635139465
1.7294958621833057e+18,0.0007622577250003815,-0.010629349388182163,0.04186571016907692
1.7294958621893059e+18,-0.001916653709486127,-0.015089143067598343,0.03916943445801735
1.729495862198306e+18,-0.002894782926887274,-0.014340016059577465,0.037209972739219666
1.7294958622073062e+18,0.00132624595426023,-0.013224154710769653,0.036870311945676804
1.7294958622133064e+18,0.0032355068251490593,-0.014235475100576878,0.03952264040708542
1.7294958622223066e+18,0.0029069683514535427,-0.00939549133181572,0.0367971733212471
1.7294958622283067e+18,-0.00013090460561215878,-0.00908520445227623,0.033824287354946136
1.729495862237307e+18,0.00500477897003293,-0.008982503786683083,0.03302212804555893
1.729495862246307e+18,0.0007994809420779347,-0.008481929078698158,0.03453829139471054
1.7294958622523072e+18,0.00297167687676847,-0.007538149133324623,0.0341336689889431
1.7294958622613074e+18,0.0017074545612558722,-0.008424577303230762,0.033509381115436554
1.7294958622703076e+18,0.0011281230254098773,-0.008042058907449245,0.03501331806182861
1.7294958622763077e+18,0.0003208605048712343,-0.008372120559215546,0.029806042090058327
1.729495862285308e+18,-0.0009767413139343262,-0.004073763266205788,0.02882382646203041
1.729495862294308e+18,-0.0029329266399145126,-0.006617705337703228,0.03003741055727005
1.7294958623033083e+18,-0.00041774887358769774,-0.002028181217610836,0.03118044324219227
1.7294958623123085e+18,-0.00010646133159752935,-0.0018485371256247163,0.027962999418377876
1.7294958623183086e+18,0.0013638277305290103,-0.0012662839144468307,0.027997419238090515
1.7294958623273088e+18,-0.0010823762277141213,-0.002691620960831642,0.02782031148672104
1.729495862336309e+18,-0.0035724721383303404,-0.0026508732698857784,0.02710728533565998
1.729495862342309e+18,-0.005331755615770817,-0.0029583449941128492,0.02979734167456627
1.7294958623513093e+18,-0.002813343657180667,-0.0020305148791521788,0.028978347778320312
1.7294958623603095e+18,-0.002835444174706936,-0.003712992649525404,0.024984290823340416
1.7294958623723098e+18,-0.0013221141416579485,-0.004661118146032095,0.023824598640203476
1.72949586238131e+18,0.0005906947189942002,-0.0014915636274963617,0.023126672953367233
1.72949586238731e+18,-0.001323865493759513,-0.0016758446581661701,0.02348225936293602
1.7294958623963103e+18,-0.0037977651227265596,-0.0006398437544703484,0.02435986138880253
1.7294958624053105e+18,-0.0030802804976701736,0.0006145865772850811,0.02010742388665676
1.7294958624113106e+18,-0.005719983484596014,0.0019266405142843723,0.020239325240254402
1.7294958624203108e+18,-0.0017827530391514301,-0.00301551166921854,0.021424613893032074
1.729495862429311e+18,-0.0007537271594628692,0.00015048624482005835,0.022838717326521873
1.729495862435311e+18,-0.0013994025066494942,-0.0034173994790762663,0.019043726846575737
1.7294958624443113e+18,-0.001812262344174087,-0.0013385703787207603,0.018777038902044296
1.7294958624533115e+18,0.0008827592828311026,-0.0018210490234196186,0.018633399158716202
1.7294958624593116e+18,-0.0007187004666775465,0.00013853871496394277,0.020413443446159363
1.7294958624683118e+18,0.003488948568701744,-0.0009429191122762859,0.01980341598391533
1.729495862477312e+18,0.0005086506716907024,-0.0007230313494801521,0.019024403765797615
1.729495862483312e+18,-0.003371673636138439,0.004126552492380142,0.01897273398935795
1.7294958624923123e+18,-0.00014247599756345153,0.0009152315906248987,0.02010081708431244
1.7294958625013125e+18,0.0009590863483026624,-0.0012083584442734718,0.017191646620631218
1.7294958625103127e+18,-0.00046582974027842283,-0.0010611164616420865,0.018906617537140846
1.7294958625163128e+18,-0.00021853321231901646,-0.0013134281616657972,0.01702021062374115
1.729495862525313e+18,0.00027497438713908195,-0.0013458415633067489,0.01455513946712017
1.7294958625343132e+18,0.0031068925745785236,-0.0010391538962721825,0.019087061285972595
1.7294958625403133e+18,0.003908983431756496,-0.0008990159840323031,0.013877659104764462
1.7294958625493135e+18,0.003907943610101938,0.0029767057858407497,0.016493020579218864
1.7294958625583137e+18,0.0016338080167770386,0.0018308963626623154,0.015311574563384056
1.729495862567314e+18,0.0025665322318673134,0.0010678484104573727,0.01743963360786438
1.729495862573314e+18,0.00466115539893508,0.000849176081828773,0.015231800265610218
1.7294958625823142e+18,0.001359037822112441,0.0015512946993112564,0.013855941593647003
1.7294958625913144e+18,0.0016173864714801311,0.0037281939294189215,0.01203987468034029
1.7294958626063148e+18,0.001034240354783833,0.0016221919795498252,0.015144000761210918
1.729495862618315e+18,-0.00011246294889133424,0.0017052642069756985,0.013487248681485653
1.7294958626303153e+18,-0.00052213529124856,0.0004341467865742743,0.01181552093476057
1.7294958626393155e+18,0.002443061675876379,-0.002742387820035219,0.01183442771434784
1.7294958626483156e+18,0.006679501384496689,0.0008631347445771098,0.013232131488621235
1.7294958626573158e+18,0.006093055475503206,-0.0006580772460438311,0.009175600484013557
1.729495862663316e+18,0.006386971101164818,0.0019146361155435443,0.0072696637362241745
1.7294958626723162e+18,0.0021767353173345327,-0.0005389081779867411,0.00914421770721674
1.7294958626783163e+18,0.0026041758246719837,0.0011030624154955149,0.010029404424130917
1.7294958626873165e+18,0.007801717612892389,-0.0002899995888583362,0.006374394055455923
1.7294958626963167e+18,0.0026457859203219414,-0.0005817948840558529,0.011876687407493591
1.7294958627023168e+18,0.006423645652830601,-0.00010326423216611147,0.012452074326574802
1.729495862711317e+18,0.006128250155597925,0.002666569547727704,0.008816706016659737
1.7294958627203172e+18,0.007834256626665592,0.0017750065308064222,0.00866109598428011
1.7294958627263173e+18,0.00803492683917284,9.150360710918903e-05,0.009185615926980972
1.7294958627353175e+18,0.006588039919734001,0.0004016483435407281,0.008008916862308979
1.7294958627413176e+18,0.007008081302046776,0.003906291909515858,0.008985379710793495
1.7294958627503178e+18,-0.0001812828704714775,0.002325464505702257,0.008136842399835587
1.729495862759318e+18,0.004707962740212679,0.0054294876754283905,0.006090125534683466
1.7294958627653181e+18,0.0010176340583711863,0.005554354749619961,0.005888191983103752
1.7294958627743183e+18,0.002847330179065466,0.003055438632145524,0.0062642632983624935
1.7294958627833185e+18,0.004583496600389481,0.005841645412147045,0.005943776573985815
1.7294958627923187e+18,0.0033926423639059067,0.002404647646471858,0.007000924088060856
1.729495862801319e+18,0.0031145818065851927,0.0021881340071558952,0.007694310508668423
1.729495862810319e+18,0.0014580232091248035,0.003160091582685709,0.005506202578544617
1.7294958628163192e+18,0.002849494107067585,0.0027862940914928913,0.004814916290342808
1.7294958628253194e+18,0.00047407092642970383,0.0055839186534285545,0.005791060626506805
1.7294958628343196e+18,-6.276082422118634e-05,0.0061043198220431805,0.005207586567848921
1.7294958628433198e+18,0.0010089791612699628,0.006738169584423304,0.007044197991490364
1.72949586284932e+18,-0.0020172002259641886,0.005536709912121296,0.004151553846895695
1.7294958628583201e+18,0.002449469640851021,0.005320929456502199,0.0042389375157654285
1.7294958628673203e+18,0.0008462314726784825,0.0007719201967120171,0.00366463721729815
1.7294958628763205e+18,0.004247582983225584,0.003076737280935049,0.004102811217308044
1.7294958628823206e+18,0.003526422195136547,0.002510898048058152,0.004389881622046232
1.7294958628913208e+18,0.0052083320915699005,0.004696036223322153,0.004695685114711523
1.729495862900321e+18,-0.002842736430466175,0.009639016352593899,0.004832228180021048
1.7294958629093212e+18,0.0021901573054492474,0.007910382933914661,0.005678528919816017
1.7294958629153213e+18,-0.0021023827139288187,0.0035915966145694256,0.004268056247383356
1.7294958629243215e+18,0.0005901812110096216,0.0013202312402427197,0.0040143984369933605
1.7294958629333217e+18,0.000556692888494581,0.004459969699382782,0.007648847531527281
1.729495862942322e+18,0.0005362755036912858,0.004396418109536171,0.0038841308560222387
1.729495862948322e+18,0.003603456076234579,0.004328698385506868,0.0046463157050311565
1.7294958629573222e+18,0.0031274317298084497,0.006659192964434624,0.0029834986198693514
1.7294958629663224e+18,0.0037371416110545397,0.005480553954839706,0.0005338974297046661
1.7294958629753226e+18,-0.0016905085649341345,0.0028531267307698727,0.0031735755037516356
1.7294958629843228e+18,-0.007021076511591673,0.002753482898697257,0.002746314276009798
1.729495862990323e+18,-0.005272188689559698,0.00048221717588603497,0.0007187905721366405
1.7294958629993231e+18,-0.00352184334769845,-0.0001699822023510933,0.0040617878548800945
1.7294958630083233e+18,-0.002578150713816285,0.00294149830006063,0.0024917232804000378
1.7294958630173235e+18,-0.0003672462480608374,0.002742074429988861,0.004618455655872822
1.7294958630233236e+18,-0.0005085680168122053,0.002182470867410302,0.0024475015234202147
1.7294958630323238e+18,0.0029005480464547873,0.0038875164464116096,0.0014636885607615113
1.729495863041324e+18,-0.0014547022292390466,0.006712288595736027,0.004070280585438013
1.7294958630473242e+18,-0.0007462226785719395,0.004561149049550295,0.002419782103970647
1.7294958630563244e+18,-0.0028996546752750874,0.004079602658748627,-0.001403396250680089
1.7294958630653245e+18,-0.0036194100975990295,0.0018394871149212122,0.002749447710812092
1.7294958630743247e+18,-0.002607163041830063,0.005127205979079008,0.0031345898751169443
1.729495863083325e+18,-0.0023673661053180695,0.0027605814393609762,0.001699518645182252
1.729495863089325e+18,-0.0037098173052072525,0.004384262021631002,0.0007890751585364342
1.7294958630983252e+18,-0.0008167544146999717,0.004733390640467405,0.0035737594589591026
1.7294958631073254e+18,-0.004183166194707155,0.0037363923620432615,0.00033390731550753117
1.7294958631163256e+18,-0.005215039476752281,0.003877051640301943,0.0026476639322936535
1.7294958631223258e+18,-0.004158993251621723,0.0033900882117450237,0.003169745672494173
1.729495863131326e+18,-0.004738189280033112,0.0042602322064340115,0.00031376309925690293
1.7294958631403261e+18,9.850016795098782e-05,0.006573540158569813,0.0010932899313047528
1.7294958631463263e+18,-0.0008815297042019665,0.004786089528352022,-0.00045830110320821404
1.7294958631553265e+18,-0.0002890553732868284,0.0037122820504009724,0.0011301267659291625
1.7294958631643267e+18,0.0008152740192599595,0.004449799656867981,-8.372345473617315e-05
1.7294958631733268e+18,0.001085451920516789,0.004496273584663868,0.0008005337440408766
1.729495863179327e+18,-0.0002405532286502421,0.004555474501103163,0.0008190452354028821
1.7294958631883272e+18,0.0002460137184243649,0.0016050322446972132,-0.002104199957102537
1.7294958631973274e+18,-2.0738807506859303e-05,0.0071717482060194016,-0.0010361173190176487
1.7294958632033275e+18,-0.0014644202310591936,0.0061556794680655,0.0005969604244455695
1.7294958632123277e+18,-0.0031660706736147404,0.006116122007369995,-0.0010592472972348332
1.729495863221328e+18,0.00119880517013371,0.0056023676879704,0.0013924736995249987
1.729495863230328e+18,-0.0015874819364398718,0.004410203546285629,-0.0014819675125181675
1.7294958632363282e+18,0.001779588288627565,0.004480609204620123,0.0002124400343745947
1.7294958632453284e+18,-0.0009178543696179986,0.003366767894476652,-0.0008039340027607977
1.7294958632543286e+18,0.0001728244824334979,0.001424216665327549,0.0012873855885118246
1.7294958632633288e+18,0.0016004325589165092,0.0034731572959572077,-0.0005965913296677172
1.729495863269329e+18,0.0026091551408171654,0.0037614789325743914,-0.0007189838215708733
1.729495863278329e+18,-0.0017917079385370016,0.0051824795082211494,0.0017915649805217981
1.7294958632873293e+18,0.004610909149050713,0.007603521458804607,0.0002251630648970604
1.7294958632963295e+18,0.004167556297034025,0.007321026176214218,-0.0005762563087046146
1.7294958633023296e+18,0.004429988097399473,0.004055962897837162,-0.0057080090045928955
1.7294958633113298e+18,0.0030015003867447376,0.0050571514293551445,-0.00032175524393096566
1.72949586332033e+18,-0.0012783997226506472,0.005182055756449699,0.001559613854624331
1.72949586332633e+18,0.0012028570054098964,0.004859055392444134,-0.0021279682405292988
1.7294958633353303e+18,0.003908449783921242,0.005269363988190889,-0.0036886639427393675
1.7294958633443305e+18,0.0012166602537035942,0.004660538397729397,-0.002697081072255969
1.7294958633503306e+18,0.00043736444786190987,0.005338083021342754,-0.0009032138041220605
1.7294958633593308e+18,0.002312935423105955,0.0026140850968658924,-0.0031316287349909544
1.729495863368331e+18,0.0005992151563987136,0.0006686041597276926,-0.0012731285532936454
1.7294958633743311e+18,0.0022524541709572077,0.0010989559814333916,-0.0022852227557450533
1.7294958633833313e+18,0.0016018144087865949,0.0015054915565997362,-0.0033690501004457474
1.7294958633923315e+18,0.0038305739872157574,0.0050474898889660835,-0.00043349486077204347
1.7294958634013317e+18,0.0007993486942723393,0.006823720410466194,-6.93232286721468e-05
1.729495863410332e+18,0.0015037140110507607,0.004588584881275892,0.0004053878365084529
1.729495863416332e+18,0.0018632439896464348,0.0024201180785894394,0.001082428265362978
1.7294958634253322e+18,0.000452630192739889,0.0014536712551489472,-0.0008359872153960168
1.7294958634343324e+18,-0.0006044499459676445,0.0031902629416435957,0.00105461070779711
1.7294958634403325e+18,-0.0010730135254561901,0.003791269613429904,-0.002357160672545433
1.7294958634493327e+18,0.0021719573996961117,0.005346117075532675,-0.0029236148111522198
1.729495863458333e+18,0.0016670352779328823,0.004087964538484812,0.00016350054647773504
1.729495863467333e+18,0.0024780328385531902,0.0013269626069813967,-0.005044885911047459
1.7294958634763333e+18,0.004376441240310669,0.005347106605768204,-0.001330202678218484
1.7294958634853335e+18,0.004160379525274038,0.0012881632428616285,-0.0025041652843356133
1.7294958634973338e+18,0.0025331806391477585,0.006962637882679701,-0.002271257108077407
1.729495863506334e+18,0.0003765999572351575,0.00835166685283184,-1.8889084458351135e-05
1.7294958635153341e+18,-0.00044116293429397047,0.00932095106691122,-0.0013652851339429617
1.7294958635243343e+18,-0.0025006874930113554,0.007452365010976791,-0.0007049816194921732
1.7294958635333345e+18,-0.004218107555061579,0.004393453244119883,-0.0027369377203285694
1.7294958635423347e+18,-0.001157211372628808,0.003913532942533493,0.0003707581199705601
1.729495863551335e+18,0.0005614166148006916,0.0025037950836122036,-0.0030075041577219963
1.729495863560335e+18,2.793269231915474e-06,0.0035087524447590113,0.0009821022395044565
1.7294958635693353e+18,0.0011654202826321125,0.0035713890101760626,0.00010618951637297869
1.7294958635783355e+18,0.000568932737223804,0.007364298216998577,-0.0029597512912005186
1.7294958635843356e+18,-0.0014127236790955067,0.0059110610745847225,-0.0016134706092998385
1.7294958635933358e+18,-0.0015156108420342207,0.007172318175435066,-6.670353468507528e-05
1.729495863602336e+18,0.0009914615657180548,0.003605164820328355,-0.00185298768337816
1.7294958636113362e+18,0.004526611417531967,0.00441402941942215,-0.00385090010240674
1.7294958636203364e+18,0.001527154352515936,0.0040483856573700905,0.0004602225963026285
1.7294958636263365e+18,-0.0014395853504538536,0.00559372128918767,-0.0034300568513572216
1.7294958636353367e+18,-0.004538940265774727,0.005700233858078718,-0.00313732773065567
1.729495863644337e+18,0.00011913286289200187,0.009716820903122425,-0.002190370811149478
1.729495863650337e+18,0.00026352715212851763,0.011371919885277748,-0.0031732090283185244
1.7294958636593372e+18,-0.0006998932803981006,0.011309475637972355,-0.003191138617694378
1.7294958636683374e+18,-0.0013230838812887669,0.00874785240739584,-0.0023515578359365463
1.7294958636773376e+18,0.0020372136496007442,0.005491083487868309,-0.0034040859900414944
1.7294958636863378e+18,0.00012623649672605097,0.004597760736942291,-0.0035131254699081182
1.729495863692338e+18,0.0013303873129189014,0.005858555436134338,-0.001390934339724481
1.729495863701338e+18,0.0005577856209129095,0.0041014663875103,-0.00135237502399832
1.7294958637103383e+18,-9.82235069386661e-05,0.005654258653521538,-0.0008257455192506313
1.7294958637163384e+18,-0.0005438653752207756,0.007503337226808071,0.0005749331321567297
1.7294958637253386e+18,0.00046740705147385597,0.008684873580932617,-0.005158667452633381
1.7294958637313388e+18,-0.0004479335912037641,0.008444231003522873,-0.0013703556032851338
1.729495863740339e+18,-0.0013995578046888113,0.007661948911845684,-0.003443255089223385
1.7294958637493391e+18,-0.00292456173337996,0.0035006129182875156,-0.0016810320084914565
1.7294958637583393e+18,-0.003112402744591236,0.003258202224969864,-0.0049422066658735275
1.7294958637643395e+18,-0.0038907916750758886,0.004855291452258825,-0.002356920624151826
1.7294958637733396e+18,-0.00033755862386897206,0.006317539140582085,-0.003729982301592827
1.7294958637823398e+18,0.0013746992917731404,0.005788272246718407,0.003779433434829116
1.72949586379134e+18,0.0006309857126325369,0.006865291856229305,-0.001620793016627431
1.7294958638003402e+18,0.0012766296276822686,0.005134811624884605,-0.0009959593880921602
1.7294958638093404e+18,0.0004151463508605957,0.0060586947947740555,-0.0029733944684267044
1.7294958638153405e+18,0.0001864311780082062,0.006748152896761894,-0.005011542700231075
1.7294958638243407e+18,0.0017640143632888794,0.009422044269740582,-0.004836457781493664
1.7294958638303409e+18,-0.0012794418726116419,0.008084720931947231,-0.005048754625022411
1.729495863839341e+18,-4.0431623347103596e-05,0.01111556962132454,-0.0036609102971851826
1.7294958638513413e+18,-0.0026288682129234076,0.007740320172160864,-0.0025753534864634275
1.7294958638603415e+18,0.0015308817382901907,0.005682314746081829,-0.003985302522778511
1.7294958638693417e+18,4.339881706982851e-05,0.003727010451257229,-0.0026662920136004686
1.7294958638753418e+18,0.0020295402500778437,0.005896443966776133,-0.00300469808280468
1.729495863884342e+18,0.0003348662576172501,0.003258713986724615,-0.003733140416443348
1.7294958638933422e+18,-0.001264840131625533,0.006249784957617521,-0.0010744348401203752
1.7294958639023424e+18,0.002742708893492818,0.005612642038613558,-0.0027076806873083115
1.7294958639113426e+18,0.0006473184330388904,0.004500188864767551,-0.004875265993177891
1.7294958639203428e+18,0.0002936983946710825,0.0015599532052874565,-0.00571591779589653
1.729495863926343e+18,0.0010904022492468357,0.0028784950263798237,-0.005676948931068182
1.729495863935343e+18,0.003716161008924246,0.003283862257376313,-0.0054718442261219025
1.7294958639443433e+18,0.00457265367731452,0.004204486962407827,-0.001362186623737216
1.7294958639533435e+18,0.0017323228530585766,0.003565411549061537,-0.0014847664861008525
1.7294958639593436e+18,0.00024680831120349467,0.004937053192406893,-0.0022976514883339405
1.7294958639683438e+18,0.0011940065305680037,0.003902439959347248,-0.0004140951205044985
1.729495863977344e+18,-0.0013660925906151533,0.006227974779903889,-0.006361993029713631
1.7294958639863442e+18,0.0031517597381025553,0.0026589652989059687,-0.004615819081664085
1.7294958639953444e+18,0.0038736690767109394,0.003921938594430685,-0.0044059185311198235
1.7294958640013445e+18,0.001682109315879643,0.004319421481341124,-0.005853333510458469
1.7294958640103447e+18,0.0007961178198456764,0.0027715095784515142,-0.006072476506233215
1.729495864019345e+18,-0.0016801340971142054,0.00582579430192709,-0.004138990771025419
1.729495864028345e+18,-0.002677980111911893,0.005184016656130552,-0.0033875168301165104
1.7294958640343452e+18,-0.0019613986369222403,0.003822585567831993,-0.003531095338985324
1.7294958640433454e+18,-0.0018950898665934801,0.006043027155101299,2.12215818464756e-05
1.7294958640523456e+18,0.0030484639573842287,0.005700869020074606,-0.0027615297585725784
1.7294958640613458e+18,0.0030387802980840206,0.003343123709782958,-0.0031853739637881517
1.729495864067346e+18,0.0010721342405304313,0.00422725360840559,-0.0012574744177982211
1.729495864076346e+18,-0.0034793256781995296,0.004908169154077768,-0.006093320436775684
1.7294958640853463e+18,0.0016463847132399678,0.005888250656425953,-0.0035909153521060944
1.7294958640913464e+18,8.00852503743954e-05,0.008766685612499714,-0.0011940381955355406
1.7294958641003466e+18,-0.0008339961059391499,0.010860460810363293,0.0008957129903137684
1.729495864112347e+18,0.0037375660613179207,0.005732408259063959,-0.004186428152024746
1.729495864121347e+18,-0.0008273168932646513,0.005270929541438818,-0.003198547288775444
1.7294958641273472e+18,0.0015517189167439938,0.00491457199677825,-0.006037011276930571
1.7294958641363474e+18,-5.1450508181005716e-05,0.006024572066962719,-0.003236171556636691
1.7294958641453476e+18,-0.001830512541346252,0.0057848780415952206,-0.002265950432047248
1.7294958641513477e+18,-0.0013344247126951814,0.005236534401774406,-0.0008218602742999792
1.729495864160348e+18,0.00024087331257760525,0.009161360561847687,-0.0048619527369737625
1.729495864169348e+18,0.001175025594420731,0.012439161539077759,-0.0020779878832399845
1.7294958641753482e+18,0.0009722933173179626,0.007977723143994808,-0.0033586358185857534
1.7294958641843484e+18,0.0014202444581314921,0.008307009935379028,-0.0025308255571871996
1.7294958641933486e+18,-0.0028418663423508406,0.005117151420563459,-0.0016742743318900466
1.7294958642023488e+18,-0.0020211823284626007,0.006845882628113031,-0.003792638424783945
1.729495864208349e+18,-0.006133365444839001,0.003657066496089101,-0.0030169899109750986
1.729495864217349e+18,-0.0033545070327818394,0.007605978287756443,-0.002768101403489709
1.7294958642263493e+18,0.0005995837273076177,0.004860404413193464,-0.001220842357724905
1.7294958642353495e+18,0.00031397974817082286,0.006506454665213823,-0.0026878193020820618
1.7294958642443497e+18,0.002939588623121381,0.00623658113181591,-0.0005587011110037565
1.72949586425335e+18,0.0006586818490177393,0.004770481958985329,-0.0013783645117655396
1.72949586426235e+18,-0.0007623092969879508,0.00456265127286315,-0.003367625642567873
1.7294958642713503e+18,-0.0009431216749362648,0.00449784891679883,0.002300083404406905
1.7294958642803505e+18,-0.002308974741026759,0.0016147540882229805,0.00035301526077091694
1.7294958642923507e+18,0.0012891530059278011,0.004468181636184454,-0.0010243123397231102
1.729495864304351e+18,0.0019160844385623932,0.0030449277255684137,-0.0012404501903802156
1.7294958643163512e+18,0.007118813693523407,0.002836823696270585,-0.0026249827351421118
1.7294958643253514e+18,0.005844559520483017,0.003940397873520851,-0.0046063559129834175
1.7294958643373517e+18,0.00309103075414896,0.0006120903417468071,-0.004471077583730221
1.7294958643463519e+18,0.002630147384479642,-4.133128095418215e-05,-0.001853418187238276
1.7294958643583521e+18,0.0008389456197619438,0.001297899056226015,-0.0017474705819040537
1.7294958643703524e+18,0.0037364703603088856,0.002441797871142626,-0.003063102951273322
1.7294958643793526e+18,0.004580133594572544,0.002610106486827135,-0.003074561944231391
1.7294958643913528e+18,0.004851866979151964,0.004429127089679241,-0.0008203553734347224
1.729495864400353e+18,0.004419031552970409,0.0038405044469982386,-0.0022179821971803904
1.7294958644123533e+18,0.0013904431834816933,0.002414903836324811,-0.002175319939851761
1.7294958644213535e+18,-0.001005861908197403,0.004825778771191835,-0.00012527452781796455
1.7294958644333537e+18,-0.001399079686962068,0.005067088641226292,-0.004407401662319899
1.729495864442354e+18,-0.0026889811269938946,0.001379608642309904,0.0012933609541505575
1.729495864451354e+18,0.002956618322059512,0.007295651361346245,-0.0018125285860151052
1.7294958644603543e+18,0.003836969146504998,0.006099779158830643,-0.003820014651864767
1.7294958644723546e+18,0.0045714909210801125,0.006911350414156914,-0.003929906990379095
1.7294958644813548e+18,0.0005238856538198888,0.0063376231119036674,-0.0043763876892626286
1.729495864493355e+18,-0.0025114035233855247,0.002953324234113097,-0.0007280464051291347
1.7294958645023552e+18,-0.0026398389600217342,0.004657959099858999,-0.000420526834204793
1.7294958645143555e+18,0.0013185020070523024,0.006082747131586075,-0.002087072702124715
1.7294958645233556e+18,0.003179601626470685,0.0067639886401593685,-0.0011063743149861693
1.729495864535356e+18,0.0037285112775862217,0.000765940872952342,-0.00035265134647488594
1.729495864544356e+18,0.003459048690274358,-0.001588683109730482,-0.004754972644150257
1.7294958645533563e+18,0.000695362570695579,-0.00020255893468856812,-0.001974860206246376
1.7294958645653565e+18,-0.0011123177828267217,0.00029497710056602955,-0.0004189030732959509
1.7294958645743567e+18,-2.838799264281988e-05,0.0008319644257426262,-0.0037790865171700716
1.729495864583357e+18,0.0007366834324784577,-0.0005504762521013618,-0.004955614916980267
1.729495864592357e+18,0.0035002953372895718,0.0006410288624465466,-0.0025042749475687742
1.7294958646013573e+18,0.0070745381526649,0.0014166366308927536,-0.002868330106139183
1.7294958646103575e+18,0.004270902834832668,-0.0012956660939380527,-0.001461938489228487
1.7294958646223578e+18,-0.000360197969712317,0.000100082834251225,-0.0033523617312312126
1.729495864631358e+18,-0.00230194884352386,-0.0033896209206432104,-0.000624758074991405
1.7294958646403581e+18,-0.007979754358530045,-0.0012651549186557531,-0.0030922319274395704
1.7294958646493583e+18,-0.006388098932802677,-0.0004434977890923619,-7.501570507884026e-05
1.7294958646583585e+18,-0.0035011079162359238,0.0007761744782328606,-0.0028185639530420303
1.7294958646673587e+18,-0.000186114979442209,-0.0006603110814467072,-0.00015908805653452873
1.729495864676359e+18,0.0010441895574331284,0.0008285475196316838,-0.004106189124286175
1.729495864685359e+18,0.001691442565061152,-0.0024180165491998196,-0.0015462690498679876
1.7294958646943593e+18,-0.0012559068854898214,-6.790063343942165e-05,-0.001822369871661067
1.7294958647063596e+18,-0.0027160958852618933,-0.005189311690628529,-0.003986134193837643
1.7294958647153597e+18,-0.004451222717761993,-0.0037260912358760834,7.80750997364521e-05
1.72949586472436e+18,-0.007557349279522896,-0.0017678516451269388,-0.0011795010650530457
1.72949586473336e+18,-0.002227355493232608,-0.0022497079335153103,-0.0030036859679967165
1.7294958647393603e+18,-0.003236024407669902,-0.0010510674910619855,-0.0035567227751016617
1.7294958647483604e+18,0.0010935855098068714,0.0023118089884519577,-0.0025675466749817133
1.7294958647573606e+18,0.0034730504266917706,-0.0006758586969226599,-0.0019901730120182037
1.7294958647663608e+18,-0.0002915948280133307,-0.0035673826932907104,-0.001912443432956934
1.729495864775361e+18,-0.003449904266744852,-0.0009245923720300198,-0.0009891431545838714
1.7294958647843612e+18,-0.003498947247862816,-0.0008658659644424915,-0.0024831846822053194
1.7294958647933614e+18,-0.0038353698328137398,-0.0025926888920366764,-0.00584377720952034
1.7294958648023616e+18,-0.0013390565291047096,-4.571606405079365e-05,-0.002740973373875022
1.7294958648113618e+18,0.0009904425824061036,-0.0017574040684849024,-0.0030022221617400646
1.729495864823362e+18,0.004406580235809088,-0.002256799954921007,-0.00217464123852551
1.7294958648323622e+18,0.003937009256333113,-0.0011687775840982795,-0.0017220035661011934
1.7294958648413624e+18,-0.0029649341013282537,-0.0011737474706023932,-0.001584014156833291
1.7294958648503626e+18,-0.005910318344831467,0.0005635712295770645,-0.0033773421309888363
1.7294958648563628e+18,-0.0019312070216983557,-0.005020434968173504,0.00032281153835356236
1.729495864865363e+18,-0.0014842119999229908,-0.005557979457080364,-0.0043914406560361385
1.7294958648743631e+18,-0.0030331697780638933,-0.000754036707803607,-0.00388416089117527
1.7294958648833633e+18,-3.534555435180664e-05,-0.0025833933614194393,-0.0011465970892459154
1.7294958648923635e+18,-0.0010969738941639662,-0.000659539713524282,-0.0007326239719986916
1.7294958649013637e+18,-0.0019371852977201343,-0.003314353758469224,-0.0017083834391087294
1.7294958649073638e+18,-0.0027712215669453144,0.002836545929312706,-0.0013158933725208044
1.729495864916364e+18,-0.0016555313486605883,-0.0006956011056900024,-0.0034130970016121864
1.7294958649253642e+18,-0.0020833357702940702,-0.001323244534432888,-0.0047721825540065765
1.7294958649343644e+18,-0.003625251818448305,-0.0037428918294608593,-0.001601202180609107
1.7294958649463647e+18,-0.00186099240090698,-0.005024303682148457,0.00032826652750372887
1.7294958649553649e+18,0.0017301265615969896,-0.006962658371776342,-6.942800246179104e-05
1.729495864964365e+18,0.0011257666628807783,-0.006271387450397015,-0.005048579536378384
1.7294958649703652e+18,0.002506858669221401,-0.007855760864913464,-0.00557895191013813
1.7294958649793654e+18,0.0028123657684773207,-0.008968904614448547,-0.004312337841838598
1.7294958649883656e+18,-0.00011543580330908298,-0.008564865216612816,-0.0037505128420889378
1.7294958649973658e+18,-0.0011768911499530077,-0.004622158594429493,0.0007805787026882172
1.729495865006366e+18,-0.007219125051051378,-0.0050049046985805035,-0.003592666005715728
1.7294958650153661e+18,-0.003490698989480734,-0.0032621133141219616,-0.0007354851113632321
1.7294958650243663e+18,-0.0023578540422022343,-0.00479993037879467,-0.0016638850793242455
1.7294958650303665e+18,-0.001920538255944848,-0.005751926451921463,-0.002693382790312171
1.7294958650393667e+18,0.0009301202953793108,-0.005196673795580864,-0.0035892671439796686
1.7294958650483668e+18,0.00019095515017397702,-0.00696553336456418,-0.0027772909961640835
1.729495865060367e+18,-0.003964269068092108,-0.008921132422983646,-0.004554753191769123
1.7294958650693673e+18,-0.004635952413082123,-0.003466064343228936,-0.0011893101036548615
1.7294958650783675e+18,-0.0047039734199643135,-0.004920380190014839,-0.0034942864440381527
1.7294958650903677e+18,-0.0026847156696021557,-0.009037407115101814,-0.0034060264006257057
1.729495865099368e+18,-0.0035486980341374874,-0.004579417407512665,0.0010311310179531574
1.7294958651083681e+18,0.002889111405238509,-0.009340334683656693,-0.004534515086561441
1.7294958651203684e+18,0.0005821381928399205,-0.009741687215864658,-0.0044991616159677505
1.7294958651293686e+18,-0.0013246368616819382,-0.008019637316465378,-0.00298771308735013
1.7294958651383688e+18,0.0008573058876208961,-0.004721327219158411,-0.00169995310716331
1.729495865147369e+18,0.0012920431327074766,-0.004643992520868778,-0.0031949891708791256
1.7294958651563692e+18,-0.0006903837784193456,-0.0015336460201069713,0.0020190957002341747
1.7294958651683694e+18,-0.0019274190999567509,-0.004183200187981129,-0.006408443674445152
1.7294958651773696e+18,-0.0014707872178405523,-0.0029408426489681005,-0.001968574011698365
1.7294958651863698e+18,0.0004415725124999881,-0.0028323614969849586,0.0008288384415209293
1.72949586519537e+18,0.004510075785219669,-0.0014571823412552476,-0.0006861066212877631
1.7294958652043702e+18,0.0026332985144108534,0.0004899980267509818,-0.0026478394865989685
1.7294958652163704e+18,0.005944013129919767,-0.003472203854471445,-0.0013294762466102839
1.7294958652253706e+18,-0.0004939415957778692,-0.0010429859394207597,-0.0015983046032488346
1.7294958652343708e+18,0.0018450797069817781,-0.000779017573222518,-0.0020264897029846907
1.729495865246371e+18,0.002754244953393936,-0.001186551759019494,-0.0018470071954652667
1.7294958652583713e+18,0.0067941476590931416,0.001269433181732893,-0.0009944506455212831
1.7294958652673715e+18,0.005602359306067228,0.0033297548070549965,-0.0011959407711401582
1.7294958652763717e+18,0.0059294807724654675,0.0007577752694487572,-0.005864913575351238
1.729495865288372e+18,0.005326003301888704,0.0037087835371494293,-0.0037994638551026583
1.7294958652973722e+18,0.002504002070054412,-0.00022297515533864498,-0.0030276519246399403
1.7294958653093724e+18,0.0019816607236862183,0.0011260372120887041,-0.003788620699197054
1.7294958653183726e+18,0.000600478786509484,0.003634657710790634,0.0002488262252882123
1.7294958653273728e+18,0.0021200489718466997,0.00445783045142889,-0.003113281447440386
1.729495865339373e+18,0.0007185140857473016,0.0030792623292654753,0.0010470986599102616
1.7294958653483732e+18,0.0004940774524584413,0.0029182215221226215,-0.0024709547869861126
1.7294958653573734e+18,0.0027982855681329966,0.001111302524805069,-0.0012493811082094908
1.7294958653693737e+18,0.0029250048100948334,0.001479883212596178,-0.0024789050221443176
1.7294958653753738e+18,-0.0002709934487938881,0.0012091369135305285,-0.0013029980473220348
1.729495865384374e+18,0.0011513888603076339,-0.0015629706904292107,-0.002659765537828207
1.7294958653963743e+18,5.6683427828829736e-05,0.0013564140535891056,-0.000949678651522845
1.7294958654053745e+18,0.000706437393091619,-0.0029355459846556187,-0.0006106426008045673
1.7294958654143747e+18,0.0020851341541856527,-0.0032604460138827562,-9.740248788148165e-05
1.7294958654203748e+18,0.001048768637701869,-0.00032800479675643146,-0.0002017886145040393
1.729495865429375e+18,0.0008728073444217443,0.001832048175856471,-0.000640848302282393
1.7294958654383752e+18,-0.0001904677483253181,0.000667171087116003,-0.002498328685760498
1.7294958654443753e+18,0.00076019496191293,0.0009055957198143005,-0.0008940036059357226
1.7294958654533755e+18,-0.0026271557435393333,-0.0021467371843755245,-6.479048170149326e-05
1.7294958654593756e+18,-0.00010221917182207108,-0.004856899380683899,-0.003532368689775467
1.7294958654683758e+18,-0.0010615130886435509,-0.004797682631760836,-0.0019443101482465863
1.729495865474376e+18,0.0003898044815286994,-0.0011163856834173203,-5.0525879487395287e-05
1.729495865483376e+18,0.0023874742910265923,-0.0036663333885371685,-0.002541958587244153
1.7294958654893763e+18,0.0036457751411944628,0.0008106366731226444,-0.002793007530272007
1.7294958654983764e+18,0.0017640069127082825,-0.0009940480813384056,-0.0010400805622339249
1.7294958655043766e+18,-0.0001769044902175665,-0.0005168186035007238,-0.0016532806912437081
1.7294958655133768e+18,0.004609602503478527,-0.0017781597562134266,-0.0016346595948562026
1.729495865519377e+18,0.0035401624627411366,-0.0007232609204947948,-0.0052452776581048965
1.729495865528377e+18,0.0009801051346585155,-0.0015464444877579808,-0.002674095332622528
1.7294958655373773e+18,0.0014360799686983228,0.00030222570057958364,-0.002849668962880969
1.7294958655433774e+18,0.0019272554200142622,-0.003552271518856287,-0.0018262213561683893
1.7294958655523776e+18,0.0007812085095793009,-0.003975639119744301,-0.0031887430232018232
1.7294958655613778e+18,0.003589271567761898,-0.001598503440618515,-0.0007129241712391376
1.729495865567378e+18,0.0033181377220898867,-0.00241832691244781,-0.0014848224818706512
1.729495865576378e+18,0.0035921838134527206,0.0005933716893196106,-0.00037686864379793406
1.7294958655853783e+18,-0.0012221457436680794,-0.0025625978596508503,-0.0017407203558832407
1.7294958655943785e+18,0.0005794247845187783,-0.005508346948772669,-0.001264285296201706
1.7294958656033787e+18,0.0024875598028302193,-0.003290337510406971,0.000712718116119504
1.7294958656093788e+18,0.0006928301881998777,-0.004687670152634382,-0.0014880617382004857
1.729495865621379e+18,0.003132202895358205,-0.005160779692232609,-0.0028916136361658573
1.7294958656333793e+18,0.0006097720470279455,-0.003660262795165181,-0.0033617245499044657
1.7294958656423795e+18,-0.00042596226558089256,-0.0029348297975957394,-0.00253880862146616
1.7294958656513797e+18,-0.0010891573037952185,-0.004766783677041531,-0.00019387167412787676
1.72949586566038e+18,0.0021679243072867393,-0.006999966688454151,-0.0007283725426532328
1.72949586566938e+18,0.0009735241765156388,-0.0039294748567044735,-0.0017943937564268708
1.7294958656783803e+18,0.0019357650307938457,-0.005341572221368551,-0.0027803918346762657
1.7294958656873805e+18,-0.0012619239278137684,-0.0054635643027722836,-0.0007089591235853732
1.7294958656933806e+18,-0.004166238941252232,-0.004725742619484663,0.0011307339882478118
1.7294958657023808e+18,-0.0035729429218918085,-0.0030016805976629257,-0.001115745515562594
1.729495865711381e+18,-0.004714875016361475,-0.006625646725296974,-0.00110621377825737
1.7294958657203812e+18,-0.0017100078985095024,-0.004144960083067417,-0.0005051594343967736
1.7294958657293814e+18,0.0016730709467083216,-0.007792213000357151,-0.0011291533010080457
1.7294958657383816e+18,-0.0007961241062730551,-0.006322036497294903,-0.003911816049367189
1.7294958657473818e+18,-0.0013382815523073077,-0.007743947207927704,-0.0010398414451628923
1.729495865756382e+18,-0.0037966850213706493,-0.007828249596059322,-0.00017613638192415237
1.7294958657653821e+18,-0.0009440481080673635,-0.005844082683324814,-0.00046211318112909794
1.7294958657773824e+18,-0.00031837483402341604,-0.0029513766057789326,-0.003621416399255395
1.7294958657863826e+18,0.0004620951076503843,-0.0037669811863452196,6.60034129396081e-05
1.7294958657953828e+18,-0.0006879990687593818,-0.003757397411391139,-0.0013516382314264774
1.729495865804383e+18,0.0035378525499254465,-0.008380018174648285,-0.005318450275808573
1.7294958658133832e+18,-0.00219741091132164,-0.008338890969753265,-0.001576095586642623
1.7294958658223834e+18,-0.004806588403880596,-0.004247085191309452,-0.0025546224787831306
1.7294958658313836e+18,-0.004797250032424927,-0.009633144363760948,-0.0034695155918598175
1.7294958658403837e+18,-0.007170830387622118,-0.006834356114268303,-0.002338252030313015
1.7294958658463839e+18,-0.009322787635028362,-0.0042282287031412125,-0.0020920985843986273
1.729495865855384e+18,-0.007256754674017429,-0.0028176880441606045,-0.0023203990422189236
1.7294958658643843e+18,-0.006582863163203001,-0.006363306660205126,-0.0030292640440165997
1.7294958658703844e+18,-0.0027044524904340506,-0.003729248885065317,0.0014640772715210915
1.7294958658793846e+18,-0.001241072895936668,-0.004828933626413345,-0.0018041613511741161
1.7294958658853847e+18,-0.0012809626059606671,-0.006591110024601221,-0.002079418860375881
1.729495865894385e+18,-0.003548620268702507,-0.005396706517785788,-0.000942253740504384
1.729495865900385e+18,-0.001269875094294548,-0.003990350291132927,-0.002715575974434614
1.7294958659093852e+18,-0.0031760691199451685,-0.006071752868592739,0.0011100698029622436
1.7294958659183854e+18,-0.002213489729911089,-0.004658962599933147,-3.673264291137457e-05
1.7294958659243855e+18,-0.003837128635495901,-0.0059870583936572075,-0.0006508058286271989
1.7294958659333857e+18,-0.004720710217952728,-0.00836462527513504,-0.002177875256165862
1.729495865942386e+18,-0.0019771633669734,-0.008054627105593681,-0.0028051179833710194
1.729495865951386e+18,-0.002850920893251896,-0.007248693611472845,-0.0038212367799133062
1.7294958659573862e+18,-0.0004904398811049759,-0.009239203296601772,0.0002696709707379341
1.7294958659663864e+18,0.0017880713567137718,-0.005199851468205452,-0.0009907204657793045
1.7294958659753866e+18,-0.0038335055578500032,-0.004000830929726362,-0.001821657526306808
1.7294958659813868e+18,-0.003360442817211151,-0.0017462513642385602,-0.002703743986785412
1.729495865990387e+18,-0.007836403325200081,-0.004118787124752998,-0.002027609385550022
1.7294958659993871e+18,-0.006980815902352333,-0.005618215538561344,-6.001885049045086e-05
1.7294958660083873e+18,-0.007736880332231522,-0.005026191473007202,-0.0028244957793504
1.7294958660143875e+18,-0.0031316825188696384,-0.0037084100767970085,0.00025055056903511286
1.7294958660233876e+18,-0.0008748146938160062,-0.006631392985582352,-0.0032660258002579212
1.7294958660293878e+18,0.0003524658386595547,-0.00424889475107193,-0.0003320511314086616
1.729495866038388e+18,0.00018451083451509476,-0.0072914594784379005,-0.0005279078031890094
1.729495866044388e+18,-0.0021617570891976357,-0.004792299121618271,0.0008626518538221717
1.7294958660533883e+18,-0.0016764493193477392,-0.0043731010518968105,-0.00037924404023215175
1.7294958660623885e+18,-0.004808906465768814,-0.0033225188963115215,-0.0013129262952134013
1.7294958660683886e+18,-0.0023403330706059933,-0.0058378176763653755,-0.0011527492897585034
1.7294958660773888e+18,-0.005874735303223133,-0.0024710248690098524,-9.120325557887554e-06
1.729495866086389e+18,-0.004170091822743416,-0.0020270557142794132,-0.0021296413615345955
1.729495866092389e+18,-0.002157537965103984,-0.0031571798026561737,-0.0014498189557343721
1.7294958661013893e+18,-0.0009742227848619223,-0.000586110632866621,-0.0009182279463857412
1.7294958661073894e+18,-0.002251586876809597,-0.004728743340820074,-0.001318115508183837
1.7294958661163896e+18,-0.0001236310345120728,-0.0007265747990459204,0.002701090183109045
1.7294958661253898e+18,-0.00030514923855662346,-0.003141008084639907,-0.0012769412714987993
1.72949586613139e+18,0.00017951172776520252,5.0349161028862e-05,-0.0011364859528839588
1.7294958661403901e+18,-0.0008046590955927968,-0.00046991818817332387,-0.0023440783843398094
1.7294958661463903e+18,-0.0029450515285134315,-2.495406079106033e-05,0.00012839608825743198
1.7294958661553905e+18,-0.007159555330872536,-0.0026777086313813925,-0.0026566749438643456
1.7294958661643907e+18,-0.005366177298128605,-0.0017700076568871737,-0.0005194335826672614
1.7294958661703908e+18,-0.002181003335863352,-0.0018011617939919233,-0.0031467110384255648
1.729495866179391e+18,-0.003424060996621847,-0.0016950378194451332,0.00031962967477738857
1.729495866185391e+18,-0.002238535787910223,-0.005487007088959217,-0.001604478806257248
1.7294958661943913e+18,-0.001432799152098596,-0.0014115821104496717,-0.001984787406399846
1.7294958662033915e+18,-0.0030696489848196507,-0.0017897007055580616,0.0002807303098961711
1.7294958662093916e+18,-0.0034093137364834547,-0.0008148856577463448,-0.0014448232250288129
1.7294958662183918e+18,-0.004432700574398041,-0.001615552231669426,0.000127119361422956
1.729495866227392e+18,-0.005453408230096102,-0.00047261646250262856,-0.0004260865389369428
1.7294958662363922e+18,-0.00616634264588356,-0.004012024495750666,-0.0005486498703248799
1.7294958662453924e+18,-0.005599750205874443,-0.0043253665789961815,0.0025329331401735544
1.7294958662513925e+18,-0.004249474965035915,-0.0026212106458842754,-0.0007851971313357353
1.7294958662603927e+18,-0.002653508447110653,-0.005018771160393953,0.0004946138942614198
1.729495866269393e+18,-0.005206146743148565,-0.0012756900396198034,0.00020297407172620296
1.729495866278393e+18,-0.002539488021284342,-0.00046333091449923813,-0.001520868157967925
1.7294958662843932e+18,-0.002884747926145792,0.0010108789429068565,-0.0019387356005609035
1.7294958662933934e+18,-0.003400640795007348,0.0012281949166208506,0.00020198558922857046
1.7294958663023936e+18,-0.0034900247119367123,0.000408013875130564,-0.0013148505240678787
1.7294958663083937e+18,-0.0017184969037771225,-0.003889546263962984,-0.0025167129933834076
1.729495866317394e+18,-0.0036726645193994045,-0.0032224711030721664,-0.00236906879581511
1.729495866326394e+18,-0.002188724232837558,-0.007774561643600464,-0.0006125436630100012
1.7294958663323942e+18,-0.0038693419191986322,-0.00329033425077796,-0.0019417861476540565
1.7294958663413944e+18,-0.0028423818293958902,-0.0035401764325797558,-0.00027965573826804757
1.7294958663473946e+18,-0.004316347651183605,-0.001070852275006473,-0.0028265994042158127
1.7294958663563948e+18,-0.0014865101547911763,-0.004047278314828873,0.000700267031788826
1.729495866365395e+18,-0.0019848160445690155,-0.0009069232037290931,-0.0019286517053842545
1.729495866371395e+18,-0.0045977625995874405,-0.0008692443370819092,-0.0017436014022678137
1.7294958663803953e+18,-0.0019965944811701775,-0.0033617306035012007,-0.0019421929027885199
1.7294958663893955e+18,-0.0026251114904880524,-0.004812510218471289,-0.0006445762701332569
1.7294958663953956e+18,-0.004201868083328009,-0.006669872906059027,-0.002659147372469306
1.7294958664043958e+18,-0.006110852584242821,-0.0030886074528098106,-0.002619402715936303
1.729495866413396e+18,-0.005585816223174334,-0.001505610067397356,-0.0020142265129834414
1.7294958664223962e+18,-0.0026359769981354475,-0.007247484289109707,-0.0008408516878262162
1.7294958664283963e+18,-0.0055067758075892925,-0.005640966817736626,-0.0015659747878089547
1.7294958664373965e+18,-0.0023451170418411493,-0.0030817172955721617,-0.0025922399945557117
1.7294958664433966e+18,-0.003711857832968235,-0.0028794731479138136,-0.00389667646959424
1.7294958664523968e+18,-0.0032356888987123966,-0.002060831058770418,-0.0016409819945693016
1.729495866461397e+18,-0.005196525249630213,-0.0018690787255764008,0.0031532463617622852
1.729495866467397e+18,-0.005056655500084162,-0.0026300372555851936,-0.0004425100632943213
1.7294958664763973e+18,-0.0062352512031793594,-0.0026378969196230173,-0.000800290668848902
1.7294958664853975e+18,-0.004067483823746443,-0.0015309361042454839,-0.0022402540780603886
1.7294958664913976e+18,-0.0038134404458105564,0.00045471126213669777,-0.0019207161385565996
1.7294958665003978e+18,-0.004868663847446442,-0.000957244192250073,-0.00034603331005200744
1.729495866509398e+18,-0.003485228633508086,0.00025922799250110984,-0.000952957896515727
1.7294958665153981e+18,-0.001977291889488697,0.0003540230682119727,0.0006205704994499683
1.7294958665243983e+18,-0.003807318862527609,0.002011463977396488,0.0007017059251666069
1.7294958665333985e+18,-0.0015077715506777167,0.0015685450052842498,-0.0005237790755927563
1.7294958665423987e+18,-0.0030663609504699707,0.0022121299989521503,0.0029835766181349754
1.7294958665483988e+18,-0.00039448466850444674,0.001835125731304288,-0.0022224271669983864
1.7294958665633992e+18,0.0008039996027946472,0.0029895473271608353,-0.0022358116693794727
1.7294958665723994e+18,0.001770304748788476,-0.00013719394337385893,-0.0019913441501557827
1.7294958665783995e+18,0.00033352014725096524,-0.0016650264151394367,-0.0015047946944832802
1.7294958665873997e+18,0.0005566317122429609,-0.0006248675636015832,-0.0009316012728959322
1.7294958665963999e+18,-0.0004910622374154627,0.001015788409858942,-0.001197650795802474
1.7294958666024e+18,0.0005481205880641937,-0.0015560081228613853,0.0015259776264429092
1.7294958666114002e+18,0.0009257692145183682,0.002188088372349739,-0.000951459223870188
1.7294958666174003e+18,-0.0025422859471291304,9.054229303728789e-05,-0.00437180045992136
1.7294958666264005e+18,0.0006277809152379632,-0.0021383098792284727,-0.0007224073051474988
1.7294958666354007e+18,0.004377290606498718,0.0005167430499568582,-0.003233389463275671
1.7294958666414008e+18,0.003539081197232008,0.00034627073910087347,-0.002012222772464156
1.729495866650401e+18,0.0051931412890553474,-0.0052062892355024815,-0.00036536407424136996
1.7294958666594012e+18,0.0003724740818142891,0.0005990408826619387,-0.002381004160270095
1.7294958666654013e+18,0.0013720166170969605,0.00024539127480238676,0.002663608407601714
1.7294958666744015e+18,0.00046684814151376486,0.002781953662633896,-0.002978834556415677
1.7294958666804017e+18,-0.0019832076504826546,0.00239998335018754,-0.0025032605044543743
1.7294958666894019e+18,-0.001590843079611659,8.893469930626452e-05,-0.00212782877497375
1.729495866698402e+18,-0.0045847357250750065,-0.0023101812694221735,-0.002125105354934931
1.7294958667074022e+18,-0.0025125956162810326,-0.006438454147428274,-0.002329809358343482
1.7294958667194025e+18,-0.002829234581440687,-0.0045476993545889854,-0.001224541338160634
1.7294958667284027e+18,-0.0014361225767061114,-0.0025531917344778776,-0.0020648916251957417
1.729495866737403e+18,-0.0009747672593221068,-0.002248164499178529,-0.002531171776354313
1.729495866746403e+18,-0.002937864977866411,-0.005168889183551073,-0.0003139492473565042
1.7294958667554033e+18,-0.005086069460958242,-0.001015553018078208,0.0006798587273806334
1.7294958667644035e+18,-0.004127440974116325,-0.0036476380191743374,-0.004499235190451145
1.7294958667734036e+18,-0.004837788175791502,-0.0023353600408881903,-0.0005369282444007695
1.7294958667824038e+18,-0.0032711715903133154,-0.006482683587819338,-0.0018051383085548878
1.729495866791404e+18,-0.004542102105915546,-0.0062005468644201756,-0.002260088687762618
1.7294958668034043e+18,5.046516889706254e-05,-0.005511959083378315,-0.0031284515280276537
1.7294958668124045e+18,-0.0014944280264899135,-0.003169907256960869,-0.002253144048154354
1.7294958668214047e+18,0.003369145793840289,-0.0013959596399217844,-0.001216911245137453
1.7294958668304049e+18,-0.003721663262695074,0.0001710138749331236,0.0009576528682373464
1.729495866839405e+18,-0.0043616387993097305,-0.00207319762557745,0.00039710354758426547
1.7294958668484052e+18,0.0001470067072659731,-0.0034234849736094475,-0.0009566788794472814
1.7294958668574054e+18,-0.0018247381085529923,-0.0019627176225185394,-0.0012464756146073341
1.7294958668694057e+18,-0.002913805888965726,-0.004309322685003281,-0.0013853380223736167
1.729495866878406e+18,0.0019393317634239793,-0.0018441120628267527,0.002311399206519127
1.729495866887406e+18,0.0031889290548861027,-0.0035807129461318254,-0.0017766720848158002
1.7294958668964063e+18,-0.0008296974701806903,-0.0018722027307376266,-0.00012271752348169684
1.7294958669054065e+18,0.00031880574533715844,-0.0013761837035417557,-0.0002488309401087463
1.7294958669144067e+18,-0.002064189175143838,-0.002366943284869194,-0.0011185674229636788
1.7294958669204068e+18,-0.002943503437563777,-0.0007455208688043058,-3.277178620919585e-05
1.729495866932407e+18,-0.001306519960053265,0.0036594236735254526,-0.0018423199653625488
1.7294958669384072e+18,-0.0013038056204095483,-0.002991586457937956,0.0017855894984677434
1.7294958669474074e+18,0.001506707165390253,0.0007708878256380558,-0.0012395575176924467
1.7294958669534075e+18,0.003707785625010729,0.004128091037273407,-0.0008742574136704206
1.7294958669624077e+18,0.000172922620549798,0.0023531708866357803,-0.0018870877102017403
1.7294958669684078e+18,0.0050263600423932076,0.002065440872684121,-0.0009049635264091194
1.729495866977408e+18,-0.0001350975362583995,0.0023601269349455833,-0.0019393526017665863
1.7294958669864082e+18,-0.0018311897292733192,0.0006594735896214843,0.0006889950018376112
1.7294958669924083e+18,0.0007018025498837233,0.004263114649802446,0.0008695423603057861
1.7294958670014085e+18,-0.003816519631072879,0.0007782767061144114,0.0004925559624098241
1.7294958670104087e+18,-0.004234925843775272,0.0020209948997944593,0.00034050503745675087
1.729495867019409e+18,-0.004581522196531296,0.001913778716698289,-5.8162608183920383e-05
1.729495867025409e+18,-0.003444352187216282,0.0018352990737184882,-0.0009953674161806703
1.7294958670344092e+18,-0.0012108397204428911,0.0006124737556092441,-0.001574598252773285
1.7294958670434094e+18,-0.0007696907268837094,0.00022355845430865884,-0.002568582072854042
1.7294958670494095e+18,0.0023909718729555607,-0.0005755736492574215,0.0007280512363649905
1.7294958670584097e+18,0.0023861166555434465,-0.0007375148124992847,-0.001899524126201868
1.72949586706741e+18,0.002856477163732052,-0.0014068542513996363,-0.0009566061198711395
1.7294958670794102e+18,0.0005273136775940657,0.000564760877750814,0.000780422065872699
1.7294958670884104e+18,-0.0009521434549242258,0.00043760205153375864,-0.0044030677527189255
1.7294958670974106e+18,0.0002030566829489544,0.003138639498502016,0.0010849186219274998
1.7294958671034107e+18,0.0007631633779965341,0.003256133059039712,-0.001834819559007883
1.729495867112411e+18,-0.0009105904609896243,0.0009707478457130492,-0.0015971248503774405
1.729495867121411e+18,-0.054100364446640015,-0.04520006477832794,-0.001840887009166181
1.7294958671274112e+18,-0.3776249885559082,-0.3082352578639984,-0.005896213464438915
1.7294958671364114e+18,-1.0423102378845215,-0.8460689187049866,-0.011688416823744774
1.7294958671454116e+18,-1.7880014181137085,-1.3950854539871216,-0.02018694393336773
1.7294958671544118e+18,-2.5854368209838867,-1.8028898239135742,-0.03374718874692917
1.729495867163412e+18,-3.084348201751709,-1.9465628862380981,-0.042238377034664154
1.729495867169412e+18,-3.223412036895752,-1.925377607345581,-0.05299420282244682
1.7294958671784123e+18,-3.1922738552093506,-1.781807780265808,-0.06515583395957947
