timestamp,gyro_x,gyro_y,gyro_z
1.729424746222757e+18,0.0028464861679822206,3.4249558666488156e-05,-0.003638270776718855
1.7294247462287572e+18,0.0020307907834649086,0.0013085855171084404,0.0014959743712097406
1.7294247462347574e+18,-0.00023123587016016245,-0.0022060212213546038,0.0007141809910535812
1.7294247462377574e+18,0.00016840067110024393,-0.0008275132859125733,0.003421810921281576
1.7294247462437576e+18,0.00014464887499343604,-2.5713083232403733e-05,0.0006949462695047259
1.7294247462497577e+18,3.8189897168194875e-05,0.0010940458159893751,0.0003689921577461064
1.7294247462527578e+18,0.0003297099901828915,-0.002366672968491912,-0.0011572903022170067
1.729424746258758e+18,0.0006806818419136107,0.002536911517381668,-0.00023687836073804647
1.729424746264758e+18,-0.0015901237493380904,-0.0020788537804037333,0.0019907120149582624
1.7294247462707581e+18,-0.0013643148122355342,-0.0011106044985353947,-0.002100802958011627
1.7294247462767583e+18,-0.0006272494210861623,-0.0006349767791107297,0.0003174144949298352
1.7294247462827584e+18,-0.00042609297088347375,0.0020014657638967037,-0.0016555091133341193
1.7294247462857585e+18,0.0027536212000995874,-0.0013726078905165195,-0.000915715703740716
1.7294247462917586e+18,-0.0011377843329682946,-0.0028311412315815687,-0.0018618633039295673
1.7294247462977587e+18,3.2706699130358174e-05,0.0010820160387083888,-0.0037097157910466194
1.7294247463007588e+18,-0.0006216596812009811,-0.0017798547632992268,0.00038399500772356987
1.729424746306759e+18,-0.0014557881513610482,-0.00029821405769325793,0.0005599436699412763
1.729424746312759e+18,-0.0014799725031480193,0.002047139685600996,-0.0003985365910921246
1.729424746315759e+18,-0.0011096246307715774,-0.0019573820754885674,-0.0002670957474038005
1.7294247463217592e+18,0.002927229041233659,-0.0007854046416468918,-0.0008419002406299114
1.7294247463277594e+18,0.0008397017954848707,0.0015494567342102528,-1.2133809832448605e-05
1.7294247463337595e+18,0.0005897214286960661,0.0016613878542557359,-0.0025820389855653048
1.7294247463367596e+18,0.0008172738598659635,-0.001257251133210957,0.002492091851308942
1.7294247463427597e+18,-0.00013739273708779365,-0.001011145068332553,0.0003371532657183707
1.7294247463487598e+18,-0.003551012370735407,0.0001452348369639367,-0.0008220017771236598
1.72942474635176e+18,0.0008593621314503253,0.0015895840479061007,-0.0022099448833614588
1.72942474635776e+18,0.002480137860402465,-0.00014555569214280695,0.000347640598192811
1.72942474636376e+18,-0.0008508709724992514,-0.00257229246199131,-0.00013799077714793384
1.7294247463667602e+18,0.002644503954797983,0.0036996291019022465,-0.0021119401790201664
1.7294247463727603e+18,-0.0020312564447522163,0.001716122031211853,0.0003649795544333756
1.7294247463787604e+18,-0.0028474759310483932,0.0025298050604760647,-0.0005565230385400355
1.7294247463817605e+18,0.0009040337172336876,0.0024373135529458523,0.0002468271995894611
1.7294247463877606e+18,0.001087843207642436,0.002850480377674103,-0.0013984537217766047
1.7294247463937608e+18,0.0009147710516117513,-0.000910415779799223,0.0002754430170170963
1.729424746399761e+18,0.0004248014010954648,0.0009868836496025324,0.0022191281896084547
1.729424746402761e+18,-0.002105645602568984,-0.00038497368223033845,0.00211520423181355
1.729424746408761e+18,-0.0015231417492032051,0.0014270548708736897,-0.001893174834549427
1.7294247464147612e+18,0.0018278000643476844,-0.0025025401264429092,0.0014710075920447707
1.7294247464177613e+18,-0.0010497632902115583,-0.001717585837468505,9.313347254646942e-05
1.7294247464237614e+18,-0.0013909582048654556,0.0037778287660330534,0.0007819687016308308
1.7294247464297615e+18,0.0011171622900292277,5.879465243197046e-05,-0.0012135650031268597
1.7294247464357617e+18,-0.00039583456236869097,0.000725585559848696,-0.0023182793520390987
1.7294247464387617e+18,0.0025608157739043236,0.00014938527601771057,-0.0004101717204321176
1.7294247464447619e+18,-0.0015706692356616259,-0.0006675709737464786,0.0003944768104702234
1.729424746450762e+18,-0.0001309061044594273,0.00013575544289778918,2.1289539290592074e-05
1.729424746456762e+18,0.0009545976063236594,0.0015316777862608433,-0.0020625097677111626
1.7294247464597622e+18,0.0022411507088690996,0.0014332322170957923,-0.002915936755016446
1.7294247464657623e+18,-0.00023957010125741363,0.0006570813129656017,-0.0018611348932608962
1.7294247464717624e+18,0.0002546559553593397,0.0003577760944608599,-0.002558196661993861
1.7294247464777626e+18,-0.00016053926083259284,0.001727261464111507,0.0014404930407181382
1.7294247464807626e+18,0.0009451687801629305,-0.000778272224124521,0.0015868396731093526
1.7294247464867628e+18,0.00017821906658355147,0.002799450187012553,0.001094076782464981
1.729424746492763e+18,0.0013971133157610893,-0.0027744853869080544,-0.0005740488413721323
1.729424746495763e+18,0.0020513597410172224,0.0009787206072360277,-0.0011163413291797042
1.729424746501763e+18,-0.0003970933612436056,0.00020872730237897485,0.0033686496317386627
1.7294247465077632e+18,0.0021274383179843426,0.0016016451409086585,-0.0012829747283831239
1.7294247465107633e+18,-0.0025046677328646183,-0.0010222443379461765,0.0013006222434341908
1.7294247465167634e+18,0.0005202277679927647,-0.0025637862272560596,0.000224044852075167
1.7294247465227635e+18,0.0022686244919896126,0.0005000296514481306,0.0010729521745815873
1.7294247465287636e+18,-0.0038736204151064157,0.000642345636151731,0.0024523031897842884
1.7294247465317637e+18,0.0009970655664801598,-0.0024230689741671085,-0.001697189174592495
1.7294247465377638e+18,0.0016481761122122407,-0.0016374082770198584,0.0032029817812144756
1.729424746543764e+18,0.00024035754904616624,-0.0006766358274035156,-0.0014039231464266777
1.729424746546764e+18,-0.0013719882117584348,0.0004529629077296704,-0.001298538176342845
1.7294247465527642e+18,0.0017644725739955902,-0.0006375132943503559,-0.0005468649324029684
1.7294247465587643e+18,0.00040525264921598136,0.00019594724290072918,-7.648497557966039e-05
1.7294247465647644e+18,-0.0014831249136477709,-0.001103668473660946,-0.001324920798651874
1.7294247465677645e+18,-0.0038016200996935368,0.001921432325616479,0.0010632246267050505
1.7294247465737646e+18,-0.0009516197023913264,-0.0016187488799914718,0.0009752619080245495
1.7294247465797647e+18,-0.0005555626121349633,-0.0003658845671452582,0.0028941240161657333
1.7294247465857649e+18,0.00019064894877374172,0.001122343703173101,-0.0010314047103747725
1.729424746588765e+18,-0.00030689238337799907,0.0008505064761266112,-0.0008020647219382226
1.729424746594765e+18,0.0035339156165719032,-6.338190723909065e-05,0.001487184432335198
1.7294247466007652e+18,-0.0013966279802843928,-0.0018409239128232002,-0.0001524999097455293
1.7294247466067653e+18,-0.0007428019307553768,-0.0011664078338071704,-0.0004063428787048906
1.7294247466097654e+18,-0.0001390390971209854,0.0013344853650778532,0.002118774689733982
1.7294247466157655e+18,-0.0018892723601311445,0.00023432167654391378,-0.0003355024382472038
1.7294247466217656e+18,-0.0007361906464211643,-0.002340857870876789,-0.0009793286444619298
1.7294247466277658e+18,0.0004159272357355803,0.0004706692125182599,-0.0027735792100429535
1.7294247466307658e+18,9.936524293152615e-05,-0.0040875570848584175,-0.0005889800377190113
1.729424746636766e+18,0.0001165767534985207,0.0019156105117872357,0.0013113348977640271
1.729424746642766e+18,-0.00013153863255865872,0.000987884821370244,-0.00216894899494946
1.7294247466487662e+18,0.00026468883152119815,0.0016330949729308486,-0.000526533811353147
1.7294247466547663e+18,-8.09016200946644e-05,-0.0017020433442667127,-0.0016663415590301156
1.7294247466577664e+18,-0.0001993745390791446,0.001034714630804956,-0.0003552073903847486
1.7294247466637665e+18,-0.0008641596068628132,0.001081721275113523,-0.0009230072028003633
1.7294247466697667e+18,-0.001021668897010386,-5.822388266096823e-05,-3.161259155604057e-05
1.7294247466757668e+18,0.0017020896775647998,0.002302994718775153,-4.5639699237653986e-05
1.7294247466787668e+18,-0.0025528506375849247,0.0002624639600981027,-0.00023520251852460206
1.729424746684767e+18,-0.001693852711468935,0.0011130921775475144,0.0002615931152831763
1.729424746690767e+18,0.000599368242546916,0.0014179643476381898,-0.0006911351811140776
1.7294247466967672e+18,0.0028875565622001886,-0.0008596207480877638,0.0005267109954729676
1.7294247466997673e+18,0.00047456490574404597,-0.0025248529855161905,-0.00020644014875870198
1.7294247467057674e+18,0.0014472096227109432,0.0006469394429586828,-0.0011650514788925648
1.7294247467117676e+18,-0.00038184254663065076,-0.0004937890917062759,1.7680854398349766e-06
1.7294247467177677e+18,0.0013427824014797807,0.0027711063157767057,-0.0011902445694431663
1.7294247467207677e+18,0.0011583634186536074,0.004251585807651281,0.0013563365209847689
1.7294247467267679e+18,0.0008962868014350533,0.0009174540755338967,-0.0026701870374381542
1.729424746732768e+18,-0.000741895055398345,-0.0008794452878646553,0.0005220148013904691
1.7294247467387681e+18,-0.0013842415064573288,-0.001752758282236755,0.0001123477122746408
1.7294247467417682e+18,0.0012365217553451657,0.0006774099892936647,0.0010903000365942717
1.7294247467477683e+18,0.0002714242145884782,0.0015161314513534307,-0.0021632134448736906
1.7294247467537684e+18,-0.0016084047965705395,-0.005342201795428991,0.00242054695263505
1.7294247467567685e+18,0.001319300034083426,-0.0009196148603223264,0.002223667921498418
1.7294247467627686e+18,-0.00039457689854316413,0.003049009945243597,0.0009089810191653669
1.7294247467687688e+18,-0.0003555968578439206,0.0013406781945377588,-0.0006316406070254743
1.729424746774769e+18,0.001992014003917575,0.0008349966956302524,-0.0005610171356238425
1.729424746777769e+18,0.0007234597578644753,0.00015016937686596066,-0.0008939506951719522
1.729424746783769e+18,0.0004992914036847651,-0.000521305832080543,0.0016920745838433504
1.7294247467897692e+18,0.0008692382834851742,-0.0006013687234371901,-0.001607754616998136
1.7294247467957693e+18,0.00041991614853031933,0.001474448828957975,-0.0003110684046987444
1.7294247467987694e+18,-0.0006993109709583223,0.0007440333138220012,-0.00402073422446847
1.7294247468047695e+18,0.0012491496745496988,0.0016351218800991774,-0.0010732021182775497
1.7294247468107697e+18,0.0007365740602836013,0.0022790117654949427,-0.0008780330535955727
1.7294247468137697e+18,0.0005757223116233945,0.00032590123009867966,0.0027100921142846346
1.7294247468197699e+18,0.0021608448587358,-0.002066543558612466,0.000372138834791258
1.72942474682577e+18,0.00225716270506382,0.001446917187422514,-0.001172386109828949
1.72942474683177e+18,0.0017569635529071093,-0.0038547965232282877,-0.0008932915516197681
1.7294247468377702e+18,0.000901730265468359,0.0037001874297857285,0.0026649206411093473
1.7294247468407703e+18,0.001952769816853106,-0.001746930181980133,-0.0021623028442263603
1.7294247468467704e+18,0.0011712877312675118,0.002422954887151718,0.0008332299767062068
1.7294247468527706e+18,0.005283287726342678,-0.0005251947441138327,-0.0002780920185614377
1.7294247468557706e+18,0.0008718665339984,-0.0032141648698598146,0.000891368486918509
1.7294247468617708e+18,0.0018166471272706985,-0.0007546688430011272,-0.0008310127886943519
1.729424746867771e+18,-0.0005738213658332825,-0.0009358176030218601,0.00015222904039546847
1.729424746873771e+18,0.0006509089726023376,0.003990067634731531,9.960203897207975e-05
1.729424746876771e+18,-0.0010564300464466214,0.001892134197987616,0.001903367810882628
1.7294247468827712e+18,-0.003189608221873641,0.0019194274209439754,0.0015161066548898816
1.7294247468887713e+18,-2.0459707229747437e-05,0.0008443569531664252,-0.0023371847346425056
1.7294247468947715e+18,-0.0013541493099182844,-0.0012956863502040505,-0.0002578972780611366
1.7294247468977715e+18,-0.0006960247410461307,-0.0017999053234234452,0.0020260103046894073
1.7294247469037716e+18,-0.0017448783619329333,0.0013024467043578625,0.00185443926602602
1.7294247469097718e+18,0.0018228053813800216,-0.0008814565371721983,0.0034939267206937075
1.729424746915772e+18,0.0003131442063022405,-0.0011581152211874723,0.00250144861638546
1.729424746918772e+18,-0.00021626859961543232,-0.0022108934354037046,-0.0005954336374998093
1.729424746924772e+18,-0.0014866096898913383,-0.0007850588881410658,0.0012959166197106242
1.7294247469307722e+18,0.0003961598558817059,0.0015096217393875122,-0.00036328742862679064
1.7294247469367724e+18,0.0008952335338108242,8.270623220596462e-05,-0.0018534843111410737
1.7294247469397724e+18,-0.0013653328642249107,-0.00022699734836351126,0.0008311442215926945
1.7294247469457725e+18,-0.0030975081026554108,0.0008131469949148595,0.00038792265695519745
1.7294247469517727e+18,-0.00020402652444317937,-0.00047895507304929197,0.0019008552189916372
1.7294247469547727e+18,-0.002854593563824892,0.0010399960447102785,0.001045719371177256
1.7294247469607729e+18,0.0008210197556763887,-0.001152202021330595,0.0007783411419950426
1.729424746966773e+18,-0.00255337986163795,0.0020324555225670338,-5.36137804374448e-07
1.729424746972773e+18,-0.00032250795629806817,0.0017391523579135537,-0.0012740568490698934
1.7294247469757732e+18,0.00019390265515539795,0.0008240910246968269,0.002178292255848646
1.7294247469817733e+18,-0.0024831369519233704,0.0003284607082605362,-0.0019397850846871734
1.7294247469877734e+18,-0.00167064496781677,-0.002060140948742628,-0.0018562834011390805
1.7294247469937736e+18,-0.0016013100976124406,-0.0007557130884379148,0.0019088273402303457
1.7294247469967736e+18,0.0013527770061045885,0.001472177216783166,-0.0005168996285647154
1.7294247470027738e+18,0.0015965440543368459,-0.0014076317893341184,0.0018202767241746187
1.729424747008774e+18,0.0015394688816741109,-0.0014463755069300532,0.001371971913613379
1.729424747011774e+18,0.002119628945365548,-0.0014786530518904328,-0.0025965662207454443
1.729424747017774e+18,-0.000531876808963716,-0.0012582652270793915,-0.00014241313328966498
1.7294247470237742e+18,0.002055639633908868,-0.002141222357749939,2.1059475329820998e-05
1.7294247470297743e+18,0.0008076950907707214,0.002443165285512805,0.000816363375633955
1.7294247470327744e+18,-0.0012812993954867125,0.0010838762391358614,0.0024115729611366987
1.7294247470387745e+18,-0.0023582549765706062,8.788416016614065e-05,-0.0027563609182834625
1.7294247470447747e+18,0.001837726915255189,0.0004402937483973801,-0.0024731322191655636
1.7294247470507748e+18,-0.00020896190835628659,1.8911137885879725e-05,0.0030513866804540157
1.7294247470537748e+18,0.0029056493658572435,-0.000836056366097182,0.0019411416724324226
1.729424747059775e+18,-0.0009990442777052522,0.0016654817154631019,0.0015310494927689433
1.729424747065775e+18,0.0005748532712459564,0.0010810222011059523,0.001565414248034358
1.7294247470717752e+18,0.00017968016618397087,-0.0016208580927923322,0.0006862261216156185
1.7294247470747753e+18,0.001259657903574407,0.0010135312331840396,-0.000934533542022109
1.7294247470807754e+18,-0.001171893673017621,0.0020866962149739265,-0.0012901760637760162
1.7294247470867756e+18,-0.0008579330169595778,0.0013829729286953807,0.0012024182360619307
1.7294247470897756e+18,-0.000698062009178102,0.0003084866621065885,0.000541101093403995
1.7294247470957757e+18,0.00030612931004725397,0.0015919926809147,0.002845215145498514
1.729424747101776e+18,-0.0009794209618121386,0.002072866540402174,0.0008451641770079732
1.729424747104776e+18,0.0030196835286915302,-0.00077189935836941,-0.00023584590235259384
1.729424747110776e+18,0.0015136213041841984,0.0001352115796180442,-0.0007288148626685143
1.7294247471167762e+18,-0.0017621469451114535,0.0016116565093398094,-0.0007446743547916412
1.7294247471197763e+18,-0.0004083301464561373,-0.0005435189814306796,6.776629743399099e-05
1.7294247471257764e+18,-0.0015195190208032727,-0.0002798029745463282,-0.0027732562739402056
1.7294247471317765e+18,-0.00012984350905753672,0.0014795116148889065,0.000547837233170867
1.7294247471347766e+18,-0.0014179545687511563,-0.00037947253440506756,0.0007008620887063444
1.7294247471407767e+18,-0.0011082852724939585,0.005757810547947884,-0.00016289392078761011
1.7294247471467768e+18,-0.000887925096321851,-0.0010496906470507383,0.0001985740673262626
1.729424747152777e+18,0.00020969114848412573,-0.0010324459290131927,0.002828681143000722
1.729424747155777e+18,0.0024038744159042835,-0.00026490294840186834,-0.002487052232027054
1.7294247471617772e+18,-0.002908643102273345,0.0008000697707757354,-0.0004725012695416808
1.7294247471677773e+18,-0.001134062884375453,0.0008916283259168267,0.0008936921949498355
1.7294247471707773e+18,-0.0008796835318207741,-0.001358354464173317,0.00011115235975012183
1.7294247471767775e+18,0.00038192718056961894,-0.000462844647699967,0.0007642878335900605
1.7294247471827776e+18,9.166175004793331e-05,-0.0005824450636282563,0.0005516382516361773
1.7294247471887777e+18,-0.0009305107523687184,-0.003274117596447468,-0.0023710636887699366
1.7294247471917778e+18,-0.0009338107774965465,-4.303403329686262e-05,-0.0015858917031437159
1.729424747197778e+18,0.0018163254717364907,0.00020367161778267473,-0.0003636200272012502
1.729424747203778e+18,0.0012854315573349595,0.0011882520047947764,0.002347485162317753
1.729424747206778e+18,0.0016882912022992969,0.0023503254633396864,-0.001040978473611176
1.7294247472127782e+18,-0.002466171281412244,0.0018049874342978,0.0018115128623321652
1.7294247472187784e+18,-0.0004765953926835209,-0.0031590410508215427,0.00012816999515052885
1.7294247472217784e+18,0.0008835035841912031,-0.0015563551569357514,-0.003049218561500311
1.7294247472277786e+18,0.001464412547647953,-0.0008639575680717826,-0.0021316546481102705
1.7294247472337787e+18,-0.000766322307754308,0.0013548298738896847,0.0012667401460930705
1.7294247472397788e+18,-0.0009909485233947635,0.0005501810228452086,-0.003356111003085971
1.729424747242779e+18,0.0024244189262390137,-0.002406736370176077,0.00036529521457850933
1.729424747248779e+18,-0.00243412796407938,0.0005117010441608727,0.003483355976641178
1.7294247472547791e+18,0.0017908925656229258,0.0001151885517174378,-0.0024049817584455013
1.7294247472577792e+18,-0.000357381853973493,6.700622907374054e-05,-0.0005015450296923518
1.7294247472637793e+18,-0.0005228306981734931,0.0010506679536774755,0.0008276169537566602
1.7294247472697795e+18,0.001954824896529317,0.0016472728457301855,0.000742982781957835
1.7294247472757796e+18,0.0030398608651012182,0.0010657493257895112,0.0010507880942896008
1.7294247472787796e+18,0.001152142183855176,0.0031781403813511133,0.0024680402129888535
1.7294247472847798e+18,-0.0006567074451595545,-0.001362950075417757,0.002216859720647335
1.72942474729078e+18,0.00024622087948955595,0.000653565744869411,0.0021627715323120356
1.72942474729378e+18,0.0013427616795524955,-0.0008527940954081714,0.0007099516806192696
1.72942474729978e+18,0.000659699784591794,0.00029537518275901675,-0.001348344492726028
1.7294247473027802e+18,-0.0005441218381747603,-0.00025232377811335027,-0.0011711245169863105
1.7294247473087803e+18,-0.0008828173740766943,0.00016326179320458323,-0.0019833839032799006
1.7294247473147804e+18,0.0003990895638708025,-0.003008605446666479,0.00043889807420782745
1.7294247473207805e+18,-0.0005595011170953512,0.0007288505439646542,0.0016238429816439748
1.7294247473237806e+18,-0.00015462355804629624,0.0006487003993242979,0.0003230384609196335
1.7294247473297807e+18,-0.001240476849488914,0.001253198366612196,0.0009668368729762733
1.7294247473357809e+18,0.000611459428910166,0.001946382224559784,-0.00038928803405724466
1.729424747341781e+18,-0.002982641803100705,-0.0006423297454603016,0.00217982055619359
1.729424747344781e+18,0.0009749568998813629,-0.0021949803922325373,-0.00024993662373162806
1.7294247473507812e+18,8.066543523455039e-05,0.003021838143467903,0.0008687591762281954
1.7294247473567813e+18,-0.00030489731580018997,-0.0005459653330035508,-0.00034461510949768126
1.7294247473597814e+18,-0.00015188325778581202,-0.0009769980097189546,-0.0009293860639445484
1.7294247473657815e+18,-8.765712118474767e-05,0.0007665642770007253,-0.0020081663969904184
1.7294247473717816e+18,-0.0008196039707399905,-0.0008123408770188689,0.0017629009671509266
1.7294247473777818e+18,0.0011907487642019987,0.0007897048490121961,0.001101451925933361
1.729424747383782e+18,0.00036175409331917763,0.0002793978783302009,0.00024690834106877446
1.729424747386782e+18,0.0012794459471479058,-0.0014729405520483851,-0.001279141753911972
1.729424747392782e+18,-0.00031765634776093066,-0.00039080664282664657,-0.00195918302051723
1.7294247473987822e+18,-0.0013016711454838514,0.0006508598453365266,-8.46217744765454e-07
1.7294247474017823e+18,-0.0018857138929888606,-0.000585115805733949,0.0036589880473911762
1.7294247474077824e+18,-0.0017067777225747705,-0.000720223702955991,-0.0009432258666492999
1.7294247474137825e+18,0.002364363055676222,0.00035941609530709684,-0.002425427781417966
1.7294247474197827e+18,0.0017320605693385005,-0.0012965024216100574,7.821384315320756e-06
1.7294247474227827e+18,-0.0028993033338338137,0.0005719999317079782,0.0004281809087842703
1.7294247474287828e+18,-0.0006546790827997029,0.0027882258873432875,-0.00021594685676973313
1.729424747434783e+18,-0.002459172625094652,0.0014575993409380317,-0.0012073181569576263
1.729424747437783e+18,0.0002993343223351985,0.0005133050726726651,-0.0010155342752113938
1.7294247474437832e+18,-0.0011804299429059029,-0.0017100028926506639,0.0006145032239146531
1.7294247474497833e+18,0.0008422699174843729,-0.00043054961133748293,-0.001116941450163722
1.7294247474557834e+18,-0.001612244755961001,0.004301176406443119,-0.00048108946066349745
1.7294247474617836e+18,-0.0014620389556512237,-0.0006582792266272008,0.003579783719033003
1.7294247474647836e+18,0.0011296282755210996,0.0014330872800201178,0.0010971770389005542
1.7294247474707837e+18,-0.0029265563935041428,0.0012825446901842952,0.0006249191355891526
1.7294247474767839e+18,-0.0027435305528342724,-8.145342144416645e-05,-0.00017725006910040975
1.729424747482784e+18,0.0008679866441525519,-0.00016849179519340396,0.0020407820120453835
1.729424747485784e+18,0.0024294378235936165,-0.0001544827682664618,-0.001065222779288888
1.7294247474917842e+18,-0.0002750183339230716,0.0017082899576053023,0.0003677469794638455
1.7294247474977843e+18,-0.0011246351059526205,-7.405201176879928e-05,7.582413672935218e-05
1.7294247475007844e+18,-0.00027684986707754433,0.0014982884749770164,0.00031049750396050513
1.7294247475067845e+18,0.0026464038528501987,-0.0004310712101869285,-0.0008843112736940384
1.7294247475127846e+18,0.0025715953670442104,0.00016463050269521773,0.00018179230391979218
1.7294247475187848e+18,0.0014725795481353998,0.0012722151586785913,-0.002704179147258401
1.7294247475217848e+18,-0.0036956032272428274,0.0015757702058181167,0.0040365480817854404
1.729424747527785e+18,-0.0003885877085849643,-0.0019990981090813875,0.0038427922409027815
1.729424747533785e+18,-0.0018950501689687371,0.0035494305193424225,-0.0004742679593618959
1.7294247475397852e+18,-0.000467767909867689,0.00012630123819690198,0.0006836428656242788
1.7294247475427853e+18,-0.001529016881249845,-0.00013899386976845562,0.00022174729383550584
1.7294247475487854e+18,0.0019717940595000982,-0.001570178079418838,0.00027969779330305755
1.7294247475547855e+18,0.002350765746086836,-0.00043329005711711943,-0.0004093231982551515
1.7294247475607857e+18,0.00018794815696310252,6.354254583129659e-05,-5.522051196749089e-06
1.7294247475637857e+18,0.0008554478990845382,-4.721387813333422e-05,-0.00016888781101442873
1.7294247475697859e+18,0.0006706962012685835,0.0011831839801743627,0.0021793663036078215
1.729424747575786e+18,-0.0011806043330579996,0.0004552708414848894,-0.001669295015744865
1.729424747581786e+18,0.001995224505662918,0.0015028557972982526,-0.0017396744806319475
1.7294247475847862e+18,-0.0016293841181322932,-0.0008841813541948795,-0.001001372467726469
1.7294247475907863e+18,9.425000462215394e-05,-0.0005602154997177422,0.0006061773747205734
1.7294247475967864e+18,-0.0019512377912178636,-9.531052637612447e-05,-0.0017447707941755652
1.7294247475997865e+18,-0.00010685807501431555,-0.001174124306999147,-0.0019435029244050384
1.7294247476057866e+18,-0.0007680301205255091,0.0007970243459567428,0.0008628105861134827
1.7294247476117868e+18,0.0006129793473519385,-0.0017339135520160198,0.0009766509756445885
1.729424747617787e+18,-0.0020755925215780735,-0.0007721246220171452,0.0004942910745739937
1.729424747623787e+18,0.0007974357577040792,0.00249639805406332,-0.0016181982355192304
1.7294247476297871e+18,-0.00114004360511899,0.002552186604589224,-0.0021331063471734524
1.7294247476327872e+18,-0.00037602082011289895,0.0012744382256641984,0.0009269564179703593
1.7294247476387873e+18,-0.0006390819908119738,0.0031914743594825268,-0.001588792889378965
1.7294247476447875e+18,-0.0011001195525750518,0.0003881352604366839,-4.9722453695721924e-05
1.7294247476507876e+18,0.00219837692566216,0.0014526895247399807,-0.0009195203892886639
1.7294247476537876e+18,-0.000154440916958265,0.0014317258028313518,0.0018179942853748798
1.7294247476597878e+18,0.001944260555319488,-0.0023728138767182827,0.00047935530892573297
1.729424747665788e+18,-0.001265708589926362,-0.0029703055042773485,0.0025472345296293497
1.729424747671788e+18,-1.2755957868648693e-05,0.000933214498218149,-0.001791790477000177
1.7294247476777882e+18,-0.0008647592621855438,0.0002109530323650688,-0.00025628675939515233
1.7294247476837883e+18,0.0007305970066227019,0.0005594823742285371,0.0006806711317040026
1.7294247476867884e+18,0.00014231483510229737,0.0010215963702648878,0.0003923183830920607
1.7294247476927885e+18,-0.0014533053617924452,0.0010261506540700793,8.194491238100454e-05
1.7294247476987886e+18,-0.002897714963182807,-0.0009846887551248074,-0.001155669684521854
1.7294247477047887e+18,0.0005668813246302307,-0.0013159896479919553,-0.0005746050155721605
1.7294247477107889e+18,-0.002069462789222598,0.0007935079047456384,-0.0007475233287550509
1.729424747716789e+18,-0.0003718090883921832,0.0013585200067609549,-0.0003050152736250311
1.729424747719789e+18,0.0005603117751888931,0.0022774809040129185,0.001963097369298339
1.7294247477257892e+18,-0.0013078538468107581,0.0017238946165889502,-0.004919498227536678
1.7294247477317893e+18,3.033652319572866e-05,0.0031178041826933622,-5.353234155336395e-05
1.7294247477377894e+18,-0.002235990483313799,-0.0003772829077206552,-0.0030015697702765465
1.7294247477407895e+18,0.0008667316869832575,0.0011846749112010002,0.0019553005695343018
1.7294247477467896e+18,-0.0007281421567313373,0.0020313432905822992,-0.0005077256937511265
1.7294247477527898e+18,0.002128464402630925,0.0005060160183347762,0.0002457954687997699
1.72942474775879e+18,-0.0008602035231888294,-0.002462296048179269,-0.0020703074987977743
1.72942474776479e+18,-0.001597783761098981,-0.001145987887866795,-0.00161339424084872
1.72942474776779e+18,-0.0005095971864648163,0.0004139281518291682,0.0025263733696192503
1.7294247477737902e+18,-0.000663933577015996,-0.0012236902257427573,0.0009321542456746101
1.7294247477797903e+18,6.72561873216182e-05,-0.00025212360196746886,0.000340968428645283
1.7294247477857905e+18,-0.0006597216124646366,0.0005613166722469032,0.00010945693065878004
1.7294247477887905e+18,0.0005595847615040839,-0.0013319195713847876,0.00018500143778510392
1.7294247477947907e+18,-0.0007780506857670844,-0.0006332864868454635,-0.001724187983199954
1.7294247478007908e+18,0.0007761527667753398,-0.0012238634517416358,0.0006854747189208865
1.729424747806791e+18,-0.0005996861145831645,-0.0008312175632454455,0.00036552464007399976
1.729424747812791e+18,3.8926104025449604e-05,-0.0009688512654975057,2.9287681172718294e-05
1.729424747815791e+18,0.0019162340322509408,0.00026839241036213934,-0.0033300279174000025
1.7294247478217912e+18,-0.002574372570961714,-0.0019713633228093386,9.771479381015524e-05
1.7294247478277914e+18,-0.0008284171344712377,-0.0002222166076535359,-0.0009969037491828203
1.7294247478337915e+18,-0.0015155688161030412,-0.002056788420304656,0.0026732480619102716
1.7294247478367916e+18,-0.002282283501699567,-0.0011955004883930087,0.0009713578619994223
1.7294247478427917e+18,-0.0003946074575651437,-0.0005799683276563883,0.00036920077400282025
1.7294247478487918e+18,0.0036785427946597338,-0.0014304358046501875,0.0016548708081245422
1.729424747854792e+18,-0.0005307921674102545,0.0031729042530059814,0.001377000124193728
1.729424747860792e+18,-0.0012471707304939628,0.0025699548423290253,0.00042890655458904803
1.7294247478667922e+18,-0.0017168167978525162,-0.0016975101316347718,0.0022373523097485304
1.7294247478697923e+18,-0.0012332525802776217,0.0008864080882631242,-0.0021142454352229834
1.7294247478757924e+18,0.004255352076143026,-0.0018056274857372046,-0.00015563600754830986
1.7294247478817925e+18,-3.3465807064203545e-05,0.00030678018811158836,0.0029278863221406937
1.7294247478877926e+18,-0.000704675039742142,-0.0014463000698015094,-0.0012303562834858894
1.7294247478907927e+18,-0.001578281749971211,-0.0005171798984520137,0.0006432869704440236
1.7294247478967928e+18,0.000614992983173579,-0.0018963563488796353,-0.0012101845350116491
1.729424747902793e+18,-0.0019465488148853183,0.0013372389366850257,-0.0001049327984219417
1.729424747905793e+18,0.0007513755699619651,-0.0022262197453528643,-0.0005561880534514785
1.7294247479117932e+18,-0.0006641256040893495,0.00047514139441773295,0.0008088506292551756
1.7294247479177933e+18,0.0002223168994532898,-0.0012339139357209206,-0.0008385122055187821
1.7294247479237934e+18,0.00021095674310345203,0.0011768749682232738,-0.001308479462750256
1.7294247479267935e+18,-0.002384392311796546,-0.0004186347941868007,0.0006903436151333153
1.7294247479327936e+18,-0.0003095812862738967,0.0002205151249654591,-0.001266275066882372
1.7294247479387937e+18,-0.0018424547743052244,0.001991245662793517,0.0007680411217734218
1.7294247479447939e+18,0.0008410175214521587,0.000438094197306782,0.0008090831688605249
1.729424747947794e+18,0.0025016588624566793,0.0006574763683602214,0.00161454058252275
1.729424747953794e+18,0.0020742539782077074,-0.0005229755770415068,0.0008974302909336984
1.7294247479597942e+18,-0.0013398048467934132,0.00037138391053304076,-0.002237828215584159
1.7294247479627942e+18,-0.0011079271789640188,-0.0004549841396510601,-0.0007294247625395656
1.7294247479687944e+18,-0.0012291392777115107,0.00046636685146950185,0.0007081410731188953
1.7294247479747945e+18,0.0011780690401792526,-0.0007938998169265687,0.0014083620626479387
1.7294247479777946e+18,-0.0029487551655620337,0.001476061879657209,0.0005732503486797214
1.7294247479837947e+18,0.00027025543386116624,0.00057266338262707,0.0012627431424334645
1.7294247479897948e+18,-0.00114353746175766,-0.0029659701976925135,0.0033498930279165506
1.729424747992795e+18,4.472209184314124e-06,0.0018782042898237705,-0.0017513093771412969
1.729424747998795e+18,-0.00010058280167868361,5.842637983732857e-05,-0.0003036382549908012
1.7294247480047951e+18,0.002172279404476285,-0.0012167898239567876,-0.0012963530607521534
1.7294247480107953e+18,0.0015381380217149854,0.0024106812197715044,0.0006802629213780165
1.7294247480137953e+18,9.54037022893317e-05,0.0012983393389731646,-0.0010227649472653866
1.7294247480197955e+18,0.00021130307868588716,0.0004629011091310531,-0.0012249884894117713
1.7294247480227955e+18,-0.0028031899128109217,-0.0012697860365733504,0.0005893984925933182
1.7294247480287956e+18,0.0013120680814608932,6.321912951534614e-05,-0.002943669445812702
1.7294247480347958e+18,-0.002099156379699707,-0.002897885860875249,-0.00016681791748851538
1.729424748040796e+18,-0.001424682792276144,-0.0005131249781697989,-0.0008733603172004223
1.729424748043796e+18,0.0011267391964793205,0.0010159211233258247,-0.0013964780373498797
1.729424748049796e+18,0.0031248193699866533,-0.00107315625064075,0.002636486431583762
1.7294247480557962e+18,0.0008217458962462842,-0.0004959525540471077,0.0019520005444064736
1.7294247480617964e+18,-0.001391303027048707,0.0009768102318048477,0.0017527448944747448
1.7294247480647964e+18,-0.001049789017997682,-0.0003908537037204951,0.0004090458096470684
1.7294247480707965e+18,0.0013957538176327944,0.00026300258468836546,-0.0019363051978871226
1.7294247480767967e+18,0.0015991716645658016,0.0007085679098963737,-0.0006597664905712008
1.7294247480797967e+18,-0.004101153928786516,0.002130787121132016,-0.00032917415956035256
1.7294247480857969e+18,-0.0013550929725170135,-0.002752677071839571,-0.00045706058153882623
1.729424748091797e+18,0.001876477967016399,0.0009840982966125011,0.0004324327746871859
1.729424748097797e+18,0.0011557418620213866,-0.0015747897559776902,-5.085777956992388e-05
1.7294247481007972e+18,-0.000974448281340301,-0.0004975157789885998,0.0001768558577168733
1.7294247481067973e+18,0.0007791307871229947,0.00033896148670464754,-0.0008515100926160812
1.7294247481127974e+18,0.00034686457365751266,-0.0005142682348378003,0.0005438580410555005
1.7294247481187976e+18,0.0006407698965631425,0.004110637586563826,0.0014511971967294812
1.7294247481217976e+18,-0.0005374908214434981,-0.0014798736665397882,-0.0010839862516149879
1.7294247481277978e+18,0.0031346874311566353,-0.0003155219310428947,-0.00042674390715546906
1.729424748133798e+18,-0.011759820394217968,0.016381576657295227,-0.0009630084387026727
1.729424748139798e+18,-0.030092313885688782,0.037463512271642685,-0.0030815245117992163
1.729424748142798e+18,-0.03825639560818672,0.053145553916692734,5.333829903975129e-05
1.7294247481487982e+18,-0.05689620599150658,0.0695212110877037,-0.0018096409039571881
1.7294247481547983e+18,-0.0724439024925232,0.08937910199165344,-0.002508872654289007
1.7294247481577984e+18,-0.07392728328704834,0.09822126477956772,0.0002995625836774707
1.7294247481637985e+18,-0.07942638546228409,0.10430518537759781,-6.624194793403149e-05
1.7294247481697987e+18,-0.07448980212211609,0.10825616121292114,-0.0035731398966163397
1.7294247481757988e+18,-0.0737256184220314,0.10570456832647324,-0.0008371975272893906
1.7294247481787988e+18,-0.06658994406461716,0.10388854891061783,-0.0003360467962920666
1.729424748184799e+18,-0.053865946829319,0.09672834724187851,-0.002541942987591028
1.729424748190799e+18,-0.05027196928858757,0.09155019372701645,-0.004407270811498165
1.7294247481967992e+18,-0.04723794758319855,0.08982938528060913,-0.005372271873056889
1.7294247481997993e+18,-0.04825529083609581,0.08550877869129181,-0.005061946343630552
1.7294247482057994e+18,-0.05099362134933472,0.08775006234645844,-0.005264344159513712
1.7294247482117996e+18,-0.05434782803058624,0.09019772708415985,-0.005809036083519459
1.7294247482177997e+18,-0.06384404748678207,0.09169866889715195,-0.008357735350728035
1.7294247482237998e+18,-0.06481529027223587,0.09774495661258698,-0.0060202861204743385
1.7294247482267999e+18,-0.06702782213687897,0.09920892119407654,-0.008318599313497543
1.7294247482328e+18,-0.06786516308784485,0.09846384823322296,-0.0038202570285648108
1.7294247482388001e+18,-0.06026202440261841,0.09767456352710724,-0.008780411444604397
1.7294247482418002e+18,-0.061715852469205856,0.09454246610403061,-0.007162641268223524
1.7294247482478003e+18,-0.05081130191683769,0.08352962881326675,-0.007909050211310387
1.7294247482538004e+18,-0.04126804322004318,0.07657202333211899,-0.003633484011515975
1.7294247482598006e+18,-0.03843521326780319,0.069649837911129,-0.004439152777194977
1.7294247482628006e+18,-0.030589601024985313,0.06570357084274292,-0.0030278447084128857
1.7294247482688008e+18,-0.02843071147799492,0.06287969648838043,-0.010053981095552444
1.729424748274801e+18,-0.029921984300017357,0.05559657886624336,-0.008895519189536572
1.729424748277801e+18,-0.029938606545329094,0.05709001049399376,-0.008176224306225777
1.729424748283801e+18,-0.029741037636995316,0.053483739495277405,-0.008764921687543392
1.7294247482898012e+18,-0.028836602345108986,0.05211818218231201,-0.010467303916811943
1.7294247482958013e+18,-0.032849546521902084,0.04822130128741264,-0.006674957927316427
1.7294247483018015e+18,-0.0297588761895895,0.04151548445224762,-0.00885404460132122
1.7294247483048015e+18,-0.028228912502527237,0.04056990146636963,-0.008684326894581318
1.7294247483108017e+18,-0.022454306483268738,0.03493721783161163,-0.007792325224727392
1.7294247483168018e+18,-0.01617095246911049,0.033861104398965836,-0.012148629873991013
1.729424748322802e+18,-0.01159447431564331,0.024757951498031616,-0.013784291222691536
1.729424748325802e+18,-0.0065218787640333176,0.017982110381126404,-0.010059489868581295
1.729424748331802e+18,0.0002917400561273098,0.014427980408072472,-0.009902777150273323
1.7294247483378022e+18,0.004551845137029886,0.008049952797591686,-0.010692658834159374
1.7294247483438024e+18,0.0037227177526801825,0.005843931809067726,-0.009753712452948093
1.7294247483468024e+18,0.004115407820791006,0.002222789451479912,-0.009735100902616978
1.7294247483528026e+18,0.005777363665401936,0.00216960022225976,-0.010847429744899273
1.7294247483588027e+18,0.0015345030697062612,-0.0023586121387779713,-0.011568364687263966
1.7294247483648028e+18,0.0035853837616741657,-0.0045108371414244175,-0.008536450564861298
1.729424748367803e+18,0.005434475839138031,-0.00812289398163557,-0.01018535252660513
1.729424748373803e+18,0.0032682656310498714,-0.00817081332206726,-0.01078712847083807
1.7294247483798031e+18,0.008779049851000309,-0.014423970133066177,-0.012850812636315823
1.7294247483828032e+18,0.009159463457763195,-0.013266434893012047,-0.011700647883117199
1.7294247483888033e+18,0.012820840813219547,-0.01996924914419651,-0.01230788417160511
1.7294247483948035e+18,0.018819347023963928,-0.020537208765745163,-0.012548984959721565
1.7294247484008036e+18,0.024726413190364838,-0.029695380479097366,-0.010469869710505009
1.7294247484038036e+18,0.02390238270163536,-0.028729580342769623,-0.01204829104244709
1.7294247484098038e+18,0.02339565008878708,-0.03319728001952171,-0.013443775475025177
1.729424748415804e+18,0.025065813213586807,-0.03569532930850983,-0.015276458114385605
1.729424748421804e+18,0.02544221468269825,-0.03856148570775986,-0.011909008026123047
1.729424748424804e+18,0.02172550931572914,-0.03623539209365845,-0.011558708734810352
1.7294247484308042e+18,0.021289058029651642,-0.037452470511198044,-0.013206340372562408
1.7294247484368044e+18,0.019644903019070625,-0.043494317680597305,-0.012499073520302773
1.7294247484428045e+18,0.019527481868863106,-0.037574417889118195,-0.013792796060442924
1.7294247484488046e+18,0.018654048442840576,-0.04168372601270676,-0.011796053498983383
1.7294247484518047e+18,0.017027171328663826,-0.040101952850818634,-0.01280717272311449
1.7294247484578048e+18,0.025362541899085045,-0.04025883600115776,-0.01478619035333395
1.729424748463805e+18,0.025532102212309837,-0.04377269744873047,-0.01456182450056076
1.729424748466805e+18,0.028603404760360718,-0.04194056615233421,-0.013325588777661324
1.729424748472805e+18,0.027892878279089928,-0.043394990265369415,-0.013327379710972309
1.7294247484788052e+18,0.029661856591701508,-0.045226458460092545,-0.014327261596918106
1.7294247484848054e+18,0.02983676828444004,-0.048614103347063065,-0.014421788044273853
1.7294247484878054e+18,0.030062338337302208,-0.04334070533514023,-0.015104696154594421
1.7294247484938056e+18,0.029891854152083397,-0.044556453824043274,-0.01291391346603632
1.7294247484998057e+18,0.027753524482250214,-0.047094155102968216,-0.016771391034126282
1.7294247485058058e+18,0.026126936078071594,-0.04479363560676575,-0.01666896604001522
1.729424748511806e+18,0.02247508242726326,-0.043652504682540894,-0.018586236983537674
1.729424748517806e+18,0.026341933757066727,-0.04474332183599472,-0.01655101589858532
1.7294247485208061e+18,0.024500470608472824,-0.04246778413653374,-0.012524892576038837
1.7294247485268063e+18,0.025521954521536827,-0.04244320094585419,-0.015384695492684841
1.7294247485328064e+18,0.02935662679374218,-0.043778277933597565,-0.013041185215115547
1.7294247485358065e+18,0.027744051069021225,-0.044329650700092316,-0.013619712553918362
1.7294247485448067e+18,0.03152097761631012,-0.039593134075403214,-0.014751792885363102
1.7294247485478067e+18,0.03038438782095909,-0.04152343049645424,-0.013596207834780216
1.7294247485538068e+18,0.030530020594596863,-0.04156757518649101,-0.011601392179727554
1.729424748559807e+18,0.026773542165756226,-0.04206782951951027,-0.013594557531177998
1.729424748565807e+18,0.028061583638191223,-0.038545433431863785,-0.015894180163741112
1.7294247485688072e+18,0.025675535202026367,-0.038712598383426666,-0.011785244569182396
1.7294247485748073e+18,0.025904962792992592,-0.035933900624513626,-0.011879250407218933
1.7294247485808074e+18,0.020547913387417793,-0.03909630700945854,-0.013677632436156273
1.7294247485868076e+18,0.02210787869989872,-0.03853346407413483,-0.016424426808953285
1.7294247485898076e+18,0.023117873817682266,-0.0391874797642231,-0.011480930261313915
1.7294247485958077e+18,0.021985163912177086,-0.038113780319690704,-0.015664787963032722
1.729424748601808e+18,0.025738028809428215,-0.036521099507808685,-0.015577812679111958
1.729424748607808e+18,0.025879977270960808,-0.03443967550992966,-0.017336251214146614
1.729424748610808e+18,0.02707791142165661,-0.03594917058944702,-0.015129846520721912
1.7294247486168082e+18,0.026626816019415855,-0.03421948477625847,-0.014557380229234695
1.7294247486228083e+18,0.025372400879859924,-0.03302527219057083,-0.014821936376392841
1.7294247486288084e+18,0.02568141184747219,-0.03452020511031151,-0.014440654776990414
1.7294247486318085e+18,0.022704798728227615,-0.03390657901763916,-0.016200777143239975
1.7294247486378086e+18,0.021351447328925133,-0.034670084714889526,-0.015045350417494774
1.7294247486438088e+18,0.01693587191402912,-0.03573162108659744,-0.01465735025703907
1.729424748649809e+18,0.020214932039380074,-0.033035825937986374,-0.013621450401842594
1.729424748652809e+18,0.017640098929405212,-0.0328800305724144,-0.016164248809218407
1.729424748658809e+18,0.017579643055796623,-0.03223719820380211,-0.013750857673585415
1.7294247486648092e+18,0.016807639971375465,-0.028674211353063583,-0.013976267538964748
1.7294247486678093e+18,0.015815982595086098,-0.02988177165389061,-0.01380868162959814
1.7294247486738094e+18,0.015799306333065033,-0.029965093359351158,-0.016125237569212914
1.7294247486798095e+18,0.016662713140249252,-0.029132051393389702,-0.013961464166641235
1.7294247486858097e+18,0.014430716633796692,-0.028277626261115074,-0.013324317522346973
1.7294247486918098e+18,0.01324126124382019,-0.02898208610713482,-0.015887781977653503
1.7294247486948099e+18,0.01567404717206955,-0.0287176501005888,-0.01495264284312725
1.72942474870081e+18,0.013802648521959782,-0.02620987594127655,-0.011689425446093082
1.72942474870681e+18,0.01642363891005516,-0.02505706064403057,-0.015000662766397
1.7294247487128102e+18,0.013369038701057434,-0.025000225752592087,-0.016368521377444267
1.7294247487158103e+18,0.014834129251539707,-0.02272713929414749,-0.01575966738164425
1.7294247487218104e+18,0.011462267488241196,-0.024455126374959946,-0.013456280343234539
1.7294247487278106e+18,0.012654351070523262,-0.022549962624907494,-0.013598567806184292
1.7294247487308106e+18,0.012754321098327637,-0.024194400757551193,-0.014112510718405247
1.7294247487368108e+18,0.013554428704082966,-0.02441880665719509,-0.01381571777164936
1.729424748742811e+18,0.012420504353940487,-0.02479243278503418,-0.01494059432297945
1.729424748745811e+18,0.014573594555258751,-0.019453443586826324,-0.01221088320016861
1.729424748751811e+18,0.013202738016843796,-0.023058271035552025,-0.014409060589969158
1.7294247487578112e+18,0.009502573870122433,-0.022541427984833717,-0.01473930198699236
1.7294247487638113e+18,0.01076000276952982,-0.023946043103933334,-0.012331913225352764
1.7294247487698115e+18,0.009000054560601711,-0.022263415157794952,-0.016896720975637436
1.7294247487728115e+18,0.00930155348032713,-0.020378930494189262,-0.014838590286672115
1.7294247487788116e+18,0.009915675967931747,-0.017226921394467354,-0.014659269712865353
1.7294247487848118e+18,0.006282022222876549,-0.017107736319303513,-0.013788942247629166
1.729424748790812e+18,0.007916167378425598,-0.01607077568769455,-0.014492646791040897
1.729424748793812e+18,0.008767371065914631,-0.012049002572894096,-0.013957517221570015
1.729424748799812e+18,0.006789021193981171,-0.012891490012407303,-0.01401650533080101
1.7294247488058122e+18,0.006510347593575716,-0.018548522144556046,-0.013841023668646812
1.7294247488118124e+18,0.0074231685139238834,-0.016058247536420822,-0.014350447803735733
1.7294247488148124e+18,0.0047059315256774426,-0.02147272601723671,-0.011873992159962654
1.7294247488208125e+18,0.005994091741740704,-0.01659538969397545,-0.012851604260504246
1.7294247488268127e+18,0.005495026707649231,-0.018776850774884224,-0.014794441871345043
1.7294247488328128e+18,0.004320617765188217,-0.013381680473685265,-0.012444677762687206
1.7294247488358129e+18,0.003329196013510227,-0.014314210042357445,-0.015566155314445496
1.729424748841813e+18,0.005886510945856571,-0.015773994848132133,-0.012880422174930573
1.729424748847813e+18,0.005369606427848339,-0.012398027814924717,-0.012756799347698689
1.7294247488538132e+18,0.005979389417916536,-0.013035078532993793,-0.013530723750591278
1.7294247488568133e+18,0.0023236465640366077,-0.01232660561800003,-0.013458425179123878
1.7294247488628134e+18,0.006735147908329964,-0.013106278143823147,-0.011317029595375061
1.7294247488688136e+18,0.004871082957834005,-0.013054333627223969,-0.012077945284545422
1.7294247488718136e+18,0.004668409004807472,-0.012250191532075405,-0.013571369461715221
1.7294247488778138e+18,0.005109453108161688,-0.011699742637574673,-0.014308160170912743
1.729424748883814e+18,0.001523289131000638,-0.013128810562193394,-0.01557154767215252
1.729424748889814e+18,0.002638252219185233,-0.015972459688782692,-0.015542574226856232
1.729424748892814e+18,0.0007072943262755871,-0.014418373815715313,-0.013224730268120766
1.7294247488988142e+18,0.0023442404344677925,-0.011096849106252193,-0.012412275187671185
1.7294247489048143e+18,0.002524114679545164,-0.007575300056487322,-0.010076089762151241
1.7294247489108145e+18,0.00224730814807117,-0.007829014211893082,-0.013869824819266796
1.7294247489168146e+18,0.006532567087560892,-0.00973967183381319,-0.012829531915485859
1.7294247489228147e+18,0.008548866026103497,-0.009099146351218224,-0.015787797048687935
1.7294247489258148e+18,0.0029262369498610497,-0.00845526996999979,-0.01358410157263279
1.729424748931815e+18,0.0062605999410152435,-0.00888110976666212,-0.011801321990787983
1.729424748937815e+18,0.008597497828304768,-0.012087680399417877,-0.01072965282946825
1.7294247489438152e+18,0.009050611406564713,-0.010680871084332466,-0.01459117978811264
1.7294247489468152e+18,0.005001485347747803,-0.013337494805455208,-0.013029323890805244
1.7294247489528154e+18,0.005459032952785492,-0.012465454638004303,-0.011946664191782475
1.7294247489588155e+18,0.0018292979802936316,-0.0074002062901854515,-0.011974668130278587
1.7294247489648156e+18,0.0038513087201863527,-0.013253604993224144,-0.012473469600081444
1.7294247489678157e+18,0.004254945088177919,-0.008065157569944859,-0.009698238223791122
1.7294247489738158e+18,0.0019878465682268143,-0.010798636823892593,-0.012963407672941685
1.729424748979816e+18,0.007342619355767965,-0.007457520347088575,-0.013029524125158787
1.729424748985816e+18,0.005157156847417355,-0.006187113933265209,-0.011603130027651787
1.7294247489918162e+18,0.005745749920606613,-0.0081629678606987,-0.013117182068526745
1.7294247489948163e+18,0.007930129766464233,-0.00778756570070982,-0.011438809335231781
1.7294247490008164e+18,0.007546551525592804,-0.007781385909765959,-0.008911537937819958
1.7294247490068165e+18,0.007510885130614042,-0.010046279057860374,-0.010741249658167362
1.7294247490128166e+18,0.008871393278241158,-0.011722697876393795,-0.011159579269587994
1.7294247490158167e+18,0.007214764133095741,-0.009663556702435017,-0.011275486089289188
1.7294247490218168e+18,0.007594746071845293,-0.0074254716746509075,-0.011016171425580978
1.729424749027817e+18,0.005663733929395676,-0.013819445855915546,-0.010470965877175331
1.729424749033817e+18,0.0033456578385084867,-0.009097409434616566,-0.008207378908991814
1.7294247490398172e+18,0.0051656425930559635,-0.009113313630223274,-0.011979282833635807
1.7294247490428173e+18,0.003361749229952693,-0.008667823858559132,-0.01049169059842825
1.7294247490488174e+18,0.005335292778909206,-0.004640745464712381,-0.011020387522876263
1.7294247490548175e+18,0.004317098762840033,-0.007148692850023508,-0.00846080295741558
1.7294247490608177e+18,0.004601411055773497,-0.006571273785084486,-0.0075986143201589584
1.7294247490638177e+18,0.006656714715063572,-0.004589954391121864,-0.009427940472960472
1.7294247490698179e+18,0.008588090538978577,-0.005800473969429731,-0.008222948759794235
1.729424749075818e+18,0.010155865922570229,-0.006872579455375671,-0.009648599661886692
1.729424749081818e+18,0.00794162880629301,-0.008158018812537193,-0.01030177716165781
1.7294247490878182e+18,0.008610311895608902,-0.008884886279702187,-0.008924623019993305
1.7294247490908183e+18,0.006792364176362753,-0.00854736752808094,-0.008683640509843826
1.7294247490968184e+18,0.004686214495450258,-0.007544524036347866,-0.011609974317252636
1.7294247491028186e+18,0.0024835490621626377,-0.005101899616420269,-0.010461261495947838
1.7294247491058186e+18,0.0022099828347563744,-0.007536834105849266,-0.008464744314551353
1.7294247491118188e+18,0.002906281966716051,-0.008166546933352947,-0.009842789731919765
1.729424749117819e+18,0.0013616764917969704,-0.007875443436205387,-0.010671813040971756
1.729424749123819e+18,0.004199395887553692,-0.006290261633694172,-0.006888170260936022
1.729424749126819e+18,0.0030443682335317135,-0.004941609222441912,-0.007616824936121702
1.7294247491328192e+18,0.011333010159432888,-0.0053816065192222595,-0.011904526501893997
1.7294247491388193e+18,0.009021620266139507,-0.005543457344174385,-0.010522160679101944
1.7294247491448195e+18,0.009238455444574356,-0.009396852925419807,-0.011219203472137451
1.7294247491478195e+18,0.007164669223129749,-0.01033796090632677,-0.009291795082390308
1.7294247491538196e+18,0.007010810077190399,-0.006371206603944302,-0.006913566961884499
1.7294247491598198e+18,0.003218596801161766,-0.005691652186214924,-0.008800698444247246
1.72942474916582e+18,0.004180177580565214,-0.009342045523226261,-0.006126364227384329
1.72942474916882e+18,0.0028131811413913965,-0.007871176116168499,-0.007909372448921204
1.72942474917482e+18,0.003673222614452243,-0.0036024251021444798,-0.007754775229841471
1.7294247491808202e+18,0.001942295697517693,-0.007784586399793625,-0.007311287801712751
1.7294247491838203e+18,0.002108895219862461,-0.008677520789206028,-0.0072904471307992935
1.7294247491898204e+18,0.006027032621204853,-0.00784776359796524,-0.005630349740386009
1.7294247491958205e+18,0.006982959806919098,-0.010082473047077656,-0.00793820433318615
1.7294247492018207e+18,0.005235455930233002,-0.005215609446167946,-0.006682118400931358
1.7294247492048207e+18,0.004980971571058035,-0.011518308892846107,-0.008447765372693539
1.7294247492108209e+18,0.007744285743683577,-0.00843794085085392,-0.007279971614480019
1.729424749216821e+18,0.009193085134029388,-0.007658170536160469,-0.009412008337676525
1.729424749222821e+18,0.007271166890859604,-0.005350294057279825,-0.004412651062011719
1.7294247492258212e+18,0.007717464119195938,-0.005290449596941471,-0.008897146210074425
1.7294247492318213e+18,0.008070115931332111,-0.007633398752659559,-0.007194104604423046
1.7294247492378214e+18,0.004925339482724667,-0.004803624004125595,-0.009310373105108738
1.7294247492408215e+18,0.007904666475951672,-0.003907258156687021,-0.006559284403920174
1.7294247492468216e+18,0.008147455751895905,-0.0046198805794119835,-0.006076492834836245
1.7294247492528218e+18,0.007211300078779459,-0.005043069366365671,-0.004673347342759371
1.729424749258822e+18,0.005251157097518444,-0.005590802524238825,-0.004078267607837915
1.729424749261822e+18,0.0071883294731378555,-0.0076600112952291965,-0.009632347151637077
1.729424749267822e+18,0.006525200791656971,-0.00658378517255187,-0.005916710942983627
1.7294247492738222e+18,0.0060609872452914715,-0.005171547643840313,-0.00586665328592062
1.7294247492768223e+18,0.009851373732089996,-0.0042915260419249535,-0.004770475905388594
1.7294247492828224e+18,0.009130019694566727,-0.006865663919597864,-0.005694663617759943
1.7294247492888225e+18,0.006458246614784002,-0.008245743811130524,-0.0074395411647856236
1.7294247492948227e+18,0.0065660635009408,-0.008401026017963886,-0.005838183686137199
1.7294247493008228e+18,0.007909119129180908,-0.006785665173083544,-0.005695273168385029
1.7294247493038228e+18,0.004263971000909805,-0.004151868633925915,-0.0032014900352805853
1.729424749309823e+18,0.005452709272503853,-0.00475029181689024,-0.006413291208446026
1.729424749315823e+18,0.0034363004378974438,-0.005441374611109495,-0.0034008598886430264
1.7294247493188232e+18,0.0023146127350628376,-0.004489549435675144,-0.004698464181274176
1.7294247493248233e+18,0.005732904188334942,-0.0027184532955288887,-0.003384246025234461
1.7294247493308234e+18,0.00517145125195384,-0.0052908631041646,-0.004206434357911348
1.7294247493338235e+18,0.004337242338806391,-0.0010057694744318724,-0.006055251695215702
1.7294247493398236e+18,0.007923342287540436,-0.006825717631727457,-0.0032330541871488094
1.7294247493458237e+18,0.006411811336874962,-0.004721749573945999,-0.004840638022869825
1.7294247493488238e+18,0.008441600017249584,-0.005215281620621681,-0.005291368346661329
1.729424749354824e+18,0.006533528212457895,-0.006911143194884062,-0.0013352036476135254
1.729424749360824e+18,0.009683346375823021,-0.007486243266612291,-0.004029755014926195
1.7294247493668242e+18,0.006597209721803665,-0.009466230869293213,-0.004132686648517847
1.7294247493698243e+18,0.006656551267951727,-0.005637060850858688,-0.0024908659979701042
1.7294247493758244e+18,0.005982086528092623,-0.0033842462580651045,-0.00598273565992713
1.7294247493818245e+18,0.005992103833705187,-0.006672412157058716,-0.007428687997162342
1.7294247493848246e+18,0.0029164529405534267,-0.007346412166953087,-0.0012456770054996014
1.7294247493908247e+18,0.002175750909373164,-0.004799105226993561,-0.003885841928422451
1.7294247493968248e+18,-0.0014258986338973045,-0.004920055158436298,-0.0035084006376564503
1.729424749402825e+18,0.002465614350512624,-0.008715386502444744,-0.0035326601937413216
1.729424749405825e+18,0.0020064981654286385,-0.00848788395524025,-0.0020113284699618816
1.7294247494118252e+18,0.005315717309713364,-0.006726108491420746,-0.0035621426068246365
1.7294247494178253e+18,0.0050284117460250854,-0.004100094083696604,-0.004168097861111164
1.7294247494208253e+18,0.005835137329995632,-0.007965746335685253,-0.0007786964997649193
1.7294247494268255e+18,0.0067729465663433075,-0.0046636369079351425,-0.006544495467096567
1.7294247494328256e+18,0.006988251116126776,-0.005572399590164423,0.0019411658868193626
1.7294247494388257e+18,0.006723958067595959,-0.004586057737469673,-0.007586903870105743
1.7294247494418258e+18,0.001687680371105671,-0.003851379966363311,0.0001846605446189642
1.729424749447826e+18,0.0017736210720613599,-0.004962002858519554,-0.0019623986445367336
1.729424749453826e+18,-0.0003085348871536553,-0.005247730761766434,-0.004255156964063644
1.7294247494598262e+18,0.0009674731409177184,-0.005980492103844881,-0.002270966302603483
1.7294247494628262e+18,-0.00035147625021636486,-0.0027993833646178246,-0.004135755822062492
1.7294247494688264e+18,-0.0008828421705402434,-0.006100766360759735,-0.0034160385839641094
1.7294247494748265e+18,-0.0006010755896568298,-0.004614620003849268,-0.0029518906958401203
1.7294247494808266e+18,-3.653764724731445e-05,-0.0038583921268582344,-0.0024309176951646805
1.7294247494838267e+18,0.0023572067730128765,-0.006839532405138016,-0.00133345031645149
1.7294247494898268e+18,0.0032616518437862396,0.00021860073320567608,0.0008209639927372336
1.729424749495827e+18,0.006129835732281208,-0.0030801736284047365,-0.003105171024799347
1.729424749501827e+18,0.0042877779342234135,-0.004933605901896954,-0.0005049708997830749
1.7294247495048271e+18,0.005199183244258165,0.001246537547558546,-0.0002482894342392683
1.7294247495108273e+18,0.003003535093739629,-0.0018006799509748816,0.0002460508840158582
1.7294247495168274e+18,0.0017123515717685223,-0.004950525239109993,-0.000593910226598382
1.7294247495228275e+18,-0.0035082753747701645,-0.0004395792493596673,-0.0004301837179809809
1.7294247495258276e+18,-0.003568626008927822,-0.0030389809980988503,0.00012536137364804745
1.7294247495318277e+18,-0.004175953567028046,-0.002954627387225628,-0.0008733261493034661
1.7294247495378278e+18,-0.0015129676321521401,-0.0013838257873430848,0.00044223794247955084
1.729424749543828e+18,-0.0015147440135478973,-0.0008973923977464437,-0.0033838930539786816
1.729424749546828e+18,-0.003910540137439966,-0.0006985766813158989,-0.0014483201084658504
1.7294247495528282e+18,0.001299718744121492,0.0014106596354395151,-0.002117811469361186
1.7294247495588283e+18,0.005980380345135927,-0.0011962419375777245,-0.0020636406261473894
1.7294247495648284e+18,0.003830887842923403,-0.002284281887114048,-0.000181495095603168
1.7294247495678285e+18,0.003198457881808281,-0.0030798688530921936,0.0017883798573166132
1.7294247495738286e+18,0.003131199162453413,-0.0003677841741591692,-0.0005531784845516086
1.7294247495798287e+18,-0.0005247013177722692,0.0011769449338316917,-0.0001554910559207201
1.7294247495828288e+18,-0.0007512907031923532,-0.00036154023837298155,0.0005026175640523434
1.729424749588829e+18,0.0015537182334810495,-0.003146558301523328,-0.0012643905356526375
1.729424749594829e+18,0.00018458484555594623,-0.005845705978572369,0.00012318213703110814
1.7294247496008292e+18,-0.0008180703734979033,-0.0026904684491455555,-7.170619210228324e-05
1.7294247496038292e+18,-0.0029918455984443426,-0.000549144227989018,-0.0007215963560156524
1.7294247496098294e+18,0.001025866367854178,-0.0018958121072500944,-0.0024164002388715744
1.7294247496158295e+18,0.0020374066662043333,-0.002783270552754402,0.0019247906748205423
1.7294247496218296e+18,0.0005108944023959339,-0.0010756532428786159,-0.0033428685273975134
1.7294247496248297e+18,0.0022822062019258738,-0.0002847801661118865,0.0006227645208127797
1.7294247496308298e+18,-3.355683293193579e-05,0.0010786931961774826,-0.000805385468993336
1.72942474963683e+18,0.0037910761311650276,-0.001503060688264668,0.00029052337049506605
1.72942474963983e+18,0.0009834602242335677,-0.002299730898812413,4.330778028815985e-05
1.7294247496458301e+18,0.0024242913350462914,-0.00013150980521459132,-0.0031441168393939734
1.7294247496518303e+18,-0.001766915898770094,0.0008788190316408873,-0.0008470992324873805
1.7294247496578304e+18,0.0014885818818584085,-0.0006616347818635404,0.0005508139729499817
1.7294247496638305e+18,-0.0019275556551292539,-0.004161173012107611,-0.002767962869256735
1.7294247496668306e+18,-0.0004173880734015256,0.0005821391241624951,0.0008180696167983115
1.7294247496728307e+18,-0.0018583834171295166,-0.0008251292747445405,-0.0005382892559282482
1.7294247496788308e+18,-0.00010605121497064829,-0.0005396478809416294,-0.001721528242342174
1.729424749681831e+18,0.0027009695768356323,-0.0005844691186212003,0.00014970728079788387
1.729424749687831e+18,0.00019099668134003878,-0.0014459658414125443,-0.0006764286663383245
1.7294247496938312e+18,0.0014262888580560684,0.001719919266179204,0.0002727909595705569
1.7294247496998313e+18,0.006414246745407581,0.001170333125628531,-0.0006238154019229114
1.7294247497058314e+18,0.0038845923263579607,-0.001423611887730658,-0.0010482693323865533
1.7294247497118316e+18,0.003437725128605962,0.003934087231755257,-0.00016956777835730463
1.7294247497148316e+18,0.004163277335464954,0.0030610780231654644,0.0013825371861457825
1.7294247497208317e+18,0.0036166743375360966,0.00020026066340506077,0.000418039970099926
1.7294247497268319e+18,0.0003216693294234574,-0.0006487141363322735,0.0008157487609423697
1.729424749729832e+18,-0.0032523039262741804,0.003891969798132777,-0.002776985988020897
1.729424749735832e+18,0.00018978549633175135,0.0038623507134616375,-0.0016827185172587633
1.7294247497418322e+18,-3.373855724930763e-05,0.00031394348479807377,0.001559687196277082
1.7294247497478323e+18,0.00048193521797657013,-0.0008326205424964428,0.0007164818234741688
1.7294247497538324e+18,-0.001869856845587492,0.0022706410381942987,0.004506801255047321
1.7294247497568325e+18,0.003156037535518408,0.002360464073717594,-0.0008173761307261884
1.7294247497628326e+18,0.0015840227715671062,0.002806678880006075,0.0013863201020285487
1.7294247497688328e+18,0.002940795151516795,0.0033041764982044697,-0.001382127869874239
1.729424749774833e+18,0.0020600943826138973,-0.0001127293799072504,3.9215548895299435e-05
1.729424749777833e+18,-0.0013615114148706198,0.0033503184095025063,0.0017846077680587769
1.729424749783833e+18,0.0005867791478522122,0.002824558177962899,0.0011807719711214304
1.7294247497898332e+18,-0.0026610938366502523,0.0013496585888788104,0.0009848717600107193
1.7294247497958333e+18,-0.001382644404657185,9.419408161193132e-05,0.002641567261889577
1.7294247498018335e+18,-2.9328162781894207e-05,0.0024245346430689096,0.0008420732920058072
1.7294247498048335e+18,0.000432030763477087,0.00188235635869205,0.0008785312529653311
1.7294247498108337e+18,-0.0027444215957075357,0.001051976578310132,0.004390920978039503
1.7294247498168338e+18,0.002199508249759674,0.0012338913511484861,-0.0006696496857330203
1.7294247498198339e+18,0.0009740974055603147,0.0005814486066810787,0.00129757693503052
1.729424749825834e+18,-0.00269302143715322,0.0023780472110956907,0.0018001110292971134
1.729424749831834e+18,0.000799183442723006,-0.0012765100691467524,0.0012328645680099726
1.7294247498378342e+18,-0.00033795449417084455,-0.002001661341637373,0.003963175229728222
1.7294247498438344e+18,-0.0002851964673027396,-0.0007017103489488363,0.0005326993414200842
1.7294247498498345e+18,-0.00021934608230367303,-0.00020195735851302743,0.002920175436884165
1.7294247498528346e+18,-8.608214557170868e-06,-0.002605338580906391,-0.0027856810484081507
1.7294247498588347e+18,-0.001310197520069778,0.000500219059176743,0.002089679939672351
1.7294247498648348e+18,0.0003833590308204293,-0.0019937108736485243,0.0009083258919417858
1.729424749867835e+18,0.0011812427546828985,-0.0015384971629828215,-0.0015706242993474007
1.729424749873835e+18,-0.0003415897663217038,0.0042759994976222515,0.001177232596091926
1.7294247498798351e+18,-0.0012174627045169473,0.00274095986969769,0.0017507660668343306
1.7294247498858353e+18,-0.0020581029821187258,0.0018477167468518019,0.0029872520826756954
1.7294247498888353e+18,0.0003227383131161332,0.004010324366390705,-0.0010438227327540517
1.7294247498948355e+18,-0.0007048315601423383,0.0011903659906238317,0.0027731256559491158
1.7294247499008356e+18,0.0005717221647500992,-0.00017941975966095924,-0.0002382136881351471
1.7294247499068357e+18,0.0004831881378777325,0.005195113830268383,0.0012053558602929115
1.7294247499098358e+18,-0.00032235507387667894,0.0018355626380071044,0.0014598204288631678
1.729424749915836e+18,0.0007044805679470301,0.002293163910508156,-0.0022798378486186266
1.729424749921836e+18,0.0013119745999574661,0.0009163626236841083,0.003227327251806855
1.7294247499278362e+18,-0.00010859238682314754,0.004660610109567642,0.00048066681483760476
1.7294247499338363e+18,0.0032425010576844215,0.002975091338157654,0.0018237142357975245
1.7294247499398364e+18,0.0010708137415349483,0.0019596645142883062,0.0010157320648431778
1.7294247499428365e+18,0.0010718479752540588,0.001504821702837944,0.0023254835978150368
1.7294247499488366e+18,-0.002324683591723442,0.001711559947580099,0.0017206927295774221
1.7294247499548367e+18,-0.0024287798441946507,0.0005788056296296418,-0.0004953966708853841
1.7294247499608369e+18,-0.001037927926518023,0.0021060488652437925,0.001806462649255991
1.729424749966837e+18,-0.0008777785114943981,-0.0002501713752280921,-0.0013292216463014483
1.729424749969837e+18,-0.0011440942762419581,-0.0033655466977506876,0.0007686312892474234
1.7294247499758372e+18,-0.003637004643678665,-0.001933917636051774,0.004200001247227192
1.7294247499818373e+18,-0.004290634300559759,-0.0001370684476569295,0.0031438013538718224
1.7294247499878374e+18,-0.0009156952146440744,0.001667048898525536,0.0029825610108673573
1.7294247499908375e+18,-0.00209408113732934,0.0016475566662847996,0.0020998844411224127
1.7294247499968376e+18,-0.0028064330108463764,0.004179499577730894,0.00023221096489578485
1.7294247500028378e+18,-0.0002502109855413437,0.00429300544783473,8.529238402843475e-05
1.7294247500058378e+18,-0.00027372431941330433,0.004452991299331188,0.002154301153495908
1.729424750011838e+18,-0.0018902765586972237,0.0022382065653800964,0.0015519283479079604
1.729424750017838e+18,-0.002662666840478778,0.002745100064203143,-9.716546628624201e-05
1.7294247500238382e+18,0.00011191883822903037,0.0024516244884580374,-0.001519704470410943
1.7294247500268383e+18,-0.0017576973186805844,0.0031982569489628077,0.0019703262951225042
1.7294247500328384e+18,0.0003511992981657386,0.0019711265340447426,0.0008038539090193808
1.7294247500388385e+18,-0.0018847630126401782,0.006803817581385374,0.00165940064471215
1.7294247500448387e+18,-0.0014972052304074168,0.0014819701900705695,0.0007807769579812884
1.7294247500478387e+18,-0.0021327852737158537,0.003997448831796646,0.0014544943114742637
1.7294247500538388e+18,-0.0018909964710474014,0.004955023527145386,0.0025029005482792854
1.729424750059839e+18,0.001959436107426882,0.0024672923609614372,0.00298320222645998
1.729424750062839e+18,-0.0021616346202790737,0.0029425714164972305,-0.0004479200579226017
1.7294247500688392e+18,-0.0010529529536142945,0.003046804340556264,0.0005746693350374699
1.7294247500748393e+18,-0.0018863604636862874,0.001958114793524146,0.0014236564747989178
1.7294247500808394e+18,-0.0011795444879680872,0.0029423381201922894,-0.00047762447502464056
1.7294247500838395e+18,-0.003182194195687771,0.0006519333110190928,0.0014875448541715741
1.7294247500898396e+18,-5.415990017354488e-06,0.0025539391208440065,0.0009136555017903447
1.7294247500958397e+18,-0.0014596378896385431,0.0016021616756916046,0.0011786221293732524
1.72942475010184e+18,-0.001900431583635509,0.003477842081338167,0.003819403937086463
1.72942475010784e+18,-0.002077115001156926,0.0011947817401960492,0.0008557555265724659
1.72942475011084e+18,-0.00017328921239823103,0.001912526786327362,0.0017410045256838202
1.7294247501168402e+18,-0.0003460500156506896,0.0034934007562696934,0.001611523563042283
1.7294247501228403e+18,-0.0019084764644503593,0.001408273819833994,0.003200453706085682
1.7294247501288404e+18,-0.001223615137860179,0.005983688868582249,0.002922777086496353
1.7294247501318405e+18,0.000379093864466995,0.0028374309185892344,0.002871168777346611
1.7294247501378406e+18,-0.0018005938036367297,0.0077184634283185005,-0.00017845851834863424
1.7294247501438408e+18,-0.0028552617877721786,0.0059982044622302055,-0.000266100512817502
1.729424750149841e+18,-0.0023351043928414583,0.004177879076451063,0.0015831268392503262
1.729424750155841e+18,0.0013016615994274616,0.004737843293696642,0.004798360168933868
1.729424750158841e+18,0.0001764521875884384,0.002168863546103239,0.0033687737304717302
1.7294247501648412e+18,0.000358653167495504,0.0003879006253555417,0.0018967068754136562
1.7294247501708413e+18,0.0005470453761518002,0.0011795953614637256,0.005155541002750397
1.7294247501768415e+18,0.0020550068002194166,-0.00197719968855381,0.005145091563463211
1.7294247501828416e+18,-0.001959912246093154,-0.0009916155831888318,0.0039158291183412075
1.7294247501858417e+18,-0.0015331674367189407,-0.0008017794461920857,0.0030060941353440285
1.7294247501918418e+18,-0.0005799493519589305,-0.0005306213861331344,-8.35771206766367e-05
1.729424750197842e+18,-0.0011018280638381839,0.0015060557052493095,0.0029582963325083256
1.729424750203842e+18,-0.0011354440357536077,0.007086851168423891,0.004811567720025778
1.729424750206842e+18,0.0029736007563769817,0.0035370257683098316,0.002594608813524246
1.7294247502128422e+18,0.0008468679152429104,0.004740393720567226,0.00550143513828516
1.7294247502188424e+18,-0.0010015297448262572,0.005199044477194548,0.0026170038618147373
1.7294247502248425e+18,0.0029594385996460915,0.0039971438236534595,-0.0006314534693956375
1.7294247502278426e+18,-0.0005501577397808433,0.006307615898549557,0.003985966090112925
1.7294247502338427e+18,-0.0007530126604251564,0.004306149668991566,0.0017863286193460226
1.7294247502398428e+18,0.0004979344084858894,0.0034939367324113846,0.0019427996594458818
1.729424750242843e+18,0.0006608485709875822,0.002402761485427618,0.0031567076221108437
1.729424750248843e+18,-0.001713373465463519,0.004697207361459732,0.0032434803433716297
1.7294247502548431e+18,0.001306966063566506,0.005169478245079517,0.0014534174697473645
1.7294247502608433e+18,-0.0002027819282375276,0.0077059827744960785,0.003054710105061531
1.7294247502638433e+18,0.0026506269350647926,0.00792749971151352,0.005656060762703419
1.7294247502698435e+18,0.0007148996228352189,0.004173832014203072,-0.0009092090185731649
1.7294247502758436e+18,-1.9418468582443893e-05,0.0034255136270076036,-6.824498996138573e-06
1.7294247502818437e+18,-0.00046323356218636036,0.006110079120844603,0.00052884710021317
1.7294247502848438e+18,0.002205156721174717,0.005771544761955738,0.005552372895181179
1.729424750290844e+18,-0.0024586906656622887,0.0029859086498618126,0.004342220723628998
1.729424750296844e+18,0.0005814812611788511,0.003562919795513153,0.0027091079391539097
1.7294247503028442e+18,-0.001487674075178802,0.004854262340813875,0.0024628478568047285
1.7294247503058442e+18,-0.002144905272871256,0.005948130507022142,0.0022651629988104105
1.7294247503118444e+18,-0.0012318554800003767,0.005233158823102713,0.0039200931787490845
1.7294247503178445e+18,0.0021576224826276302,0.0047640008851885796,0.0005566133186221123
1.7294247503208445e+18,2.798650530166924e-05,0.006296176929026842,-0.00016978266648948193
1.7294247503268447e+18,0.0022551005240529776,0.006299779750406742,0.0022225899156183004
1.7294247503328448e+18,0.0015925075858831406,0.008773530833423138,-0.0001543413382023573
1.729424750338845e+18,0.0026990200858563185,0.008261899463832378,0.0003503538900986314
1.729424750344845e+18,0.0018563349731266499,0.008280237205326557,0.0011444713454693556
1.729424750347845e+18,-0.0022687725722789764,0.007767577655613422,0.00020235427655279636
1.7294247503538452e+18,0.0017302667256444693,0.005252756178379059,0.0026298288721591234
1.7294247503598454e+18,-0.00010037535685114563,0.007321754936128855,0.002699529519304633
1.7294247503658455e+18,-0.0027829764876514673,0.004351763986051083,0.002963447943329811
1.7294247503688456e+18,-0.0021682020742446184,0.0037717828527092934,0.0032124677672982216
1.7294247503748457e+18,-0.0013663986464962363,0.00738972332328558,0.00315445801243186
1.7294247503808458e+18,0.0006162089994177222,0.006780150346457958,0.0017260814784094691
1.729424750386846e+18,-0.0035305144265294075,0.006012334488332272,-6.96815550327301e-05
1.729424750392846e+18,-0.0016489897388964891,0.0072059836238622665,0.0004710480570793152
1.7294247503958461e+18,-0.0008651692187413573,0.0033569899387657642,0.0006116911536082625
1.7294247504018463e+18,0.0006952488329261541,0.007071439176797867,-0.0003905077464878559
1.7294247504078464e+18,0.003786593209952116,0.0067012859508395195,0.002538759261369705
1.7294247504138465e+18,-0.00010610895697027445,0.002332825679332018,0.0052719758823513985
1.7294247504168466e+18,-0.0012092565884813666,0.004613112658262253,0.004730509128421545
1.7294247504228467e+18,0.0021437827963382006,0.006266155280172825,0.0038706734776496887
1.7294247504288468e+18,-0.0029954377096146345,0.0018034613458439708,0.0018127546645700932
1.729424750434847e+18,-0.0035806898958981037,0.005034507252275944,-0.0014636104460805655
1.729424750440847e+18,-0.006884624250233173,0.004704050719738007,0.002327710622921586
1.7294247504438472e+18,-0.0046039242297410965,0.0035301856696605682,0.0023855033796280622
1.7294247504498473e+18,-0.0057342806831002235,0.003607863327488303,0.0014751146081835032
1.7294247504558474e+18,-0.005204764194786549,0.0018319145310670137,0.004811662714928389
1.7294247504588475e+18,-0.002632295014336705,0.003182812826707959,0.001030380604788661
1.7294247504648476e+18,-0.0005230270326137543,0.0034441619645804167,0.004913356155157089
1.7294247504708477e+18,-0.0006903186440467834,0.002567622810602188,0.004694060888141394
1.7294247504768479e+18,0.0022522371727973223,9.872927330434322e-05,0.0043902029283344746
1.729424750479848e+18,2.8248177841305733e-07,0.0010126217966899276,0.0024554815609008074
1.729424750485848e+18,-0.007672599516808987,-0.0007846690714359283,-0.006933447439223528
1.7294247504918482e+18,-0.008372064679861069,-0.005247257649898529,-0.0157142523676157
1.7294247504978483e+18,-0.013369817286729813,-0.005089223850518465,-0.019448259845376015
1.7294247505038484e+18,-0.019322814419865608,-0.005073121748864651,-0.0225315410643816
1.7294247505098486e+18,-0.019552258774638176,-0.007983585819602013,-0.023421185091137886
1.7294247505128486e+18,-0.018101811408996582,-0.004178433679044247,-0.01946355402469635
1.7294247505188488e+18,-0.019189629703760147,-0.005256559234112501,-0.024833878502249718
1.729424750524849e+18,-0.013983571901917458,-0.004643563646823168,-0.026653675362467766
1.729424750530849e+18,-0.009269743226468563,-0.004752514883875847,-0.024827413260936737
1.729424750533849e+18,-0.007653451059013605,-0.0014577761758118868,-0.027136776596307755
1.7294247505398492e+18,-0.0052264779806137085,-0.0019170033046975732,-0.026651065796613693
1.7294247505458493e+18,-0.0066022127866744995,-0.0014154553646221757,-0.027658887207508087
1.7294247505518495e+18,-0.007250988855957985,-0.0017105406150221825,-0.022987937554717064
1.7294247505548495e+18,-0.003307851031422615,-0.0038363374769687653,-0.025092873722314835
1.7294247505608497e+18,-0.006972573697566986,-0.0022639301605522633,-0.021924465894699097
1.7294247505668498e+18,-0.009739749133586884,-0.0035709913354367018,-0.02441081963479519
1.72942475057285e+18,-0.008763585239648819,-0.005230261012911797,-0.024114441126585007
1.72942475057885e+18,-0.011162745766341686,-0.0020290003158152103,-0.02350742556154728
1.72942475058185e+18,-0.00971513893455267,-0.002791464561596513,-0.024056535214185715
1.7294247505878502e+18,-0.005676623433828354,0.0007791328243911266,-0.025716938078403473
1.7294247505938504e+18,-0.010092252865433693,-0.003107260214164853,-0.023150378838181496
1.7294247505998505e+18,-0.006267537362873554,-0.004172568209469318,-0.02513914369046688
1.7294247506028506e+18,-0.006840231362730265,-0.0006295103812590241,-0.02227124199271202
1.7294247506088507e+18,-0.0035949128214269876,-0.00260146358050406,-0.021638108417391777
1.7294247506148508e+18,-0.0026126927696168423,-0.0032748826779425144,-0.021392157301306725
1.729424750620851e+18,-0.0026775370351970196,0.002014739904552698,-0.02218923717737198
1.729424750623851e+18,-0.005287999287247658,-0.001986276125535369,-0.02351480908691883
1.7294247506298511e+18,-0.003699186723679304,-0.003706893417984247,-0.02178366668522358
1.7294247506358513e+18,-0.005614785943180323,-0.0010322474408894777,-0.0186082161962986
1.7294247506418514e+18,-0.004342892672866583,-0.0006976726581342518,-0.019132349640130997
1.7294247506478515e+18,-0.00685307290405035,0.005577986128628254,-0.018925810232758522
1.7294247506508516e+18,-0.008107063360512257,-0.00176975317299366,-0.018334897235035896
1.7294247506568517e+18,-0.0073163690976798534,0.0011453332845121622,-0.014995165169239044
1.7294247506628518e+18,-0.006363837048411369,0.004533003084361553,-0.0165665652602911
1.729424750665852e+18,-0.004636074416339397,0.005393637344241142,-0.013436783105134964
1.729424750671852e+18,-0.0024619533214718103,0.0019735265523195267,-0.015598093159496784
1.7294247506778522e+18,-0.0018374868668615818,0.002812237711623311,-0.01245490275323391
1.7294247506838523e+18,0.0007174722850322723,0.003124240320175886,-0.011304950341582298
1.7294247506868524e+18,0.000354521325789392,0.004360501188784838,-0.008916651830077171
1.7294247506928525e+18,0.0031020701862871647,0.004833206534385681,-0.012068228796124458
1.7294247506988526e+18,0.002996778814122081,0.0006553540006279945,-0.00614620465785265
1.7294247507048527e+18,0.0025022802874445915,0.001566119957715273,-0.005293529946357012
1.7294247507078528e+18,-0.0005825305124744773,-0.001482709078118205,-0.006880359724164009
1.729424750713853e+18,0.0010162140242755413,0.00416333694010973,-0.002976944437250495
1.729424750719853e+18,-0.00047820480540394783,0.0025781935546547174,-0.002317178761586547
1.7294247507258532e+18,-0.002912600291892886,0.005777074955403805,0.00034929843968711793
1.7294247507318533e+18,-0.001559408032335341,0.007998671382665634,7.229414768517017e-05
1.7294247507348534e+18,-0.0017649399815127254,0.005306319799274206,0.0025507600512355566
1.7294247507408535e+18,-0.0035970788449048996,0.006025751121342182,0.004110895562916994
1.7294247507468536e+18,-0.001825746614485979,0.00515678571537137,0.007646721322089434
1.7294247507528538e+18,-0.00279191299341619,0.003844845574349165,0.009618700481951237
1.7294247507558538e+18,0.00033340114168822765,0.0019470711704343557,0.010006383061408997
1.729424750761854e+18,0.002425474114716053,0.0069883763790130615,0.015330015681684017
1.729424750767854e+18,0.004359368234872818,0.0019733223598450422,0.013287723995745182
1.7294247507738542e+18,0.005422703456133604,0.004034058190882206,0.015390681102871895
1.7294247507768543e+18,0.008134514093399048,0.0066415779292583466,0.015546727925539017
1.7294247507828544e+18,0.00806622114032507,0.00946415401995182,0.0190898384898901
1.7294247507888545e+18,0.001995149999856949,0.006713817361742258,0.02633514627814293
1.7294247507948547e+18,0.0056657311506569386,0.007952396757900715,0.024313803762197495
1.7294247508008548e+18,0.00013131776358932257,0.0055232299491763115,0.02741985209286213
1.729424750806855e+18,0.002043399028480053,0.005342747550457716,0.031836479902267456
1.729424750809855e+18,-9.891687659546733e-05,0.003408564953133464,0.031399186700582504
1.729424750815855e+18,-0.00029556325171142817,0.004397344309836626,0.030652787536382675
1.7294247508218552e+18,0.000511294580064714,0.005415969993919134,0.034930065274238586
1.7294247508248553e+18,0.0019501025089994073,0.009234265424311161,0.038216814398765564
1.7294247508308554e+18,0.0018323949771001935,0.007277324795722961,0.03978893533349037
1.7294247508368556e+18,0.006717904005199671,0.011498771607875824,0.03948162496089935
1.7294247508428557e+18,0.0055836779065430164,0.010293165221810341,0.04474112391471863
1.7294247508458557e+18,0.005830223672091961,0.008095667697489262,0.04405219480395317
1.729424750851856e+18,0.0061573367565870285,0.0077791218645870686,0.04827409237623215
1.729424750857856e+18,0.0020752381533384323,0.00855371542274952,0.04952066391706467
1.729424750863856e+18,0.004269729368388653,0.00453048013150692,0.04838946461677551
1.7294247508668562e+18,0.002728791907429695,0.0082679009065032,0.053159017115831375
1.7294247508728563e+18,0.0039610667154192924,0.004314301069825888,0.05658506974577904
1.7294247508788564e+18,0.0032823854126036167,0.006157045718282461,0.05749683454632759
1.7294247508848566e+18,0.00039606960490345955,0.001763626467436552,0.062305349856615067
1.7294247508908567e+18,0.003606016281992197,0.007203147746622562,0.06145975738763809
1.7294247508938568e+18,0.0032967531587928534,0.005339150317013264,0.06308458000421524
1.729424750899857e+18,0.0051965611055493355,0.007316661067306995,0.06641490757465363
1.729424750905857e+18,0.004434076137840748,0.008881939575076103,0.06865058839321136
1.729424750908857e+18,0.007298133801668882,0.0025079557672142982,0.06840546429157257
1.7294247509148572e+18,0.006710428278893232,0.006675029173493385,0.07342816144227982
1.7294247509208573e+18,0.006013333331793547,0.006503445096313953,0.07373244315385818
1.7294247509268575e+18,0.006874853745102882,0.00618424266576767,0.07533042877912521
1.7294247509328576e+18,0.0027079370338469744,0.00874642189592123,0.07866157591342926
1.7294247509358577e+18,0.0036623587366193533,0.005666140932589769,0.0816810354590416
1.7294247509418578e+18,-0.0006180520867928863,0.007577086798846722,0.08211009204387665
1.729424750947858e+18,0.002580138621851802,0.0054334294982254505,0.08532576262950897
1.729424750953858e+18,0.002913369331508875,0.0026683411560952663,0.08717598021030426
1.7294247509598582e+18,0.0033339853398501873,0.005918457638472319,0.0888558104634285
1.7294247509628582e+18,0.002193250460550189,0.004723767284303904,0.08803759515285492
1.7294247509688584e+18,0.002697784686461091,0.004544274881482124,0.0904955044388771
1.7294247509748585e+18,0.005122151225805283,0.0029303664341568947,0.09020276367664337
1.7294247509808586e+18,-4.204211290925741e-05,0.006969055160880089,0.09389154613018036
1.7294247509868588e+18,0.00040282239206135273,0.005276049021631479,0.09763070940971375
1.7294247509898588e+18,-0.00029523472767323256,0.004358103033155203,0.09783994406461716
1.729424750995859e+18,-0.0003829073393717408,0.006506752222776413,0.102423295378685
1.729424751001859e+18,-0.0030509429052472115,0.0033539915457367897,0.09748068451881409
1.7294247510078592e+18,-0.0034097875468432903,0.005836872383952141,0.10602767020463943
1.7294247510138593e+18,-0.0011390479048714042,0.005715330597013235,0.10623089969158173
1.7294247510198595e+18,-0.0011449777521193027,0.008932960219681263,0.10761468857526779
1.7294247510228595e+18,0.0016176414210349321,0.00925450585782528,0.1042257696390152
1.7294247510288596e+18,0.002269057324156165,0.00952472910284996,0.10746680200099945
1.7294247510348598e+18,-0.00018061714945361018,0.006295373197644949,0.11048392206430435
1.72942475104086e+18,-0.0007655230583623052,0.009542565792798996,0.11012053489685059
1.72942475104386e+18,-0.003323256503790617,0.0082850968465209,0.11436274647712708
1.72942475104986e+18,-0.0031542424112558365,0.00813479907810688,0.11375045031309128
1.7294247510558602e+18,-0.0019101352663710713,0.00322598940692842,0.11501079052686691
1.7294247510618604e+18,-0.0058025699108839035,0.0046753971837460995,0.11710266023874283
1.7294247510678605e+18,-0.0056230127811431885,0.003896611277014017,0.11824648827314377
1.7294247510738606e+18,-0.000991793000139296,0.00389727926813066,0.11932017654180527
1.7294247510798607e+18,-0.0015766950091347098,0.004979010205715895,0.12038882076740265
1.7294247510858609e+18,0.0012368636671453714,0.0021896257530897856,0.1190640851855278
1.729424751094861e+18,0.0014136983081698418,0.004302176646888256,0.1215638816356659
1.7294247511008612e+18,0.0009893877431750298,0.00926596112549305,0.12378566712141037
1.7294247511098614e+18,0.0027227087412029505,0.008896548300981522,0.122012197971344
1.7294247511188616e+18,-0.0018558402080088854,0.005565750878304243,0.1280680149793625
1.7294247511248617e+18,-0.006340446881949902,0.009183747693896294,0.12673112750053406
1.729424751136862e+18,-0.0019955183379352093,0.006431984715163708,0.1285802274942398
1.7294247511458621e+18,-0.0019109832355752587,0.006391312927007675,0.12676841020584106
1.7294247511518623e+18,0.001918166526593268,0.00962657481431961,0.1288236677646637
1.7294247511608625e+18,0.005374848376959562,0.00347383925691247,0.12747135758399963
1.7294247511668626e+18,0.007638426031917334,0.007834394462406635,0.13105802237987518
1.7294247511728627e+18,0.0039689429104328156,0.0068760341964662075,0.12979499995708466
1.729424751181863e+18,0.0034961309283971786,0.004077903460711241,0.13256876170635223
1.729424751190863e+18,0.0030677448958158493,0.00630551390349865,0.13073576986789703
1.7294247511998633e+18,-0.0005885023856535554,0.006578962784260511,0.13203264772891998
1.7294247512088635e+18,-0.001978434156626463,0.0038454465102404356,0.13201171159744263
1.7294247512148636e+18,-0.0017509867902845144,0.0074711693450808525,0.13064338266849518
1.7294247512208637e+18,0.0008161522564478219,0.0042413570918142796,0.1338912397623062
1.729424751229864e+18,0.004646989982575178,0.0036237630993127823,0.1337055116891861
1.729424751235864e+18,0.0047117010690271854,0.0006678251083940268,0.1322232037782669
1.7294247512418642e+18,0.004719729535281658,0.00207969406619668,0.13253973424434662
1.7294247512508644e+18,-0.0010252823121845722,0.0012928788783028722,0.1299692839384079
1.7294247512568645e+18,-0.0021552452817559242,0.002697573509067297,0.1302981823682785
1.7294247512658647e+18,-0.00014111283235251904,0.005292308982461691,0.13083834946155548
1.729424751274865e+18,-0.00252819643355906,0.006280737929046154,0.13007816672325134
1.729424751280865e+18,-0.0021426640450954437,0.0032168119214475155,0.13130223751068115
1.7294247512898652e+18,-0.001091866521164775,0.004261798691004515,0.13099882006645203
1.7294247512958653e+18,0.0029086386784911156,0.0030925592873245478,0.12785330414772034
1.7294247513048655e+18,0.00041499873623251915,0.0013613656628876925,0.12589068710803986
1.7294247513108657e+18,0.0012590070255100727,0.003773599863052368,0.12613137066364288
1.7294247513198659e+18,-0.0012962245382368565,0.005353410728275776,0.12586501240730286
1.729424751325866e+18,6.754533387720585e-05,-0.00045762647641822696,0.12734542787075043
1.729424751331866e+18,-0.0015741456300020218,0.0030422285199165344,0.12643665075302124
1.7294247513408663e+18,-0.0014831202570348978,-0.00011498027015477419,0.1243952140212059
1.7294247513468664e+18,-0.005788702517747879,0.0012307780561968684,0.12445612251758575
1.7294247513528666e+18,-0.0016718832775950432,0.004865941591560841,0.12316600233316422
1.7294247513588667e+18,-0.0006379937403835356,0.003464990761131048,0.12528462707996368
1.7294247513648668e+18,-6.97536306688562e-05,0.0026537515223026276,0.1231592521071434
1.729424751370867e+18,0.0024251537397503853,0.004375420976430178,0.12339040637016296
1.7294247513798671e+18,0.004064585082232952,0.0070370277389883995,0.11876823008060455
1.7294247513888673e+18,0.0014197761192917824,0.0025358933489769697,0.11919472366571426
1.7294247513948675e+18,0.0030029481276869774,0.0031469659879803658,0.11993908882141113
1.7294247514008676e+18,0.00048097840044647455,-5.059526301920414e-05,0.11838081479072571
1.7294247514068677e+18,-0.0011581035796552896,0.0013852021656930447,0.11637832224369049
1.729424751415868e+18,-0.004518515430390835,0.000860267726238817,0.11395090818405151
1.729424751421868e+18,-0.0017551027704030275,0.0039287167601287365,0.11447261273860931
1.7294247514308682e+18,-0.00035370595287531614,0.0007945102988742292,0.11263778805732727
1.7294247514368684e+18,0.0018665147945284843,0.004375334829092026,0.1154680848121643
1.7294247514428685e+18,0.0034403507597744465,0.00021672062575817108,0.11163794994354248
1.7294247514488686e+18,0.005292846821248531,0.0060808113776147366,0.11099474877119064
1.7294247514548687e+18,0.00481760036200285,0.0030311220325529575,0.1091158539056778
1.7294247514608689e+18,0.005931309424340725,0.0025154780596494675,0.10874772071838379
1.729424751469869e+18,0.005395989865064621,0.0031723983120173216,0.10709477961063385
1.7294247514758692e+18,0.005628729239106178,0.002660063561052084,0.10256319493055344
1.7294247514818693e+18,0.0028072604909539223,0.005516605451703072,0.10573190450668335
1.7294247514878694e+18,0.0011353273876011372,0.0045473091304302216,0.10215377807617188
1.7294247514938696e+18,0.0018075784901157022,0.007152540609240532,0.10033123195171356
1.7294247514998697e+18,0.001222366583533585,0.006747230887413025,0.10210676491260529
1.7294247515058698e+18,0.0017777300672605634,0.006657976657152176,0.10066668689250946
1.72942475150887e+18,0.005487353075295687,0.005122730508446693,0.09950459748506546
1.72942475151487e+18,0.0019430267857387662,0.005785111803561449,0.09503822028636932
1.7294247515208701e+18,0.0035983070265501738,0.003261258127167821,0.09619833528995514
1.7294247515268703e+18,0.0044124675914645195,0.005285917781293392,0.09407094120979309
1.7294247515298703e+18,0.0034917632583528757,0.004376768134534359,0.09474030137062073
1.7294247515358705e+18,0.0037071548867970705,0.0023082853294909,0.09089305251836777
1.7294247515418706e+18,-0.0001837222371250391,0.0034221913665533066,0.09057847410440445
1.7294247515478707e+18,-0.001093799015507102,0.007681719958782196,0.09002342820167542
1.7294247515538708e+18,-4.205538425594568e-05,0.003928640857338905,0.0901883915066719
1.729424751559871e+18,0.0005896375514566898,0.008726431056857109,0.08663780242204666
1.729424751562871e+18,-0.003683252725750208,0.0047047920525074005,0.08672027289867401
1.7294247515688712e+18,-0.002872646786272526,0.005919732619076967,0.08848057687282562
1.7294247515748713e+18,-0.004527542740106583,0.006027057766914368,0.08384035527706146
1.7294247515808714e+18,-0.0019574365578591824,0.0072947172448039055,0.08288811892271042
1.7294247515868716e+18,-0.0006123306229710579,0.002726658945903182,0.07957033812999725
1.7294247515928717e+18,-0.00018995930440723896,0.00528313871473074,0.08209673315286636
1.7294247515958717e+18,-0.0027107305359095335,0.004513301886618137,0.07712079584598541
1.729424751601872e+18,-0.0030755114275962114,0.002683837665244937,0.07742977142333984
1.729424751607872e+18,-0.004585969261825085,0.005596544127911329,0.07587958872318268
1.729424751613872e+18,0.0013089412823319435,0.00504373898729682,0.07616284489631653
1.7294247516168722e+18,-0.005416811443865299,0.008599983528256416,0.07527446001768112
1.7294247516228723e+18,-0.003788560163229704,0.007755954284220934,0.07108645141124725
1.7294247516288724e+18,-0.003576357150450349,0.009593339636921883,0.07340336591005325
1.7294247516348726e+18,-0.002564948983490467,0.0037709930911660194,0.07083945721387863
1.7294247516408727e+18,0.0011009059380739927,0.009539559483528137,0.06912817806005478
1.7294247516438728e+18,0.0026018694043159485,0.006484375800937414,0.06956127285957336
1.729424751649873e+18,0.0006927520735189319,0.006693447940051556,0.06823720782995224
1.729424751655873e+18,0.0005179466097615659,0.005672015715390444,0.061996784061193466
1.7294247516618732e+18,-0.006666908971965313,0.00849160272628069,0.06493005901575089
1.7294247516648732e+18,-0.008923939429223537,0.009716184809803963,0.06572911143302917
1.7294247516708733e+18,-0.014103791676461697,0.017668718472123146,0.06291788816452026
1.7294247516768735e+18,-0.021865013986825943,0.017318885773420334,0.06274119764566422
1.7294247516828736e+18,-0.03016550838947296,0.020343681797385216,0.062476009130477905
1.7294247516888737e+18,-0.037509575486183167,0.02817092090845108,0.06363872438669205
1.7294247516918738e+18,-0.03713805973529816,0.029429206624627113,0.05900643393397331
1.729424751697874e+18,-0.03658600524067879,0.026420054957270622,0.061828840523958206
1.729424751703874e+18,-0.03258373215794563,0.028915295377373695,0.05914643406867981
1.7294247517098742e+18,-0.030879493802785873,0.029062939807772636,0.05835775285959244
1.7294247517158743e+18,-0.027885036543011665,0.024778030812740326,0.05290859192609787
1.7294247517188744e+18,-0.02620387263596058,0.02384253963828087,0.0557762011885643
1.7294247517248745e+18,-0.027874095365405083,0.025365231558680534,0.053389471024274826
1.7294247517308746e+18,-0.02224579080939293,0.027298124507069588,0.05378485843539238
1.7294247517368748e+18,-0.027775302529335022,0.026394566521048546,0.05369759723544121
1.729424751742875e+18,-0.02942020818591118,0.02892521768808365,0.05486541986465454
1.729424751745875e+18,-0.029400847852230072,0.02789326384663582,0.05212845280766487
1.729424751751875e+18,-0.03423607721924782,0.03390038013458252,0.05234294757246971
1.7294247517578752e+18,-0.037106506526470184,0.03233297914266586,0.05198528245091438
1.7294247517638753e+18,-0.035608839243650436,0.03126292675733566,0.05193842947483063
1.7294247517698755e+18,-0.03632058575749397,0.030323799699544907,0.05283114314079285
1.7294247517728755e+18,-0.0326121486723423,0.03147363290190697,0.048701390624046326
1.7294247517788756e+18,-0.02818264253437519,0.027031319215893745,0.04688724875450134
1.7294247517848758e+18,-0.028461726382374763,0.023692622780799866,0.04723399877548218
1.729424751790876e+18,-0.02369857206940651,0.023926660418510437,0.04712556302547455
1.729424751796876e+18,-0.023878661915659904,0.025590116158127785,0.04717135429382324
1.7294247518028762e+18,-0.022715764120221138,0.02372732013463974,0.04473639279603958
1.7294247518088763e+18,-0.019514266401529312,0.02780359610915184,0.04148753359913826
1.7294247518118764e+18,-0.019644808024168015,0.026933057233691216,0.04300227761268616
1.7294247518208765e+18,-0.024082453921437263,0.027512000873684883,0.04567740857601166
1.7294247518268767e+18,-0.026643749326467514,0.025386156514286995,0.041532404720783234
1.7294247518328768e+18,-0.02794152870774269,0.02443530037999153,0.04448290914297104
1.7294247518358769e+18,-0.024701420217752457,0.023167403414845467,0.04193711280822754
1.729424751841877e+18,-0.02215408720076084,0.021316930651664734,0.03811142221093178
1.729424751847877e+18,-0.020380370318889618,0.02424587868154049,0.043460626155138016
1.7294247518538772e+18,-0.015863901004195213,0.018586577847599983,0.04072525352239609
1.7294247518598774e+18,-0.015361202880740166,0.01714707538485527,0.03857796639204025
1.7294247518658775e+18,-0.012579994276165962,0.0179997980594635,0.038689520210027695
1.7294247518718776e+18,-0.014193598181009293,0.013703953474760056,0.03744984790682793
1.7294247518748777e+18,-0.007925156503915787,0.01316061895340681,0.03805052861571312
1.7294247518808778e+18,-0.010205007158219814,0.01041343342512846,0.03611241281032562
1.729424751889878e+18,-0.012085063382983208,0.012122925370931625,0.0355636291205883
1.729424751892878e+18,-0.011320539750158787,0.013403302989900112,0.03465850651264191
1.7294247518988782e+18,-0.01316894218325615,0.015681641176342964,0.032229211181402206
1.7294247519048783e+18,-0.010503329336643219,0.01232081651687622,0.03484649956226349
1.7294247519108785e+18,-0.011149370111525059,0.011141161434352398,0.033467210829257965
1.7294247519198787e+18,-0.007173041347414255,0.006904049310833216,0.032481104135513306
1.7294247519258788e+18,-0.0036933766677975655,0.008398585021495819,0.031700003892183304
1.729424751931879e+18,-0.0009893763344734907,0.0049433400854468346,0.033436261117458344
1.729424751937879e+18,0.0012160036712884903,0.004179942421615124,0.0309639610350132
1.729424751940879e+18,-0.0009946732316166162,0.002651504473760724,0.029517963528633118
1.7294247519468792e+18,-0.0004814612038899213,0.005821045488119125,0.03302580863237381
1.7294247519528794e+18,-0.000833239289931953,0.006353088188916445,0.030719181522727013
1.7294247519588795e+18,-0.0045989882200956345,0.008500657975673676,0.025341637432575226
1.7294247519648796e+18,-0.0007679592818021774,0.0008791233412921429,0.028529401868581772
1.7294247519708797e+18,-0.006982830353081226,0.0069786012172698975,0.028272945433855057
1.7294247519768799e+18,-0.004075345583260059,0.006555204279720783,0.02573038823902607
1.72942475198288e+18,-0.0014869712758809328,0.006981963291764259,0.026638610288500786
1.72942475198588e+18,-0.0036326039116829634,0.006667479872703552,0.029232028871774673
1.7294247519918802e+18,-0.0009968460071831942,0.0063900272361934185,0.02639053575694561
1.7294247519978803e+18,0.002117779804393649,0.0018841708078980446,0.026480112224817276
1.7294247520038804e+18,0.004850921221077442,0.0020905137062072754,0.025847196578979492
1.7294247520098806e+18,0.003498269245028496,0.002631577430292964,0.024836597964167595
1.7294247520158807e+18,0.0032326956279575825,0.0012797475792467594,0.023480460047721863
1.7294247520218808e+18,0.0039220647886395454,0.004743438679724932,0.02325739897787571
1.729424752027881e+18,0.005563515704125166,0.00262977066449821,0.02172355353832245
1.729424752033881e+18,0.0016493791481480002,0.0036233291029930115,0.022886406630277634
1.7294247520398812e+18,0.0028747664764523506,0.0035951118916273117,0.021209517493844032
1.7294247520428813e+18,0.002042913343757391,0.0044106971472501755,0.02139870449900627
1.7294247520488814e+18,0.003528272733092308,0.0016643248964101076,0.02295183204114437
1.7294247520548815e+18,0.0012381388805806637,0.0016265290323644876,0.02077101357281208
1.7294247520608817e+18,0.0022226020228117704,0.0028589991852641106,0.021196849644184113
1.7294247520668818e+18,0.00401484128087759,-0.0015643327496945858,0.023371975868940353
1.729424752072882e+18,0.001968769822269678,0.0009025692706927657,0.016930006444454193
1.729424752075882e+18,0.0033060370478779078,-0.0025479949545115232,0.02334221825003624
1.729424752081882e+18,0.003968406934291124,-0.0002987033221870661,0.024187983945012093
1.7294247520878822e+18,0.004960968159139156,-0.0030321883969008923,0.017792055383324623
1.7294247520938824e+18,0.006074763834476471,-0.0027854167856276035,0.018629759550094604
1.7294247520968824e+18,0.0046522533521056175,-0.003091511083766818,0.01995423249900341
1.7294247521028826e+18,0.006869499105960131,-0.0021864238660782576,0.018567897379398346
1.7294247521088827e+18,0.005907926708459854,-0.0015633016591891646,0.017435221001505852
1.7294247521148828e+18,0.005323345772922039,-0.0014666994102299213,0.019333800300955772
1.729424752120883e+18,0.00857775378972292,-0.004286107607185841,0.01779012195765972
1.729424752123883e+18,0.006134159862995148,-0.002226633718237281,0.017768995836377144
1.7294247521298831e+18,0.006807274650782347,-0.0014390591531991959,0.015413574874401093
1.7294247521358833e+18,0.004300196189433336,-0.0015910633374005556,0.015130260959267616
1.7294247521418834e+18,0.0049302838742733,-0.0012010979698970914,0.015323294326663017
1.7294247521478835e+18,0.0046825110912323,0.00039536284748464823,0.013856275007128716
1.7294247521538836e+18,0.0036397655494511127,-0.0009127578232437372,0.01564043015241623
1.7294247521568837e+18,0.005268474109470844,-0.005227020476013422,0.015514116734266281
1.7294247521628838e+18,0.005653656553477049,0.0009430625941604376,0.012407241389155388
1.729424752168884e+18,0.0008955639787018299,-0.0021736265625804663,0.014700658619403839
1.729424752174884e+18,0.0033232602290809155,-0.0023506609722971916,0.01685626432299614
1.7294247521778842e+18,0.004502885974943638,-0.0057376413606107235,0.014824137091636658
1.7294247521838843e+18,0.002939479425549507,-0.0043987673707306385,0.013285020366311073
1.7294247521898844e+18,0.0066495416685938835,-0.006295301951467991,0.014341618865728378
1.7294247521958845e+18,0.005388698074966669,-0.0062109436839818954,0.011534096673130989
1.7294247522018847e+18,0.0042955102398991585,-0.003656168235465884,0.013486211188137531
1.7294247522048847e+18,0.005102645140141249,-0.005670432932674885,0.011258113197982311
1.7294247522108849e+18,0.004712263587862253,-0.002978080417960882,0.013660663738846779
1.729424752216885e+18,0.003815926844254136,-0.0027322005480527878,0.013183999806642532
1.729424752222885e+18,0.0035829145926982164,-0.0038237860426306725,0.01359204575419426
1.7294247522288852e+18,0.002154957503080368,-0.0029443574603646994,0.01496181171387434
1.7294247522318853e+18,0.00046984502114355564,-0.0036520822905004025,0.01298285648226738
1.7294247522378854e+18,0.0012719068909063935,-0.002538991393521428,0.010414788499474525
1.7294247522438856e+18,0.00377883343026042,-0.0016481955535709858,0.01121966727077961
1.7294247522468856e+18,0.0024684269446879625,0.0014422318199649453,0.011238102801144123
1.7294247522528858e+18,-0.000525020994246006,-0.0018044066382572055,0.00883023627102375
1.729424752258886e+18,0.0013199285604059696,-0.0018677263287827373,0.011326300911605358
1.729424752264886e+18,0.006669977214187384,-0.0030625127255916595,0.01111228484660387
1.729424752267886e+18,0.00684985239058733,-0.0021471616346389055,0.012136531062424183
1.7294247522738862e+18,0.0033317692577838898,-0.0004044166998937726,0.012235021218657494
1.7294247522798863e+18,0.0026622063014656305,-0.0010809714440256357,0.008147472515702248
1.7294247522858865e+18,0.005761539097875357,-0.0012056995183229446,0.009637206792831421
1.7294247522918866e+18,0.0013262999709695578,-0.000259717577137053,0.008537586778402328
1.7294247522948867e+18,0.002099778037518263,-0.001888228696770966,0.005449233110994101
1.7294247523008868e+18,0.00011277839075773954,-0.0008444834966212511,0.008918773382902145
1.729424752306887e+18,0.00027283886447548866,-0.0052772099152207375,0.012149225920438766
1.729424752309887e+18,0.0034596160985529423,-0.003567222971469164,0.008726603351533413
1.729424752315887e+18,0.005065961740911007,-0.003767631249502301,0.0076194582507014275
1.7294247523218872e+18,0.0065811797976493835,-0.0034872484393417835,0.006024768576025963
1.7294247523278874e+18,0.006327720824629068,-0.006745879538357258,0.008341037668287754
1.7294247523338875e+18,0.0022917981259524822,-0.0035073221661150455,0.006665527820587158
1.7294247523398876e+18,0.005937199108302593,-0.0007704042363911867,0.00637824134901166
1.7294247523428877e+18,0.006750860251486301,-0.00321042537689209,0.00852540135383606
1.7294247523488878e+18,0.004535222426056862,-0.0035070546437054873,0.006549462676048279
1.729424752354888e+18,0.005509796552360058,-0.00298641761764884,0.005159114953130484
1.729424752357888e+18,0.0065522524528205395,-0.002248886041343212,0.006896269507706165
1.729424752363888e+18,0.002781729679554701,-0.0012878533452749252,0.009717421606183052
1.7294247523698883e+18,0.0051899743266403675,-0.0028354027308523655,0.0052453940734267235
1.7294247523758884e+18,0.004791516810655594,-0.0009851563954725862,0.00853914488106966
1.7294247523788884e+18,0.006661386229097843,-0.006773149594664574,0.004155784845352173
1.7294247523848886e+18,0.0044683716259896755,-0.0041773393750190735,0.006152354180812836
1.7294247523908887e+18,0.002216443419456482,-0.008648024871945381,0.005111563950777054
1.7294247523968888e+18,0.003679213346913457,-0.005988237448036671,0.007495724596083164
1.729424752402889e+18,0.0016836875583976507,-0.005912154447287321,0.00515311723574996
1.729424752408889e+18,0.0004890452837571502,-0.004617834929376841,0.0032415909226983786
1.7294247524118892e+18,0.0019098205957561731,-0.00703837163746357,0.005401446018368006
1.7294247524178893e+18,0.002110040746629238,-0.00898350402712822,0.005988463759422302
1.7294247524238894e+18,0.005059746094048023,-0.003920798189938068,0.004661276005208492
1.7294247524298895e+18,0.0025351063814014196,-0.005281068850308657,0.005611472763121128
1.7294247524358897e+18,0.00312823336571455,-0.005562001373618841,0.0035137529484927654
1.7294247524388897e+18,0.004219707101583481,-0.005905876401811838,0.004316548351198435
1.7294247524448899e+18,0.005112496204674244,-0.007899781689047813,0.005671429447829723
1.72942475245089e+18,0.00447135278955102,-0.008115490898489952,0.0047578043304383755
1.72942475245689e+18,0.0019127951236441731,-0.010536011308431625,0.0010089394636452198
1.7294247524628902e+18,0.0005863490514457226,-0.005803223699331284,0.004934612661600113
1.7294247524658903e+18,0.0019525570096448064,-0.008941502310335636,0.0049516879953444
1.7294247524718904e+18,0.005141753703355789,-0.00910626258701086,0.0026728748343884945
1.7294247524778906e+18,0.0018150405958294868,-0.007760351058095694,0.004251690115779638
1.7294247524838907e+18,0.0014225919730961323,-0.007364655379205942,0.004961656406521797
1.7294247524898908e+18,0.006238211411982775,-0.0037519410252571106,0.005675312131643295
1.729424752492891e+18,0.005108778364956379,-0.004737521521747112,0.0013894294388592243
1.729424752498891e+18,0.005054776091128588,-0.00452024070546031,0.004137735813856125
1.7294247525048911e+18,0.003933288156986237,-0.006864229682832956,0.002504422329366207
1.7294247525108913e+18,0.004506750497967005,-0.005843800026923418,0.0016895332373678684
1.7294247525168914e+18,0.00507940910756588,-0.006080253515392542,0.0016139592044055462
1.7294247525228915e+18,0.0017540750559419394,-0.00677053676918149,0.002109087537974119
1.7294247525288916e+18,0.0007505291141569614,-0.008427530527114868,0.004496150650084019
1.7294247525318917e+18,0.0015206563984975219,-0.007800511084496975,-0.00013043172657489777
1.7294247525378918e+18,0.0011232343968003988,-0.008048340678215027,0.004934452939778566
1.729424752543892e+18,0.003272787667810917,-0.008309511467814445,0.0016172913601621985
1.729424752549892e+18,0.0012639234773814678,-0.006590693257749081,0.002358419122174382
1.7294247525558922e+18,0.002216815249994397,-0.006472545675933361,0.0015180996851995587
1.7294247525588923e+18,0.008214801549911499,-0.007461227010935545,0.003103992436081171
1.7294247525648924e+18,0.007706589065492153,-0.005242194980382919,0.0009023890597745776
1.7294247525708925e+18,0.006085999775677919,-0.006676054559648037,-0.0032128524035215378
1.7294247525768927e+18,0.006401801947504282,-0.0081405621021986,-0.0007347621722146869
1.7294247525828928e+18,0.0035181893035769463,-0.007047421298921108,-0.0011358046904206276
1.729424752588893e+18,0.005354711785912514,-0.0069310544058680534,-0.001649388112127781
1.729424752594893e+18,0.004365711472928524,-0.007869741879403591,0.0002722819917835295
1.7294247526008932e+18,0.00010904925875365734,-0.007548809051513672,0.002591204596683383
1.7294247526038932e+18,0.0002712869318202138,-0.009747003205120564,0.0013551968149840832
1.7294247526098934e+18,0.0031358206178992987,-0.01050624530762434,0.0006817488465458155
1.7294247526158935e+18,0.00441693514585495,-0.008093294687569141,-0.003974007908254862
1.7294247526218936e+18,0.0032262348104268312,-0.006576455198228359,0.0015010995557531714
1.7294247526278938e+18,0.0051579223945736885,-0.01074517797678709,-0.0012614468578249216
1.7294247526308938e+18,0.006521147675812244,-0.007838969118893147,-0.0020888533908873796
1.729424752636894e+18,0.006499839946627617,-0.007684085983783007,0.000872703327331692
1.729424752642894e+18,0.007071871776133776,-0.00501385610550642,0.0011031379690393806
1.7294247526488942e+18,0.007117435336112976,-0.0062498366460204124,-0.002695912029594183
1.7294247526548943e+18,0.006511447951197624,-0.005687213968485594,0.00043893701513297856
1.7294247526578944e+18,0.00018853368237614632,-0.004994730465114117,-0.0005905055440962315
1.7294247526638945e+18,0.0011930465698242188,-0.008380190469324589,-0.0017767640529200435
1.7294247526698947e+18,-0.0006445748149417341,-0.009770143777132034,-0.0016190361930057406
1.7294247526758948e+18,-0.002503439784049988,-0.010597685351967812,-0.0002108849585056305
1.729424752681895e+18,-0.00024465681053698063,-0.009256389923393726,0.0018066652119159698
1.729424752684895e+18,0.00038888840936124325,-0.010329714976251125,0.0008537571411579847
1.729424752690895e+18,-0.0002760865609161556,-0.009990419261157513,0.0015500213485211134
1.7294247526968952e+18,0.0021485676988959312,-0.010281568393111229,-0.0022481163032352924
1.7294247526998953e+18,0.0012078986037522554,-0.010801254771649837,-0.002094478812068701
1.7294247527058954e+18,0.0025321024004369974,-0.0082696583122015,5.3729512728750706e-05
1.7294247527118956e+18,0.0033474075607955456,-0.008823304437100887,0.0004832283593714237
1.7294247527178957e+18,0.005232738330960274,-0.010202491655945778,-0.0005545163294300437
1.7294247527208957e+18,0.0020015863701701164,-0.008642655797302723,-0.005008477717638016
1.7294247527268959e+18,0.004612281918525696,-0.00490479776635766,-0.0008906656294129789
1.729424752732896e+18,0.004068441689014435,-0.011138904839754105,-0.0034154807217419147
1.7294247527388961e+18,0.0032965349964797497,-0.010233896784484386,-0.0034515075385570526
1.7294247527448963e+18,0.0034637050703167915,-0.013613362796604633,-0.0014288565143942833
1.7294247527478963e+18,0.00252479943446815,-0.011415393091738224,-0.0028155753389000893
1.7294247527538964e+18,-0.00017098570242524147,-0.009856521151959896,-0.002816410269588232
1.7294247527598966e+18,0.0012733072508126497,-0.01320141926407814,-0.005421559326350689
1.7294247527628966e+18,0.004513594787567854,-0.01139830332249403,-0.001952039310708642
1.7294247527688968e+18,0.004325587768107653,-0.009481995366513729,-0.001355283777229488
1.729424752774897e+18,0.003183346940204501,-0.00741953682154417,-0.0022198103833943605
1.729424752780897e+18,0.005359671078622341,-0.010188658721745014,-0.0017424484249204397
1.7294247527868972e+18,0.007062895223498344,-0.006322880741208792,0.0006145790684968233
1.7294247527898972e+18,0.007169994059950113,-0.0072448886930942535,-0.0021924928296357393
1.7294247527958973e+18,0.0065909493714571,-0.005533960647881031,-0.0021757548674941063
1.7294247528018975e+18,0.0085150096565485,-0.008427205495536327,-0.0016714336816221476
1.7294247528078976e+18,0.00787241943180561,-0.009052138775587082,-0.0036815691273659468
1.7294247528108977e+18,0.0036483043804764748,-0.00905639212578535,0.000522935763001442
1.7294247528168978e+18,0.005615504924207926,-0.011456296779215336,-0.003997227177023888
1.729424752822898e+18,0.002266588620841503,-0.007220955565571785,-0.0032972756307572126
1.729424752828898e+18,0.00048093125224113464,-0.008582803420722485,-0.0021491830702871084
1.7294247528348982e+18,0.003235291689634323,-0.008933281525969505,-0.0017369752749800682
1.7294247528378982e+18,0.0017478466033935547,-0.010986072942614555,-0.003032919717952609
1.7294247528438984e+18,0.002785739488899708,-0.009850072674453259,-0.0014177205739542842
1.7294247528498985e+18,1.3451441191136837e-05,-0.010005909018218517,-0.002653759438544512
1.7294247528558986e+18,0.0016039410838857293,-0.010467389598488808,-0.0019363982137292624
1.7294247528588987e+18,0.0022811570670455694,-0.011296743527054787,-0.0026942421682178974
1.7294247528648988e+18,0.004034433048218489,-0.010849371552467346,-0.002755660330876708
1.729424752870899e+18,0.0012227105908095837,-0.010956013575196266,-0.0025073133874684572
1.729424752876899e+18,0.0020954336505383253,-0.011559492908418179,-0.0027444083243608475
1.7294247528798991e+18,-4.632328636944294e-05,-0.007821789011359215,-0.00542671512812376
1.7294247528858993e+18,0.004326177760958672,-0.008326998911798,-0.004805235657840967
1.7294247528918994e+18,0.0020525346044451,-0.008078712038695812,-0.002821363741531968
1.7294247528978995e+18,0.002688431181013584,-0.010667901486158371,-0.0061441222205758095
1.7294247529008996e+18,-0.0006594787118956447,-0.008035831153392792,-0.0032290767412632704
1.7294247529068997e+18,0.00128372001927346,-0.011565824039280415,-0.005028295796364546
1.7294247529128998e+18,0.0011528671020641923,-0.012834143824875355,-0.0046751005575060844
1.7294247529189e+18,-0.0017496644286438823,-0.012631971389055252,-0.006447744555771351
1.7294247529249e+18,-0.0003768943715840578,-0.011893250048160553,-0.001061086542904377
1.7294247529309002e+18,-0.0003764643333852291,-0.012016971595585346,-0.003704110626131296
1.7294247529339003e+18,0.0030812653712928295,-0.014917165972292423,-0.003745089517906308
1.7294247529399004e+18,0.0013797475257888436,-0.011537163518369198,-0.004180611111223698
1.7294247529459005e+18,0.0031456556171178818,-0.011324591934680939,-0.0049350447952747345
1.7294247529519007e+18,0.004261997528374195,-0.01239026989787817,-0.003918675240129232
1.7294247529549007e+18,0.0005870929453521967,-0.010013495571911335,-0.003772884141653776
1.7294247529609009e+18,0.0024071671068668365,-0.011797193437814713,-0.0030694687739014626
1.729424752966901e+18,4.634913057088852e-05,-0.011943705379962921,-0.004066604655236006
1.729424752972901e+18,0.0013047257671132684,-0.01163086574524641,-0.0038678054697811604
1.7294247529759012e+18,-0.0011021667160093784,-0.008788667619228363,-0.004312407691031694
1.7294247529819013e+18,0.001867768820375204,-0.010407052002847195,-0.002901041880249977
1.7294247529879014e+18,0.002332076895982027,-0.013268623501062393,-0.0013636872172355652
1.7294247529939016e+18,-0.0012618839973583817,-0.012466302141547203,-0.006124011240899563
1.7294247529999017e+18,0.0028616609051823616,-0.01251171249896288,-0.0030284207314252853
1.7294247530029018e+18,0.0031020352616906166,-0.010021770372986794,-0.006026725750416517
1.729424753008902e+18,0.0006130815017968416,-0.011781823821365833,-0.0020214885007590055
1.729424753014902e+18,0.0035045791883021593,-0.010409691371023655,-0.002043103566393256
1.729424753017902e+18,0.0034095323644578457,-0.009466929361224174,-0.003308650106191635
1.7294247530239022e+18,0.003723966656252742,-0.012125452980399132,-0.0025381874293088913
1.7294247530299023e+18,0.0011902827536687255,-0.009518678300082684,-0.00273327250033617
1.7294247530359025e+18,-0.000629454618319869,-0.008963994681835175,-0.004260378889739513
1.7294247530419026e+18,-0.0038586542941629887,-0.011524793691933155,-0.005937231704592705
1.7294247530449027e+18,-0.0023898971267044544,-0.010194881819188595,-0.0020554319489747286
1.7294247530509028e+18,-0.004208539146929979,-0.010192722082138062,-0.00439948495477438
1.729424753056903e+18,0.0012357356026768684,-0.012820516712963581,-0.005094882100820541
1.729424753062903e+18,-0.0001886473037302494,-0.011532614938914776,-0.006630100309848785
1.7294247530689032e+18,0.0004391585534904152,-0.010457432828843594,-0.00277533708140254
1.7294247530719032e+18,-0.00047198846004903316,-0.012992708943784237,-0.0018987494986504316
1.7294247530779034e+18,0.005223492160439491,-0.012202640064060688,-0.0058658914640545845
1.7294247530839035e+18,0.0009323006961494684,-0.009924125857651234,-0.003377885092049837
1.7294247530899036e+18,0.002692523878067732,-0.010865883901715279,-0.005230471026152372
1.7294247530929037e+18,0.0017752869753167033,-0.013262107037007809,-0.008216154761612415
1.7294247530989038e+18,-0.0004323215689510107,-0.015355641953647137,-0.0030630123801529408
1.729424753104904e+18,0.0012588964309543371,-0.011363577097654343,-0.005176717881113291
1.729424753110904e+18,0.0002432909095659852,-0.011189738288521767,-0.004029138945043087
1.7294247531169042e+18,-0.0042363908141851425,-0.01158391498029232,-0.006447628140449524
1.7294247531229043e+18,0.0014589172787964344,-0.009329501539468765,-0.0038617399986833334
1.7294247531259044e+18,-0.002408826956525445,-0.013889528810977936,-0.009360493160784245
1.7294247531319045e+18,-0.0010738690616562963,-0.010397865436971188,-0.003582258243113756
1.7294247531379046e+18,0.00016926403623074293,-0.00867620948702097,-0.006156980060040951
1.7294247531409047e+18,0.0029794489964842796,-0.010037788189947605,-0.007041390519589186
1.7294247531469048e+18,0.0017675369745120406,-0.006963551510125399,-0.0068626864813268185
1.729424753152905e+18,0.001983566442504525,-0.010316487401723862,-0.005856111645698547
1.729424753158905e+18,0.004764797631651163,-0.0078825568780303,-0.004469981417059898
1.7294247531649052e+18,0.0036545100156217813,-0.005320328753441572,-0.006860674358904362
1.7294247531709053e+18,-0.0023652631789445877,-0.008264820091426373,-0.0037038521841168404
1.7294247531739054e+18,-0.0006798534886911511,-0.0073884231969714165,-0.00587951485067606
1.7294247531799055e+18,-0.0008262635092251003,-0.003356725675985217,-0.004564177710562944
1.7294247531859057e+18,-0.003358270972967148,-0.0052431924268603325,-0.004753503482788801
1.7294247531919058e+18,0.000407629762776196,-0.00520292716100812,-0.004972644150257111
1.7294247531949059e+18,-0.0015979609452188015,-0.003278113203123212,-0.004536418244242668
1.729424753200906e+18,-0.00012926809722557664,-0.007193280383944511,-0.004233784042298794
1.729424753206906e+18,0.0023608068004250526,-0.007131006568670273,-0.00842646136879921
1.7294247532129062e+18,-0.00035100197419524193,-0.00892252754420042,-0.006115472875535488
1.7294247532159063e+18,0.0017643182072788477,-0.008627725765109062,-0.003285478800535202
1.7294247532219064e+18,0.0010930548887699842,-0.006481129210442305,-0.005912746302783489
1.7294247532279066e+18,0.0005968902260065079,-0.006257233675569296,-0.004449635744094849
1.7294247532339067e+18,0.00031443906482309103,-0.006271689664572477,-0.005366284400224686
1.7294247532399068e+18,0.0004247720935381949,-0.005247602704912424,-0.005436333827674389
1.729424753242907e+18,-0.0035897432826459408,-0.002763954922556877,-0.007231300696730614
1.729424753248907e+18,0.0023933514021337032,-0.004762638360261917,-0.00433594873175025
1.7294247532549071e+18,0.00043952983105555177,-0.007117983885109425,-0.003941606264561415
1.7294247532609073e+18,0.0009000852005556226,-0.008464998565614223,-0.006896131671965122
1.7294247532669074e+18,0.0013118685455992818,-0.007812759838998318,-0.004155970178544521
1.7294247532729075e+18,0.003133748658001423,-0.00871568638831377,-0.005992426071316004
1.7294247532789076e+18,-0.0008224960183724761,-0.007495981641113758,-0.005666099023073912
1.7294247532849078e+18,-5.879322998225689e-06,-0.009249224327504635,-0.006997984834015369
1.7294247532879078e+18,-0.0005698148161172867,-0.0072908103466033936,-0.005068640690296888
1.729424753293908e+18,-0.00033958861604332924,-0.0047207241877913475,-0.005900753661990166
1.729424753299908e+18,-0.0008205206831917167,-0.004376090597361326,-0.005718038883060217
1.7294247533059082e+18,-0.002041685162112117,-0.006060076877474785,-0.004815669264644384
1.7294247533089083e+18,0.0019052617717534304,-0.003502610372379422,-0.007415426895022392
1.7294247533149084e+18,-0.0005103980656713247,-0.0025219402741640806,-0.006588873919099569
1.7294247533209085e+18,-0.0045670983381569386,-0.0023708422668278217,-0.005716610699892044
1.7294247533239086e+18,-0.0021447259932756424,-0.0016307943733409047,-0.004453951492905617
1.7294247533299087e+18,-0.002820500172674656,-0.003989307675510645,-0.004570493474602699
1.7294247533359089e+18,-0.0029935576021671295,-0.006020324770361185,-0.00576589023694396
1.729424753341909e+18,-0.0014977462124079466,-0.0034730478655546904,-0.004815504886209965
1.729424753347909e+18,-0.0015867050969973207,-0.005509690847247839,-0.0068249935284256935
1.7294247533539092e+18,-0.0018096312414854765,-0.006525080185383558,-0.004323980305343866
1.7294247533569093e+18,-0.0012855959357693791,-0.006919956766068935,-0.004082303494215012
1.7294247533629094e+18,-0.0008766322862356901,-0.00560081098228693,-0.002825244329869747
1.7294247533689096e+18,-0.0019805908668786287,-0.005179779138416052,-0.004381768871098757
1.7294247533749097e+18,-0.0015658894553780556,-0.004611171782016754,-0.007580992765724659
1.7294247533779098e+18,-0.0016724723391234875,-0.0030666710808873177,-0.0056772963143885136
1.72942475338391e+18,-0.0026398957706987858,-0.009306808933615685,-0.007124641910195351
1.72942475338991e+18,-0.006797571200877428,-0.0031049586832523346,-0.006086517591029406
1.7294247533959101e+18,-0.004698252305388451,-0.004963955841958523,-0.006085879635065794
1.7294247533989102e+18,-0.004127116408199072,-0.00588813005015254,-0.007416103966534138
1.7294247534049103e+18,-0.00349342729896307,-0.0052372124046087265,-0.007137108128517866
1.7294247534109105e+18,-0.0026759798638522625,-0.006788631435483694,-0.005703567527234554
1.7294247534169106e+18,-0.005022584460675716,-0.008179035037755966,-0.005508336704224348
1.7294247534229107e+18,-0.003127498086541891,-0.008868925273418427,-0.006953984498977661
1.7294247534259108e+18,-0.0015235429164022207,-0.009473736397922039,-0.006527263205498457
1.729424753431911e+18,-0.0010387449292466044,-0.009824197739362717,-0.004866084083914757
1.729424753437911e+18,-0.0011883106781169772,-0.009771273471415043,-0.00474084448069334
1.7294247534439112e+18,-0.0038268589414656162,-0.006165595259517431,-0.003628319827839732
1.7294247534499113e+18,6.694067269563675e-05,-0.0050615184009075165,-0.006645735818892717
1.7294247534529114e+18,-0.003208695910871029,-0.006881255656480789,-0.007994763553142548
1.7294247534589115e+18,-0.0026706543285399675,-0.004252785351127386,-0.005276331678032875
1.7294247534649116e+18,-0.004536636173725128,-0.0029636116232722998,-0.005715488456189632
1.7294247534709117e+18,-0.005013874266296625,-0.004815307445824146,-0.004412838723510504
1.7294247534769119e+18,-0.003911162726581097,-0.006905850488692522,-0.004731709137558937
1.729424753482912e+18,0.0005835889605805278,-0.005456713959574699,-0.006193262059241533
1.729424753485912e+18,0.0020050269085913897,-0.007989647798240185,-0.0008734241127967834
1.7294247534919122e+18,-0.0020338352769613266,-0.010359539650380611,-0.0058273253962397575
1.7294247534979123e+18,0.0008657323196530342,-0.011816263198852539,-0.004081438295543194
1.7294247535039124e+18,0.001484493725001812,-0.009652107022702694,-0.004517913796007633
1.7294247535069125e+18,-0.00029179599368944764,-0.011586928740143776,-0.0033016407396644354
1.7294247535129126e+18,-0.0014940343098714948,-0.01070487406104803,-0.004166095517575741
1.7294247535189128e+18,3.514043055474758e-05,-0.007872709073126316,-0.005201417952775955
1.729424753524913e+18,-0.001020047115162015,-0.00670916773378849,-0.005806775763630867
