timestamp,accel_x,accel_y,accel_z
1.7294995761215347e+18,-0.021034125238656998,0.04334555193781853,-9.82046127319336
1.729499576130535e+18,-0.0205906480550766,-0.00569734163582325,-9.847787857055664
1.729499576136535e+18,-0.05011872202157974,-0.002676171250641346,-9.808610916137695
1.7294995761455352e+18,0.03994113951921463,0.06190311163663864,-9.80763053894043
1.7294995761545354e+18,0.02745545282959938,-0.008740940131247044,-9.803699493408203
1.7294995761635356e+18,-0.04091609641909599,0.0037670773454010487,-9.718754768371582
1.7294995761695357e+18,-0.04577818140387535,-0.05870100483298302,-9.824686050415039
1.729499576178536e+18,-0.006543803494423628,3.543871935107745e-05,-9.832698822021484
1.729499576184536e+18,-0.026628348976373672,0.010201768949627876,-9.7598237991333
1.7294995761935363e+18,0.07134756445884705,0.036645323038101196,-9.779272079467773
1.7294995762025364e+18,-0.0018618335016071796,-0.05475198104977608,-9.775951385498047
1.7294995762085366e+18,-0.003065308788791299,-0.000581778003834188,-9.807744026184082
1.7294995762175368e+18,0.0010509012499824166,-0.013878240250051022,-9.734916687011719
1.729499576226537e+18,-0.052766166627407074,-0.027059074491262436,-9.795890808105469
1.729499576232537e+18,-0.03466476872563362,-0.0002360231155762449,-9.841431617736816
1.7294995762415373e+18,-0.0004986316780559719,0.01693938858807087,-9.908288955688477
1.7294995762505375e+18,0.010452331975102425,0.044312600046396255,-9.806621551513672
1.7294995762595377e+18,-0.014823266305029392,-0.028633365407586098,-9.776589393615723
1.7294995762655378e+18,0.005995375569909811,-0.03706755489110947,-9.77931022644043
1.729499576274538e+18,-0.04212320223450661,0.03801422193646431,-9.804177284240723
1.7294995762835382e+18,-0.07001655548810959,-0.0021755732595920563,-9.766494750976562
1.7294995762925384e+18,-0.006714286282658577,-0.04038546606898308,-9.906248092651367
1.7294995762985385e+18,-0.007901100441813469,0.0175470020622015,-9.834878921508789
1.7294995763075387e+18,0.040879178792238235,0.034843187779188156,-9.786751747131348
1.729499576316539e+18,-0.0032358577009290457,-0.05371246114373207,-9.856071472167969
1.729499576325539e+18,-0.07383280247449875,0.05809364467859268,-9.675921440124512
1.7294995763315392e+18,0.02025875635445118,-0.006151524838060141,-9.741212844848633
1.7294995763405394e+18,-0.03460950404405594,0.02805166319012642,-9.809203147888184
1.7294995763495396e+18,-0.05216179043054581,0.004381477367132902,-9.734529495239258
1.7294995763585398e+18,0.09555225074291229,-0.03310057893395424,-9.781256675720215
1.72949957636754e+18,0.05619349703192711,0.04553110897541046,-9.842955589294434
1.7294995763765402e+18,0.013789201155304909,-0.017048008739948273,-9.854936599731445
1.7294995763855404e+18,-0.028086313977837563,-0.013342466205358505,-9.844146728515625
1.7294995763945405e+18,0.03948130086064339,-0.05141700431704521,-9.817971229553223
1.7294995764035407e+18,0.017620867118239403,-0.007310730870813131,-9.790553092956543
1.7294995764095409e+18,-0.060932449996471405,-0.002054655458778143,-9.775696754455566
1.729499576418541e+18,-0.029355153441429138,-0.06430061906576157,-9.868912696838379
1.7294995764275412e+18,-0.005719316191971302,0.07579750567674637,-9.826571464538574
1.7294995764365414e+18,0.05025780200958252,-0.017269497737288475,-9.84919548034668
1.7294995764455416e+18,0.07685455679893494,0.049919892102479935,-9.74842357635498
1.7294995764545418e+18,0.07158154249191284,0.06975094974040985,-9.804481506347656
1.729499576463542e+18,0.004062863998115063,0.08690027892589569,-9.787185668945312
1.7294995764725422e+18,-0.03885028883814812,-0.010500204749405384,-9.80370044708252
1.7294995764785423e+18,0.07556803524494171,0.01027135830372572,-9.744409561157227
1.7294995764875425e+18,-0.016096144914627075,0.01888730563223362,-9.782679557800293
1.7294995764965427e+18,0.03462841734290123,0.001806954387575388,-9.875946044921875
1.7294995765025428e+18,-0.12111696600914001,-0.026289470493793488,-9.77210521697998
1.729499576511543e+18,-0.02519557811319828,0.03293323144316673,-9.75769329071045
1.7294995765205432e+18,0.0649401918053627,0.012074070051312447,-9.77675724029541
1.7294995765295434e+18,-0.02587384171783924,-0.12304874509572983,-9.832212448120117
1.7294995765355436e+18,0.020701369270682335,0.011148168705403805,-9.808241844177246
1.7294995765445437e+18,0.015275383368134499,-0.003544057020917535,-9.872901916503906
1.729499576553544e+18,0.03384889289736748,-0.008002744056284428,-9.785840034484863
1.729499576559544e+18,0.013105351477861404,0.03625638410449028,-9.800695419311523
1.7294995765715443e+18,0.039044708013534546,0.08288846164941788,-9.684496879577637
1.7294995765775444e+18,0.04528534784913063,0.01573832519352436,-9.837418556213379
1.7294995765865446e+18,0.008374330587685108,-0.037688229233026505,-9.87622356414795
1.7294995765925448e+18,-0.006000178400427103,-0.04955771192908287,-9.748841285705566
1.729499576601545e+18,0.046667590737342834,0.02210203744471073,-9.782366752624512
1.7294995766105452e+18,-0.11005019396543503,0.024519212543964386,-9.820755004882812
1.7294995766195453e+18,-0.08217573910951614,0.015313293784856796,-9.872601509094238
1.7294995766255455e+18,-0.09865333139896393,0.04531403258442879,-9.812990188598633
1.7294995766345457e+18,0.03217713534832001,0.06037667766213417,-9.844878196716309
1.7294995766435459e+18,-0.0027433657087385654,0.0944216400384903,-9.794024467468262
1.729499576649546e+18,0.01756785437464714,-0.03511655330657959,-9.813233375549316
1.7294995766585462e+18,-0.054063811898231506,-0.015807492658495903,-9.75786304473877
1.7294995766675464e+18,0.015966126695275307,-0.03792089223861694,-9.805317878723145
1.7294995766765466e+18,0.010348571464419365,-0.06975486129522324,-9.808525085449219
1.7294995766855468e+18,0.03376638889312744,-0.03887496143579483,-9.810662269592285
1.729499576691547e+18,0.0514717660844326,0.0023628456983715296,-9.834016799926758
1.729499576700547e+18,-0.004082801751792431,-0.06230809539556503,-9.789192199707031
1.7294995767095473e+18,0.030910732224583626,-0.00037316602538339794,-9.768288612365723
1.7294995767185475e+18,-0.0030906021129339933,0.02790909819304943,-9.772757530212402
1.7294995767275476e+18,-0.005799781531095505,-0.03559035062789917,-9.735413551330566
1.7294995767335478e+18,0.11070814728736877,0.016276638954877853,-9.800776481628418
1.729499576742548e+18,-0.10015779733657837,0.0521569699048996,-9.842103958129883
1.7294995767515482e+18,-0.06756908446550369,0.06254967302083969,-9.843856811523438
1.7294995767575483e+18,-0.004120099823921919,-0.02521187625825405,-9.841094017028809
1.7294995767665485e+18,0.038607157766819,-0.024685358628630638,-9.859158515930176
1.7294995767755487e+18,0.03196796402335167,-0.041400499641895294,-9.759742736816406
1.7294995767845489e+18,-0.08332589268684387,0.0324719175696373,-9.864880561828613
1.729499576790549e+18,0.0689372792840004,0.014572838321328163,-9.849408149719238
1.7294995767995492e+18,-0.009407085366547108,0.05864435434341431,-9.735038757324219
1.7294995768085494e+18,-0.01620260253548622,0.02668827585875988,-9.751320838928223
1.7294995768175496e+18,0.03132202476263046,0.032203394919633865,-9.918641090393066
1.7294995768235497e+18,0.025073416531085968,-0.02633577212691307,-9.798291206359863
1.72949957683255e+18,-0.037587981671094894,0.055679742246866226,-9.849349975585938
1.72949957684155e+18,-0.002389028202742338,-0.026810340583324432,-9.807456016540527
1.7294995768505503e+18,0.03131924569606781,0.011439880356192589,-9.797502517700195
1.7294995768565504e+18,-0.03880976140499115,0.07542303949594498,-9.769036293029785
1.7294995768655506e+18,0.05244427174329758,0.05545192211866379,-9.840826988220215
1.7294995768745508e+18,0.0995420590043068,-0.07062013447284698,-9.805810928344727
1.729499576880551e+18,0.04589823633432388,-0.020481707528233528,-9.76871395111084
1.729499576889551e+18,-0.001243909471668303,-0.01577066257596016,-9.857646942138672
1.7294995768985513e+18,0.0013323560124263167,-0.010041160508990288,-9.800779342651367
1.7294995769075515e+18,0.01284949854016304,0.02922249771654606,-9.8619966506958
1.7294995769135516e+18,0.00623831944540143,-0.05491645261645317,-9.80069351196289
1.7294995769225518e+18,0.011886822991073132,-0.043631695210933685,-9.784626007080078
1.729499576931552e+18,-0.05006882920861244,-0.06021030619740486,-9.77195930480957
1.7294995769405522e+18,0.011607280932366848,-0.06300482898950577,-9.717999458312988
1.7294995769465523e+18,0.010001936927437782,0.03061640076339245,-9.776909828186035
1.7294995769555525e+18,0.01431532297283411,0.0034066354855895042,-9.790323257446289
1.7294995769615526e+18,0.009921354241669178,-0.024158909916877747,-9.830055236816406
1.7294995769705528e+18,0.029448090121150017,-0.04285619780421257,-9.756973266601562
1.729499576979553e+18,0.015536819584667683,0.03716771677136421,-9.889153480529785
1.7294995769855532e+18,0.11797010898590088,-0.02156670205295086,-9.777297973632812
1.7294995769945533e+18,-0.01979430951178074,-0.03096494823694229,-9.735634803771973
1.7294995770035535e+18,-0.04407631233334541,0.0010354351252317429,-9.82030200958252
1.7294995770125537e+18,0.012321402318775654,-0.006519178859889507,-9.779696464538574
1.7294995770185539e+18,-0.005073937587440014,0.006321783177554607,-9.784730911254883
1.729499577027554e+18,-0.034657400101423264,-0.01483253575861454,-9.761153221130371
1.7294995770365542e+18,-0.013752313330769539,-0.007445294875651598,-9.813787460327148
1.7294995770455544e+18,0.0060350047424435616,0.027621818706393242,-9.73886775970459
1.7294995770545546e+18,-0.03401826694607735,-0.08164603263139725,-9.805846214294434
1.7294995770635548e+18,-0.01872934214770794,-0.013437171466648579,-9.7340726852417
1.729499577072555e+18,0.09698734432458878,-0.03138098120689392,-9.812472343444824
1.7294995770815552e+18,0.0655243843793869,0.003260611556470394,-9.822413444519043
1.7294995770905554e+18,0.04217399284243584,-0.08500926196575165,-9.912500381469727
1.7294995771025556e+18,0.03518658131361008,-0.051247917115688324,-9.891846656799316
1.7294995771115558e+18,0.07422476261854172,0.019832231104373932,-9.772774696350098
1.729499577117556e+18,0.0036002674605697393,0.004730953369289637,-9.7990083694458
1.7294995771265562e+18,-0.04469875991344452,0.006201898213475943,-9.832164764404297
1.7294995771355564e+18,0.008517289534211159,-0.03465630114078522,-9.820127487182617
1.7294995771445565e+18,0.05095518007874489,0.010106716305017471,-9.818881034851074
1.7294995771535567e+18,-0.021216006949543953,0.0066765290684998035,-9.863658905029297
1.729499577162557e+18,-0.06582311540842056,0.08504269272089005,-9.74558162689209
1.729499577171557e+18,-0.044838424772024155,0.01148241851478815,-9.820825576782227
1.7294995771805573e+18,0.05988403782248497,-0.023949598893523216,-9.809761047363281
1.7294995771895575e+18,0.10020778328180313,-0.042900968343019485,-9.8565092086792
1.7294995771985577e+18,0.0821474939584732,-0.05957444757223129,-9.823197364807129
1.729499577207558e+18,-0.02520499937236309,0.03533364087343216,-9.753633499145508
1.729499577216558e+18,-0.021703533828258514,-0.020332466810941696,-9.749838829040527
1.7294995772225582e+18,-0.003922033589333296,-0.07108728587627411,-9.782711029052734
1.7294995772315584e+18,-0.03743698075413704,-0.033058274537324905,-9.709321022033691
1.7294995772405586e+18,-0.023667315021157265,-0.003072484629228711,-9.799565315246582
1.7294995772525588e+18,0.013146678917109966,0.011031386442482471,-9.791149139404297
1.729499577261559e+18,-0.031540654599666595,-0.045036680996418,-9.739952087402344
1.7294995772705592e+18,0.029288295656442642,-0.029176075011491776,-9.711433410644531
1.7294995772765594e+18,0.04479078948497772,-0.052074186503887177,-9.795823097229004
1.7294995772855596e+18,-0.05854867398738861,-0.04865758493542671,-9.88038158416748
1.7294995772915597e+18,-0.033760085701942444,-0.026044148951768875,-9.771997451782227
1.72949957730056e+18,-0.012856997549533844,-0.02224116586148739,-9.834749221801758
1.72949957730956e+18,0.026851333677768707,0.05600570887327194,-9.815544128417969
1.7294995773185603e+18,0.002535007195547223,-0.09505104273557663,-9.802816390991211
1.7294995773275604e+18,0.009599479846656322,0.05796464905142784,-9.788653373718262
1.7294995773335606e+18,-0.022679636254906654,0.08897623419761658,-9.766497611999512
1.7294995773455608e+18,0.00026660299045033753,0.02590172179043293,-9.874037742614746
1.729499577351561e+18,-0.0463569238781929,-0.049510564655065536,-9.79437255859375
1.7294995773605612e+18,0.009618318639695644,0.01613546349108219,-9.792994499206543
1.7294995773695613e+18,-0.02879761904478073,-0.0510232113301754,-9.720090866088867
1.7294995773785615e+18,0.014219586737453938,-0.05423954501748085,-9.736651420593262
1.7294995773875617e+18,0.007156806532293558,0.060235850512981415,-9.763557434082031
1.729499577396562e+18,-0.015296916477382183,-0.011860528029501438,-9.760302543640137
1.729499577402562e+18,0.051950857043266296,0.020394112914800644,-9.793876647949219
1.7294995774115622e+18,0.056178733706474304,-0.06037747487425804,-9.818318367004395
1.7294995774205624e+18,0.01609424501657486,-0.017532864585518837,-9.784173011779785
1.7294995774265626e+18,-0.01084636989980936,-0.005402083974331617,-9.853361129760742
1.7294995774355628e+18,-0.06332018226385117,-0.02610950358211994,-9.797038078308105
1.729499577444563e+18,0.050261933356523514,0.0046521443873643875,-9.845709800720215
1.7294995774535631e+18,-0.03676293045282364,-0.029414594173431396,-9.797591209411621
1.7294995774595633e+18,0.0756290853023529,0.027156855911016464,-9.848939895629883
1.7294995774685635e+18,0.031038427725434303,-0.03878460079431534,-9.724311828613281
1.7294995774775636e+18,-0.020926330238580704,0.025320788845419884,-9.858043670654297
1.7294995774865638e+18,0.07600169628858566,0.055680204182863235,-9.813084602355957
1.729499577495564e+18,-0.051020823419094086,0.03532969579100609,-9.806408882141113
1.7294995775045642e+18,-0.009277472272515297,0.015031720511615276,-9.718802452087402
1.7294995775135644e+18,0.02816781960427761,-0.0021666428074240685,-9.805201530456543
1.7294995775225646e+18,0.054997194558382034,0.001034840359352529,-9.856799125671387
1.7294995775315648e+18,0.019153350964188576,0.061453890055418015,-9.720355033874512
1.729499577537565e+18,0.015729576349258423,0.0385514460504055,-9.742627143859863
1.729499577546565e+18,0.002909075701609254,0.028704196214675903,-9.867101669311523
1.7294995775555653e+18,0.011982318013906479,-0.02979380078613758,-9.766559600830078
1.7294995775645655e+18,-0.01579655148088932,0.021056359633803368,-9.80190658569336
1.7294995775705656e+18,0.015942715108394623,-0.0008337792824022472,-9.85195255279541
1.7294995775795658e+18,0.007013644557446241,0.06551920622587204,-9.77393627166748
1.729499577588566e+18,-0.0332033634185791,-0.05454755946993828,-9.724282264709473
1.7294995775975662e+18,0.0032047985587269068,-0.01460862997919321,-9.83460807800293
1.7294995776065664e+18,0.02658398263156414,-0.04278360307216644,-9.827906608581543
1.7294995776125665e+18,0.016962319612503052,-0.029753385111689568,-9.77958869934082
1.7294995776215667e+18,0.006490262690931559,-0.030272819101810455,-9.901888847351074
1.729499577630567e+18,-0.020028796046972275,0.012162351049482822,-9.794255256652832
1.729499577636567e+18,0.015690406784415245,-0.0385587140917778,-9.828679084777832
1.7294995776455672e+18,0.046192217618227005,0.05010906979441643,-9.77653980255127
1.7294995776545674e+18,-0.05720309913158417,0.06967102736234665,-9.737467765808105
1.7294995776635676e+18,-0.001778268488124013,-0.024475205689668655,-9.76574993133545
1.7294995776695677e+18,-0.048665910959243774,-0.0028880329336971045,-9.765230178833008
1.729499577678568e+18,0.03141283988952637,0.022252092137932777,-9.79772663116455
1.7294995776875681e+18,0.023543499410152435,-0.029993455857038498,-9.752008438110352
1.7294995776965683e+18,0.0354279950261116,0.08372774720191956,-9.788155555725098
1.7294995777055685e+18,-0.01161003764718771,0.015836482867598534,-9.857586860656738
1.7294995777115686e+18,-0.02971729449927807,0.06926749646663666,-9.79593276977539
1.7294995777205688e+18,-0.07241190969944,-0.07899819314479828,-9.777125358581543
1.729499577729569e+18,-0.023194419220089912,-0.01732826791703701,-9.765521049499512
1.7294995777355692e+18,-0.04420487582683563,-0.04540221020579338,-9.77316665649414
1.7294995777445693e+18,-0.0681990534067154,-0.027035927399992943,-9.799113273620605
1.7294995777535695e+18,-0.051972392946481705,0.010712185874581337,-9.863347053527832
1.7294995777625697e+18,-0.002366191940382123,-0.10867978632450104,-9.799152374267578
1.72949957777157e+18,0.0034342219587415457,-0.0074119423516094685,-9.825605392456055
1.72949957777757e+18,0.08280610293149948,0.029892385005950928,-9.753793716430664
1.7294995777865702e+18,0.00031470460817217827,0.06379122287034988,-9.791304588317871
1.7294995777955704e+18,0.0002585442562121898,0.0006356724770739675,-9.801559448242188
1.7294995778045706e+18,0.019144611433148384,0.03010563924908638,-9.801082611083984
1.7294995778135708e+18,0.10246625542640686,-0.018837325274944305,-9.809052467346191
1.729499577819571e+18,0.05685941502451897,-0.06813324987888336,-9.835183143615723
1.7294995778285711e+18,0.03368080034852028,-0.04627218842506409,-9.852254867553711
1.7294995778375713e+18,-0.028925444930791855,-0.029282614588737488,-9.802148818969727
1.7294995778465715e+18,-0.05433342233300209,-0.0034735638182610273,-9.770179748535156
1.7294995778555717e+18,0.037621308118104935,0.036679841578006744,-9.78356647491455
1.7294995778615718e+18,-0.025485806167125702,0.027391403913497925,-9.837468147277832
1.729499577870572e+18,-0.0119931036606431,-0.016875432804226875,-9.745847702026367
1.7294995778795722e+18,-0.03713321313261986,0.029013119637966156,-9.767356872558594
1.7294995778885724e+18,-0.006494653411209583,-0.002114862436428666,-9.823111534118652
1.7294995778945725e+18,0.05839795991778374,0.050911396741867065,-9.74895191192627
1.7294995779035727e+18,0.006754008121788502,-0.04947147145867348,-9.857921600341797
1.729499577912573e+18,-0.013429895043373108,0.009042912162840366,-9.745309829711914
1.729499577918573e+18,-0.04795505851507187,0.07095799595117569,-9.763641357421875
1.7294995779275732e+18,-0.10579065978527069,0.029173588380217552,-9.810667991638184
1.7294995779335734e+18,-0.0012270581210032105,0.09112802147865295,-9.898483276367188
1.7294995779425736e+18,0.039423868060112,-0.05754605680704117,-9.889212608337402
1.7294995779485737e+18,-0.016799459233880043,-0.020902268588542938,-9.942160606384277
1.729499577957574e+18,0.01834454946219921,-0.004669310990720987,-9.80789852142334
1.729499577966574e+18,-0.0199800506234169,-0.09397561103105545,-9.788810729980469
1.7294995779755743e+18,-0.003854969749227166,0.05719362944364548,-9.778005599975586
1.7294995779845745e+18,0.005907722283154726,-0.009940842166543007,-9.825125694274902
1.7294995779905746e+18,0.010179014876484871,0.0002207477082265541,-9.838536262512207
1.7294995779995748e+18,-0.04538077861070633,-0.08670502156019211,-9.789461135864258
1.729499578008575e+18,-0.05872500315308571,-0.018279215320944786,-9.837489128112793
1.7294995780175752e+18,-0.0871737152338028,-0.01253434643149376,-9.863588333129883
1.7294995780265754e+18,-0.039365798234939575,0.01678263023495674,-9.891359329223633
1.7294995780355756e+18,-0.07606852799654007,0.012972374446690083,-9.88806438446045
1.7294995780415757e+18,0.08786984533071518,-0.07134880870580673,-9.935327529907227
1.729499578050576e+18,-0.00683016050606966,-0.023838134482502937,-9.91388988494873
1.729499578059576e+18,-0.03582087531685829,-0.020409274846315384,-10.006935119628906
1.7294995780685763e+18,-0.018752403557300568,0.03731672465801239,-9.89919662475586
1.7294995780775764e+18,0.05886536091566086,0.033909328281879425,-9.896505355834961
1.7294995780865766e+18,-0.05347539857029915,0.037349455058574677,-9.98378849029541
1.7294995780925768e+18,-0.002467056270688772,-0.0399906188249588,-10.099881172180176
1.729499578101577e+18,0.04299399256706238,-0.07672800123691559,-10.02992057800293
1.7294995781105772e+18,-0.02265210635960102,-0.005789102986454964,-10.065132141113281
1.7294995781165773e+18,-0.012559965252876282,-0.03942780941724777,-10.036466598510742
1.7294995781255775e+18,0.10636559873819351,0.03580040484666824,-10.018209457397461
1.7294995781345777e+18,-0.022705871611833572,-0.027883367612957954,-10.084360122680664
1.7294995781435779e+18,0.013118746690452099,0.047412097454071045,-10.013256072998047
1.729499578149578e+18,-0.023233290761709213,-0.07968376576900482,-10.095860481262207
1.7294995781585782e+18,-0.04910162091255188,-0.07200299203395844,-10.167506217956543
1.7294995781645783e+18,-0.05172809585928917,-0.0011348433326929808,-10.318251609802246
1.7294995781735785e+18,-0.06078837066888809,-0.042657822370529175,-10.417306900024414
1.7294995781825787e+18,-0.006047508679330349,-0.016494017094373703,-10.461400032043457
1.7294995781885788e+18,-0.01790642738342285,0.06754137575626373,-10.431982040405273
1.729499578197579e+18,-0.007308413274586201,-0.044530730694532394,-10.46597957611084
1.7294995782065792e+18,0.008593294769525528,0.08289935439825058,-10.549613952636719
1.7294995782125793e+18,-0.035491324961185455,-0.003275136696174741,-10.516809463500977
1.7294995782215795e+18,-0.030324194580316544,-0.07085708528757095,-10.586417198181152
1.7294995782305797e+18,-0.08897807449102402,0.0521860308945179,-10.60672378540039
1.72949957823958e+18,-0.03400997817516327,0.039254602044820786,-10.595582962036133
1.72949957824558e+18,0.010251650586724281,-0.03796015679836273,-10.564309120178223
1.7294995782545802e+18,0.0010036141611635685,0.050553254783153534,-10.48183822631836
1.7294995782635804e+18,-0.06164868175983429,0.014692489057779312,-10.556095123291016
1.7294995782695805e+18,0.0011929492466151714,-0.011741728521883488,-10.576336860656738
1.7294995782785807e+18,0.07008901238441467,-0.05706697329878807,-10.543917655944824
1.729499578287581e+18,-0.04175521060824394,0.03767776116728783,-10.546500205993652
1.729499578293581e+18,-0.06973803788423538,-0.021382901817560196,-10.62122917175293
1.7294995783025812e+18,0.03632442280650139,0.020088884979486465,-10.596985816955566
1.7294995783115814e+18,-0.01762043870985508,-0.014888814650475979,-10.546930313110352
1.7294995783175816e+18,-0.049026913940906525,0.018380656838417053,-10.578714370727539
1.7294995783265818e+18,0.030518122017383575,-0.010685097426176071,-10.520882606506348
1.729499578335582e+18,0.10871074348688126,0.029768360778689384,-10.574846267700195
1.7294995783445821e+18,0.019856810569763184,0.0012146371882408857,-10.534429550170898
1.7294995783535823e+18,-0.043353188782930374,-0.006975880824029446,-10.623579025268555
1.7294995783595825e+18,-0.029054902493953705,0.0660431832075119,-10.498035430908203
1.7294995783685827e+18,0.006009923294186592,0.021875960752367973,-10.56124210357666
1.7294995783775828e+18,0.03021080233156681,0.1241709366440773,-10.54696273803711
1.729499578383583e+18,0.054296135902404785,-0.07552426308393478,-10.619340896606445
1.7294995783925832e+18,-0.054275382310152054,0.07719757407903671,-10.599540710449219
1.7294995784015834e+18,-0.052334561944007874,0.06507818400859833,-10.702988624572754
1.7294995784105836e+18,-0.005623805336654186,-0.05333748459815979,-10.564403533935547
1.7294995784195837e+18,0.0053374734707176685,-0.014285827986896038,-10.609145164489746
1.7294995784255839e+18,-0.04323090612888336,0.04596630483865738,-10.660659790039062
1.729499578434584e+18,-0.05380032956600189,-0.00549317616969347,-10.609580039978027
1.7294995784435843e+18,0.004617304541170597,0.08139854669570923,-10.647127151489258
1.7294995784495844e+18,-0.010824673809111118,0.052642129361629486,-10.592691421508789
1.7294995784585846e+18,0.043314795941114426,0.038959141820669174,-10.58862590789795
1.7294995784675848e+18,-0.014529133215546608,0.07202710211277008,-10.5477876663208
1.729499578476585e+18,-0.03429568558931351,-0.06718357652425766,-10.636748313903809
1.729499578482585e+18,0.007397608365863562,0.04993388429284096,-10.522146224975586
1.7294995784915853e+18,-0.009945631958544254,-0.0394749715924263,-10.64492130279541
1.7294995785005855e+18,-0.07254713773727417,0.02956945262849331,-10.679113388061523
1.7294995785095857e+18,0.007526549510657787,0.015033827163279057,-10.64318561553955
1.7294995785155858e+18,-0.03684163838624954,0.026128893718123436,-10.601694107055664
1.729499578524586e+18,0.013234667479991913,-0.04290404170751572,-10.566612243652344
1.7294995785335862e+18,-0.03725213557481766,0.038861408829689026,-10.645895004272461
1.7294995785425864e+18,0.037633735686540604,0.02430085465312004,-10.586417198181152
1.7294995785485865e+18,-0.04543380066752434,-0.04454827308654785,-10.673626899719238
1.7294995785575867e+18,0.07278110831975937,0.02394251711666584,-10.585919380187988
1.7294995785635868e+18,-0.027232695370912552,0.00016510416753590107,-10.557674407958984
1.729499578572587e+18,-0.055626239627599716,0.027735577896237373,-10.689142227172852
1.7294995785815872e+18,-0.0652092844247818,0.00987979769706726,-10.69809341430664
1.7294995785905874e+18,-0.030889756977558136,-0.056628938764333725,-10.663562774658203
1.7294995785965875e+18,-0.058997344225645065,0.04372652992606163,-10.683650970458984
1.7294995786055877e+18,0.05324121192097664,0.06048491224646568,-10.620467185974121
1.7294995786115878e+18,-0.007501096464693546,0.07171199470758438,-10.61020278930664
1.729499578620588e+18,0.09523952007293701,0.05811348557472229,-10.675130844116211
1.7294995786295882e+18,0.04639269784092903,0.010155076161026955,-10.647536277770996
1.7294995786355884e+18,0.03304731100797653,0.10832840949296951,-10.641615867614746
1.7294995786445885e+18,-0.0210606437176466,0.04306728020310402,-10.606639862060547
1.7294995786535887e+18,0.00811292789876461,-0.014079676941037178,-10.655574798583984
1.729499578662589e+18,-0.040451597422361374,-0.0016425969079136848,-10.577587127685547
1.729499578668589e+18,0.06468767672777176,0.05455006659030914,-10.689021110534668
1.7294995786775892e+18,-0.03882409632205963,-0.023903528228402138,-10.551581382751465
1.7294995786865894e+18,0.030209694057703018,-0.007727397605776787,-10.650505065917969
1.7294995786955896e+18,-0.04490946978330612,0.04803614318370819,-10.601571083068848
1.7294995787045898e+18,0.03305792063474655,-0.001700947992503643,-10.593598365783691
1.72949957871359e+18,0.006826720666140318,0.022065185010433197,-10.470620155334473
1.7294995787225902e+18,-0.03835706040263176,0.04029393196105957,-10.630454063415527
1.7294995787315904e+18,-0.026458410546183586,-0.012012363411486149,-10.636457443237305
1.7294995787405906e+18,-0.04193403944373131,0.04514186829328537,-10.640228271484375
1.7294995787465907e+18,0.0215464998036623,0.0357392318546772,-10.667295455932617
1.729499578758591e+18,-0.001492915442213416,-0.03508121520280838,-10.584299087524414
1.7294995787675912e+18,-0.018748639151453972,0.04721378535032272,-10.52441692352295
1.7294995787735913e+18,-0.004914784803986549,0.020564164966344833,-10.620073318481445
1.7294995787825915e+18,-0.09485064446926117,0.017916450276970863,-10.657090187072754
1.7294995787915917e+18,0.04272874444723129,-0.059130582958459854,-10.545804977416992
1.729499578800592e+18,-0.0063477857038378716,0.05372227355837822,-10.693852424621582
1.729499578809592e+18,-0.028615150600671768,-0.03365090489387512,-10.665128707885742
1.7294995788155922e+18,0.02305983006954193,0.09308815747499466,-10.607389450073242
1.7294995788245924e+18,-0.038225773721933365,0.06628569215536118,-10.630096435546875
1.7294995788335926e+18,-0.03180345892906189,0.02398347109556198,-10.591900825500488
1.7294995788425928e+18,0.011940269730985165,-0.04916786402463913,-10.600441932678223
1.729499578851593e+18,-0.05208491533994675,0.08503472059965134,-10.593663215637207
1.729499578857593e+18,-0.08008034527301788,-0.008068358525633812,-10.576873779296875
1.7294995788665933e+18,-0.011538652703166008,0.013671386986970901,-10.701727867126465
1.7294995788755935e+18,0.054369114339351654,0.06218491122126579,-10.582605361938477
1.7294995788845937e+18,-0.020748410373926163,-0.03631169721484184,-10.613314628601074
1.7294995788935939e+18,0.04110686108469963,-0.02999909780919552,-10.618288040161133
1.729499578902594e+18,0.06148286908864975,0.03061497025191784,-10.623323440551758
1.7294995789115942e+18,-0.09033862501382828,-0.06359080970287323,-10.642094612121582
1.7294995789205944e+18,-0.004033844918012619,0.039807531982660294,-10.5819730758667
1.7294995789295946e+18,0.029484786093235016,0.014553111977875233,-10.554037094116211
1.7294995789385948e+18,0.05732572823762894,-0.0178507212549448,-10.609213829040527
1.729499578947595e+18,0.018895704299211502,0.04960770159959793,-10.590391159057617
1.7294995789565952e+18,0.036999765783548355,0.008825252763926983,-10.672797203063965
1.7294995789655954e+18,0.001081733382306993,-0.02794809266924858,-10.570579528808594
1.7294995789715955e+18,-0.04568799212574959,-0.004968400113284588,-10.589545249938965
1.7294995789805957e+18,0.02754852920770645,-0.034223128110170364,-10.637764930725098
1.729499578989596e+18,-0.025640327483415604,0.019690407440066338,-10.620200157165527
1.729499578998596e+18,0.049510400742292404,0.03345470875501633,-10.563047409057617
1.7294995790045962e+18,0.06680671870708466,0.03639636188745499,-10.592031478881836
1.7294995790135964e+18,0.06584501266479492,-0.03406057879328728,-10.592905044555664
1.7294995790225966e+18,0.004136257339268923,0.010069934651255608,-10.621651649475098
1.7294995790285967e+18,-0.03921829164028168,-0.018553301692008972,-10.56928825378418
1.729499579037597e+18,0.09144087135791779,-0.10793383419513702,-10.572761535644531
1.729499579046597e+18,-0.016167091205716133,-0.02811744436621666,-10.544358253479004
1.7294995790525972e+18,0.103851817548275,0.0457015261054039,-10.544838905334473
1.7294995790615974e+18,0.008341284468770027,-0.006920387037098408,-10.564284324645996
1.7294995790705976e+18,0.024665746837854385,-0.013932941481471062,-10.653355598449707
1.7294995790795978e+18,0.02225189283490181,0.08675003051757812,-10.633550643920898
1.729499579085598e+18,0.007164017762988806,-0.043065834790468216,-10.578307151794434
1.7294995790945981e+18,-0.013319074176251888,0.05888882279396057,-10.589210510253906
1.7294995791035983e+18,0.033419545739889145,-0.03962256386876106,-10.626052856445312
1.7294995791095985e+18,-0.0010303850285708904,-0.03473864868283272,-10.592117309570312
1.7294995791185987e+18,-0.00892951712012291,0.03168554976582527,-10.54560375213623
1.729499579130599e+18,-0.014364158734679222,0.04909771680831909,-10.644853591918945
1.729499579136599e+18,-0.003520628437399864,0.008450849913060665,-10.504849433898926
1.7294995791455992e+18,-0.06883693486452103,0.009801763109862804,-10.606098175048828
1.7294995791515994e+18,3.853614907711744e-05,0.07105045020580292,-10.572633743286133
1.7294995791605996e+18,-0.04953236132860184,-0.004827636759728193,-10.600713729858398
1.7294995791695997e+18,0.06228502094745636,-0.03344878926873207,-10.674948692321777
1.7294995791786e+18,-0.0979071855545044,-2.701563062146306e-06,-10.518457412719727
1.7294995791876001e+18,-0.028574882075190544,-0.018577860668301582,-10.556068420410156
1.7294995791966003e+18,-0.07154127210378647,-0.01184884924441576,-10.584568977355957
1.7294995792026004e+18,-0.02000741846859455,0.02335602417588234,-10.586241722106934
1.7294995792116006e+18,0.029164902865886688,0.018316950649023056,-10.57547378540039
1.7294995792206008e+18,-0.011281339451670647,0.015609551221132278,-10.51159954071045
1.729499579229601e+18,-0.040111709386110306,0.03294537961483002,-10.569511413574219
1.7294995792386012e+18,0.018721533939242363,0.058138348162174225,-10.47244644165039
1.7294995792446013e+18,-0.018309108912944794,-0.004351393319666386,-10.52678394317627
1.7294995792536015e+18,0.028688952326774597,-0.016739919781684875,-10.593372344970703
1.7294995792626017e+18,0.01141283754259348,0.005211433861404657,-10.556878089904785
1.729499579271602e+18,-0.014006704092025757,-0.029508912935853004,-10.540496826171875
1.729499579280602e+18,0.03862474486231804,0.002148287370800972,-10.50367546081543
1.7294995792896023e+18,-0.009752301499247551,-0.0007801633328199387,-10.497940063476562
1.7294995792986025e+18,-0.00487731397151947,-0.013802655972540379,-10.596624374389648
1.7294995793076027e+18,0.013686285354197025,0.015667930245399475,-10.561627388000488
1.729499579316603e+18,-0.05182097479701042,-0.00634554959833622,-10.620306968688965
1.729499579322603e+18,-0.06140148267149925,0.0019797482527792454,-10.617948532104492
1.7294995793316032e+18,-0.07505564391613007,-0.10316947847604752,-10.597482681274414
1.7294995793406034e+18,0.014236755669116974,0.013268868438899517,-10.553031921386719
1.7294995793496036e+18,0.029245581477880478,0.035931866616010666,-10.568245887756348
1.7294995793556037e+18,-0.06577558070421219,-0.0031632629688829184,-10.581549644470215
1.729499579364604e+18,0.08768213540315628,-0.05657518655061722,-10.563064575195312
1.729499579373604e+18,-0.08496330678462982,-0.02413056790828705,-10.59115982055664
1.7294995793796042e+18,-0.021286483854055405,0.021809032186865807,-10.485011100769043
1.7294995793886044e+18,0.07399757951498032,0.0036233565770089626,-10.548551559448242
1.7294995793976046e+18,-0.03705284371972084,0.07795391976833344,-10.540887832641602
1.7294995794066048e+18,-0.001815762254409492,-0.0071988701820373535,-10.59862232208252
1.729499579415605e+18,0.009262753650546074,0.019986821338534355,-10.515533447265625
1.729499579421605e+18,-0.04658334329724312,-0.05717167630791664,-10.476590156555176
1.7294995794306053e+18,0.03957861661911011,-0.03168466314673424,-10.629379272460938
1.7294995794396055e+18,-0.03822675719857216,0.05011029541492462,-10.461014747619629
1.7294995794486057e+18,-0.015392700210213661,0.03455319628119469,-10.538229942321777
1.729499579457606e+18,-0.00128364993724972,0.06333896517753601,-10.541182518005371
1.729499579463606e+18,-0.07153361290693283,-0.022888123989105225,-10.47667407989502
1.7294995794726062e+18,-0.05569801852107048,0.0022779616992920637,-10.410324096679688
1.7294995794816064e+18,0.0302872397005558,0.032757848501205444,-10.444605827331543
1.7294995794906066e+18,-0.00888628326356411,-0.04601696878671646,-10.415069580078125
1.7294995794966067e+18,-0.014884360134601593,-0.025892753154039383,-10.35826587677002
1.729499579505607e+18,0.042212340980768204,-0.03752639517188072,-10.401631355285645
1.729499579511607e+18,0.027147339656949043,-0.025147203356027603,-10.343083381652832
1.7294995795206072e+18,0.003075424348935485,-0.007826877757906914,-10.26733684539795
1.7294995795296074e+18,0.014124148525297642,0.006802188698202372,-10.227728843688965
1.7294995795386076e+18,0.0023108774330466986,-0.02370181493461132,-10.250320434570312
1.7294995795476078e+18,0.004751890432089567,-0.025803856551647186,-10.146871566772461
1.729499579553608e+18,0.028817245736718178,-0.05974937230348587,-10.193411827087402
1.729499579562608e+18,0.04537191987037659,-0.013983553275465965,-10.175395011901855
1.7294995795716083e+18,0.0320499986410141,-0.029397573322057724,-10.151018142700195
1.7294995795806085e+18,0.02173127606511116,-0.032526373863220215,-10.094758033752441
1.7294995795866086e+18,-0.03967868536710739,-0.032680001109838486,-10.037440299987793
1.7294995795956088e+18,0.025461994111537933,-0.05831575021147728,-10.073585510253906
1.729499579604609e+18,0.009476140141487122,0.07144063711166382,-9.983558654785156
1.7294995796136092e+18,-0.056436218321323395,0.03000602312386036,-9.936829566955566
1.7294995796226094e+18,0.037203576415777206,-0.04999581351876259,-9.906856536865234
1.7294995796286095e+18,-0.00035268740612082183,0.003770313458517194,-9.928348541259766
1.7294995796376097e+18,-0.008272536098957062,-0.018064025789499283,-9.859862327575684
1.72949957964661e+18,0.07508537173271179,-0.02752373367547989,-9.806105613708496
1.72949957965261e+18,-0.04198618605732918,0.013185844756662846,-9.907955169677734
1.7294995796616102e+18,-0.003130536526441574,-0.07970423996448517,-9.861943244934082
1.7294995796676104e+18,-0.005506839137524366,0.017970655113458633,-9.765189170837402
1.7294995796766106e+18,0.022714806720614433,-0.010994327254593372,-9.786269187927246
1.7294995796856108e+18,0.10493000596761703,-0.009788919240236282,-9.7922945022583
1.729499579691611e+18,-0.005848290864378214,-0.06072765961289406,-9.702770233154297
1.729499579700611e+18,0.01673058047890663,0.03752754628658295,-9.77949047088623
1.7294995797066112e+18,0.07194987684488297,0.023558061569929123,-9.772794723510742
1.7294995797186115e+18,-0.026770660653710365,-0.003226571250706911,-9.752281188964844
1.7294995797246116e+18,-0.0829956904053688,-0.017588604241609573,-9.686960220336914
1.7294995797336118e+18,0.017928803339600563,0.04064935818314552,-9.719515800476074
1.729499579742612e+18,0.029529716819524765,-0.0950837954878807,-9.689737319946289
1.729499579748612e+18,0.07584492862224579,0.010466841980814934,-9.704446792602539
1.7294995797576123e+18,0.01980462670326233,0.04859187453985214,-9.67294692993164
1.7294995797636124e+18,0.013918619602918625,-0.09830354154109955,-9.640645980834961
1.7294995797726126e+18,0.028669822961091995,-0.05576286464929581,-9.663145065307617
1.7294995797816128e+18,-0.04005149379372597,0.005870469845831394,-9.652885437011719
1.729499579787613e+18,-0.042970724403858185,-0.030485849827528,-9.672196388244629
1.729499579796613e+18,-0.06693800538778305,-0.047672003507614136,-9.737768173217773
1.7294995798056133e+18,-0.025171544402837753,0.016047591343522072,-9.64590072631836
1.7294995798146135e+18,-0.008498325943946838,-0.03179941698908806,-9.67362117767334
1.7294995798206136e+18,0.017441125586628914,-0.027607113122940063,-9.678741455078125
1.7294995798296138e+18,0.035859331488609314,0.03018064610660076,-9.771207809448242
1.729499579838614e+18,0.024264518171548843,0.017219901084899902,-9.69320297241211
1.7294995798446141e+18,-0.021859996020793915,-0.022610533982515335,-9.677054405212402
1.7294995798536143e+18,0.0166547242552042,0.022333361208438873,-9.724345207214355
1.7294995798626145e+18,-0.0030983281321823597,0.00562282046303153,-9.650827407836914
1.7294995798686147e+18,0.06837305426597595,-0.003953458741307259,-9.754619598388672
1.7294995798776148e+18,0.018223030492663383,0.025613728910684586,-9.61393928527832
1.729499579886615e+18,-0.08701421320438385,-0.013172091916203499,-9.723835945129395
1.7294995798956152e+18,-0.02958737313747406,0.0029642817098647356,-9.654674530029297
1.7294995799016154e+18,0.0030137256253510714,0.03250008076429367,-9.720159530639648
1.7294995799106156e+18,0.029891209676861763,0.03201606869697571,-9.719015121459961
1.7294995799196157e+18,-0.008966149762272835,-0.10220078378915787,-9.699345588684082
1.729499579928616e+18,-0.032811474055051804,-0.0009811259806156158,-9.655563354492188
1.729499579934616e+18,0.04056701064109802,-0.01400893647223711,-9.697652816772461
1.7294995799436163e+18,0.0761668011546135,0.012893675826489925,-9.704678535461426
1.7294995799526164e+18,0.01856388710439205,-0.03293446823954582,-9.71933650970459
1.7294995799586166e+18,0.02918156422674656,-0.025258589535951614,-9.701433181762695
1.7294995799676168e+18,0.0043623847886919975,0.07428726553916931,-9.649091720581055
1.729499579976617e+18,-0.01928338035941124,0.016642574220895767,-9.612591743469238
1.729499579982617e+18,-0.08162674307823181,-0.03898622468113899,-9.636117935180664
1.7294995799916173e+18,0.015914326533675194,0.011269288137555122,-9.705279350280762
1.7294995799976174e+18,0.07774806767702103,-0.012341327965259552,-9.613049507141113
1.7294995800066176e+18,-0.04728556424379349,0.027672288939356804,-9.673543930053711
1.7294995800156178e+18,0.049438633024692535,-0.02043062634766102,-9.681750297546387
1.729499580024618e+18,0.06529710441827774,0.06708710640668869,-9.635825157165527
1.729499580030618e+18,0.03283824771642685,0.0123919527977705,-9.742188453674316
1.7294995800396183e+18,-0.06651916354894638,0.016377832740545273,-9.648702621459961
1.7294995800456184e+18,0.04696546122431755,0.0231393463909626,-9.634864807128906
1.7294995800546186e+18,-0.027151944115757942,-0.07982461899518967,-9.592211723327637
1.7294995800636188e+18,0.05775463581085205,-0.07702498137950897,-9.622668266296387
1.729499580069619e+18,-0.047009583562612534,0.029333220794796944,-9.649018287658691
1.7294995800786191e+18,0.07404287159442902,0.06582184880971909,-9.681327819824219
1.7294995800876193e+18,0.025122907012701035,-0.09405938535928726,-9.699363708496094
1.7294995800966195e+18,-0.06351467967033386,-0.0018938141874969006,-9.637451171875
1.7294995801056197e+18,0.00015297974459826946,0.020303018391132355,-9.638458251953125
1.7294995801116198e+18,-0.02547483518719673,-0.03377586603164673,-9.720033645629883
1.72949958012062e+18,-0.02045603282749653,-0.011609652079641819,-9.667786598205566
1.7294995801296202e+18,0.007192342542111874,0.017461484298110008,-9.607605934143066
1.7294995801356204e+18,0.05215994641184807,-0.02430800348520279,-9.647601127624512
1.7294995801446205e+18,0.0009205221431329846,0.0015335817588493228,-9.608264923095703
1.7294995801536207e+18,0.06345103681087494,0.01719341240823269,-9.657355308532715
1.729499580162621e+18,0.03424717113375664,-0.005379277281463146,-9.682836532592773
1.729499580171621e+18,-0.015756797045469284,-0.05377783626317978,-9.526151657104492
1.7294995801806213e+18,0.09942565113306046,0.03936433792114258,-9.574446678161621
1.7294995801896215e+18,0.014657866209745407,0.038623467087745667,-9.61348819732666
1.7294995801986217e+18,0.004394100047647953,0.028926728293299675,-9.535861015319824
1.7294995802046218e+18,-0.031376417726278305,-0.012217795476317406,-9.626201629638672
1.729499580213622e+18,0.05388718843460083,-0.05465078353881836,-9.546954154968262
1.7294995802226222e+18,0.08280500769615173,0.0003775042132474482,-9.619213104248047
1.7294995802316224e+18,-0.009601764380931854,0.0352327935397625,-9.635209083557129
1.7294995802376225e+18,-0.04750238358974457,0.034459251910448074,-9.620373725891113
1.7294995802466227e+18,-0.017744945362210274,-0.030599474906921387,-9.556661605834961
1.729499580255623e+18,0.0005197113496251404,-0.0019637257792055607,-9.540120124816895
1.729499580264623e+18,0.0713372677564621,-0.022111978381872177,-9.603608131408691
1.7294995802706232e+18,-0.01766243390738964,-0.07445023208856583,-9.597221374511719
1.7294995802826235e+18,-0.08624058216810226,0.05375733971595764,-9.572455406188965
1.7294995802916237e+18,0.003390065860003233,0.03156796842813492,-9.554262161254883
1.7294995802976238e+18,0.023393593728542328,0.0730658620595932,-9.53930950164795
1.729499580306624e+18,0.07546911388635635,0.0006486909696832299,-9.582679748535156
1.7294995803156242e+18,0.09888918697834015,0.0200320016592741,-9.577513694763184
1.7294995803216243e+18,-0.0008143760496750474,0.010173560120165348,-9.607641220092773
1.7294995803306245e+18,-0.02584892511367798,0.00901074893772602,-9.649734497070312
1.7294995803396247e+18,0.019429724663496017,-0.03407616540789604,-9.555872917175293
1.7294995803456248e+18,-0.04894843325018883,0.0021781930699944496,-9.420190811157227
1.729499580354625e+18,-0.009821177460253239,0.02748185768723488,-9.62368106842041
1.7294995803606252e+18,-0.021672258153557777,0.06413132697343826,-9.514427185058594
1.7294995803696253e+18,0.0074453712441027164,-0.018347378820180893,-9.610485076904297
1.7294995803756255e+18,0.07052060216665268,-0.02117580734193325,-9.591232299804688
1.7294995803846257e+18,-0.00948222354054451,0.03610989451408386,-9.615499496459961
1.7294995803936259e+18,0.0644785612821579,-0.014122821390628815,-9.575311660766602
1.729499580399626e+18,-0.056127458810806274,0.012108107097446918,-9.608773231506348
1.7294995804086262e+18,-0.0007518408237956464,-0.025279326364398003,-9.456747055053711
1.7294995804176264e+18,-0.0193185992538929,-0.025399591773748398,-9.510376930236816
1.7294995804236265e+18,-0.04616805911064148,0.06806081533432007,-9.518108367919922
1.7294995804326267e+18,-0.10620206594467163,0.06610710173845291,-9.558095932006836
1.729499580441627e+18,-0.018822556361556053,-0.046976178884506226,-9.538322448730469
1.729499580447627e+18,-0.050447266548871994,-0.013275607489049435,-9.600929260253906
1.7294995804566272e+18,-0.012866856530308723,0.023979628458619118,-9.538534164428711
1.7294995804656274e+18,-0.04336586967110634,-0.030078904703259468,-9.433573722839355
1.7294995804716275e+18,-0.04546407237648964,-0.10106846690177917,-9.669137954711914
1.7294995804806277e+18,-0.09233799576759338,-0.025851143524050713,-9.4566068649292
1.729499580489628e+18,-0.1253417432308197,0.019474269822239876,-9.57713508605957
1.729499580495628e+18,-0.01757829077541828,0.03444823995232582,-9.509749412536621
1.7294995805046282e+18,0.07114921510219574,-0.045698679983615875,-9.508209228515625
1.7294995805136284e+18,-0.034432701766490936,-0.07223539054393768,-9.489513397216797
1.7294995805226286e+18,-0.023183729499578476,0.02558303251862526,-9.49826717376709
1.7294995805286287e+18,0.055439386516809464,-0.0055798254907131195,-9.53400993347168
1.729499580537629e+18,0.07670263946056366,-0.020285531878471375,-9.506693840026855
1.729499580546629e+18,-0.016295025125145912,-0.06423333287239075,-9.569430351257324
1.7294995805556293e+18,-0.006011854857206345,0.09861168265342712,-9.54206657409668
1.7294995805646295e+18,-0.029925400391221046,0.005515529774129391,-9.538619995117188
1.7294995805736297e+18,-0.034316182136535645,0.05030936747789383,-9.468551635742188
1.72949958058263e+18,0.08996100723743439,0.006657421123236418,-9.472283363342285
1.72949958059163e+18,-0.0009819264523684978,0.026860352605581284,-9.52991771697998
1.7294995805976302e+18,-0.04443155229091644,-0.0062711057253181934,-9.516644477844238
1.7294995806066304e+18,-0.017530782148241997,0.06675083190202713,-9.564726829528809
1.7294995806156306e+18,0.11538207530975342,0.06729178875684738,-9.525019645690918
1.7294995806246308e+18,0.031089160591363907,-0.07407579571008682,-9.448081016540527
1.729499580633631e+18,-0.07251574099063873,-0.02443210408091545,-9.535208702087402
1.7294995806426312e+18,0.08710404485464096,0.06385907530784607,-9.457313537597656
1.7294995806516314e+18,0.036874085664749146,0.009740316309034824,-9.498784065246582
1.7294995806576315e+18,-0.024474868550896645,-0.03834464028477669,-9.454154968261719
1.7294995806696317e+18,-0.03401147574186325,-0.028829874470829964,-9.57947063446045
1.729499580678632e+18,-0.05943042039871216,0.02049778588116169,-9.564906120300293
1.729499580684632e+18,-0.022749384865164757,0.062123626470565796,-9.503400802612305
1.7294995806936323e+18,-0.026921870186924934,-0.10018216073513031,-9.597259521484375
1.7294995807026324e+18,-0.041508324444293976,-0.053967177867889404,-9.420269966125488
1.7294995807116326e+18,0.06027694419026375,-0.01009362656623125,-9.506196022033691
1.7294995807206328e+18,-0.023769261315464973,-0.059562861919403076,-9.433270454406738
1.729499580729633e+18,-0.03764635697007179,-0.07963564991950989,-9.521988868713379
1.7294995807386332e+18,0.08624015748500824,0.019124606624245644,-9.450082778930664
1.7294995807476334e+18,0.07076583057641983,-0.018215294927358627,-9.471197128295898
1.7294995807536335e+18,0.055316075682640076,0.06907425075769424,-9.508413314819336
1.7294995807626337e+18,0.006713618990033865,0.05852717533707619,-9.434812545776367
1.729499580771634e+18,-0.00551877124235034,-0.0027583937626332045,-9.469820022583008
1.729499580780634e+18,0.019050167873501778,-0.027530469000339508,-9.34968090057373
1.7294995807896343e+18,-0.0010146843269467354,-0.04065937548875809,-9.498095512390137
1.7294995807986345e+18,0.0288104098290205,0.04314442351460457,-9.467879295349121
1.7294995808076347e+18,0.04035063460469246,0.06575275212526321,-9.421842575073242
1.7294995808136348e+18,-0.005755995400249958,-0.0003631603321991861,-9.467137336730957
1.729499580822635e+18,0.03168916702270508,0.0017474843189120293,-9.456860542297363
1.7294995808316352e+18,-0.028681421652436256,0.001956240739673376,-9.371874809265137
1.7294995808406354e+18,-0.02657540701329708,0.016010697931051254,-9.469985008239746
1.7294995808526356e+18,0.03960726410150528,0.03092402033507824,-9.430339813232422
1.7294995808586358e+18,0.03840530663728714,0.03191438689827919,-9.484355926513672
1.729499580867636e+18,-0.034235287457704544,0.016459360718727112,-9.428382873535156
1.7294995808766362e+18,0.0053303055465221405,0.0042931195348501205,-9.478662490844727
1.7294995808856364e+18,-0.02979399636387825,-0.0536288246512413,-9.500473022460938
1.7294995808946365e+18,-0.024577278643846512,-0.14990752935409546,-9.395075798034668
1.7294995809006367e+18,0.041239507496356964,-0.09194830060005188,-9.486822128295898
1.7294995809096369e+18,0.007055266760289669,-0.01899322308599949,-9.51274299621582
1.729499580918637e+18,0.030387697741389275,0.025806933641433716,-9.480456352233887
1.7294995809246372e+18,-0.014048806391656399,0.013351445086300373,-9.467032432556152
1.7294995809336374e+18,0.010217370465397835,0.014525842852890491,-9.466035842895508
1.7294995809426376e+18,0.01773303933441639,0.021404102444648743,-9.50969409942627
1.7294995809516378e+18,-0.003000004217028618,-0.0639040470123291,-9.465059280395508
1.729499580960638e+18,-0.0016125836409628391,0.004123265389353037,-9.408798217773438
1.729499580966638e+18,-0.05349982529878616,0.025231793522834778,-9.426945686340332
1.7294995809756383e+18,0.03704078122973442,0.10204573720693588,-9.430062294006348
1.7294995809846385e+18,-0.001057240879163146,-0.04031887650489807,-9.413727760314941
1.7294995809906386e+18,0.0700530856847763,0.02544374018907547,-9.415986061096191
1.7294995809996388e+18,-0.051137156784534454,0.02683228626847267,-9.442766189575195
1.729499581008639e+18,0.020940808579325676,0.010130652226507664,-9.394305229187012
1.729499581014639e+18,0.02049308829009533,0.022873494774103165,-9.39498233795166
1.7294995810236393e+18,0.07723365724086761,0.036563340574502945,-9.466175079345703
1.7294995810326395e+18,0.027058538049459457,0.0055375490337610245,-9.460235595703125
1.7294995810386396e+18,0.015832901000976562,-0.02707083150744438,-9.403511047363281
1.7294995810476398e+18,0.05174020305275917,-0.0356559231877327,-9.478395462036133
1.72949958105664e+18,0.05251782014966011,-0.02290433831512928,-9.378427505493164
1.7294995810656402e+18,0.025657836347818375,-0.02695125713944435,-9.440802574157715
1.7294995810716403e+18,0.01202527154237032,0.11817829310894012,-9.36536693572998
1.7294995810806405e+18,0.04764653742313385,0.0031838524155318737,-9.426877975463867
1.7294995810896407e+18,0.04127858951687813,0.033371664583683014,-9.414527893066406
1.729499581098641e+18,0.057163652032613754,-0.022800274193286896,-9.350138664245605
1.729499581104641e+18,0.006709768436849117,0.006672543939203024,-9.370387077331543
1.7294995811136412e+18,0.028233248740434647,-0.00041978215449489653,-9.424312591552734
1.7294995811226414e+18,0.052863795310258865,0.038020167499780655,-9.393881797790527
1.7294995811286415e+18,-0.0006553684361279011,0.00281154434196651,-9.388907432556152
1.7294995811376417e+18,-0.03273776173591614,-0.012308337725698948,-9.421626091003418
1.729499581146642e+18,0.06042132154107094,0.03783924877643585,-9.383021354675293
1.729499581152642e+18,0.07132555544376373,-0.04049934446811676,-9.306600570678711
1.7294995811616422e+18,-0.01112132053822279,-0.02993360348045826,-9.441948890686035
1.7294995811706424e+18,-0.013126141391694546,-0.039029765874147415,-9.288394927978516
1.7294995811766426e+18,-0.010909488424658775,-0.058428000658750534,-9.382322311401367
1.7294995811856428e+18,0.026096129789948463,0.03964284062385559,-9.327362060546875
1.729499581194643e+18,0.0677008330821991,-0.02730238251388073,-9.331319808959961
1.7294995812036431e+18,0.042551156133413315,0.02878761850297451,-9.246689796447754
1.7294995812096433e+18,0.019842229783535004,0.0027178009040653706,-9.266693115234375
1.7294995812186435e+18,0.05023488029837608,0.026776453480124474,-9.265134811401367
1.7294995812306437e+18,-0.002229155506938696,-0.03641058877110481,-9.179340362548828
1.729499581239644e+18,-0.05589462071657181,0.04668455198407173,-9.200839042663574
1.729499581245644e+18,0.04295177385210991,-0.07400880008935928,-9.172499656677246
1.7294995812546442e+18,-0.05283452197909355,-0.04783466085791588,-9.191513061523438
1.7294995812636444e+18,0.05272588133811951,-0.04398966208100319,-9.073943138122559
1.7294995812726446e+18,0.002532079815864563,-0.02068690024316311,-9.07914924621582
1.7294995812816448e+18,-0.019459601491689682,0.0098954439163208,-9.051348686218262
1.729499581290645e+18,-0.07200969010591507,-0.06420750916004181,-9.03964614868164
1.729499581296645e+18,0.049945585429668427,-0.007926828227937222,-8.891304969787598
1.7294995813056453e+18,-0.010801850818097591,0.027100902050733566,-8.94373607635498
1.7294995813146455e+18,0.019564775750041008,0.008610501885414124,-8.917673110961914
1.7294995813236457e+18,0.019954858347773552,0.021557562053203583,-9.005196571350098
1.7294995813296458e+18,0.021954575553536415,0.04433546960353851,-8.862717628479004
1.729499581338646e+18,-0.04077783599495888,-0.026774797588586807,-8.84106731414795
1.7294995813476462e+18,0.04358487203717232,0.008417545817792416,-8.81512451171875
1.7294995813566464e+18,-0.06527472287416458,0.00830951239913702,-8.803319931030273
1.7294995813626465e+18,0.024372564628720284,0.04542524367570877,-8.74695110321045
1.7294995813716467e+18,-0.0162193700671196,-0.008919416926801205,-8.73256778717041
1.729499581380647e+18,0.060335174202919006,-0.0099705271422863,-8.785357475280762
1.729499581386647e+18,-0.004241202492266893,-0.05166067183017731,-8.693115234375
1.7294995813956472e+18,-0.012576171196997166,-0.09444845467805862,-8.67711067199707
1.7294995814046474e+18,0.030126076191663742,-0.011904776096343994,-8.689277648925781
1.7294995814136476e+18,-0.04258262366056442,0.04494757577776909,-8.656839370727539
1.7294995814196477e+18,0.0076237390749156475,-0.0004372876137495041,-8.591273307800293
1.729499581428648e+18,0.013126637786626816,0.03926662355661392,-8.751662254333496
1.7294995814376481e+18,-0.08597148209810257,0.06006016582250595,-8.725132942199707
1.7294995814466483e+18,0.009019267745316029,0.0016881362535059452,-8.625822067260742
1.7294995814556485e+18,-0.0206687543541193,0.0687486007809639,-8.707300186157227
1.7294995814646487e+18,0.0319235660135746,0.06613798439502716,-8.622700691223145
1.7294995814706488e+18,-0.0010320519795641303,0.012060711160302162,-8.77022647857666
1.729499581479649e+18,-0.002186355646699667,0.06288713216781616,-8.725104331970215
1.7294995814886492e+18,0.003928360994905233,0.04590747505426407,-8.711939811706543
1.7294995814946493e+18,-0.034107811748981476,-0.017228424549102783,-8.71741008758545
1.7294995815036495e+18,0.00864766351878643,-0.050134167075157166,-8.687384605407715
1.7294995815126497e+18,0.04004516080021858,0.03854958340525627,-8.792764663696289
1.72949958152165e+18,-0.011625370942056179,-0.03773451969027519,-8.810149192810059
1.72949958153065e+18,-0.03787811100482941,-0.014522239565849304,-8.804502487182617
1.7294995815396503e+18,-0.04114719480276108,-0.026235615834593773,-8.766149520874023
1.7294995815456504e+18,0.01641995832324028,-0.013786290772259235,-8.828252792358398
1.7294995815546506e+18,-0.043877989053726196,0.018855193629860878,-8.8192720413208
1.7294995815636508e+18,0.04652881622314453,-0.011123338714241982,-8.808876037597656
1.729499581572651e+18,-0.04918399080634117,-0.04060499742627144,-12.229762077331543
1.7294995815786511e+18,-0.01665578782558441,-0.006857040338218212,-15.063055038452148
1.7294995815876513e+18,-0.02551703341305256,0.006206621415913105,-16.081356048583984
1.7294995815966515e+18,-0.01777481846511364,-0.0011511052725836635,-16.312406539916992
1.7294995816056517e+18,-0.025131164118647575,-0.0529620386660099,-16.311330795288086
1.729499581614652e+18,0.0002829392906278372,0.04258836433291435,-16.356578826904297
1.729499581620652e+18,-0.008565858006477356,-0.05782328173518181,-16.345195770263672
1.7294995816296522e+18,0.010735800489783287,-0.025224395096302032,-16.129837036132812
1.7294995816416525e+18,0.037357352674007416,-0.04105138033628464,-16.048612594604492
1.7294995816506527e+18,0.009747741743922234,0.0029011378064751625,-15.803719520568848
1.7294995816596529e+18,-0.0523243322968483,0.041418347507715225,-15.756982803344727
1.729499581665653e+18,-0.04836657643318176,-0.029043134301900864,-15.614595413208008
1.7294995816746532e+18,-0.04383249580860138,-0.06065179780125618,-15.446826934814453
1.7294995816836534e+18,-0.018650338053703308,0.03837386518716812,-15.262218475341797
1.7294995816926536e+18,-0.029709644615650177,0.039161935448646545,-15.202201843261719
1.7294995817016538e+18,0.05896817147731781,-0.015432463958859444,-15.069170951843262
1.729499581710654e+18,0.044550228863954544,-0.12539495527744293,-14.925301551818848
1.7294995817196541e+18,-0.007643529213964939,0.03715094178915024,-14.928872108459473
1.7294995817286543e+18,0.04445839673280716,-0.04103081673383713,-14.679174423217773
1.7294995817346545e+18,0.010536019690334797,0.004325991962105036,-14.697441101074219
1.7294995817436547e+18,0.035222020000219345,-0.019018283113837242,-14.523022651672363
1.7294995817526548e+18,0.0014029094018042088,0.0393068753182888,-14.33255672454834
1.729499581761655e+18,-0.00024223211221396923,0.012316146865487099,-14.347067832946777
1.7294995817706552e+18,0.03387442231178284,-0.06715139746665955,-14.126935005187988
1.7294995817796554e+18,0.04879703000187874,-0.01663077063858509,-14.039389610290527
1.7294995817856556e+18,-0.050810590386390686,-0.07437597960233688,-14.033915519714355
1.7294995817946557e+18,-0.021213633939623833,0.06388067454099655,-13.92581844329834
1.729499581803656e+18,0.053778015077114105,-0.05074997991323471,-13.765546798706055
1.729499581809656e+18,-0.03692421689629555,-0.03131413459777832,-13.732583045959473
1.7294995818186563e+18,-0.005994237028062344,0.0303790420293808,-13.609871864318848
1.7294995818276564e+18,-0.08260718733072281,0.016030456870794296,-13.561193466186523
1.7294995818336566e+18,-0.03328721970319748,0.07653569430112839,-13.5211763381958
1.7294995818426568e+18,0.01326400600373745,-0.057433001697063446,-13.429803848266602
1.729499581851657e+18,-0.034535251557826996,0.01849057525396347,-13.26457405090332
1.7294995818606572e+18,0.03529595956206322,0.0005354330060072243,-13.222204208374023
1.7294995818696573e+18,-0.07917286455631256,-0.0013255983358249068,-13.164928436279297
1.7294995818786575e+18,0.013663413934409618,0.05031825602054596,-13.018321990966797
1.7294995818846577e+18,-0.030253514647483826,-0.042392484843730927,-13.08991813659668
1.7294995818936579e+18,0.00018863577861338854,-0.033001963049173355,-12.905441284179688
1.729499581902658e+18,0.0022443528287112713,-0.06595681607723236,-12.926689147949219
1.7294995819116582e+18,0.003936648368835449,-0.034325506538152695,-12.788095474243164
1.7294995819206584e+18,0.08259442448616028,-0.06852778047323227,-12.72939682006836
1.7294995819296586e+18,-0.06359335035085678,-0.05286402255296707,-12.69847297668457
1.7294995819356588e+18,-0.04286280646920204,-0.0531022809445858,-12.601319313049316
1.729499581947659e+18,0.02641795016825199,-0.009805039502680302,-12.596827507019043
1.7294995819536591e+18,0.027638094499707222,-0.09193359315395355,-12.52853775024414
1.7294995819626593e+18,0.10072354972362518,-0.09537690877914429,-12.513623237609863
1.7294995819716595e+18,-0.003275188384577632,0.005137347616255283,-12.365972518920898
1.7294995819806597e+18,0.026399817317724228,-0.005220488645136356,-12.340344429016113
1.72949958198966e+18,-0.07064315676689148,0.03573421388864517,-12.32933521270752
1.72949958199866e+18,0.014378596097230911,0.011986584402620792,-12.206400871276855
1.7294995820076603e+18,0.022158008068799973,-0.030911237001419067,-12.213056564331055
1.7294995820136604e+18,0.04872414469718933,0.07273104041814804,-12.053729057312012
1.7294995820226606e+18,0.03006966970860958,-0.0009206933900713921,-12.126585006713867
1.7294995820316608e+18,0.012823576107621193,-0.0738898515701294,-12.025213241577148
1.729499582040661e+18,-0.019888702780008316,0.042408984154462814,-11.88667106628418
1.7294995820496612e+18,0.07498150318861008,0.031184596940875053,-11.891681671142578
1.7294995820556613e+18,0.04001385718584061,-7.431663107126951e-07,-11.810873031616211
1.7294995820646615e+18,-0.02585756592452526,0.0330602191388607,-11.794315338134766
1.7294995820736617e+18,0.005767944734543562,-0.08377908915281296,-11.804679870605469
1.729499582082662e+18,0.08038664609193802,-0.024946415796875954,-11.715967178344727
1.729499582088662e+18,-0.06148839741945267,-0.04687941074371338,-11.666502952575684
1.7294995820976622e+18,0.003435961902141571,0.0302034430205822,-11.734198570251465
1.7294995821066624e+18,0.09315326809883118,-0.037948884069919586,-11.654401779174805
1.7294995821156626e+18,0.016986563801765442,0.004518652334809303,-11.589369773864746
1.7294995821216627e+18,-0.02896362543106079,0.07164008170366287,-11.486115455627441
1.729499582130663e+18,0.05168826878070831,0.029629169031977654,-11.579633712768555
1.729499582139663e+18,-0.011605548672378063,0.04530032351613045,-11.51414966583252
1.7294995821486633e+18,0.03672144189476967,-0.027918018400669098,-11.434111595153809
1.7294995821576635e+18,-0.007221629377454519,-0.0540909506380558,-11.454453468322754
1.7294995821636636e+18,0.001395544153638184,-0.0075442176312208176,-11.386303901672363
1.7294995821726638e+18,0.06177506968379021,0.06331191956996918,-11.380141258239746
1.729499582181664e+18,-0.04345674067735672,-0.029303956776857376,-11.376365661621094
1.7294995821906642e+18,0.0562090203166008,0.0035787879023700953,-11.34085464477539
1.7294995821966643e+18,0.03642437234520912,-0.008911599405109882,-11.277392387390137
1.7294995822056645e+18,0.033186085522174835,-0.04851698502898216,-11.289618492126465
1.7294995822146647e+18,0.0016272824723273516,-0.0587584525346756,-11.18607234954834
1.729499582223665e+18,-0.023190533742308617,-0.08471336215734482,-11.224411964416504
1.729499582229665e+18,-0.005883658304810524,0.00018072128295898438,-11.145899772644043
1.7294995822386652e+18,0.07541602849960327,-0.03295081481337547,-11.162363052368164
1.7294995822476654e+18,-0.006578355096280575,-0.04794161394238472,-11.08475399017334
1.7294995822566656e+18,0.017923977226018906,0.04573235660791397,-11.191084861755371
1.7294995822626657e+18,-8.897430961951613e-05,-0.011370304971933365,-11.02545166015625
1.729499582271666e+18,0.01106716226786375,-0.04512225463986397,-11.071624755859375
1.729499582280666e+18,-0.015057135373353958,-0.024894559755921364,-11.034626960754395
1.7294995822896663e+18,0.05088774859905243,0.12364062666893005,-11.02006721496582
1.7294995822986665e+18,0.09292978048324585,-0.16138599812984467,-10.922343254089355
1.7294995823046666e+18,0.009836994111537933,0.022534426301717758,-11.009127616882324
1.7294995823136668e+18,0.012377515435218811,0.07327248156070709,-10.94517993927002
1.729499582322667e+18,-0.030035588890314102,0.04345044493675232,-10.86596965789795
1.7294995823316672e+18,0.016026536002755165,0.002581009641289711,-10.883112907409668
1.7294995823376673e+18,-0.02121332287788391,-0.05795079097151756,-10.869805335998535
1.7294995823466675e+18,-0.06646891683340073,0.009361661970615387,-10.849425315856934
1.7294995823556677e+18,0.05721905082464218,0.05016843602061272,-10.834102630615234
1.729499582364668e+18,0.013895751908421516,0.010566269978880882,-10.783867835998535
1.729499582373668e+18,0.06259264796972275,0.03105885535478592,-10.82558536529541
1.7294995823796682e+18,0.05652938410639763,0.0017682220786809921,-10.746423721313477
1.7294995823886684e+18,0.033637892454862595,0.021384423598647118,-10.710182189941406
1.7294995823976686e+18,-0.02154952473938465,0.020474405959248543,-10.680832862854004
1.7294995824036687e+18,0.011925818398594856,-0.013197032734751701,-10.733640670776367
1.729499582412669e+18,-0.008683912456035614,0.09969446808099747,-10.70075511932373
1.729499582421669e+18,-0.06181129068136215,-0.009101423434913158,-10.667595863342285
1.7294995824306693e+18,0.030456800013780594,-0.1309899538755417,-10.644580841064453
1.7294995824366694e+18,0.01740606501698494,0.04635748639702797,-10.577021598815918
1.7294995824456696e+18,0.03460254892706871,-0.027739176526665688,-10.642000198364258
1.7294995824516698e+18,-0.012398384511470795,0.05373498052358627,-10.657318115234375
1.72949958246067e+18,0.07258695363998413,-0.004824695643037558,-10.676010131835938
1.7294995824696701e+18,-0.0005702725611627102,0.02729484625160694,-10.590311050415039
1.7294995824786703e+18,-0.024701623246073723,-0.009517171420156956,-10.593657493591309
1.7294995824846705e+18,0.00322521454654634,-0.0034133889712393284,-10.532074928283691
1.7294995824936707e+18,-0.0506158210337162,-0.022205660119652748,-10.51864242553711
1.7294995824996708e+18,-0.0680098608136177,0.006364772096276283,-10.554072380065918
1.729499582508671e+18,0.009142952039837837,0.045102521777153015,-10.515408515930176
1.7294995825176712e+18,0.06914124637842178,0.09114604443311691,-10.561653137207031
1.7294995825236713e+18,0.02997298166155815,-0.02988613396883011,-10.513704299926758
1.7294995825326715e+18,0.0021355696953833103,-0.04903683066368103,-10.516353607177734
1.7294995825416717e+18,-0.005706490483134985,-0.05248286575078964,-10.444849967956543
1.729499582550672e+18,-0.006749274209141731,-0.01140220370143652,-10.438238143920898
1.729499582559672e+18,-0.0474366657435894,-0.005405200645327568,-10.3616361618042
1.7294995825656722e+18,0.0314081534743309,0.0771980956196785,-10.328482627868652
1.7294995825746724e+18,-0.014956886880099773,0.12305239588022232,-10.370176315307617
1.7294995825836726e+18,0.01937454752624035,-0.013186509720981121,-10.37794017791748
1.7294995825896727e+18,0.03975122049450874,0.024291200563311577,-10.388110160827637
1.729499582598673e+18,0.06229330971837044,-0.0019752089865505695,-10.34273910522461
1.729499582607673e+18,-0.07255895435810089,-0.08091465383768082,-10.400598526000977
1.7294995826166733e+18,-0.030885033309459686,0.007747745141386986,-10.348435401916504
1.7294995826226734e+18,-0.068685382604599,0.029778527095913887,-10.218448638916016
1.7294995826316736e+18,0.1198926568031311,-0.04632503166794777,-10.29905891418457
1.7294995826406738e+18,-0.06330525875091553,0.0033734161406755447,-10.274203300476074
1.729499582649674e+18,0.08006999641656876,-0.03754572570323944,-10.33849048614502
1.7294995826586742e+18,0.024423347786068916,-0.028874000534415245,-10.21726131439209
1.7294995826646743e+18,0.02940884791314602,-0.04204235225915909,-10.237266540527344
1.7294995826736745e+18,0.015924612060189247,0.031867463141679764,-10.241897583007812
1.7294995826796746e+18,0.03733228147029877,-0.054424405097961426,-10.307657241821289
1.7294995826886748e+18,-0.004464819561690092,-0.0734080895781517,-10.129846572875977
1.729499582697675e+18,0.0864088386297226,0.02132013812661171,-10.188944816589355
1.7294995827036751e+18,0.007114232052117586,-0.02896495908498764,-10.177705764770508
1.7294995827126753e+18,0.08266191929578781,0.03395892307162285,-10.11540412902832
1.7294995827216755e+18,-0.05177117511630058,0.03059225156903267,-10.16012191772461
1.7294995827306757e+18,-0.05064522102475166,-0.0074532413855195045,-10.208828926086426
1.729499582739676e+18,-0.09604625403881073,-0.005794153548777103,-10.220260620117188
1.729499582745676e+18,-0.015057253651320934,0.007645131554454565,-10.148797035217285
1.7294995827546762e+18,0.01626957580447197,-0.07363025844097137,-10.148367881774902
1.7294995827636764e+18,0.03350062668323517,0.03848835453391075,-10.121520042419434
1.7294995827726766e+18,0.007760549895465374,-0.07089190930128098,-10.137155532836914
1.7294995827786767e+18,-0.006620739586651325,0.0010183276608586311,-10.07081413269043
1.729499582787677e+18,0.022087959572672844,-0.02871451899409294,-10.061060905456543
1.729499582796677e+18,0.0013725084718316793,0.01638706400990486,-10.09095287322998
1.7294995828056773e+18,0.08628715574741364,-0.006360132712870836,-10.088622093200684
1.7294995828116774e+18,-0.037866342812776566,-0.03245895728468895,-9.994510650634766
1.7294995828206776e+18,-0.0703568160533905,-0.02257530763745308,-10.063762664794922
1.7294995828296778e+18,-0.028954124078154564,-0.09746239334344864,-10.064542770385742
1.729499582835678e+18,0.02145172469317913,-0.07722847163677216,-10.032360076904297
1.7294995828446781e+18,-0.04446597769856453,-0.05254971235990524,-10.002448081970215
1.7294995828536783e+18,0.01893596723675728,0.08705568313598633,-10.089550018310547
1.7294995828596785e+18,0.006566820200532675,0.012730482034385204,-9.958943367004395
1.7294995828686787e+18,0.03836281970143318,0.016680650413036346,-10.038996696472168
1.7294995828776788e+18,0.007064096163958311,0.015512031503021717,-9.96299934387207
1.729499582886679e+18,-0.016786430031061172,0.07385154068470001,-10.07872486114502
1.7294995828926792e+18,0.01037641242146492,-0.038402821868658066,-10.011785507202148
1.7294995829016794e+18,0.019263727590441704,0.03972262889146805,-9.98991584777832
1.7294995829106796e+18,0.08389589935541153,-0.011147879995405674,-10.072396278381348
1.7294995829196797e+18,0.029685484245419502,0.04881962761282921,-10.029553413391113
1.7294995829256799e+18,0.06542294472455978,-0.046758249402046204,-10.023914337158203
1.72949958293468e+18,0.001457861508242786,-0.006191526539623737,-9.975035667419434
1.7294995829436803e+18,0.044996343553066254,0.06597034633159637,-9.953207015991211
1.7294995829496804e+18,-0.008807731792330742,-0.07654276490211487,-9.908648490905762
1.7294995829586806e+18,-0.04299759119749069,-0.03287367522716522,-9.95995807647705
1.7294995829676808e+18,0.008720303885638714,-0.05287535488605499,-10.01425552368164
1.729499582973681e+18,-0.004154104273766279,0.0207996666431427,-9.88698673248291
1.729499582982681e+18,0.025604747235774994,-0.031171085312962532,-9.92257308959961
1.7294995829916813e+18,-0.09695202857255936,0.02519151009619236,-9.957764625549316
1.7294995830006815e+18,-0.007095781154930592,0.006006686948239803,-9.909385681152344
1.7294995830066816e+18,0.0486847460269928,-0.050949499011039734,-9.916857719421387
1.7294995830156818e+18,0.017407890409231186,-0.03063787892460823,-9.967658042907715
1.729499583024682e+18,0.032454900443553925,0.013233514502644539,-9.922849655151367
1.729499583030682e+18,-0.013184063136577606,0.09811116755008698,-9.861248970031738
1.7294995830396823e+18,0.049597520381212234,-0.05320466682314873,-9.887404441833496
1.7294995830486825e+18,0.03412262722849846,0.015442876145243645,-9.876449584960938
1.7294995830546826e+18,0.01293316949158907,0.0063428934663534164,-9.854741096496582
1.7294995830636828e+18,0.007099430542439222,0.052339211106300354,-9.905562400817871
1.729499583072683e+18,0.006292944774031639,0.02229289896786213,-9.854198455810547
1.7294995830786831e+18,0.03066292032599449,-0.02081327885389328,-9.89161491394043
1.7294995830876833e+18,0.011876748874783516,-0.038321539759635925,-9.819857597351074
1.7294995830966835e+18,-0.03179021179676056,0.05049122869968414,-9.867152214050293
1.7294995831056837e+18,-0.07690351456403732,0.0049415938556194305,-9.857769012451172
1.7294995831116838e+18,-0.023573407903313637,0.0864722728729248,-9.980461120605469
1.729499583120684e+18,-0.008968023583292961,0.0010254924418404698,-9.862486839294434
1.7294995831296842e+18,-0.010877585969865322,0.07915051281452179,-9.84115982055664
1.7294995831386844e+18,0.033851318061351776,0.03175213187932968,-9.791619300842285
1.7294995831476846e+18,-0.002890984993427992,-0.04141717031598091,-9.864645957946777
1.7294995831566848e+18,0.009232739917933941,-0.07247335463762283,-9.877764701843262
1.729499583165685e+18,-0.088515505194664,0.02809101715683937,-9.772554397583008
1.7294995831746852e+18,-0.07103835046291351,-0.02240099385380745,-9.831974983215332
1.7294995831836854e+18,-0.01981317810714245,0.020540134981274605,-9.879267692565918
1.7294995831986857e+18,0.02151273563504219,0.011955664493143559,-9.847007751464844
1.729499583207686e+18,-0.03886621445417404,0.0072026439011096954,-9.88447380065918
1.729499583216686e+18,0.03121369332075119,-0.010752404108643532,-9.734682083129883
1.7294995832226862e+18,-0.049486011266708374,-0.022530540823936462,-9.814269065856934
1.7294995832316864e+18,0.006968619767576456,-0.045595649629831314,-9.79544734954834
1.7294995832436867e+18,0.032954953610897064,-0.028744777664542198,-9.819984436035156
1.7294995832526868e+18,0.10290370136499405,-0.05177401378750801,-9.811903953552246
1.729499583261687e+18,-0.09335505962371826,-0.033247727900743484,-9.791825294494629
1.7294995832676872e+18,0.001367571298032999,-0.0197594091296196,-9.722803115844727
1.7294995832766874e+18,0.021188884973526,0.021579738706350327,-9.768060684204102
1.7294995832856876e+18,0.0442306324839592,-0.02492760494351387,-9.74461555480957
1.7294995832946877e+18,0.004883266054093838,0.023162219673395157,-9.789487838745117
1.729499583306688e+18,-0.007989417761564255,-0.04985181614756584,-9.701415061950684
1.7294995833156882e+18,0.009609568864107132,0.05719554424285889,-9.772003173828125
1.7294995833246884e+18,0.004889053292572498,-0.013466899283230305,-9.772414207458496
1.7294995833306885e+18,-0.044725146144628525,-0.01563470996916294,-9.747930526733398
1.7294995833396887e+18,0.002588652539998293,0.034097328782081604,-9.816862106323242
1.7294995833456888e+18,0.06625794619321823,-0.046043235808610916,-9.75083065032959
1.729499583354689e+18,-0.01698090136051178,-0.00955445971339941,-9.776650428771973
1.7294995833636892e+18,0.034088678658008575,0.005084889475256205,-9.827174186706543
1.7294995833696893e+18,0.010080412961542606,-0.01148417592048645,-9.793158531188965
1.7294995833786895e+18,-0.03634808585047722,-0.032496895641088486,-9.797168731689453
1.7294995833876897e+18,0.059192631393671036,0.030301451683044434,-9.78771686553955
1.7294995833936899e+18,0.03694608807563782,-0.031543146818876266,-9.748018264770508
1.72949958340269e+18,0.054023757576942444,0.10392152518033981,-9.814735412597656
1.7294995834116902e+18,0.03467334806919098,-0.06441326439380646,-9.747835159301758
1.7294995834176904e+18,0.07307571917772293,0.045003049075603485,-9.749244689941406
1.7294995834266906e+18,-0.018234698101878166,0.010502410121262074,-9.822221755981445
1.7294995834356908e+18,0.002038897480815649,0.04069821164011955,-9.80381965637207
1.729499583444691e+18,-0.027562499046325684,0.004546995274722576,-9.769335746765137
1.729499583450691e+18,-0.031014667823910713,0.0036054374650120735,-9.778457641601562
1.7294995834596913e+18,0.07141325622797012,0.06429833173751831,-9.745746612548828
1.7294995834686915e+18,0.030668195337057114,-0.023282207548618317,-9.723470687866211
1.7294995834746916e+18,0.059838660061359406,-0.03461684659123421,-9.751590728759766
1.7294995834836918e+18,-0.014542884193360806,0.03355773910880089,-9.71041488647461
1.729499583492692e+18,0.06624816358089447,-0.029775651171803474,-9.904142379760742
1.7294995835016922e+18,-0.10129106044769287,0.05356365814805031,-9.70189380645752
1.7294995835106924e+18,0.05525120347738266,-0.0419626422226429,-9.799249649047852
1.7294995835166925e+18,-0.014570108614861965,0.049151863902807236,-9.750985145568848
1.7294995835256927e+18,-0.08170174062252045,-0.05956238508224487,-9.723665237426758
1.7294995835346929e+18,-0.031636837869882584,-0.018629925325512886,-9.6943998336792
1.729499583543693e+18,0.007826069369912148,-0.040649764239788055,-9.809554100036621
1.7294995835496932e+18,-0.025876332074403763,0.07515586167573929,-9.710395812988281
1.7294995835586934e+18,0.01679104194045067,0.030870486050844193,-9.692566871643066
1.7294995835646935e+18,0.07133940607309341,-0.03899369016289711,-9.70518970489502
1.7294995835736937e+18,0.014598146080970764,-0.015907859429717064,-9.768893241882324
1.729499583582694e+18,-0.008318386971950531,-0.010017222724854946,-9.785840034484863
1.729499583588694e+18,0.04335226118564606,-0.0705331414937973,-9.663240432739258
1.7294995835976942e+18,-0.012255792506039143,0.028174368664622307,-9.740521430969238
1.7294995836066944e+18,-0.01617281697690487,0.021990399807691574,-9.820114135742188
1.7294995836126945e+18,0.04419975355267525,-0.04996678605675697,-9.8509521484375
1.7294995836216947e+18,-0.04915660619735718,-0.03822540119290352,-9.770794868469238
1.729499583630695e+18,-0.07782712578773499,0.0069325766526162624,-9.790044784545898
1.729499583639695e+18,0.02495581842958927,-0.03851651772856712,-9.8696928024292
1.7294995836456952e+18,0.020523948594927788,0.03417644649744034,-9.745457649230957
1.7294995836546954e+18,-0.0060094669461250305,0.012768938206136227,-9.771965980529785
1.7294995836636956e+18,-0.07396671175956726,0.04239055886864662,-9.767383575439453
1.7294995836696957e+18,-0.11244122684001923,0.03132786601781845,-9.7920560836792
1.729499583678696e+18,-0.0020263607148081064,-0.029571134597063065,-9.812792778015137
1.7294995836876961e+18,-0.021054742857813835,-0.08612795919179916,-9.821080207824707
1.7294995837026964e+18,-0.041571177542209625,-0.05511369928717613,-9.765168190002441
1.7294995837086966e+18,-0.015400053933262825,0.011170491576194763,-9.755206108093262
1.7294995837176968e+18,-0.0325249508023262,-0.08259670436382294,-9.860161781311035
1.729499583726697e+18,-0.01521388627588749,0.03311453014612198,-9.724614143371582
1.729499583732697e+18,0.02745356597006321,0.002891055541113019,-9.8181734085083
1.7294995837416973e+18,-0.00038344418862834573,0.016021499410271645,-9.84499740600586
1.7294995837506975e+18,-0.04049382358789444,0.05169954150915146,-9.794072151184082
1.7294995837566976e+18,-0.04953005909919739,0.0018699202919378877,-9.807933807373047
1.7294995837656978e+18,0.043158624321222305,-0.025184391066432,-9.838045120239258
1.729499583774698e+18,-0.08120889961719513,-0.05305304005742073,-9.756891250610352
1.7294995837836982e+18,-0.014061070047318935,-0.11965800821781158,-9.861717224121094
1.7294995837896983e+18,-0.012563807889819145,0.07904446870088577,-9.773111343383789
1.7294995837986985e+18,0.015057733282446861,-0.01844637282192707,-9.766461372375488
1.7294995838076987e+18,-0.012419112026691437,0.12232282757759094,-9.74071979522705
1.7294995838136988e+18,-0.06817970424890518,0.013881553895771503,-9.730478286743164
1.729499583822699e+18,0.05448929965496063,0.022457484155893326,-9.781506538391113
1.7294995838286991e+18,-0.004413122311234474,-0.057462554425001144,-9.840624809265137
1.7294995838376993e+18,-0.08824849873781204,-0.01876452937722206,-9.766458511352539
1.7294995838466995e+18,-0.017630180343985558,-0.020132314413785934,-9.713003158569336
1.7294995838526996e+18,0.042734403163194656,0.06856846064329147,-9.789531707763672
1.7294995838616998e+18,0.011457820422947407,-0.021614909172058105,-9.728747367858887
1.7294995838677e+18,0.02343975007534027,-0.05301125347614288,-9.870172500610352
1.7294995838767002e+18,0.009729210287332535,0.01264160592108965,-9.766014099121094
1.7294995838857004e+18,0.06131305545568466,-0.04378098249435425,-9.788782119750977
1.7294995838917005e+18,0.0018577740993350744,-0.009369712322950363,-9.756572723388672
1.7294995839007007e+18,-0.017763258889317513,0.0176859050989151,-9.77979564666748
1.7294995839097009e+18,-0.044396497309207916,-0.011344444006681442,-9.726181030273438
1.729499583918701e+18,-0.04891170933842659,-0.09977145493030548,-9.799338340759277
1.7294995839247012e+18,0.019439734518527985,0.040989723056554794,-9.782645225524902
1.7294995839337014e+18,0.027978790923953056,-0.0036652726121246815,-9.754615783691406
1.7294995839397015e+18,0.09534436464309692,0.0006640462088398635,-9.71872329711914
1.7294995839487017e+18,-0.06783776730298996,0.08135955035686493,-9.753142356872559
1.729499583957702e+18,0.00901209469884634,-0.04754704236984253,-9.75168514251709
1.729499583966702e+18,0.037553396075963974,0.05502452701330185,-9.745234489440918
1.7294995839757023e+18,-0.016903016716241837,-0.013588380068540573,-9.715997695922852
1.7294995839847025e+18,-0.04690059646964073,0.02816805988550186,-9.709515571594238
1.7294995839907026e+18,-0.04627981036901474,0.0068383426405489445,-9.705055236816406
1.7294995839997028e+18,0.01133580133318901,-0.08060290664434433,-9.678441047668457
1.729499584008703e+18,0.008917247876524925,0.01514881756156683,-9.734343528747559
1.729499584014703e+18,-0.006189938168972731,0.030972467735409737,-9.790552139282227
1.7294995840237033e+18,-0.05486636236310005,-0.024121729657053947,-9.668585777282715
1.7294995840327035e+18,0.011477136053144932,-0.10371766239404678,-9.761767387390137
1.7294995840387036e+18,-0.05190899968147278,-0.000436648988397792,-9.756142616271973
1.7294995840477038e+18,-0.03426521271467209,-0.042920392006635666,-9.738744735717773
1.729499584053704e+18,-0.0201745443046093,-0.025632398203015327,-9.719943046569824
1.729499584062704e+18,0.036213893443346024,-0.06954995542764664,-9.747613906860352
1.7294995840687043e+18,0.033964186906814575,0.03749021142721176,-9.789113998413086
1.7294995840807045e+18,0.005171910859644413,-0.0260350052267313,-9.746796607971191
1.7294995840897047e+18,0.09237286448478699,0.023996194824576378,-9.742795944213867
1.729499584098705e+18,0.00047329504741355777,0.07528604567050934,-9.726533889770508
1.729499584107705e+18,-0.029827674850821495,-0.09339305013418198,-9.742841720581055
1.7294995841167053e+18,0.05821365490555763,0.05348939448595047,-9.752424240112305
1.7294995841227054e+18,-0.0885365679860115,-0.013385322876274586,-9.726949691772461
1.7294995841317056e+18,-0.04862700402736664,-0.015459093265235424,-9.690252304077148
1.7294995841377057e+18,0.005439374130219221,-0.05166460946202278,-9.73072624206543
1.729499584146706e+18,0.06945067644119263,-0.0046830931678414345,-9.786107063293457
1.729499584155706e+18,0.029603831470012665,0.052933115512132645,-9.758384704589844
1.7294995841647063e+18,0.01746298372745514,0.00379088893532753,-9.682555198669434
1.7294995841707064e+18,-0.054982177913188934,0.00382310152053833,-9.680137634277344
1.7294995841797066e+18,0.08118487149477005,-0.038950517773628235,-9.754040718078613
1.7294995841857068e+18,0.01290004514157772,-0.09536091238260269,-9.652223587036133
1.729499584194707e+18,0.03145170211791992,-0.03671681880950928,-9.722640991210938
1.7294995842037071e+18,-0.044244490563869476,0.010449514724314213,-9.730168342590332
1.7294995842097073e+18,-0.06364919990301132,-0.010256543755531311,-9.708342552185059
1.7294995842187075e+18,-0.08076391369104385,-0.009607069194316864,-9.775924682617188
1.7294995842277076e+18,0.00292254239320755,0.02026180364191532,-9.678980827331543
1.7294995842367078e+18,-0.0434383787214756,-0.009806389920413494,-9.808835983276367
1.729499584245708e+18,0.09382802248001099,-0.05722992122173309,-9.740007400512695
1.7294995842517082e+18,0.004006722941994667,-0.012455634772777557,-9.671832084655762
1.7294995842607084e+18,0.06410383433103561,0.11467203497886658,-9.685956001281738
1.7294995842697085e+18,-0.04455731809139252,-0.07140523195266724,-9.70998477935791
1.7294995842787087e+18,-0.04783422872424126,0.09260096400976181,-9.671627044677734
1.7294995842847089e+18,-0.10461187362670898,-0.04354528710246086,-9.76716136932373
1.729499584296709e+18,0.01773223467171192,0.041853707283735275,-9.787429809570312
1.7294995843027092e+18,-0.02615879848599434,0.017806991934776306,-9.733945846557617
1.7294995843117094e+18,0.0004566179704852402,0.031216885894536972,-9.822757720947266
1.7294995843207096e+18,0.012307900935411453,-0.0017623525345698,-9.68701457977295
1.7294995843267098e+18,-0.03597341850399971,0.07116151601076126,-9.706503868103027
1.72949958433571e+18,-0.04251191020011902,-0.057682618498802185,-9.74958324432373
1.7294995843447101e+18,0.005913910921663046,0.05073043331503868,-9.740419387817383
1.7294995843537103e+18,0.004589849151670933,0.04442509263753891,-9.718104362487793
1.7294995843597105e+18,0.0032925098203122616,0.010643296875059605,-9.838770866394043
1.7294995843687107e+18,0.003658645087853074,0.06766003370285034,-9.764629364013672
1.7294995843777108e+18,-0.006451987661421299,0.01645016483962536,-9.718480110168457
1.729499584383711e+18,0.003038607072085142,0.01944849267601967,-9.782971382141113
1.7294995843927112e+18,-0.017614351585507393,-0.027660205960273743,-9.728492736816406
1.7294995843987113e+18,-0.01638605259358883,-0.05518714338541031,-9.766790390014648
1.7294995844077115e+18,0.07419154047966003,-0.007283207960426807,-9.732992172241211
1.7294995844167117e+18,0.029285850003361702,0.0028499197214841843,-9.722969055175781
1.7294995844227118e+18,0.012014159932732582,0.02073628082871437,-9.691010475158691
1.729499584431712e+18,0.06787288188934326,0.0455397367477417,-9.7113618850708
1.7294995844437123e+18,0.05401773750782013,0.012963318265974522,-9.676077842712402
1.7294995844557125e+18,-0.011156486347317696,-0.027031732723116875,-9.756196022033691
1.7294995844647127e+18,0.00754349771887064,0.04403653368353844,-9.723593711853027
1.729499584473713e+18,0.020404014736413956,-0.03558414429426193,-9.780083656311035
1.729499584479713e+18,-0.0001985315466299653,-0.042446304112672806,-9.764928817749023
1.7294995844887132e+18,-0.051019053906202316,0.010462253354489803,-9.673210144042969
1.7294995844977134e+18,-0.015936439856886864,-0.03721775859594345,-9.72789478302002
1.7294995845037135e+18,0.0119531424716115,0.020727936178445816,-9.70720386505127
1.7294995845127137e+18,-0.017737505957484245,0.04988846555352211,-9.75148868560791
1.729499584521714e+18,0.012376204133033752,-0.015995945781469345,-9.795805931091309
1.729499584530714e+18,0.03912859037518501,0.027549153193831444,-9.749967575073242
1.7294995845367142e+18,-0.011526987887918949,-0.03629676252603531,-9.755257606506348
1.7294995845457144e+18,0.04805385693907738,0.00760134169831872,-9.76002311706543
1.7294995845517146e+18,0.07184406369924545,0.019975267350673676,-9.732869148254395
1.7294995845607148e+18,-0.0055206590332090855,-0.03665921464562416,-9.646747589111328
1.729499584569715e+18,0.044144365936517715,0.0670776292681694,-9.905168533325195
1.729499584575715e+18,0.03729632496833801,0.013286365196108818,-9.726523399353027
1.7294995845847153e+18,-0.027169447392225266,0.029654381796717644,-9.713359832763672
1.7294995845937155e+18,-0.04451112076640129,-0.08040712028741837,-9.766819953918457
1.7294995845997156e+18,0.011804196983575821,-0.05239006131887436,-9.703347206115723
1.7294995846087158e+18,0.0464240200817585,-0.11103443801403046,-9.802224159240723
1.729499584617716e+18,-0.01443075854331255,-0.06136051192879677,-9.749292373657227
1.729499584623716e+18,0.014624153263866901,-0.04339463263750076,-9.68372631072998
1.7294995846327163e+18,-0.004020074848085642,-0.04182073846459389,-9.756290435791016
1.7294995846417165e+18,0.025230659171938896,0.0025271570775657892,-9.894639015197754
1.7294995846477166e+18,0.020177241414785385,0.06738961488008499,-9.71746826171875
1.7294995846567168e+18,-0.011416480876505375,-0.005961010232567787,-9.722517967224121
1.729499584665717e+18,-0.051924820989370346,0.016823669895529747,-9.743734359741211
1.729499584671717e+18,-0.043887656182050705,-0.08329197019338608,-9.739520072937012
1.7294995846807173e+18,-0.03904126584529877,0.024277780205011368,-9.756692886352539
1.7294995846897175e+18,-0.038071759045124054,-0.02125016786158085,-9.700661659240723
1.7294995846957176e+18,-0.008861260488629341,-0.05419335514307022,-9.78365707397461
1.729499584707718e+18,0.03879686817526817,0.061465393751859665,-9.631082534790039
1.729499584716718e+18,-0.050540536642074585,-0.01646439917385578,-9.799973487854004
1.7294995847257183e+18,0.02133483812212944,-0.006860879249870777,-9.780614852905273
1.7294995847317184e+18,-0.0369035042822361,0.02906263992190361,-9.748990058898926
1.7294995847407186e+18,-0.014050312340259552,-0.057813648134469986,-9.731243133544922
1.7294995847467187e+18,-0.009109334088861942,-0.025378061458468437,-9.72135066986084
1.729499584755719e+18,0.056991539895534515,0.008851994760334492,-9.7987060546875
1.729499584761719e+18,-0.0171404667198658,0.02118910476565361,-9.7079496383667
1.7294995847707192e+18,-0.02570914663374424,-0.010672309435904026,-9.801802635192871
1.7294995847797194e+18,-0.06341863423585892,-0.017197521403431892,-9.722967147827148
1.7294995847887196e+18,-0.04750655218958855,-0.021782906726002693,-9.757762908935547
1.7294995847947197e+18,0.06372871994972229,-0.021678786724805832,-9.622110366821289
1.72949958480372e+18,-0.01106028538197279,-0.023692931979894638,-9.846338272094727
1.7294995848157202e+18,0.027849242091178894,-0.03539777919650078,-9.734183311462402
1.7294995848217203e+18,0.11630673706531525,-0.015191868878901005,-9.769400596618652
1.7294995848307205e+18,0.008583133108913898,0.015155376866459846,-9.791914939880371
1.7294995848397207e+18,-0.05943853408098221,0.028931999579072,-9.80524730682373
1.729499584848721e+18,0.029991108924150467,0.07811199128627777,-9.69336986541748
1.729499584854721e+18,0.02789860963821411,0.005924983415752649,-9.711894035339355
1.7294995848637212e+18,0.0626610666513443,0.06766796112060547,-9.774309158325195
1.7294995848727214e+18,-0.02789418213069439,-0.05631503462791443,-9.710615158081055
1.7294995848787215e+18,0.021912075579166412,0.05291322246193886,-9.763428688049316
1.7294995848877217e+18,-0.02054172195494175,0.027941858395934105,-9.788784980773926
1.729499584896722e+18,0.010725071653723717,0.025723347440361977,-9.710972785949707
1.729499584905722e+18,-0.01486804336309433,-0.02499966137111187,-9.818855285644531
1.7294995849147223e+18,0.011518471874296665,0.002798736561089754,-9.752910614013672
1.7294995849237225e+18,0.010823308490216732,0.005069585517048836,-9.764480590820312
1.7294995849297226e+18,-0.06701568514108658,-0.05186423286795616,-9.827080726623535
1.729499584941723e+18,-0.02815723605453968,0.0022693295031785965,-9.693099975585938
1.729499584947723e+18,-0.03315839171409607,-0.0004325026529841125,-9.805737495422363
1.7294995849567232e+18,-0.05718792602419853,0.01073306705802679,-9.671765327453613
1.7294995849657234e+18,-0.06897120177745819,0.020095041021704674,-9.781752586364746
1.7294995849747236e+18,-0.012131787836551666,0.010596081614494324,-9.762932777404785
1.7294995849837238e+18,0.030505621805787086,-0.05719311162829399,-9.728601455688477
1.729499584992724e+18,-0.06929462403059006,0.01143109891563654,-9.715315818786621
1.7294995850017242e+18,-0.09119121730327606,0.00827919039875269,-9.805862426757812
1.7294995850107244e+18,0.009027869440615177,0.03520350530743599,-9.754352569580078
1.7294995850167245e+18,0.00944492220878601,-0.02965139038860798,-9.743875503540039
1.7294995850287247e+18,-0.03694462776184082,0.005693413782864809,-9.817604064941406
1.7294995850347249e+18,-0.003520504105836153,-0.009854956530034542,-9.768932342529297
1.729499585043725e+18,-0.05464945361018181,0.024210331961512566,-9.767603874206543
1.7294995850527252e+18,0.0744844377040863,-0.03849128261208534,-9.714632987976074
1.7294995850617254e+18,0.018903782591223717,-0.0304854828864336,-9.681811332702637
1.7294995850707256e+18,-0.06510365009307861,0.0916614755988121,-9.734332084655762
1.7294995850797258e+18,-0.006471031345427036,0.013746704906225204,-9.810857772827148
1.729499585088726e+18,-0.00548870163038373,0.029758833348751068,-9.733619689941406
1.7294995850977262e+18,-0.0018021650612354279,-0.005674330051988363,-9.750737190246582
1.7294995851067264e+18,-0.046936944127082825,-0.0183539018034935,-9.784788131713867
1.7294995851157266e+18,-0.025179503485560417,-0.025163237005472183,-9.77591323852539
1.7294995851217267e+18,-0.02072969079017639,0.028785862028598785,-9.773365020751953
1.729499585130727e+18,0.00438233045861125,0.0044003743678331375,-9.760950088500977
1.729499585139727e+18,0.07996556907892227,0.04281901195645332,-9.729167938232422
1.7294995851487273e+18,0.07004724442958832,-0.02632063999772072,-9.7824125289917
1.7294995851577275e+18,-0.007518156431615353,-0.03132018819451332,-9.69714641571045
1.7294995851637276e+18,-0.040801431983709335,0.027231130748987198,-9.744994163513184
1.7294995851727278e+18,0.052307307720184326,-0.033764202147722244,-9.7107572555542
1.729499585181728e+18,0.01651132106781006,0.015546511858701706,-9.771958351135254
1.7294995851907282e+18,-0.023475391790270805,0.07694730907678604,-9.771143913269043
1.7294995851967283e+18,-0.024693582206964493,-0.08844595402479172,-9.76455307006836
1.7294995852057285e+18,-0.05953909456729889,0.010236215777695179,-9.799290657043457
1.7294995852147287e+18,0.07641085237264633,-0.020853476598858833,-9.79989242553711
1.7294995852207288e+18,0.029547421261668205,-0.06654283404350281,-9.776060104370117
1.729499585229729e+18,0.017865853384137154,0.05709204077720642,-9.792436599731445
1.7294995852387292e+18,0.05800016596913338,0.03175186365842819,-9.801685333251953
1.7294995852477294e+18,-0.027505729347467422,0.005105843301862478,-9.72331428527832
1.7294995852537295e+18,0.03765403479337692,-0.01768404431641102,-9.76950740814209
1.7294995852627297e+18,-0.027185555547475815,-0.012062182649970055,-9.785796165466309
1.7294995852687299e+18,-0.01713535562157631,-0.01245671883225441,-9.767692565917969
1.72949958527773e+18,0.08798428624868393,0.013348226435482502,-9.743842124938965
1.7294995852867302e+18,0.09843306243419647,0.0268614012748003,-9.752326965332031
1.7294995852957304e+18,0.00812685675919056,0.019676972180604935,-9.784939765930176
1.7294995853047306e+18,-0.06256672739982605,-0.0017522736452519894,-9.754422187805176
1.7294995853107308e+18,-0.02613593451678753,-0.012361031025648117,-9.693963050842285
1.729499585319731e+18,-0.02612268552184105,0.01323260273784399,-9.828043937683105
1.729499585325731e+18,0.02673068642616272,-0.01969790644943714,-9.787406921386719
1.7294995853347313e+18,0.05565003678202629,-0.013946456834673882,-9.742888450622559
1.7294995853407314e+18,-0.06868033856153488,0.015109076164662838,-9.782166481018066
1.7294995853497316e+18,-0.03260001167654991,0.043433066457509995,-9.777103424072266
1.7294995853587318e+18,0.020082876086235046,-0.06263495236635208,-9.724178314208984
1.729499585364732e+18,-0.012307710014283657,0.016015607863664627,-9.798415184020996
1.729499585373732e+18,-0.03754543140530586,-0.08015881478786469,-9.8252592086792
1.7294995853827323e+18,0.051049329340457916,-0.042365189641714096,-9.777548789978027
1.7294995853887324e+18,-0.0502593070268631,0.04949033260345459,-9.839816093444824
1.7294995853977326e+18,-0.06685245782136917,0.01759060099720955,-9.821632385253906
1.7294995854037327e+18,-0.010482417419552803,-0.036119818687438965,-9.781362533569336
1.729499585412733e+18,0.07708610594272614,0.011049042455852032,-9.845657348632812
1.729499585421733e+18,-8.981084101833403e-05,-0.01505938172340393,-9.747270584106445
1.7294995854277332e+18,0.02601924166083336,0.009137636981904507,-9.793538093566895
1.7294995854367334e+18,0.007917314767837524,0.0364609956741333,-9.781682014465332
1.7294995854457336e+18,0.027231112122535706,-0.038062162697315216,-9.740174293518066
1.7294995854547338e+18,0.0443992093205452,-0.008777882903814316,-9.746939659118652
1.729499585460734e+18,-0.050553880631923676,-0.06612156331539154,-9.758934020996094
1.7294995854697341e+18,0.05473204702138901,0.02627912536263466,-9.78918170928955
1.7294995854787343e+18,0.012735441327095032,0.066005177795887,-9.771864891052246
1.7294995854847345e+18,0.06675185263156891,0.048779960721731186,-9.823086738586426
1.7294995854937347e+18,0.06450142711400986,-0.021405788138508797,-9.824030876159668
1.7294995855027348e+18,0.08376840502023697,0.033441632986068726,-9.761178016662598
1.729499585511735e+18,-0.023981178179383278,0.05492990091443062,-9.74533748626709
1.7294995855177352e+18,0.043045882135629654,0.04978930950164795,-9.72674560546875
1.7294995855267354e+18,0.006690451875329018,-0.023266928270459175,-9.824538230895996
1.7294995855357356e+18,0.04592059552669525,-0.0996740460395813,-9.772293090820312
1.7294995855447357e+18,-0.0325755812227726,0.04482448101043701,-9.778179168701172
1.729499585550736e+18,0.007956881076097488,0.03233692795038223,-9.74772834777832
1.729499585559736e+18,0.013306280598044395,-0.011071787215769291,-9.825108528137207
1.7294995855687363e+18,0.06343177706003189,0.002246191957965493,-9.822736740112305
1.7294995855777364e+18,-0.01597965881228447,-0.0020479888189584017,-9.77453899383545
1.7294995855867366e+18,0.04555731639266014,0.02524487115442753,-9.754498481750488
1.7294995855957368e+18,0.01324365846812725,0.01602734625339508,-9.864306449890137
1.729499585604737e+18,0.001054778229445219,0.05707568675279617,-9.746500968933105
1.7294995856167373e+18,0.08362209796905518,-0.027853000909090042,-9.871782302856445
1.7294995856227374e+18,0.04478151351213455,-0.014970192685723305,-9.827132225036621
1.7294995856317376e+18,-0.0003980096080340445,0.0729801282286644,-9.871169090270996
1.7294995856377377e+18,-0.060464080423116684,-0.003178075887262821,-9.775626182556152
1.729499585646738e+18,0.01227552816271782,0.026594743132591248,-9.76242446899414
1.729499585655738e+18,0.07353484630584717,0.006179569289088249,-9.876554489135742
1.7294995856617382e+18,-0.005878471303731203,0.07883532345294952,-9.808778762817383
1.7294995856707384e+18,-0.02978314831852913,0.010154505260288715,-9.765890121459961
1.7294995856797386e+18,0.012384493835270405,-0.04832575470209122,-9.800394058227539
1.7294995856857388e+18,0.0002368848363403231,0.014163614250719547,-9.761322021484375
1.729499585694739e+18,0.055068232119083405,-0.010268141515552998,-9.8596830368042
1.7294995857037391e+18,0.004455098416656256,-0.011772911064326763,-9.80245304107666
1.7294995857127393e+18,0.0019454977009445429,-0.045096080750226974,-9.814324378967285
1.7294995857217395e+18,0.06308113783597946,0.045360103249549866,-9.830432891845703
1.7294995857277396e+18,0.013694378547370434,0.01532785501331091,-9.816272735595703
1.7294995857367398e+18,0.0034203329123556614,-0.04075861722230911,-9.806073188781738
1.72949958574574e+18,-0.04213423654437065,0.02933085337281227,-9.756461143493652
1.7294995857517402e+18,0.006724863313138485,0.08689984679222107,-9.759937286376953
1.7294995857607404e+18,0.0018568334635347128,0.027758020907640457,-9.75428295135498
1.7294995857667405e+18,-0.005862806458026171,-0.03587883710861206,-9.866721153259277
1.7294995857757407e+18,0.004890106152743101,0.03601209446787834,-9.759761810302734
1.7294995857847409e+18,-0.020670369267463684,-0.002191332634538412,-9.785280227661133
1.729499585793741e+18,-0.02301337756216526,-0.11611315608024597,-9.716543197631836
1.7294995858027412e+18,-0.0196912232786417,-0.04245033115148544,-9.717399597167969
1.7294995858117414e+18,0.07381319254636765,-0.010005421936511993,-9.841228485107422
1.7294995858177416e+18,-0.07888523489236832,-0.03536200895905495,-9.745050430297852
1.7294995858267418e+18,0.055947501212358475,-0.045963652431964874,-9.801384925842285
1.729499585835742e+18,-0.02023835852742195,0.016754640266299248,-9.846028327941895
1.7294995858447421e+18,0.0114706140011549,-0.07259228825569153,-9.830099105834961
1.7294995858537423e+18,-0.01719818264245987,-0.08760043978691101,-9.840913772583008
1.7294995858597425e+18,-0.010619265027344227,0.020681124180555344,-9.810874938964844
1.7294995858687427e+18,-0.0003952169499825686,-0.0268846545368433,-9.750082969665527
1.7294995858777428e+18,0.05038910731673241,-0.04900588095188141,-9.681178092956543
1.729499585886743e+18,-0.08170228451490402,-0.004190114326775074,-9.79574203491211
1.7294995858957432e+18,0.06282813102006912,0.09108829498291016,-9.82394027709961
1.7294995859047434e+18,-0.011814482510089874,-0.01465267688035965,-9.700899124145508
1.7294995859137436e+18,-0.025188054889440536,-0.12244314700365067,-9.826125144958496
1.7294995859227438e+18,-0.06177621707320213,-0.07959035784006119,-9.793447494506836
1.729499585931744e+18,-0.07144300639629364,0.018229857087135315,-9.854352951049805
1.7294995859377441e+18,0.019600098952651024,0.02047615312039852,-9.809537887573242
1.7294995859467443e+18,0.03514350578188896,0.03671680763363838,-9.806296348571777
1.7294995859557445e+18,0.022907806560397148,0.008671781979501247,-9.807358741760254
1.7294995859647447e+18,-0.005467464216053486,0.0556417778134346,-9.723543167114258
1.729499585973745e+18,-0.014807325787842274,-0.039838872849941254,-9.819119453430176
1.729499585982745e+18,-0.02435467019677162,0.007905037142336369,-9.748047828674316
1.7294995859887452e+18,0.0007242681458592415,0.03173118084669113,-9.794227600097656
1.7294995859977454e+18,0.004908794071525335,-0.03480742499232292,-9.752198219299316
1.7294995860067456e+18,-0.0011348112020641565,0.02492646500468254,-9.75307559967041
1.7294995860127457e+18,-0.0222170427441597,0.0891159176826477,-9.793391227722168
1.729499586021746e+18,0.0281673651188612,-0.05555237457156181,-9.77181339263916
1.729499586027746e+18,0.005998306907713413,-0.03101736679673195,-9.835216522216797
1.7294995860367462e+18,0.10374733060598373,-0.05750409513711929,-9.816678047180176
1.7294995860457464e+18,-0.06298688799142838,-0.022363899275660515,-9.837292671203613
1.7294995860517466e+18,0.001848375191912055,-0.058182232081890106,-9.788673400878906
1.7294995860607468e+18,0.016779394820332527,0.0018829787150025368,-9.813390731811523
1.729499586069747e+18,0.003159581683576107,0.01894281432032585,-9.831225395202637
1.7294995860787471e+18,0.008511586114764214,0.032741401344537735,-9.785356521606445
1.7294995860877473e+18,0.02833467535674572,0.042905542999506,-9.772096633911133
1.7294995860937475e+18,0.02040223218500614,0.021991461515426636,-9.819478988647461
1.7294995861027476e+18,0.024739151820540428,0.03375067561864853,-9.799909591674805
1.7294995861087478e+18,0.07566297054290771,-0.0018978645093739033,-9.816946983337402
1.729499586117748e+18,-0.02446468360722065,-0.027495335787534714,-9.755730628967285
1.729499586123748e+18,0.00027697958284989,-0.047546107321977615,-9.836332321166992
1.7294995861327483e+18,0.046179868280887604,-0.04862430691719055,-9.796894073486328
1.7294995861417485e+18,0.00573268998414278,0.023486940190196037,-9.819072723388672
1.7294995861507487e+18,0.062243033200502396,0.051618792116642,-9.727128028869629
1.7294995861597489e+18,0.08661902695894241,-0.035480622202157974,-9.747391700744629
1.729499586165749e+18,-0.005916781257838011,-0.01615973189473152,-9.892204284667969
1.7294995861747492e+18,-0.024891957640647888,0.01934831216931343,-9.750041007995605
1.7294995861837494e+18,-0.0536198616027832,0.0017449571751058102,-9.723642349243164
1.7294995861897495e+18,-0.04330054298043251,-0.009191028773784637,-9.787861824035645
1.7294995861987497e+18,0.01832514815032482,-0.020673135295510292,-9.82007884979248
1.72949958620775e+18,0.0076730987057089806,0.013593782670795918,-9.82247257232666
1.72949958621375e+18,0.020520798861980438,0.04485205188393593,-9.83023738861084
1.7294995862227502e+18,-0.03182594105601311,-0.007990249432623386,-9.824735641479492
1.7294995862287503e+18,0.058235254138708115,0.019875669851899147,-9.824840545654297
1.7294995862377505e+18,0.057674504816532135,0.011269431561231613,-9.8012056350708
1.7294995862467507e+18,-0.02599332109093666,0.08463981747627258,-9.767555236816406
1.729499586255751e+18,-0.004670931492000818,0.008194421418011189,-9.726995468139648
1.729499586264751e+18,-0.01040823757648468,0.09394080936908722,-9.781323432922363
1.7294995862707512e+18,-0.0919451117515564,-0.01053444854915142,-9.836095809936523
1.7294995862797514e+18,0.008679414168000221,0.05637140944600105,-9.749434471130371
1.7294995862887516e+18,0.0037124366499483585,0.06365951150655746,-9.78478717803955
1.7294995862977518e+18,0.0012479182332754135,0.04354114085435867,-9.867341995239258
1.729499586306752e+18,0.04032544791698456,-0.08193574100732803,-9.797195434570312
1.729499586312752e+18,-0.07443121075630188,-0.08209586143493652,-9.817302703857422
1.7294995863217523e+18,0.023584654554724693,0.03975342959165573,-9.812270164489746
1.7294995863277524e+18,-0.006248953752219677,-0.04919396713376045,-9.787444114685059
1.7294995863367526e+18,-0.014410578645765781,0.035082921385765076,-9.806459426879883
1.7294995863457528e+18,-0.013116735965013504,0.011448844335973263,-9.87166690826416
1.729499586354753e+18,-0.014643464237451553,0.04719793051481247,-9.820488929748535
1.7294995863607532e+18,0.017139358446002007,0.024735400453209877,-9.830869674682617
1.7294995863697533e+18,-0.022174779325723648,0.010430983267724514,-9.75760269165039
1.7294995863787535e+18,-0.005736627150326967,0.053896088153123856,-9.815922737121582
1.7294995863877537e+18,0.018035979941487312,-0.07279480993747711,-9.740496635437012
1.7294995863937539e+18,-0.030037038028240204,-0.027390822768211365,-9.806546211242676
1.729499586402754e+18,0.025745557621121407,0.02654428780078888,-9.763274192810059
1.7294995864117542e+18,0.0630698949098587,0.019492534920573235,-9.830836296081543
1.7294995864177544e+18,0.04239967092871666,0.012836931273341179,-9.7929105758667
1.7294995864267546e+18,-0.03357108682394028,0.001704931608401239,-9.760025024414062
1.7294995864357548e+18,0.0253924410790205,-0.029457727447152138,-9.753151893615723
1.729499586441755e+18,-0.052552856504917145,0.021266436204314232,-9.840290069580078
1.729499586450755e+18,0.02010244131088257,-0.03935700282454491,-9.806109428405762
1.7294995864597553e+18,-0.08948718011379242,-0.004867992363870144,-9.800251007080078
1.7294995864657554e+18,0.05082498490810394,0.030846798792481422,-9.72195053100586
1.7294995864747556e+18,-0.03816407173871994,0.053089287132024765,-9.795278549194336
1.7294995864837558e+18,-0.03167157620191574,-0.010214741341769695,-9.815108299255371
1.729499586489756e+18,-0.0668041855096817,-0.0003030056250281632,-9.697765350341797
1.729499586498756e+18,0.00732693076133728,-0.0018345885910093784,-9.81092357635498
1.7294995865077563e+18,0.03663858026266098,0.009502320550382137,-9.746644973754883
1.7294995865137564e+18,-0.06803024560213089,-0.044566888362169266,-9.715858459472656
1.7294995865227566e+18,0.007645828183740377,0.05585990846157074,-9.813698768615723
1.7294995865287567e+18,0.050135012716054916,0.05124534294009209,-9.83878231048584
1.729499586537757e+18,0.022910447791218758,0.04399901255965233,-9.780163764953613
1.729499586546757e+18,0.03101806342601776,0.006100262515246868,-9.841007232666016
1.7294995865527572e+18,-0.005783115979284048,0.010454819537699223,-9.84517765045166
1.7294995865617574e+18,0.010794507339596748,-0.012484103441238403,-9.79279899597168
1.7294995865707576e+18,0.009651722386479378,0.060993876308202744,-9.774625778198242
1.7294995865797578e+18,0.04013480618596077,0.07322025299072266,-9.83375358581543
1.729499586585758e+18,-0.027177292853593826,-0.05747104808688164,-9.796537399291992
1.7294995865947581e+18,0.00831185095012188,0.02797316387295723,-9.885104179382324
1.7294995866037583e+18,-0.08106895536184311,0.022581852972507477,-9.814913749694824
1.7294995866097585e+18,0.051560498774051666,-0.10216457396745682,-9.81797981262207
1.7294995866187587e+18,0.009109863080084324,0.0205375999212265,-9.755094528198242
1.7294995866247588e+18,-0.02026994898915291,-0.028128303587436676,-9.844053268432617
1.729499586636759e+18,-0.01272339653223753,0.013892637565732002,-9.837468147277832
1.7294995866457592e+18,-0.05208590254187584,0.06782036274671555,-9.844752311706543
1.7294995866547594e+18,-0.03053358942270279,0.0016674248035997152,-9.813270568847656
1.7294995866637596e+18,0.025269264355301857,-0.04391563683748245,-9.711134910583496
1.7294995866757599e+18,0.08506552875041962,0.03049212321639061,-9.786295890808105
1.72949958668476e+18,0.030113214626908302,0.06313256919384003,-9.720538139343262
1.7294995866937603e+18,0.01660907082259655,-0.013762366026639938,-9.936153411865234
1.7294995867057605e+18,0.0882699191570282,-0.001404668902978301,-8.554315567016602
1.7294995867147607e+18,-0.031666871160268784,0.009233892895281315,-8.335501670837402
1.729499586723761e+18,0.056897133588790894,-0.021623123437166214,-8.597634315490723
1.729499586729761e+18,0.11847760528326035,-0.017801368609070778,-8.947054862976074
1.7294995867387612e+18,0.03670862689614296,-0.007054286077618599,-8.774625778198242
1.7294995867477614e+18,0.10466403514146805,0.0840829461812973,-8.644417762756348
1.7294995867537615e+18,0.10039091110229492,0.05916387587785721,-8.67895793914795
1.7294995867627617e+18,0.13250088691711426,0.05357236787676811,-8.769068717956543
1.729499586771762e+18,0.061451591551303864,0.044990867376327515,-8.386726379394531
1.729499586780762e+18,0.13725528120994568,0.029505033046007156,-8.160988807678223
1.7294995867867622e+18,0.044573571532964706,0.05248858034610748,-8.182170867919922
1.7294995867957624e+18,0.08734080940485,0.08172594755887985,-7.845823287963867
1.7294995868047626e+18,0.05768744647502899,0.03626062348484993,-7.8255133628845215
1.7294995868107628e+18,0.04876240715384483,0.05592925474047661,-7.753852844238281
1.729499586819763e+18,0.03133399784564972,0.056422680616378784,-7.814736366271973
1.7294995868287631e+18,0.09203243255615234,-0.004972003400325775,-7.883436679840088
1.7294995868347633e+18,0.021430645138025284,-0.022488530725240707,-7.89455509185791
1.7294995868437635e+18,0.035884130746126175,0.018854251131415367,-7.822656631469727
1.7294995868527636e+18,0.058093201369047165,0.10945969074964523,-7.664515018463135
1.7294995868617638e+18,0.07647447288036346,0.017431415617465973,-7.719381809234619
1.729499586867764e+18,-0.03460735082626343,-0.02563329041004181,-7.679186820983887
1.7294995868767642e+18,0.0004911720752716064,0.030736159533262253,-7.817870616912842
1.7294995868857644e+18,0.029114894568920135,0.01167356874793768,-7.841440200805664
1.7294995868917645e+18,0.06934244185686111,-0.07575400918722153,-7.680651664733887
1.7294995869007647e+18,0.028484903275966644,-0.023309674113988876,-7.636268138885498
1.7294995869097649e+18,-0.0003970172256231308,-0.003237270750105381,-7.430728435516357
1.729499586918765e+18,0.024747401475906372,0.01784861646592617,-7.410477161407471
1.7294995869247652e+18,0.04579239338636398,-0.033983126282691956,-7.401505947113037
1.7294995869337654e+18,0.016002926975488663,-0.008287940174341202,-7.514685153961182
1.7294995869427656e+18,0.01040823757648468,0.02852442115545273,-7.282978057861328
1.7294995869517658e+18,-0.019512314349412918,-0.04257717728614807,-7.214723110198975
1.729499586957766e+18,0.060030560940504074,-0.007616548798978329,-7.315662860870361
1.729499586966766e+18,0.011192018166184425,0.10604925453662872,-7.353321552276611
1.7294995869757663e+18,-0.07173284888267517,-0.021210040897130966,-7.263008117675781
1.7294995869847665e+18,0.08410480618476868,0.019269920885562897,-7.327916145324707
1.7294995869907666e+18,-0.0055960239842534065,0.031360071152448654,-7.283178806304932
1.7294995869997668e+18,-0.0038537117652595043,-0.008028962649405003,-7.413908958435059
1.729499587008767e+18,0.02351395972073078,-0.02399769052863121,-7.503620147705078
1.729499587014767e+18,0.019996056333184242,0.04010408744215965,-7.416257381439209
1.7294995870237673e+18,-0.03156568855047226,0.00995084922760725,-7.222115516662598
1.7294995870297674e+18,-0.028316954150795937,-0.0034528744872659445,-7.242135047912598
1.7294995870387676e+18,0.01844906620681286,0.14419499039649963,-7.362569332122803
1.7294995870477678e+18,0.07041465491056442,0.09260459989309311,-7.414798259735107
1.729499587056768e+18,0.052937984466552734,0.07566875219345093,-7.530025959014893
1.7294995870657682e+18,0.0019401507452130318,0.03809239715337753,-7.635685443878174
1.7294995870717683e+18,-0.07024587690830231,0.04225516691803932,-7.5809125900268555
1.7294995870807685e+18,0.010932695120573044,0.010210667736828327,-7.5094313621521
1.7294995870897687e+18,0.002020125277340412,0.03873582184314728,-7.557044982910156
1.7294995870957688e+18,0.03762643039226532,-0.035405054688453674,-7.667003154754639
1.729499587104769e+18,-0.0045397281646728516,-0.048152316361665726,-7.745112419128418
1.7294995871137692e+18,-0.0634842962026596,0.008046364411711693,-7.720961093902588
1.7294995871227694e+18,0.014782866463065147,-0.0029897752683609724,-7.571619033813477
1.7294995871287695e+18,-0.009166909381747246,-0.004115093965083361,-7.690822124481201
1.7294995871377697e+18,0.0477147214114666,0.03903624042868614,-7.718424320220947
1.72949958714677e+18,0.015903126448392868,-0.039966315031051636,-7.619309902191162
1.72949958715277e+18,-0.026486385613679886,0.11567968130111694,-7.659604072570801
1.7294995871617702e+18,-0.053620848804712296,-0.03999922052025795,-7.747261047363281
1.7294995871677704e+18,0.03883390128612518,-0.00016146083362400532,-7.754593372344971
1.7294995871767706e+18,0.0189598947763443,0.010942661203444004,-7.852738857269287
1.7294995871857708e+18,0.046858951449394226,0.018377138301730156,-7.7450690269470215
1.729499587194771e+18,-0.07672817260026932,-0.05115185305476189,-7.742475509643555
1.729499587200771e+18,-0.0536612905561924,0.06568660587072372,-7.767380237579346
1.7294995872097713e+18,-0.04520401731133461,-0.03227364271879196,-7.829654693603516
1.7294995872187715e+18,-0.004144103731960058,-0.021942075341939926,-7.895471572875977
1.7294995872247716e+18,-0.03846985846757889,-0.013476352207362652,-7.964462757110596
1.7294995872337718e+18,-0.009795927442610264,0.012791264802217484,-7.99537467956543
1.729499587242772e+18,-0.021380629390478134,0.06697864085435867,-8.048404693603516
1.729499587248772e+18,-0.020595718175172806,-0.045447513461112976,-8.085508346557617
1.7294995872577723e+18,0.03824847191572189,-0.09135895222425461,-8.01442813873291
1.7294995872667725e+18,0.01788933016359806,-0.02900654450058937,-8.139182090759277
1.7294995872727726e+18,-0.041410841047763824,0.009281995706260204,-8.17022705078125
1.7294995872817728e+18,-0.1225198432803154,0.019142450764775276,-8.142965316772461
1.729499587290773e+18,0.004469962790608406,-0.04654233157634735,-8.226941108703613
1.7294995872997732e+18,0.01781558245420456,-0.022036146372556686,-8.275595664978027
1.7294995873057733e+18,-0.007684049662202597,-0.1318533718585968,-8.181466102600098
1.7294995873147735e+18,-0.05035174638032913,-0.05595201626420021,-8.333157539367676
1.7294995873237737e+18,-0.004155055154114962,-0.012277640402317047,-8.378045082092285
1.7294995873297738e+18,0.06198028475046158,0.049896374344825745,-8.318004608154297
1.729499587338774e+18,0.008540578186511993,0.09259575605392456,-8.423858642578125
1.7294995873477742e+18,-0.0403762012720108,0.008253166452050209,-8.448265075683594
1.7294995873537743e+18,-0.09108342230319977,-0.09072685986757278,-8.485790252685547
1.7294995873627745e+18,-0.014934590086340904,0.03732147440314293,-8.431816101074219
1.7294995873717747e+18,-0.017410894855856895,-0.01197128277271986,-7.256772041320801
1.7294995873777748e+18,0.004424019251018763,-0.09729008376598358,-6.97184419631958
1.729499587386775e+18,0.06748004257678986,0.016887441277503967,-6.889925479888916
1.7294995873957752e+18,0.007146833930164576,0.046044666320085526,-6.945369720458984
1.7294995874047754e+18,0.005918240174651146,0.020352965220808983,-7.042449951171875
1.7294995874107756e+18,0.014735337346792221,0.0711626335978508,-7.092643737792969
1.7294995874197757e+18,-0.013043414801359177,-0.05011144280433655,-7.106281757354736
1.729499587434776e+18,-0.032998163253068924,-0.022852996364235878,-7.270145893096924
1.7294995874437763e+18,0.03541615605354309,0.00988965667784214,-7.396936893463135
1.7294995874497764e+18,0.04472227394580841,0.022983577102422714,-7.491598606109619
1.7294995874587766e+18,-0.10703563690185547,-0.09200748801231384,-7.544666767120361
1.7294995874647767e+18,0.0576123483479023,-0.019665421918034554,-7.607823848724365
1.729499587473777e+18,-0.015286706387996674,-0.061972279101610184,-7.646389484405518
1.729499587482777e+18,0.022854173555970192,0.007734968792647123,-7.641578197479248
1.7294995874917773e+18,0.1045178472995758,-0.05163783207535744,-7.8058061599731445
1.7294995875007775e+18,0.020879514515399933,-0.05905711650848389,-7.892893314361572
1.7294995875157778e+18,-0.0028325747698545456,-0.02599857933819294,-7.907318115234375
1.729499587521778e+18,-0.02111973986029625,-0.004931779112666845,-7.924211025238037
1.729499587530778e+18,0.01628231257200241,0.014820536598563194,-8.050542831420898
1.7294995875397783e+18,0.07244844734668732,-0.057642851024866104,-8.14833927154541
1.7294995875487785e+18,-0.004213124513626099,0.07585246115922928,-8.205958366394043
1.7294995875577787e+18,0.07836412638425827,-0.12511765956878662,-8.207798957824707
1.7294995875637788e+18,0.05078325420618057,0.06202605366706848,-8.283123970031738
1.729499587572779e+18,0.10460974276065826,0.05923611670732498,-8.25953197479248
1.7294995875817792e+18,0.07935206592082977,0.0513240285217762,-8.394681930541992
1.7294995875877793e+18,0.0786948949098587,-0.05355794355273247,-8.411343574523926
1.7294995875967795e+18,0.08624438941478729,-0.0820099413394928,-8.399919509887695
1.7294995876057797e+18,0.022976582869887352,0.055350806564092636,-8.53551197052002
1.7294995876117798e+18,0.06377124041318893,-0.0016176104545593262,-8.511073112487793
1.72949958762078e+18,-0.024596281349658966,0.05350032076239586,-8.590106010437012
1.7294995876297802e+18,0.13588213920593262,-0.003279580734670162,-8.5172758102417
1.7294995876357804e+18,0.027495592832565308,-0.02625899761915207,-8.594773292541504
1.7294995876447805e+18,0.10533188283443451,-0.04508545622229576,-8.677186965942383
1.7294995876537807e+18,0.03935614973306656,-0.03706503286957741,-8.663280487060547
1.729499587662781e+18,0.045443326234817505,0.023024898022413254,-8.788822174072266
1.729499587671781e+18,0.08499062806367874,0.0708819329738617,-8.820272445678711
1.7294995876807813e+18,0.02315179444849491,0.010783876292407513,-8.813644409179688
1.7294995876897815e+18,0.006908472627401352,-0.06431293487548828,-8.824426651000977
1.7294995876957816e+18,0.03673075512051582,0.02778385765850544,-8.905847549438477
1.7294995877047818e+18,0.09666429460048676,0.02644183486700058,-8.851786613464355
1.729499587710782e+18,-0.0018909722566604614,-0.024077080190181732,-8.925183296203613
1.7294995877197821e+18,-0.004991892725229263,0.04883400350809097,-9.017036437988281
1.7294995877287823e+18,0.09751629829406738,0.010390451177954674,-8.917863845825195
1.7294995877347825e+18,0.16261520981788635,-0.015103621408343315,-8.966487884521484
1.7294995877437827e+18,0.09602855145931244,-0.05745441094040871,-9.0436429977417
1.7294995877497828e+18,0.031178895384073257,-0.04708333685994148,-9.093353271484375
1.729499587758783e+18,-0.0015066303312778473,-0.06628857553005219,-9.077275276184082
1.7294995877677832e+18,0.033231623470783234,0.001668240875005722,-9.113761901855469
1.7294995877767834e+18,0.004377767443656921,-0.006001807749271393,-9.10595417022705
1.7294995877857836e+18,0.09028008580207825,0.010333426296710968,-9.247379302978516
1.7294995877947837e+18,0.10993198305368423,-0.02348039112985134,-9.10420036315918
1.729499587803784e+18,0.048330146819353104,-0.06255760788917542,-9.234701156616211
1.729499587809784e+18,0.043055929243564606,0.012134597636759281,-9.106457710266113
1.7294995878187843e+18,0.023468121886253357,-0.07357491552829742,-10.466781616210938
1.7294995878277844e+18,0.0358792319893837,0.040651071816682816,-10.638960838317871
1.7294995878337846e+18,0.0612824410200119,0.026589278131723404,-10.722532272338867
1.7294995878427848e+18,0.07039578258991241,-0.012085171416401863,-10.812186241149902
1.729499587851785e+18,0.03206166252493858,0.05896513909101486,-10.731921195983887
1.7294995878607852e+18,0.061776772141456604,0.048024848103523254,-10.769299507141113
1.7294995878667853e+18,0.026524323970079422,-0.05275656282901764,-10.771242141723633
1.7294995878757855e+18,0.023060332983732224,0.005391821265220642,-10.867656707763672
1.7294995878817856e+18,0.05932438746094704,-0.006327420473098755,-10.75944995880127
1.7294995878907858e+18,0.06071685627102852,0.01798764243721962,-10.805763244628906
1.729499587899786e+18,0.08093100041151047,0.02470989152789116,-10.782856941223145
1.729499587905786e+18,0.1249561533331871,0.04985501989722252,-10.781234741210938
1.7294995879147863e+18,0.0668068453669548,-0.024812951683998108,-10.716513633728027
1.7294995879237865e+18,0.16848325729370117,-0.04197144880890846,-10.766548156738281
1.7294995879297866e+18,0.09491295367479324,-0.004422306083142757,-10.724992752075195
1.7294995879387868e+18,0.15542425215244293,-0.012636076658964157,-10.756551742553711
1.729499587944787e+18,0.10838324576616287,0.1337270885705948,-10.872349739074707
1.7294995879537871e+18,0.07073502242565155,0.028312822803854942,-10.747223854064941
1.7294995879627873e+18,0.04223240911960602,-0.028757764026522636,-10.756872177124023
1.7294995879717875e+18,0.16781646013259888,0.036145344376564026,-10.79471492767334
1.7294995879777876e+18,0.09790871292352676,0.027516771107912064,-10.843698501586914
1.7294995879867878e+18,0.07790862023830414,0.02641475759446621,-10.775726318359375
