timestamp,accel_x,accel_y,accel_z
1.729496330721301e+18,-0.02733282372355461,0.008908452466130257,-9.775964736938477
1.7294963307303012e+18,-0.040864039212465286,-0.021825037896633148,-9.79648208618164
1.7294963307393014e+18,0.001109495060518384,-0.11541011929512024,-9.87667465209961
1.7294963307483016e+18,0.023756342008709908,-0.024406760931015015,-9.769341468811035
1.7294963307573018e+18,0.03284071013331413,0.0042478181421756744,-9.78647232055664
1.729496330763302e+18,0.01246744766831398,0.017225585877895355,-9.829477310180664
1.729496330772302e+18,0.007481431122869253,-0.005979115143418312,-9.805207252502441
1.7294963307813023e+18,-0.03290725499391556,0.02396196685731411,-9.845817565917969
1.7294963307903025e+18,0.03204350173473358,-0.02442067861557007,-9.794593811035156
1.7294963307993027e+18,0.0616481676697731,-0.020327292382717133,-9.727182388305664
1.7294963308053028e+18,0.06301369518041611,-0.00022722140420228243,-9.727377891540527
1.729496330814303e+18,0.006084379740059376,0.05058498680591583,-9.841952323913574
1.7294963308233032e+18,0.03094112128019333,0.0008602754096500576,-9.838700294494629
1.7294963308323034e+18,-0.03958212584257126,-0.022062884643673897,-9.773906707763672
1.7294963308413036e+18,-0.003305749734863639,-0.027171429246664047,-9.747056007385254
1.7294963308503037e+18,0.019737621769309044,-0.016742179170250893,-9.713119506835938
1.7294963308563039e+18,0.08928549289703369,0.0434962622821331,-9.8428373336792
1.729496330865304e+18,-0.017582857981324196,0.05292129889130592,-9.780523300170898
1.7294963308743043e+18,0.008672908879816532,-0.013573136180639267,-9.79002857208252
1.7294963308833044e+18,-0.02550029568374157,0.07945060729980469,-9.83902645111084
1.7294963308923046e+18,0.03032737970352173,0.056651920080184937,-9.794546127319336
1.7294963308983048e+18,-0.061312995851039886,0.019327040761709213,-9.839563369750977
1.729496330907305e+18,0.026141457259655,0.025571899488568306,-9.782402038574219
1.7294963309163052e+18,-0.0867675393819809,-0.021328769624233246,-9.898369789123535
1.7294963309253053e+18,0.09152038395404816,-0.018155980855226517,-9.838630676269531
1.7294963309313055e+18,0.0364634245634079,0.07719799876213074,-9.773249626159668
1.7294963309403057e+18,0.020969852805137634,-0.08300148695707321,-9.76002311706543
1.729496330952306e+18,-0.04984956607222557,-0.07252790778875351,-9.843379974365234
1.729496330958306e+18,0.021877260878682137,-0.03845404088497162,-9.845015525817871
1.7294963309673062e+18,-0.003401914145797491,-0.009301385842263699,-9.768136024475098
1.7294963309763064e+18,0.023408731445670128,0.004429277963936329,-9.90025520324707
1.7294963309853066e+18,-0.040192026644945145,0.04315517842769623,-9.776028633117676
1.7294963309943068e+18,-0.011609033681452274,0.025018300861120224,-9.761116027832031
1.729496331003307e+18,-0.020294323563575745,0.0353919081389904,-9.804898262023926
1.7294963310123072e+18,-0.03612037003040314,0.020377811044454575,-9.83731460571289
1.7294963310213074e+18,0.04102976620197296,0.06102289259433746,-9.796406745910645
1.7294963310303076e+18,-0.03446181118488312,-0.014215487986803055,-9.73239517211914
1.7294963310393078e+18,0.004132447298616171,-0.06398463249206543,-9.795306205749512
1.729496331048308e+18,-0.04194898530840874,-0.00027791073080152273,-9.805079460144043
1.729496331054308e+18,0.06345945596694946,0.0039371829479932785,-9.893482208251953
1.7294963310663084e+18,0.006377773825079203,-0.02223581075668335,-9.819367408752441
1.7294963310753085e+18,0.06731268763542175,-0.02317374013364315,-9.783608436584473
1.7294963310813087e+18,0.003064292948693037,0.0028741878923028708,-9.76102066040039
1.7294963310903089e+18,0.019636858254671097,0.03760024160146713,-9.744543075561523
1.729496331099309e+18,0.04876251518726349,0.02427724376320839,-9.826058387756348
1.7294963311083092e+18,0.05876918509602547,-0.02658689394593239,-9.795141220092773
1.7294963311173094e+18,-0.047124654054641724,0.0345415361225605,-9.7908296585083
1.7294963311263096e+18,-0.0488426648080349,0.01733773574233055,-9.82678508758545
1.7294963311323098e+18,-0.017746852710843086,-0.053871605545282364,-9.847588539123535
1.72949633114131e+18,0.002968566957861185,-0.00030409349710680544,-9.816078186035156
1.7294963311503101e+18,-0.015675121918320656,-0.006323422305285931,-9.707894325256348
1.7294963311593103e+18,0.039191681891679764,-0.00031726411543786526,-9.843294143676758
1.7294963311683105e+18,0.06941208243370056,-0.023544050753116608,-9.77774715423584
1.7294963311773107e+18,-0.006311402656137943,0.046827297657728195,-9.751362800598145
1.7294963311833108e+18,-0.030602790415287018,-0.023395339027047157,-9.786091804504395
1.729496331192311e+18,0.00570523040369153,0.01848621666431427,-9.741623878479004
1.7294963312013112e+18,-0.019734058529138565,0.02745318040251732,-9.861019134521484
1.7294963312103114e+18,0.046178124845027924,-0.005184417124837637,-9.764554977416992
1.7294963312193116e+18,-0.010874024592339993,0.0023272731341421604,-9.796311378479004
1.7294963312283118e+18,-0.023641616106033325,-0.0347517691552639,-9.865585327148438
1.729496331237312e+18,0.02515058033168316,0.011198628693819046,-9.852242469787598
1.729496331243312e+18,-0.00014308489335235208,0.007204157765954733,-9.67915153503418
1.7294963312523123e+18,-0.060335785150527954,0.05184170976281166,-9.78159236907959
1.7294963312613125e+18,-0.017344754189252853,-0.06009059399366379,-9.796183586120605
1.7294963312703127e+18,-0.04183454066514969,0.028439734131097794,-9.795985221862793
1.729496331279313e+18,-0.07125489413738251,-0.09277516603469849,-9.873207092285156
1.729496331285313e+18,-0.021128032356500626,-0.008128907531499863,-9.743719100952148
1.7294963312943132e+18,0.025660652667284012,-0.0213969387114048,-9.822907447814941
1.7294963313033134e+18,0.032013650983572006,-0.051695603877305984,-9.805468559265137
1.7294963313123136e+18,0.051262956112623215,0.0032584862783551216,-9.827664375305176
1.7294963313183137e+18,0.0005626587080769241,-0.006130214314907789,-9.775272369384766
1.729496331327314e+18,-0.016502421349287033,0.06944940239191055,-9.787006378173828
1.729496331333314e+18,0.05751805752515793,0.047272149473428726,-9.832592010498047
1.7294963313423142e+18,0.014576619490981102,0.02385900728404522,-9.773649215698242
1.7294963313513144e+18,0.08081652224063873,0.05280199646949768,-9.869050025939941
1.7294963313603146e+18,0.043296124786138535,0.08572753518819809,-9.77904224395752
1.7294963313663148e+18,-0.04784136638045311,-0.007939196191728115,-9.743338584899902
1.729496331375315e+18,-0.022327912971377373,-0.05292815715074539,-9.86828327178955
1.7294963313843151e+18,0.06226100027561188,-0.05166548863053322,-9.79412841796875
1.7294963313933153e+18,-0.04787210747599602,-0.05313132330775261,-9.810966491699219
1.7294963314023155e+18,-0.05820724740624428,-0.05315614119172096,-9.85649585723877
1.7294963314083156e+18,-0.009178174659609795,0.0018175897421315312,-9.825580596923828
1.7294963314173158e+18,-0.018571341410279274,0.03076249174773693,-9.805281639099121
1.729496331426316e+18,-0.0006471973611041903,0.07346533983945847,-9.87022876739502
1.7294963314353162e+18,-0.009133522398769855,0.007860084995627403,-9.842103004455566
1.7294963314413164e+18,0.0029568884056061506,-0.0336075983941555,-9.769388198852539
1.7294963314503165e+18,0.02102452516555786,0.005738780368119478,-9.796843528747559
1.7294963314593167e+18,-0.025041429325938225,-0.07673412561416626,-9.812432289123535
1.729496331468317e+18,0.05766989290714264,0.025092409923672676,-9.748374938964844
1.729496331474317e+18,-0.02113533578813076,0.017957249656319618,-9.76205825805664
1.7294963314833172e+18,0.0003669092257041484,-0.018688004463911057,-9.781819343566895
1.7294963314893174e+18,-0.013142921030521393,-0.029309188947081566,-9.803510665893555
1.7294963314983176e+18,-0.03911128267645836,0.01278340257704258,-9.795116424560547
1.7294963315073178e+18,-0.0417957566678524,-0.026779931038618088,-9.805448532104492
1.729496331516318e+18,0.11281716823577881,-0.04473750293254852,-9.841405868530273
1.7294963315253181e+18,-0.040789540857076645,-0.04280850291252136,-9.861468315124512
1.7294963315343183e+18,-0.012413778342306614,-0.005872944835573435,-9.791153907775879
1.7294963315433185e+18,0.03262443095445633,-0.04171822592616081,-9.831131935119629
1.7294963315523187e+18,0.0362597294151783,0.0027094350662082434,-9.79446792602539
1.7294963315583188e+18,-0.01573636382818222,-0.018337640911340714,-9.794777870178223
1.729496331567319e+18,0.02184375748038292,0.09349320828914642,-9.850602149963379
1.7294963315763192e+18,0.018026426434516907,0.062080614268779755,-9.778820037841797
1.7294963315823194e+18,0.023762520402669907,0.011619971133768559,-9.87731647491455
1.7294963315913196e+18,-0.08716444671154022,0.038809262216091156,-9.771842956542969
1.7294963316003197e+18,-0.02647782862186432,-0.008593871258199215,-9.837501525878906
1.72949633160932e+18,-0.004852211568504572,0.05134453997015953,-9.843615531921387
1.7294963316183201e+18,0.01600898988544941,-0.06157119944691658,-9.7676420211792
1.7294963316273203e+18,-0.02025800570845604,0.03432479500770569,-9.835722923278809
1.7294963316363205e+18,-0.07179209589958191,0.11162543296813965,-9.785958290100098
1.7294963316423206e+18,-0.12721306085586548,-0.03288514167070389,-9.784035682678223
1.7294963316513208e+18,0.020987944677472115,0.06324577331542969,-9.876550674438477
1.729496331660321e+18,-0.019661856815218925,0.024512240663170815,-9.79544734954834
1.7294963316693212e+18,-0.016648270189762115,0.015372869558632374,-9.814011573791504
1.7294963316783214e+18,-0.07696479558944702,0.0002856352075468749,-9.887819290161133
1.7294963316843215e+18,-0.04905606061220169,-0.005725017748773098,-9.726710319519043
1.7294963316933217e+18,0.013029299676418304,0.023328429087996483,-9.801915168762207
1.729496331702322e+18,-0.0012136467266827822,-0.03423500433564186,-9.768177032470703
1.729496331708322e+18,0.00020407536067068577,0.0011722455965355039,-9.806861877441406
1.7294963317173222e+18,0.053957488387823105,0.00765595305711031,-9.853434562683105
1.7294963317263224e+18,-0.01947440579533577,-0.05529983714222908,-9.793340682983398
1.7294963317353226e+18,0.023183632642030716,-0.0821472555398941,-9.725977897644043
1.7294963317413228e+18,0.06802969425916672,-0.003097462235018611,-9.826720237731934
1.729496331750323e+18,-0.028748128563165665,-0.026466500014066696,-9.841748237609863
1.729496331756323e+18,-0.008498216979205608,0.07155122607946396,-9.825630187988281
1.7294963317653233e+18,0.05952828750014305,0.06215834245085716,-9.885041236877441
1.7294963317743235e+18,0.017207615077495575,-0.0040252069011330605,-9.668176651000977
1.7294963317803236e+18,-0.07995954155921936,-0.03358285874128342,-9.76688003540039
1.7294963317893238e+18,0.07074274122714996,0.033153560012578964,-9.803979873657227
1.729496331798324e+18,-0.03365635126829147,0.005251663271337748,-9.781826972961426
1.7294963318073242e+18,0.06667929142713547,0.006199161056429148,-9.815655708312988
1.7294963318163244e+18,-0.05526667460799217,-0.04243181645870209,-9.829882621765137
1.7294963318223245e+18,0.04015876352787018,-0.06132322549819946,-9.860296249389648
1.7294963318313247e+18,-0.05720655247569084,0.08025228977203369,-9.816150665283203
1.7294963318403249e+18,0.06871608644723892,-0.03646503761410713,-9.795260429382324
1.729496331846325e+18,0.07770393788814545,0.014305473305284977,-9.809639930725098
1.7294963318553252e+18,0.05080846697092056,-0.0028717280365526676,-9.834988594055176
1.7294963318643254e+18,-0.04762282222509384,0.010949693620204926,-9.808450698852539
1.7294963318733256e+18,0.14852885901927948,0.05043487250804901,-9.849802017211914
1.7294963318793257e+18,0.023805692791938782,0.004720684606581926,-9.852167129516602
1.729496331888326e+18,0.012979166582226753,0.030764935538172722,-9.817527770996094
1.729496331897326e+18,-0.07388433068990707,0.0037729409523308277,-9.817723274230957
1.7294963319063263e+18,0.04433015361428261,-0.04474766552448273,-9.8350191116333
1.7294963319153265e+18,-0.0585835762321949,0.0011712678242474794,-9.786087989807129
1.7294963319213266e+18,0.050324469804763794,-0.025239355862140656,-9.827845573425293
1.7294963319303268e+18,0.06576459854841232,0.09298042207956314,-9.7857027053833
1.729496331939327e+18,-0.04234553128480911,0.06827893853187561,-9.735356330871582
1.7294963319483272e+18,0.05262592062354088,0.028834907338023186,-9.778136253356934
1.7294963319573274e+18,-0.05004024878144264,-0.020397216081619263,-9.774092674255371
1.7294963319633275e+18,-0.057529546320438385,0.02133803255856037,-9.775137901306152
1.7294963319723277e+18,-0.015854477882385254,-0.047546934336423874,-9.81223201751709
1.729496331981328e+18,0.1196790263056755,0.02005218341946602,-9.7228422164917
1.729496331987328e+18,0.03470262885093689,-0.00029065279522910714,-9.90001106262207
1.7294963319963282e+18,0.03692077100276947,-0.005989156663417816,-9.828583717346191
1.7294963320053284e+18,0.011061671189963818,-0.04703957587480545,-9.805532455444336
1.7294963320143286e+18,-0.012607188895344734,0.09669981151819229,-9.738819122314453
1.7294963320233288e+18,-0.003723344299942255,0.016211070120334625,-9.749234199523926
1.729496332029329e+18,0.012871284037828445,0.08769544959068298,-9.79008960723877
1.729496332038329e+18,-0.09309104830026627,0.012812839820981026,-9.73734188079834
1.7294963320443292e+18,0.03478018939495087,-0.007003439590334892,-9.782228469848633
1.7294963320533294e+18,-0.013678237795829773,-0.07733449339866638,-9.806999206542969
1.7294963320623296e+18,-0.006428773049265146,-0.006378917954862118,-9.84174919128418
1.7294963320683297e+18,0.06874628365039825,-0.030030159279704094,-9.749652862548828
1.72949633207733e+18,0.03899647295475006,-0.05708421766757965,-9.685410499572754
1.72949633208633e+18,0.016591394320130348,0.031916543841362,-9.7774658203125
1.7294963320953303e+18,0.04025958105921745,-0.04224521294236183,-9.774231910705566
1.7294963321043305e+18,0.030730638653039932,-0.05672288313508034,-9.805024147033691
1.7294963321103306e+18,-0.10539773851633072,0.057044144719839096,-9.80332088470459
1.7294963321193308e+18,-0.04431632533669472,0.007223460357636213,-9.727253913879395
1.729496332128331e+18,0.01835428737103939,0.041487883776426315,-9.71927261352539
1.7294963321373312e+18,-0.08231735229492188,-0.007154977414757013,-9.849933624267578
1.7294963321463314e+18,0.06908755749464035,-0.0258307084441185,-9.836553573608398
1.7294963321523315e+18,0.017740268260240555,0.021104665473103523,-9.761870384216309
1.7294963321613317e+18,0.01814619079232216,0.04154064133763313,-9.8192138671875
1.729496332170332e+18,0.016905637457966805,-0.0644393190741539,-9.842238426208496
1.729496332179332e+18,0.03622189536690712,-0.047264307737350464,-9.810193061828613
1.7294963321883323e+18,0.01050201803445816,0.021522091701626778,-9.794554710388184
1.7294963321943324e+18,-0.026091597974300385,-0.010175509378314018,-9.805532455444336
1.7294963322033326e+18,0.07317111641168594,0.06381778419017792,-9.816424369812012
1.7294963322093327e+18,-0.016123609617352486,-0.050628531724214554,-9.819235801696777
1.729496332221333e+18,0.055065419524908066,0.004752106033265591,-9.853668212890625
1.729496332227333e+18,-0.06503093242645264,-0.07534695416688919,-9.814787864685059
1.7294963322363333e+18,0.03280144929885864,0.01638753153383732,-9.855030059814453
1.7294963322453335e+18,0.03664860129356384,0.04385141655802727,-9.798974990844727
1.7294963322513336e+18,-0.024462880566716194,-0.060135792940855026,-9.80126667022705
1.7294963322603338e+18,0.0015469755744561553,0.031463854014873505,-9.766231536865234
1.729496332269334e+18,-0.016055157408118248,-0.004834154155105352,-9.82543659210205
1.7294963322783342e+18,0.01114766113460064,0.005443052388727665,-9.74117660522461
1.7294963322843343e+18,0.033266957849264145,0.040912237018346786,-9.83825397491455
1.7294963322933345e+18,-0.06546294689178467,-0.014644862152636051,-9.785524368286133
1.7294963323023347e+18,0.03802626207470894,0.010118763893842697,-9.83283805847168
1.729496332311335e+18,0.025702213868498802,0.02678864262998104,-9.747702598571777
1.729496332317335e+18,-0.013347973115742207,0.008686079643666744,-9.806968688964844
1.7294963323263352e+18,0.04490912705659866,0.042184602469205856,-9.736661911010742
1.7294963323353354e+18,-0.04071078822016716,-0.07369597256183624,-9.835111618041992
1.7294963323443356e+18,0.008534683845937252,-0.010471181944012642,-9.73107624053955
1.7294963323533358e+18,0.036444924771785736,0.05286826193332672,-9.744110107421875
1.729496332362336e+18,-0.04125317186117172,-0.001211765338666737,-9.797975540161133
1.7294963323683361e+18,-0.07496405392885208,0.05176612362265587,-9.85888671875
1.7294963323773363e+18,-0.011835862882435322,-0.06745301187038422,-9.91540241241455
1.7294963323863365e+18,0.058786116540431976,-0.0180654339492321,-9.798175811767578
1.7294963323953367e+18,-0.055098649114370346,0.05015714839100838,-9.837589263916016
1.729496332404337e+18,-0.01021886058151722,-0.06268388777971268,-9.74610710144043
1.729496332410337e+18,-0.033510468900203705,0.05846395716071129,-9.800127029418945
1.7294963324193372e+18,0.10170852392911911,-0.01488939207047224,-9.812798500061035
1.7294963324283374e+18,0.04728890582919121,0.03941946104168892,-9.806070327758789
1.7294963324343375e+18,0.012260166928172112,0.004742276389151812,-9.86148452758789
1.7294963324433377e+18,0.04714697226881981,0.06381502002477646,-9.792462348937988
1.729496332452338e+18,-0.010355289094150066,-0.007674232590943575,-9.79573917388916
1.729496332461338e+18,-0.006853159982711077,0.006454696413129568,-9.795605659484863
1.7294963324673382e+18,-0.03031962923705578,-0.062018346041440964,-9.796082496643066
1.7294963324763384e+18,-0.04881518334150314,0.01989111118018627,-9.778313636779785
1.7294963324853386e+18,0.010337063111364841,0.040852442383766174,-9.818448066711426
1.7294963324913388e+18,-0.06029442697763443,-0.04578598216176033,-9.837690353393555
1.729496332500339e+18,-0.04926855117082596,0.07200392335653305,-9.764859199523926
1.7294963325093391e+18,0.031945377588272095,0.026110228151082993,-9.78954792022705
1.7294963325183393e+18,0.01327547151595354,0.01777483895421028,-9.851861953735352
1.7294963325243395e+18,0.036233123391866684,0.05404219776391983,-9.83313274383545
1.7294963325333396e+18,-0.07078731805086136,0.010148989968001842,-9.840347290039062
1.7294963325423398e+18,0.05765341967344284,-0.02861740067601204,-9.76923942565918
1.72949633255134e+18,-0.04307321086525917,-0.0022555047180503607,-9.840115547180176
1.7294963325603402e+18,-0.02338823676109314,-0.009929734282195568,-9.879617691040039
1.7294963325663404e+18,-0.009437688626348972,0.020989883691072464,-9.780874252319336
1.7294963325753405e+18,0.027669189497828484,0.026774009689688683,-9.86174488067627
1.7294963325843407e+18,-0.022518262267112732,-0.0015065774787217379,-9.746044158935547
1.729496332593341e+18,-0.040973152965307236,-0.08927800506353378,-9.802203178405762
1.729496332599341e+18,0.029434366151690483,0.0007541120867244899,-9.775165557861328
1.7294963326083412e+18,0.042160749435424805,0.004385432228446007,-9.802214622497559
1.7294963326143414e+18,-0.00983770564198494,-0.002446535974740982,-9.808119773864746
1.7294963326233416e+18,-0.011794297955930233,-0.12318748980760574,-9.884712219238281
1.7294963326323418e+18,-0.011615916155278683,0.026505781337618828,-9.89354419708252
1.729496332641342e+18,-0.03457527607679367,0.07427114993333817,-9.844779968261719
1.7294963326503421e+18,0.056186139583587646,-0.04405049979686737,-9.837453842163086
1.7294963326593423e+18,0.007555275224149227,0.024821124970912933,-9.88860034942627
1.7294963326683425e+18,0.04084184765815735,0.012899505905807018,-9.953721046447754
1.7294963326743427e+18,-0.04436090588569641,0.019191455096006393,-9.992359161376953
1.7294963326833428e+18,-0.09313896298408508,-0.04136409983038902,-9.973319053649902
1.729496332692343e+18,0.0043433066457509995,0.002323933644220233,-10.006163597106934
1.7294963326983432e+18,0.06464223563671112,0.04145609587430954,-10.026562690734863
1.7294963327073434e+18,0.060944728553295135,-0.015576000325381756,-10.05013370513916
1.7294963327163436e+18,-0.0552355982363224,0.0052430285140872,-9.986489295959473
1.7294963327253437e+18,0.024031560868024826,-0.012439694255590439,-10.055237770080566
1.729496332734344e+18,-0.02324390597641468,0.0612795427441597,-10.020485877990723
1.729496332743344e+18,0.0441218838095665,0.07903896272182465,-10.149523735046387
1.7294963327493443e+18,0.012911055237054825,-0.07312173396348953,-10.164165496826172
1.7294963327583444e+18,-0.00910491868853569,0.016557471826672554,-10.109746932983398
1.7294963327673446e+18,-0.06240107864141464,-0.02011391893029213,-10.25860595703125
1.7294963327733448e+18,-0.03589021414518356,0.012604237534105778,-10.338664054870605
1.729496332785345e+18,0.06729243695735931,-0.024883955717086792,-10.469974517822266
1.7294963327943452e+18,-0.04285896196961403,-0.013130679726600647,-10.422772407531738
1.7294963328003453e+18,0.01106251124292612,0.09687420725822449,-10.49899959564209
1.7294963328093455e+18,-0.03078462742269039,-0.007912260480225086,-10.437819480895996
1.7294963328183457e+18,-0.008532227948307991,0.07090812176465988,-10.543533325195312
1.729496332827346e+18,-0.09587547183036804,-0.019445020705461502,-10.577372550964355
1.729496332833346e+18,0.045617297291755676,0.020788244903087616,-10.495118141174316
1.7294963328423462e+18,-0.00970021728426218,-0.028519971296191216,-10.534682273864746
1.7294963328513464e+18,0.03563029319047928,0.047178592532873154,-10.497904777526855
1.7294963328603466e+18,-0.00767133804038167,-0.04270591214299202,-10.527403831481934
1.7294963328693468e+18,-0.03947802633047104,0.06253182142972946,-10.521254539489746
1.729496332875347e+18,-0.019336635246872902,-0.023586619645357132,-10.548843383789062
1.7294963328843471e+18,-0.020666707307100296,0.00017197879788000137,-10.410612106323242
1.7294963328933473e+18,0.0733565017580986,-0.032840631902217865,-10.539728164672852
1.7294963329023475e+18,0.02826528437435627,-0.04502195119857788,-10.565643310546875
1.7294963329113477e+18,-0.007412515580654144,-0.05312720686197281,-10.59447193145752
1.7294963329173478e+18,0.048987191170454025,0.044889770448207855,-10.51794719696045
1.729496332926348e+18,-0.009233390912413597,-0.022722966969013214,-10.596342086791992
1.7294963329353482e+18,-0.060773786157369614,0.025607211515307426,-10.575921058654785
1.7294963329443484e+18,-0.019066262990236282,0.06283973902463913,-10.605607032775879
1.7294963329533486e+18,0.04590170830488205,-0.0037790245842188597,-10.571093559265137
1.7294963329623488e+18,0.010858595371246338,0.040702998638153076,-10.545371055603027
1.729496332968349e+18,0.0047946288250386715,0.05260058864951134,-10.546538352966309
1.729496332977349e+18,0.054818879812955856,0.1115136370062828,-10.52865982055664
1.7294963329833492e+18,-0.01091623306274414,0.07099047303199768,-10.630171775817871
1.7294963329923494e+18,-0.0023244996555149555,-0.10724077373743057,-10.529472351074219
1.7294963330013496e+18,-0.0062482282519340515,-0.04914368689060211,-10.632150650024414
1.7294963330103498e+18,0.062381431460380554,0.012116515077650547,-10.590214729309082
1.72949633301935e+18,-0.017976852133870125,0.023679014295339584,-10.495214462280273
1.7294963330283502e+18,-0.06626337766647339,-0.03938007727265358,-10.587250709533691
1.7294963330343503e+18,-0.006174297537654638,0.024275118485093117,-10.628643035888672
1.7294963330433505e+18,-0.037173181772232056,-0.010809136554598808,-10.545123100280762
1.7294963330493507e+18,-0.008585629053413868,-0.03308955952525139,-10.608240127563477
1.7294963330583508e+18,0.0009646598482504487,-0.01570969820022583,-10.534053802490234
1.729496333067351e+18,0.008027317002415657,0.05119863152503967,-10.648859024047852
1.7294963330733512e+18,0.03543214127421379,-0.09732779860496521,-10.65346908569336
1.7294963330823514e+18,-0.010468995198607445,-0.01784059964120388,-10.586289405822754
1.7294963330913516e+18,-0.005087971221655607,-0.002691418631002307,-10.508916854858398
1.7294963330973517e+18,0.005802676547318697,0.003415488637983799,-10.57231616973877
1.7294963331063519e+18,0.009802079759538174,0.047860365360975266,-10.557560920715332
1.729496333115352e+18,-0.023119056597352028,0.01951437257230282,-10.650276184082031
1.7294963331243523e+18,-0.025852123275399208,0.05164257436990738,-10.62984561920166
1.7294963331333524e+18,-0.002006598748266697,0.056035980582237244,-10.594192504882812
1.7294963331393526e+18,0.06135177984833717,-0.023618977516889572,-10.617777824401855
1.7294963331483528e+18,-0.04019513726234436,0.04633481428027153,-10.60512638092041
1.729496333157353e+18,-0.020901190117001534,-0.0662904605269432,-10.515463829040527
1.7294963331663532e+18,0.009396353736519814,0.03767923265695572,-10.579696655273438
1.7294963331723533e+18,-0.07125720381736755,-0.030908117070794106,-10.554826736450195
1.7294963331813535e+18,0.016135195270180702,0.0673142597079277,-10.572818756103516
1.7294963331903537e+18,-0.03775954246520996,0.08350254595279694,-10.624815940856934
1.7294963331963538e+18,-0.02036607824265957,-0.036367807537317276,-10.517183303833008
1.729496333205354e+18,0.03972792252898216,0.08938506245613098,-10.579160690307617
1.7294963332143542e+18,0.04132018983364105,0.03776199370622635,-10.530805587768555
1.7294963332233544e+18,-0.022469088435173035,-0.06043391674757004,-10.595552444458008
1.7294963332323546e+18,-0.03051292523741722,-0.07493358105421066,-10.595194816589355
1.7294963332383547e+18,0.05618777126073837,-0.04710992053151131,-10.558353424072266
1.729496333247355e+18,-0.055401306599378586,-0.02528737299144268,-10.664669036865234
1.729496333253355e+18,-0.008845138363540173,0.009547179564833641,-10.676275253295898
1.7294963332623552e+18,-0.08466491103172302,0.044565293937921524,-10.596548080444336
1.7294963332713554e+18,-0.026041744276881218,0.033564724028110504,-10.628106117248535
1.7294963332803556e+18,0.01511977519840002,-0.01447517890483141,-10.658978462219238
1.7294963332863557e+18,-0.00879388302564621,-0.017237259075045586,-10.657746315002441
1.729496333295356e+18,-0.007927538827061653,-0.035103149712085724,-10.637900352478027
1.729496333304356e+18,0.05582115054130554,0.014017606154084206,-10.458271980285645
1.7294963333133563e+18,0.04631732776761055,0.04148387163877487,-10.611592292785645
1.7294963333223565e+18,-0.06506074219942093,-0.04422304034233093,-10.569454193115234
1.7294963333283566e+18,-0.006010308861732483,0.051011424511671066,-10.590912818908691
1.7294963333373568e+18,0.032195914536714554,0.04858388379216194,-10.673261642456055
1.729496333343357e+18,-0.009660963900387287,0.004475787747651339,-10.607928276062012
1.7294963333553572e+18,0.04374187812209129,0.041569534689188004,-10.623042106628418
1.7294963333613573e+18,-0.10662786662578583,-0.026255115866661072,-10.51903247833252
1.7294963333703575e+18,0.038431331515312195,-0.09314341098070145,-10.649468421936035
1.7294963333793577e+18,-0.009454324841499329,-0.05526342615485191,-10.543505668640137
1.729496333388358e+18,-0.025889035314321518,-0.07540439069271088,-10.581428527832031
1.729496333394358e+18,0.08182302117347717,-0.0862221047282219,-10.621091842651367
1.7294963334033582e+18,-0.027624506503343582,-0.0043834540992975235,-10.600768089294434
1.7294963334093583e+18,0.0515839122235775,-0.05347588285803795,-10.661280632019043
1.7294963334183585e+18,-0.0803796797990799,-0.046056196093559265,-10.66165828704834
1.7294963334273587e+18,0.0013580614468082786,-0.017825765535235405,-10.632058143615723
1.729496333436359e+18,-0.02831336110830307,-0.03266260027885437,-10.680793762207031
1.729496333442359e+18,0.037915684282779694,0.00855396781116724,-10.563737869262695
1.7294963334513592e+18,0.012169565074145794,-0.022653741762042046,-10.655352592468262
1.7294963334603594e+18,0.005475158337503672,-0.031147245317697525,-10.63540267944336
1.7294963334693596e+18,0.02620348148047924,0.03338911756873131,-10.606489181518555
1.7294963334753597e+18,0.012816344387829304,0.04594026878476143,-10.617657661437988
1.72949633348436e+18,0.014080078341066837,-0.006630701012909412,-10.560101509094238
1.72949633349336e+18,-0.04355786368250847,-0.05051156133413315,-10.583783149719238
1.7294963335023603e+18,-0.0502297580242157,0.003000058466568589,-10.609582901000977
1.7294963335113605e+18,-0.0005881483084522188,0.014801069162786007,-10.560515403747559
1.7294963335173606e+18,-0.00924705434590578,-0.06436237692832947,-10.621122360229492
1.7294963335263608e+18,-0.01773928664624691,-0.07500393688678741,-10.613648414611816
1.729496333535361e+18,-0.05283708870410919,0.03890576213598251,-10.659540176391602
1.7294963335443612e+18,-0.05243153125047684,-0.03427823260426521,-10.677489280700684
1.7294963335533614e+18,-0.06432602554559708,0.028187446296215057,-10.572935104370117
1.7294963335593615e+18,0.05114486813545227,0.03207147493958473,-10.559235572814941
1.7294963335683617e+18,-0.0011750080157071352,-0.03609764575958252,-10.576077461242676
1.729496333577362e+18,0.030444202944636345,0.025521766394376755,-10.688704490661621
1.729496333586362e+18,0.008633606135845184,-0.0069346013478934765,-10.539827346801758
1.7294963335953623e+18,-0.019287781789898872,-0.015192026272416115,-10.594120979309082
1.7294963336013624e+18,0.0006282796384766698,0.0004930381546728313,-10.571383476257324
1.7294963336103626e+18,0.08655831217765808,-0.02346380054950714,-10.678971290588379
1.7294963336193628e+18,5.773466546088457e-05,-0.032173726707696915,-10.569235801696777
1.729496333625363e+18,0.006519773509353399,-0.05245817080140114,-10.588088989257812
1.7294963336343631e+18,-0.017490368336439133,0.019698265939950943,-10.613238334655762
1.7294963336433633e+18,0.006685505621135235,0.009355103597044945,-10.567522048950195
1.7294963336523635e+18,-0.03984003886580467,0.05743357166647911,-10.549576759338379
1.7294963336613637e+18,-0.022319139912724495,0.007549962028861046,-10.620063781738281
1.7294963336673638e+18,-0.024965455755591393,-0.015471366234123707,-10.534486770629883
1.729496333676364e+18,0.05048251897096634,0.05678599327802658,-10.544869422912598
1.7294963336823642e+18,0.07298539578914642,-0.01903771609067917,-10.703351974487305
1.7294963336913644e+18,0.01448480598628521,0.07954764366149902,-10.630081176757812
1.7294963337003645e+18,-0.05788014456629753,0.010008024983108044,-10.58846378326416
1.7294963337093647e+18,-0.03677580878138542,0.02635962702333927,-10.491874694824219
1.7294963337153649e+18,-0.06513980031013489,-0.06754595786333084,-10.597912788391113
1.729496333724365e+18,-0.03030746430158615,0.05099860578775406,-10.527920722961426
1.7294963337333652e+18,-0.03619261085987091,-0.012183303013443947,-10.479066848754883
1.7294963337423654e+18,0.02638590894639492,-0.03307980298995972,-10.54102897644043
1.7294963337513656e+18,0.039586178958415985,0.04840268939733505,-10.643970489501953
1.7294963337573658e+18,0.01159133855253458,0.049124278128147125,-10.587846755981445
1.729496333766366e+18,-0.017543504014611244,0.06356195360422134,-10.601339340209961
1.7294963337753661e+18,0.04193565249443054,-0.0036933848168700933,-10.640357971191406
1.7294963337813663e+18,0.010650080628693104,-0.005710235331207514,-10.507396697998047
1.7294963337903665e+18,-0.010827809572219849,0.007899736985564232,-10.551624298095703
1.7294963337993667e+18,0.029452074319124222,-0.07135731726884842,-10.553924560546875
1.7294963338053668e+18,0.002702216850593686,-0.012335005216300488,-10.603135108947754
1.729496333814367e+18,-0.05970529094338417,-0.029916122555732727,-10.555937767028809
1.7294963338233672e+18,0.004785861354321241,0.04507500305771828,-10.54327392578125
1.7294963338323674e+18,0.044494956731796265,-0.06354942172765732,-10.547597885131836
1.7294963338413676e+18,-0.009892270900309086,0.02459108829498291,-10.604268074035645
1.7294963338503677e+18,-0.024471554905176163,-0.006111308466643095,-10.549564361572266
1.729496333859368e+18,-0.02218257449567318,-0.006437194067984819,-10.53260612487793
1.729496333865368e+18,-0.07415922731161118,-0.023508220911026,-10.522822380065918
1.7294963338743683e+18,0.03483622521162033,0.08879773318767548,-10.538930892944336
1.7294963338833684e+18,-0.04877585172653198,-0.031530387699604034,-10.578781127929688
1.7294963338893686e+18,-0.019891241565346718,-0.036567725241184235,-10.52884292602539
1.7294963338983688e+18,-0.06448879837989807,-0.0673791915178299,-10.623143196105957
1.729496333907369e+18,-0.0006969597889110446,0.0427548848092556,-10.580292701721191
1.7294963339163692e+18,0.0721372589468956,0.025356922298669815,-10.56592082977295
1.7294963339253693e+18,-0.052140481770038605,0.09105709195137024,-10.425087928771973
1.7294963339343695e+18,-0.04607436805963516,-0.10192611813545227,-10.610295295715332
1.7294963339433697e+18,0.054011762142181396,-0.04094485193490982,-10.554450988769531
1.7294963339493699e+18,0.02684713527560234,0.02089517004787922,-10.56151008605957
1.72949633395837e+18,-0.04658951237797737,-0.003971882164478302,-10.559751510620117
1.7294963339673702e+18,-0.010578992776572704,0.03216689079999924,-10.576112747192383
1.7294963339733704e+18,-0.04685215651988983,-0.00756421871483326,-10.568650245666504
1.7294963339823706e+18,-0.01054402720183134,0.03527593985199928,-10.585411071777344
1.7294963339913708e+18,0.016029736027121544,0.012268041260540485,-10.487753868103027
1.729496334000371e+18,-0.09359641373157501,-0.03511256352066994,-10.581267356872559
1.729496334006371e+18,-0.04015306755900383,-0.012151394039392471,-10.457576751708984
1.7294963340153713e+18,0.01693483628332615,-0.014269153587520123,-10.4308443069458
1.7294963340243715e+18,-0.04218482971191406,-0.0011326806852594018,-10.459291458129883
1.7294963340333716e+18,0.004524102434515953,-0.029278382658958435,-10.484889030456543
1.7294963340393718e+18,-0.025105319917201996,-0.010617687366902828,-10.497077941894531
1.729496334048372e+18,0.046376947313547134,-0.017417797818779945,-10.500356674194336
1.7294963340573722e+18,0.02889854460954666,0.025011643767356873,-10.572688102722168
1.7294963340663724e+18,0.06967920809984207,0.007075284607708454,-10.48807430267334
1.7294963340723725e+18,0.03133741766214371,0.05661352723836899,-10.532468795776367
1.7294963340813727e+18,-0.0563821941614151,0.0030629027169197798,-10.498812675476074
1.7294963340903729e+18,0.0565800741314888,-0.006886596791446209,-10.45603084564209
1.729496334099373e+18,-0.0096864840015769,0.008569750003516674,-10.423065185546875
1.7294963341083732e+18,-0.05013557896018028,-0.05322764813899994,-10.369816780090332
1.7294963341173734e+18,0.02521389350295067,0.031043635681271553,-10.375773429870605
1.7294963341263736e+18,0.0574304535984993,0.008564846590161324,-10.334428787231445
1.7294963341353738e+18,0.0273866169154644,0.05717531964182854,-10.249859809875488
1.729496334141374e+18,0.018855413421988487,0.007546733133494854,-10.251001358032227
1.7294963341503741e+18,-0.040413305163383484,0.05838857218623161,-10.249968528747559
1.7294963341593743e+18,0.029913581907749176,0.01259518787264824,-10.169082641601562
1.7294963341683745e+18,0.015070494264364243,-0.024122372269630432,-10.280654907226562
1.7294963341743747e+18,0.045132361352443695,-0.00978175550699234,-10.213006019592285
1.7294963341833748e+18,-0.018735812976956367,0.03843144327402115,-10.194477081298828
1.729496334192375e+18,0.028249116614460945,0.05156385526061058,-10.100354194641113
1.7294963342013752e+18,-0.02351316064596176,-0.03406192362308502,-10.068035125732422
1.7294963342103754e+18,-0.036145228892564774,0.09358850866556168,-10.034601211547852
1.7294963342163756e+18,-0.010770094580948353,-0.07195435464382172,-10.015966415405273
1.7294963342253757e+18,-0.030266623944044113,0.025936586782336235,-10.001091957092285
1.729496334234376e+18,0.1381644606590271,-0.03893423452973366,-9.954774856567383
1.729496334243376e+18,0.044837772846221924,0.036108389496803284,-9.926054000854492
1.7294963342523763e+18,0.03357575461268425,-0.01322395820170641,-9.926018714904785
1.7294963342583764e+18,-0.04295246675610542,-0.12497175484895706,-9.969401359558105
1.7294963342673766e+18,-0.03798365220427513,0.011616312898695469,-9.878910064697266
1.7294963342763768e+18,-0.0561470165848732,-0.054371342062950134,-9.812612533569336
1.729496334285377e+18,-0.02675645612180233,-0.030208304524421692,-9.85528564453125
1.7294963342943772e+18,0.022198781371116638,0.05220648646354675,-9.797735214233398
1.7294963343033774e+18,0.07476373761892319,-0.05357754975557327,-9.840035438537598
1.7294963343123776e+18,0.05426432192325592,-0.020449334755539894,-9.754767417907715
1.7294963343213778e+18,0.04323377087712288,-0.010284917429089546,-9.712787628173828
1.729496334327378e+18,-0.027300231158733368,-0.0561387874186039,-9.801301002502441
1.729496334336378e+18,0.027176508679986,-0.07648643106222153,-9.718688011169434
1.7294963343453783e+18,0.06625687330961227,-0.07420835644006729,-9.717253684997559
1.7294963343543785e+18,0.008301818743348122,0.10026653856039047,-9.553812026977539
1.7294963343633787e+18,-0.00819854624569416,-0.04088907688856125,-9.71864128112793
1.729496334372379e+18,-0.07727290689945221,0.02224724180996418,-9.688909530639648
1.729496334381379e+18,-0.04193014279007912,-0.07350736111402512,-9.68061637878418
1.7294963343903793e+18,-0.019147073850035667,-0.006019188091158867,-9.643549919128418
1.7294963343993795e+18,0.020106934010982513,-0.0042455014772713184,-9.677316665649414
1.7294963344083796e+18,0.05228129029273987,0.018421847373247147,-9.681078910827637
1.7294963344173798e+18,0.018643436953425407,0.0944456085562706,-9.642939567565918
1.72949633442638e+18,0.01301080733537674,-0.0992586612701416,-9.71156120300293
1.7294963344353802e+18,-0.021192440763115883,0.02790721505880356,-9.700745582580566
1.7294963344443804e+18,-0.021696852520108223,-0.0017825703835114837,-9.686698913574219
1.7294963344533806e+18,0.01845124363899231,6.499658047687262e-05,-9.642524719238281
1.7294963344623808e+18,-0.010168943554162979,-0.06366705894470215,-9.676487922668457
1.729496334471381e+18,-0.006406609434634447,0.05351459980010986,-9.711047172546387
1.7294963344803812e+18,-0.04638899490237236,0.023804113268852234,-9.646689414978027
1.7294963344893814e+18,0.041655272245407104,-0.018767377361655235,-9.678937911987305
1.7294963344983816e+18,0.044838566333055496,0.012034173123538494,-9.672876358032227
1.7294963345073818e+18,-0.009723376482725143,0.009112748317420483,-9.67070484161377
1.729496334516382e+18,0.030435020104050636,-0.004774053581058979,-9.738734245300293
1.7294963345253821e+18,-0.004370790906250477,-0.03809884935617447,-9.638277053833008
1.7294963345343823e+18,0.04533050209283829,-0.05797066166996956,-9.66999340057373
1.7294963345463826e+18,-0.033435676246881485,0.04570884257555008,-9.698297500610352
1.7294963345553828e+18,0.04484552890062332,-0.116300068795681,-9.666060447692871
1.729496334561383e+18,-0.01895677112042904,0.02752399817109108,-9.59696102142334
1.7294963345733832e+18,-0.00478158937767148,-0.014721982181072235,-9.746366500854492
1.7294963345823834e+18,0.009519043378531933,-0.01172463595867157,-9.69774055480957
1.7294963345913836e+18,-0.01458000484853983,-0.0029838967602699995,-9.653524398803711
1.7294963345973837e+18,0.11786384135484695,-0.01326260156929493,-9.684266090393066
1.7294963346063839e+18,0.00322577147744596,0.06554270535707474,-9.717079162597656
1.729496334615384e+18,0.017305171117186546,-0.11033597588539124,-9.712865829467773
1.7294963346243843e+18,0.032292336225509644,0.0008222560281865299,-9.634370803833008
1.7294963346333844e+18,0.04323524981737137,-0.014697398990392685,-9.721648216247559
1.7294963346423846e+18,0.08152828365564346,0.07512123137712479,-9.595311164855957
1.7294963346513848e+18,-0.05119185894727707,0.0009171934798359871,-9.669234275817871
1.729496334660385e+18,0.06353422999382019,0.015375727787613869,-9.682836532592773
1.7294963346693852e+18,-0.04687712341547012,0.02886967733502388,-9.66490650177002
1.7294963346783854e+18,-0.015703847631812096,-0.08694490790367126,-9.629382133483887
1.7294963346843855e+18,0.038887135684490204,0.030871272087097168,-9.624848365783691
1.7294963346933857e+18,0.010221067816019058,-0.03903204947710037,-9.674050331115723
1.729496334702386e+18,-0.051207732409238815,0.023410096764564514,-9.701345443725586
1.729496334711386e+18,-0.009985373355448246,-0.008423722349107265,-9.659128189086914
1.7294963347203863e+18,-0.006971384398639202,-0.006104592699557543,-9.646225929260254
1.7294963347263864e+18,-0.047610118985176086,0.02030242048203945,-9.630023002624512
1.7294963347353866e+18,0.05735207721590996,-0.010377390310168266,-9.684568405151367
1.7294963347443868e+18,0.0007636194350197911,-0.034379493445158005,-9.464041709899902
1.729496334753387e+18,0.041056472808122635,0.007495907600969076,-9.545273780822754
1.7294963347623872e+18,-0.050809308886528015,0.06786077469587326,-9.612251281738281
1.7294963347683873e+18,0.01207084022462368,-0.03241730481386185,-9.56128978729248
1.7294963347773875e+18,0.023223116993904114,0.03380659967660904,-9.600175857543945
1.7294963347863877e+18,0.05286918580532074,-0.006037775427103043,-9.613500595092773
1.729496334795388e+18,0.00218725623562932,-0.05366330221295357,-9.587386131286621
1.729496334804388e+18,-0.035372547805309296,0.02382853627204895,-9.520545959472656
1.7294963348103882e+18,0.016899697482585907,-0.00393291562795639,-9.677583694458008
1.7294963348193884e+18,0.0077742780558764935,0.010342765599489212,-9.570813179016113
1.7294963348283886e+18,0.013280370272696018,-0.011019825004041195,-9.62308406829834
1.7294963348373888e+18,0.002248113276436925,0.03925478830933571,-9.544882774353027
1.729496334843389e+18,0.04944621026515961,-0.04298613220453262,-9.604022026062012
1.729496334852389e+18,0.008737894706428051,0.008629565127193928,-9.678197860717773
1.7294963348613893e+18,-0.05342845246195793,0.06539902836084366,-9.64607048034668
1.7294963348703895e+18,0.0172046460211277,-0.08801437169313431,-9.612486839294434
1.7294963348793897e+18,0.009308691136538982,-0.021762864664196968,-9.619674682617188
1.7294963348853898e+18,-0.053043097257614136,-0.002777642337605357,-9.516239166259766
1.72949633489439e+18,-0.0769253522157669,-0.0024329598527401686,-9.553165435791016
1.7294963349033902e+18,-0.042902421206235886,-0.0020660082809627056,-9.578292846679688
1.7294963349123904e+18,0.011760248802602291,-0.019202876836061478,-9.57402229309082
1.7294963349213906e+18,0.00510329520329833,0.023209184408187866,-9.590226173400879
1.7294963349303908e+18,-0.04600582644343376,0.04547218233346939,-9.591629028320312
1.729496334936391e+18,-0.03197367489337921,-0.0018367947777733207,-9.62218189239502
1.729496334945391e+18,-0.05989254266023636,0.03485769405961037,-9.560501098632812
1.7294963349543913e+18,0.022367294877767563,0.010548034682869911,-9.562817573547363
1.7294963349633915e+18,0.1182783842086792,0.015920821577310562,-9.49764347076416
1.7294963349693916e+18,0.02352495677769184,-0.017300838604569435,-9.500703811645508
1.7294963349783918e+18,-0.023107187822461128,-0.06813547760248184,-9.57693099975586
1.729496334987392e+18,0.03940945118665695,0.026081563904881477,-9.49127197265625
1.7294963349963922e+18,0.03879142552614212,-0.050961971282958984,-9.555742263793945
1.7294963350023923e+18,-0.0440581813454628,-0.08788571506738663,-9.53738784790039
1.7294963350113925e+18,0.03324677050113678,-0.04689556732773781,-9.623366355895996
1.7294963350203927e+18,-0.02879263460636139,0.05133454501628876,-9.517861366271973
1.729496335029393e+18,0.04706810042262077,-0.03253122791647911,-9.622642517089844
1.729496335038393e+18,-0.04528270661830902,-0.014859771355986595,-9.538300514221191
1.7294963350473933e+18,-0.07305274903774261,0.004059311002492905,-9.466492652893066
1.7294963350563935e+18,-0.055203478783369064,0.006626931484788656,-9.570525169372559
1.7294963350653937e+18,-0.014746708795428276,0.006594911217689514,-9.54282283782959
1.7294963350743939e+18,-0.02793707884848118,0.07124996930360794,-9.553034782409668
1.729496335083394e+18,0.036451734602451324,0.015189248137176037,-9.565040588378906
1.7294963350923942e+18,0.034064531326293945,0.026692340150475502,-9.632845878601074
1.7294963351013944e+18,-0.036525800824165344,-0.011391823180019855,-9.505847930908203
1.7294963351133947e+18,0.018151303753256798,-0.07281692326068878,-9.532477378845215
1.7294963351193948e+18,0.027392128482460976,0.001115508726797998,-9.543774604797363
1.729496335131395e+18,-0.03939076140522957,0.018372181802988052,-9.450029373168945
1.7294963351403953e+18,-0.0057372176088392735,0.02927534282207489,-9.504523277282715
1.7294963351493955e+18,-0.0162070170044899,0.04758073389530182,-9.512927055358887
1.7294963351583956e+18,-0.01888814941048622,-0.039902884513139725,-9.50511646270752
1.7294963351673958e+18,0.02991468645632267,0.018626708537340164,-9.509029388427734
1.729496335173396e+18,-0.05045519024133682,0.057766783982515335,-9.55626392364502
1.7294963351823962e+18,-0.05968345329165459,-0.012526996433734894,-9.504358291625977
1.7294963351913964e+18,-0.017367452383041382,0.012547018006443977,-9.489248275756836
1.7294963352003965e+18,0.04258682578802109,0.0034048520028591156,-9.506409645080566
1.7294963352093967e+18,-0.060870081186294556,0.0022238888777792454,-9.510492324829102
1.729496335218397e+18,0.0005524026928469539,-0.07587491720914841,-9.563117980957031
1.729496335227397e+18,-0.018221672624349594,-0.022955315187573433,-9.520609855651855
1.7294963352363973e+18,0.028480228036642075,0.04583260416984558,-9.465092658996582
1.7294963352453975e+18,-0.09392297267913818,-0.03171296417713165,-9.461490631103516
1.7294963352513976e+18,-0.00585037050768733,-0.005399423651397228,-9.504501342773438
1.729496335263398e+18,0.04575437679886818,-0.053964048624038696,-9.420207977294922
1.729496335272398e+18,-0.05892891436815262,0.10025447607040405,-9.496620178222656
1.7294963352813983e+18,-0.029975073412060738,-0.054052527993917465,-9.470911026000977
1.7294963352903985e+18,-0.0005175686674192548,0.030748780816793442,-9.472990989685059
1.7294963352993987e+18,-0.021749475970864296,-0.009388262405991554,-9.438233375549316
1.729496335311399e+18,-0.031120337545871735,-0.021526068449020386,-9.626662254333496
1.729496335320399e+18,-0.07967681437730789,0.02792651392519474,-9.455533027648926
1.7294963353293993e+18,-0.00677981972694397,-0.008867570199072361,-9.464784622192383
1.7294963353413996e+18,0.030949441716074944,0.02682657539844513,-9.513243675231934
1.7294963353503997e+18,0.04461195319890976,-0.0103505440056324,-9.515626907348633
1.7294963353594e+18,0.027447376400232315,0.08195824176073074,-9.572602272033691
1.7294963353684001e+18,-0.07618435472249985,0.017443159595131874,-9.448177337646484
1.7294963353774003e+18,-0.013654789887368679,-0.13500510156154633,-9.504924774169922
1.7294963353894006e+18,-0.0067356051877141,-0.05585362762212753,-9.527048110961914
1.7294963353984008e+18,-0.00675665820017457,0.02700788713991642,-9.537683486938477
1.729496335407401e+18,-0.1484421342611313,0.012218724936246872,-9.474610328674316
1.7294963354164012e+18,-0.003638586960732937,0.05003969743847847,-9.519573211669922
1.7294963354254013e+18,-0.05630145221948624,0.030435122549533844,-9.535054206848145
1.7294963354344015e+18,-0.07774706929922104,-0.05079365149140358,-9.461307525634766
1.7294963354434017e+18,-0.027909791097044945,0.02358238957822323,-9.460022926330566
1.729496335452402e+18,-0.023814676329493523,0.01345156691968441,-9.456847190856934
1.729496335461402e+18,0.01086873933672905,-0.0026148096658289433,-9.488670349121094
1.7294963354704023e+18,-0.04732399061322212,0.0159237552434206,-9.49827766418457
1.7294963354794025e+18,-0.039109643548727036,-0.019223563373088837,-9.388422012329102
1.7294963354884027e+18,0.09724125266075134,-0.0010260685812681913,-9.375261306762695
1.729496335497403e+18,-0.0793171375989914,0.02139810100197792,-9.488431930541992
1.729496335506403e+18,0.025460630655288696,-0.04046641290187836,-9.465986251831055
1.7294963355154033e+18,-0.027868997305631638,0.023357504978775978,-9.459888458251953
1.7294963355274035e+18,0.03289652615785599,0.0340300090610981,-9.410933494567871
1.7294963355364037e+18,-0.04016229882836342,0.07217582315206528,-9.416604995727539
1.729496335545404e+18,-0.002110202331095934,0.03524821624159813,-9.404574394226074
1.729496335554404e+18,-0.03463409096002579,0.023163143545389175,-9.492860794067383
1.7294963355634043e+18,0.024430658668279648,0.00962996669113636,-9.406064987182617
1.7294963355724045e+18,0.033129993826150894,-0.012347182258963585,-9.555840492248535
1.7294963355844047e+18,0.0046802787110209465,0.06960166245698929,-9.39678955078125
1.729496335593405e+18,0.056023743003606796,0.05490940436720848,-9.446393013000488
1.729496335602405e+18,-0.09999241679906845,0.02604079432785511,-9.451586723327637
1.7294963356084052e+18,-0.026701629161834717,0.06371484696865082,-9.4490966796875
1.7294963356204055e+18,-0.04773586243391037,-0.013260158710181713,-9.431559562683105
1.7294963356294057e+18,-0.04283769056200981,0.045415665954351425,-9.476859092712402
1.729496335638406e+18,-0.00539313443005085,-0.04328237846493721,-9.393199920654297
1.729496335647406e+18,0.06293943524360657,0.002242918126285076,-9.448863983154297
1.7294963356564063e+18,-0.010899575427174568,-0.01991838775575161,-9.357027053833008
1.7294963356654065e+18,-0.04871855676174164,0.0663481280207634,-9.382732391357422
1.7294963356744067e+18,-0.045644361525774,0.0029997520614415407,-9.398125648498535
1.7294963356834068e+18,0.07716870307922363,0.02904953993856907,-9.507319450378418
1.729496335692407e+18,-0.05244392901659012,-0.04126972705125809,-9.416951179504395
1.7294963357014072e+18,-0.025247707962989807,-0.020015748217701912,-9.455419540405273
1.7294963357134075e+18,0.03175651282072067,-0.061783354729413986,-9.354890823364258
1.7294963357194076e+18,-0.003550648922100663,-0.03998838737607002,-9.370688438415527
1.729496335731408e+18,-0.0778510645031929,0.012120894156396389,-9.46526050567627
1.729496335740408e+18,-0.026525234803557396,-0.057680197060108185,-9.469182014465332
1.7294963357494083e+18,-0.04090230539441109,-0.02483200654387474,-9.470295906066895
1.7294963357584084e+18,0.01988856866955757,-0.02943107672035694,-9.402045249938965
1.7294963357674086e+18,-0.018860815092921257,-0.05523613840341568,-9.413179397583008
1.7294963357764088e+18,-0.0031764497980475426,0.01886250637471676,-9.452152252197266
1.729496335785409e+18,0.003526195650920272,0.025755271315574646,-9.390560150146484
1.7294963357944092e+18,0.006490664556622505,-0.05180228501558304,-9.374445915222168
1.7294963358034094e+18,-0.004112984985113144,-0.05094711109995842,-9.34829330444336
1.7294963358094095e+18,-0.02146933600306511,-0.05328168347477913,-9.368638038635254
1.7294963358184097e+18,-0.07765163481235504,0.00816945917904377,-9.289325714111328
1.72949633582741e+18,-0.04618450999259949,-0.032280828803777695,-9.30993938446045
1.72949633583641e+18,0.017555154860019684,0.0193924643099308,-9.38119888305664
1.7294963358454103e+18,0.0073855360969901085,-0.03239155188202858,-9.342432975769043
1.7294963358544105e+18,0.00032006559194996953,0.03854534402489662,-9.206524848937988
1.7294963358664108e+18,0.011153247207403183,-0.01644834876060486,-9.185137748718262
1.729496335872411e+18,-0.06640847027301788,0.00205208919942379,-9.184775352478027
1.729496335881411e+18,-0.003933186177164316,-0.020148012787103653,-9.141191482543945
1.7294963358904113e+18,0.002100148471072316,-0.014512958936393261,-9.116060256958008
1.7294963358994115e+18,-0.03384822607040405,-0.047013189643621445,-9.098367691040039
1.7294963359084116e+18,0.07307478785514832,0.027950469404459,-9.032068252563477
1.7294963359174118e+18,-0.0018471019575372338,-0.08116015791893005,-9.081669807434082
1.729496335926412e+18,-0.033836401998996735,-0.008785017766058445,-9.035670280456543
1.7294963359354122e+18,-0.0016929407138377428,-0.011451213620603085,-9.001141548156738
1.7294963359444124e+18,0.10940862447023392,-0.007284448016434908,-8.936979293823242
1.7294963359504125e+18,-0.04180198535323143,-0.023557249456644058,-8.91779613494873
1.7294963359594127e+18,-0.014325530268251896,0.014325139112770557,-8.948436737060547
1.729496335968413e+18,0.05502749979496002,-0.05361295863986015,-8.945311546325684
1.729496335974413e+18,0.05687905475497246,0.004315666854381561,-8.896848678588867
1.7294963359834132e+18,-0.08192787319421768,-0.035781219601631165,-8.756929397583008
1.7294963359924134e+18,-0.031570110470056534,0.1053190529346466,-8.774503707885742
1.7294963360014136e+18,-0.05227285623550415,0.08385160565376282,-8.838324546813965
1.7294963360104138e+18,-0.029965385794639587,-0.0301645640283823,-8.743935585021973
1.729496336019414e+18,0.04712393134832382,0.00453151622787118,-8.709329605102539
1.7294963360254141e+18,0.010567030869424343,-0.03317079693078995,-8.664422035217285
1.7294963360344143e+18,-0.009228340350091457,-0.028852561488747597,-8.706304550170898
1.7294963360434145e+18,0.042988263070583344,0.053067002445459366,-8.553051948547363
1.7294963360524147e+18,0.0029727821238338947,0.0024332881439477205,-8.641705513000488
1.729496336061415e+18,0.01903146132826805,-0.025518443435430527,-8.591958999633789
1.729496336070415e+18,0.007701016962528229,0.015385004691779613,-8.570237159729004
1.7294963360794153e+18,0.005692941602319479,0.06165231391787529,-8.68767261505127
1.7294963360884155e+18,-0.07173913717269897,-0.024461926892399788,-8.730429649353027
1.7294963360974157e+18,0.027754364535212517,0.025699879974126816,-8.69078540802002
1.7294963361064159e+18,-0.02988956682384014,-0.018977157771587372,-8.770471572875977
1.729496336115416e+18,0.012978190556168556,-0.02407797984778881,-8.640365600585938
1.7294963361244163e+18,-0.0033094766549766064,-0.026372792199254036,-8.669282913208008
1.7294963361304164e+18,-0.032484445720911026,-0.056732628494501114,-8.746282577514648
1.7294963361394166e+18,0.020779341459274292,-0.07415834814310074,-8.661802291870117
1.7294963361484168e+18,0.09945730119943619,-0.03130572661757469,-8.70637035369873
1.729496336157417e+18,0.012881483882665634,-0.00803059246391058,-8.78076171875
1.7294963361664172e+18,0.0357416495680809,-0.04949532076716423,-8.809951782226562
1.7294963361754173e+18,-0.044148851186037064,-0.09160890430212021,-8.852065086364746
1.7294963361844175e+18,0.004362257197499275,0.04458371922373772,-8.826743125915527
1.7294963361934177e+18,-0.061085596680641174,-0.07326745241880417,-13.979715347290039
1.7294963361994179e+18,-0.01027473621070385,0.029199689626693726,-15.544119834899902
1.729496336208418e+18,0.025479787960648537,-0.021463412791490555,-16.039180755615234
1.7294963362174182e+18,-0.08286344259977341,-0.02332945540547371,-16.212553024291992
1.7294963362264184e+18,-0.016418930143117905,0.07690444588661194,-16.262123107910156
1.7294963362354186e+18,0.03591667115688324,0.006834753789007664,-16.19223403930664
1.7294963362414188e+18,-0.027579473331570625,-0.009193744510412216,-16.151548385620117
1.729496336250419e+18,0.02351338602602482,-0.05446060001850128,-16.000564575195312
1.7294963362594191e+18,-0.0465250127017498,-0.030817024409770966,-15.873815536499023
1.7294963362684193e+18,0.006396926939487457,-0.06704315543174744,-15.849745750427246
1.7294963362774195e+18,-0.037284962832927704,0.010941791348159313,-15.744200706481934
1.7294963362864197e+18,-0.04410186782479286,-0.062062837183475494,-15.479376792907715
1.72949633629542e+18,0.008104090578854084,-0.05115726962685585,-15.443441390991211
1.7294963363074202e+18,0.0987144410610199,-0.03616156056523323,-15.138806343078613
1.7294963363164204e+18,-0.06415076553821564,-0.02009505033493042,-15.026656150817871
1.7294963363254205e+18,-0.026575013995170593,0.04912720248103142,-14.894343376159668
1.7294963363344207e+18,-0.0062234066426754,0.10454127937555313,-14.777680397033691
1.729496336343421e+18,-0.026343684643507004,0.04094606265425682,-14.675453186035156
1.729496336352421e+18,0.008920635096728802,0.07247710973024368,-14.584532737731934
1.7294963363614213e+18,0.04577839374542236,0.04974261671304703,-14.532812118530273
1.7294963363674214e+18,-2.4867826141417027e-05,0.03228949382901192,-14.362984657287598
1.7294963363794217e+18,-0.03782806918025017,0.040657125413417816,-14.240448951721191
1.729496336388422e+18,-0.046556539833545685,-0.026677139103412628,-14.173457145690918
1.729496336397422e+18,0.017834139987826347,0.036076996475458145,-14.032058715820312
1.7294963364064223e+18,0.07085535675287247,-0.023413022980093956,-13.912776947021484
1.7294963364154225e+18,0.013986866921186447,-0.026213299483060837,-13.839258193969727
1.7294963364244227e+18,0.00030321080703288317,-0.0611981526017189,-13.76966381072998
1.7294963364334228e+18,-0.04598347470164299,0.04833880811929703,-13.722683906555176
1.729496336442423e+18,-0.005346756428480148,-0.009429026395082474,-13.618936538696289
1.7294963364514232e+18,0.021454840898513794,-0.008911581709980965,-13.486979484558105
1.7294963364604234e+18,-0.001221607206389308,-0.019753051921725273,-13.39539623260498
1.7294963364694236e+18,0.0019018822349607944,-0.012855423614382744,-13.304323196411133
1.7294963364784238e+18,-0.031079722568392754,-0.046232759952545166,-13.172479629516602
1.729496336487424e+18,-0.04540211334824562,-0.04648061469197273,-13.112460136413574
1.7294963364964242e+18,0.00515437126159668,0.11245229095220566,-13.104772567749023
1.7294963365084244e+18,-0.038489922881126404,-0.034965481609106064,-12.924139976501465
1.7294963365174246e+18,0.07935580611228943,-0.016399672254920006,-12.986812591552734
1.7294963365264248e+18,0.011698349379003048,0.0006757710943929851,-12.809326171875
1.729496336535425e+18,-0.015882475301623344,-0.01022359449416399,-12.717244148254395
1.7294963365444252e+18,-0.008730702102184296,-0.03507889434695244,-12.697774887084961
1.7294963365534254e+18,-0.0331912524998188,-0.019924620166420937,-12.627182960510254
1.7294963365624256e+18,-0.036402568221092224,-0.017482802271842957,-12.54107666015625
1.7294963365714258e+18,0.021011918783187866,0.09035200625658035,-12.491400718688965
1.729496336577426e+18,0.09841354936361313,0.05501728877425194,-12.387051582336426
1.729496336586426e+18,-0.05972110107541084,0.010408741421997547,-12.37546443939209
1.7294963365954263e+18,0.01965845189988613,0.019432276487350464,-12.321855545043945
1.7294963366074266e+18,-0.0409378744661808,-0.02004987560212612,-12.231170654296875
1.7294963366164268e+18,0.02797955833375454,-0.027894966304302216,-12.231009483337402
1.729496336625427e+18,-0.05863005667924881,0.06837963312864304,-12.15853500366211
1.7294963366344271e+18,0.06876680254936218,0.028496507555246353,-12.044601440429688
1.7294963366434273e+18,-0.0407547764480114,0.011250649578869343,-12.047684669494629
1.7294963366524275e+18,-0.02793728932738304,0.11524901539087296,-12.065567970275879
1.7294963366614277e+18,-0.0896776020526886,-0.011764297261834145,-11.96395206451416
1.729496336670428e+18,-0.006113632582128048,-0.033510081470012665,-11.923028945922852
1.729496336679428e+18,0.0014124643057584763,0.04728434979915619,-11.826248168945312
1.7294963366884283e+18,0.0377497635781765,-0.007004939019680023,-11.83194637298584
1.7294963366974285e+18,0.05773797631263733,-0.044738613069057465,-11.777884483337402
1.7294963367064287e+18,-0.02320912852883339,0.011207163333892822,-11.810945510864258
1.7294963367154289e+18,-0.011444417759776115,0.03549659997224808,-11.667420387268066
1.729496336724429e+18,-0.031807463616132736,0.04002207890152931,-11.672779083251953
1.7294963367334292e+18,-0.03019232675433159,0.05905027315020561,-11.586281776428223
1.7294963367424294e+18,0.06546636670827866,0.025328155606985092,-11.533663749694824
1.7294963367514296e+18,0.05388995632529259,0.05738141015172005,-11.514195442199707
1.7294963367604298e+18,0.033144816756248474,0.04392458498477936,-11.461868286132812
1.72949633676943e+18,-0.005049519240856171,0.0008896574145182967,-11.438204765319824
1.7294963367784302e+18,0.036719564348459244,-0.020542779937386513,-11.472698211669922
1.7294963367874304e+18,-0.010568431578576565,0.011789366602897644,-11.243389129638672
1.7294963367994307e+18,0.09567026793956757,0.01354855578392744,-11.42743968963623
1.7294963368084308e+18,-0.062347233295440674,-0.006645306013524532,-11.357342720031738
1.729496336817431e+18,-0.03046438656747341,-0.06148118898272514,-11.208233833312988
1.7294963368264312e+18,-0.002746609039604664,0.09213895350694656,-11.2821044921875
1.7294963368354314e+18,-0.035106297582387924,0.04675367847084999,-11.066568374633789
1.7294963368444316e+18,-0.11238517612218857,0.006985608953982592,-11.204558372497559
1.7294963368534318e+18,0.0775047019124031,0.0563165619969368,-11.242168426513672
1.729496336862432e+18,-0.05567825213074684,0.04653363302350044,-11.07987117767334
1.7294963368714322e+18,-0.010544613003730774,0.0006895615952089429,-11.14504623413086
1.7294963368804324e+18,-0.02637380361557007,-0.028512384742498398,-11.068171501159668
1.7294963368894326e+18,-0.08484247326850891,0.008965927176177502,-10.969219207763672
1.7294963368984328e+18,-0.07164256274700165,-0.09180042892694473,-11.005678176879883
1.729496336907433e+18,-0.018916359171271324,0.029891597107052803,-10.973589897155762
1.7294963369164332e+18,0.060487907379865646,-0.00331378192640841,-10.926128387451172
1.7294963369284334e+18,0.04888026416301727,-0.022407224401831627,-10.947611808776855
1.7294963369374336e+18,0.0010233959183096886,-0.06679727137088776,-10.891623497009277
1.7294963369464338e+18,-0.0012851348146796227,0.020579243078827858,-10.83016586303711
1.729496336955434e+18,-0.046248938888311386,-0.07698412984609604,-10.792061805725098
1.729496336961434e+18,-0.04604396969079971,-0.031459659337997437,-10.85391616821289
1.7294963369704343e+18,-0.013910050503909588,0.011784831061959267,-10.799175262451172
1.7294963369794345e+18,0.024376343935728073,-0.006752772256731987,-10.83688735961914
1.7294963369884347e+18,0.021546155214309692,-0.10337665677070618,-10.733769416809082
1.729496336997435e+18,0.004692274611443281,8.130935748340562e-05,-10.821974754333496
1.7294963370094351e+18,-0.015801625326275826,-0.026096507906913757,-10.805837631225586
1.7294963370184353e+18,-0.025706199929118156,0.011208011768758297,-10.698129653930664
1.7294963370304356e+18,0.004510233178734779,-0.00337912212125957,-10.675636291503906
1.7294963370394358e+18,-0.05001264438033104,0.006999836768954992,-10.672358512878418
1.729496337045436e+18,-0.07456322759389877,0.023422397673130035,-10.62432861328125
1.729496337054436e+18,0.012160919606685638,-0.03979173302650452,-10.564617156982422
1.7294963370634363e+18,0.03981652110815048,-0.03702637553215027,-10.556458473205566
1.7294963370754365e+18,0.0059738764539361,-0.01589113101363182,-10.610296249389648
1.7294963370814367e+18,-0.005236733704805374,0.052441228181123734,-10.57735824584961
1.7294963370904369e+18,-0.021555893123149872,-0.023588871583342552,-10.540754318237305
1.729496337102437e+18,-0.04246067255735397,-0.007067404221743345,-10.600258827209473
1.7294963371114373e+18,0.03567884862422943,-0.00798644870519638,-10.400229454040527
1.7294963371204375e+18,-0.018802624195814133,0.0025603664107620716,-10.495251655578613
1.7294963371294377e+18,-0.054299335926771164,0.03259271755814552,-10.51475715637207
1.729496337138438e+18,-0.03171341121196747,0.0037888619117438793,-10.426300048828125
1.729496337147438e+18,0.00432948162779212,-0.012985912151634693,-10.433941841125488
1.7294963371564383e+18,0.0960257276892662,-0.008511550724506378,-10.386751174926758
1.7294963371624384e+18,0.020208297297358513,-0.01003144308924675,-10.410626411437988
1.7294963371714386e+18,-0.005045113153755665,0.050299447029829025,-10.364805221557617
1.7294963371804388e+18,0.0596466064453125,0.011370997875928879,-10.424908638000488
1.729496337189439e+18,0.021481873467564583,-0.0019000470638275146,-10.498311996459961
1.7294963372014392e+18,-0.003700368804857135,0.04528186470270157,-10.31363296508789
1.7294963372104394e+18,-0.1551450490951538,-0.015942178666591644,-10.41049575805664
1.7294963372194396e+18,0.013870485126972198,-0.04271328076720238,-10.367493629455566
1.7294963372284398e+18,0.0007758188876323402,-0.05344779044389725,-10.411628723144531
1.72949633723444e+18,-0.07442311197519302,0.06134165823459625,-10.269421577453613
1.72949633724344e+18,-0.05326177179813385,-0.014516615308821201,-10.262078285217285
1.7294963372524403e+18,-0.052178312093019485,-0.010736658237874508,-10.28164291381836
1.7294963372614405e+18,0.03081769496202469,0.004317617975175381,-10.251848220825195
1.7294963372704407e+18,-0.027540097013115883,0.06868965923786163,-10.237995147705078
1.729496337279441e+18,-0.06383727490901947,0.054791733622550964,-10.243523597717285
1.729496337288441e+18,0.03668501600623131,-0.020457424223423004,-10.183119773864746
1.7294963373004413e+18,-0.008333947509527206,0.08912847936153412,-10.264070510864258
1.7294963373124416e+18,0.05120769888162613,0.028561092913150787,-10.184527397155762
1.7294963373214418e+18,-0.012076122686266899,0.06519371271133423,-10.196524620056152
1.729496337330442e+18,-0.0578623004257679,-0.040119633078575134,-10.231106758117676
1.7294963373424422e+18,-0.029776858165860176,-0.004880034364759922,-10.2137451171875
1.7294963373514424e+18,-0.01135350950062275,0.013064410537481308,-10.188433647155762
1.7294963373604426e+18,-0.038981229066848755,0.06968405842781067,-10.126769065856934
1.7294963373694428e+18,-0.031216293573379517,0.03966799005866051,-10.159900665283203
1.729496337378443e+18,-0.05537600815296173,0.03258448839187622,-10.127510070800781
1.7294963373874432e+18,-0.002485159318894148,0.0269309189170599,-10.207653045654297
1.7294963373964434e+18,0.0025123015511780977,0.05312243103981018,-10.112202644348145
1.7294963374024435e+18,-0.0215223990380764,0.013344754464924335,-10.080039024353027
1.7294963374114437e+18,0.04348594322800636,-0.10177473723888397,-10.156564712524414
1.729496337420444e+18,-0.005085467826575041,-0.08142045140266418,-10.075895309448242
1.729496337429444e+18,0.055412862449884415,-0.03970460593700409,-10.061634063720703
1.7294963374384443e+18,-0.04711667820811272,-0.0015175016596913338,-10.070764541625977
1.7294963374474445e+18,-0.041797664016485214,0.007920760661363602,-10.131869316101074
1.7294963374564447e+18,-0.004680737853050232,0.003931865096092224,-10.118563652038574
1.7294963374654449e+18,0.08658364415168762,-0.005938480608165264,-10.073465347290039
1.729496337474445e+18,-0.03926847502589226,0.015080587938427925,-10.022892951965332
1.7294963374864453e+18,-0.010208123363554478,0.1273173987865448,-10.085714340209961
1.7294963374954455e+18,-0.05833778530359268,-0.06805001944303513,-9.976609230041504
1.7294963375044457e+18,-0.012737853452563286,-0.024462232366204262,-10.016971588134766
1.729496337513446e+18,-0.04576712101697922,0.00113156926818192,-9.961724281311035
1.729496337522446e+18,-0.037945788353681564,0.024527376517653465,-10.037270545959473
1.7294963375314463e+18,0.050418589264154434,0.019512612372636795,-9.966325759887695
1.7294963375404465e+18,-0.03978686034679413,0.014297209680080414,-9.995061874389648
1.7294963375494467e+18,0.02939411997795105,-0.02719358541071415,-10.017285346984863
1.7294963375584468e+18,-0.047644246369600296,-0.054677169770002365,-9.96078109741211
1.729496337567447e+18,-0.0005336414324119687,0.08174358308315277,-9.970122337341309
1.7294963375764472e+18,-0.024956876412034035,0.05986059829592705,-9.902442932128906
1.7294963375854474e+18,-0.014603964053094387,0.03680701181292534,-9.88072681427002
1.7294963375944476e+18,-0.015493303537368774,0.01574365608394146,-9.929391860961914
1.7294963376034478e+18,-0.03708088770508766,0.0473252534866333,-9.88705825805664
1.729496337609448e+18,-0.04016106575727463,-0.026268018409609795,-9.879843711853027
1.7294963376214482e+18,-0.004491478204727173,0.10160929709672928,-9.928140640258789
1.7294963376304484e+18,0.01892789453268051,-0.0916537493467331,-9.889723777770996
1.7294963376394486e+18,0.057228635996580124,-0.005302403122186661,-9.896697998046875
1.7294963376484488e+18,-0.04196077212691307,-0.01269732415676117,-9.954706192016602
1.729496337660449e+18,0.04271209239959717,-0.03121047094464302,-9.891458511352539
1.7294963376694492e+18,-0.05308309569954872,0.03771807253360748,-9.842402458190918
1.7294963376784494e+18,-0.047034382820129395,-0.0420953594148159,-9.893292427062988
1.7294963376844495e+18,0.0842452347278595,0.002095310017466545,-9.934460639953613
1.7294963376934497e+18,0.05799195170402527,-0.025289159268140793,-9.837307929992676
1.72949633770245e+18,-0.020873576402664185,-0.014979779720306396,-9.863298416137695
1.7294963377144502e+18,-0.004801362287253141,0.07498814165592194,-9.896446228027344
1.7294963377234504e+18,-0.05177592858672142,-0.02274365723133087,-9.915916442871094
1.7294963377324506e+18,0.04894762858748436,0.07491810619831085,-9.79848861694336
1.7294963377414508e+18,-0.022072214633226395,0.047685407102108,-9.806692123413086
1.729496337750451e+18,-0.008458751253783703,0.05017887055873871,-9.860389709472656
1.7294963377594511e+18,-0.09525790065526962,-0.01654071733355522,-9.815515518188477
1.7294963377684513e+18,0.01848721317946911,0.01812833920121193,-9.894060134887695
1.7294963377774515e+18,0.05627176910638809,-0.023091329261660576,-9.912397384643555
1.7294963377894518e+18,0.07279930263757706,-0.03277359902858734,-9.837980270385742
1.729496337795452e+18,-0.027289442718029022,0.00734757911413908,-9.867162704467773
1.729496337804452e+18,0.007814415730535984,0.06129245460033417,-9.885239601135254
1.7294963378134523e+18,0.06813160330057144,-0.01991792395710945,-9.791970252990723
1.7294963378224525e+18,-0.06242335960268974,0.075584277510643,-9.816251754760742
1.7294963378314527e+18,0.007952597923576832,-0.00018912738596554846,-9.765976905822754
1.7294963378404529e+18,-0.0357012040913105,0.0028962071519345045,-9.816194534301758
1.729496337852453e+18,0.037885360419750214,-0.005782566964626312,-9.694991111755371
1.7294963378614533e+18,-0.030945677310228348,-0.0017281119944527745,-9.87772274017334
1.7294963378704535e+18,-0.003853794652968645,-0.05598124489188194,-9.816575050354004
1.7294963378794537e+18,0.00540442718192935,-0.02511551044881344,-9.819007873535156
1.7294963378854538e+18,-0.027695035561919212,-0.054971836507320404,-9.812312126159668
1.729496337894454e+18,0.014130850322544575,0.0027361453976482153,-9.82900619506836
1.7294963379034542e+18,0.014722472988069057,-0.004195434041321278,-9.762577056884766
1.7294963379154545e+18,-0.004978497046977282,-0.012218654155731201,-9.769392967224121
1.7294963379214546e+18,-0.00758323073387146,-0.059190940111875534,-9.791245460510254
1.7294963379334548e+18,0.021559203043580055,0.044464170932769775,-9.728988647460938
1.729496337942455e+18,0.002476120600476861,0.015690047293901443,-9.785383224487305
1.7294963379514552e+18,0.02559218741953373,-0.024461347609758377,-9.797381401062012
1.7294963379604554e+18,0.03766895830631256,0.07077354192733765,-9.757911682128906
1.7294963379694556e+18,0.001531288493424654,-0.08124135434627533,-9.797847747802734
1.7294963379784558e+18,-0.05714714154601097,-0.031437672674655914,-9.807888984680176
1.729496337987456e+18,0.07884479314088821,0.06371652334928513,-9.87590217590332
1.7294963379964562e+18,-0.04314479976892471,0.009482716210186481,-9.809346199035645
1.7294963380024563e+18,-0.029065459966659546,-0.02514304220676422,-9.766884803771973
1.7294963380114565e+18,-0.013445574790239334,0.07887095957994461,-9.727616310119629
1.7294963380204567e+18,-0.04571529105305672,0.0852409228682518,-9.805438995361328
1.7294963380264568e+18,0.022694727405905724,0.07779291272163391,-9.693753242492676
1.729496338035457e+18,0.06580321490764618,-0.03884763643145561,-9.730278968811035
1.7294963380444572e+18,0.015655359253287315,0.012537199072539806,-9.721546173095703
1.7294963380534574e+18,-0.020530007779598236,-0.03173639625310898,-9.762950897216797
1.7294963380624576e+18,-0.06773754954338074,0.0024430423509329557,-9.803380012512207
1.7294963380714578e+18,0.033912383019924164,0.018549157306551933,-9.778494834899902
1.729496338080458e+18,-0.004568915348500013,0.013158184476196766,-9.766615867614746
1.729496338086458e+18,-0.004788780584931374,-0.04470906779170036,-9.79462718963623
1.7294963380954583e+18,-0.07637954503297806,-0.06088544800877571,-9.784281730651855
1.7294963381044585e+18,-0.04743786156177521,-0.004063060972839594,-9.694512367248535
1.7294963381134587e+18,-0.006183198653161526,0.02669530175626278,-9.729591369628906
1.7294963381194588e+18,0.012223693542182446,0.07303174585103989,-9.754801750183105
1.729496338128459e+18,-0.002325112698599696,-0.0360444113612175,-9.750065803527832
1.7294963381374592e+18,-0.026560375466942787,0.01894514262676239,-9.723821640014648
1.7294963381434593e+18,-0.09502580016851425,0.04137825965881348,-9.652029037475586
1.7294963381524595e+18,0.0031444323249161243,0.020562030375003815,-9.6010160446167
1.7294963381614597e+18,0.006589071359485388,-0.010124435648322105,-9.756556510925293
1.7294963381674598e+18,0.0650053322315216,0.04857582971453667,-9.742342948913574
1.72949633817646e+18,0.00022261572303250432,0.04128285497426987,-9.751160621643066
1.7294963381854602e+18,-0.06195680797100067,-0.0695308968424797,-9.644193649291992
1.7294963381944604e+18,-0.010521473363041878,0.07935189455747604,-9.728007316589355
1.7294963382034606e+18,0.06418579816818237,-0.03556705266237259,-9.779610633850098
1.7294963382124608e+18,-0.0010817951988428831,0.05372505262494087,-9.748279571533203
1.729496338221461e+18,0.014624899253249168,0.006714328657835722,-9.702773094177246
1.7294963382304612e+18,-0.0825878232717514,-0.04592187702655792,-9.758491516113281
1.7294963382394614e+18,0.011255982331931591,0.023892564699053764,-9.806646347045898
1.7294963382484616e+18,-0.013823566026985645,-0.062020156532526016,-9.85262393951416
1.7294963382574618e+18,0.0066490028984844685,0.039512865245342255,-9.79965877532959
1.729496338266462e+18,0.047347020357847214,-0.042506273835897446,-9.88120174407959
1.7294963382754621e+18,0.004143714439123869,0.02191823162138462,-9.895828247070312
1.7294963382844623e+18,0.027827678248286247,-0.0489458404481411,-9.80991268157959
1.7294963382934625e+18,-0.009333860129117966,0.04478572681546211,-9.811197280883789
1.7294963383024627e+18,-0.05189197510480881,-0.012885666452348232,-9.78345775604248
1.729496338314463e+18,-0.11348789185285568,-0.011929405853152275,-9.819005966186523
1.7294963383234632e+18,0.054033808410167694,-0.08243537694215775,-9.804811477661133
1.7294963383324634e+18,-0.027640212327241898,-0.011606544256210327,-9.845266342163086
1.7294963383444636e+18,0.04444720596075058,0.04178206995129585,-9.860522270202637
1.7294963383534638e+18,-0.05077015981078148,-0.07219303399324417,-9.787593841552734
1.729496338359464e+18,0.008330052718520164,-1.3281642168294638e-05,-9.73615837097168
1.7294963383714642e+18,-0.006458104122430086,-0.0405142717063427,-9.834267616271973
1.7294963383804644e+18,-0.12154966592788696,0.0286545529961586,-9.812926292419434
1.7294963383894646e+18,0.06727926433086395,0.02924593910574913,-9.838044166564941
1.7294963383984648e+18,-0.08511480689048767,0.029333064332604408,-9.917440414428711
1.729496338404465e+18,-0.01201279554516077,0.030130436643958092,-9.783573150634766
1.7294963384164652e+18,-0.12028522789478302,-0.031489331275224686,-9.799177169799805
1.7294963384254653e+18,0.0014507054584100842,-0.01844465360045433,-9.809187889099121
1.7294963384344655e+18,0.02080473117530346,-0.010099487379193306,-9.749007225036621
1.7294963384434657e+18,0.04373428225517273,-0.05487620085477829,-9.758702278137207
1.729496338452466e+18,-0.02703508920967579,-0.07719021290540695,-9.712178230285645
1.729496338461466e+18,-0.023552142083644867,0.012576509267091751,-9.751046180725098
1.7294963384704663e+18,-0.0879131481051445,0.013719186186790466,-9.792386054992676
1.7294963384794665e+18,0.06756699830293655,0.06552063673734665,-9.783352851867676
1.7294963384884667e+18,0.00699205556884408,-0.010868112556636333,-9.8425931930542
1.729496338500467e+18,0.004735272843390703,-0.02357654646039009,-9.66346263885498
1.7294963385094671e+18,0.019208287820219994,-0.05854824185371399,-9.709010124206543
1.7294963385184673e+18,-0.02598617598414421,0.0005582611192949116,-9.792043685913086
1.7294963385274675e+18,0.025862913578748703,0.026036610826849937,-9.76445484161377
1.7294963385364677e+18,-0.03308073803782463,0.05976102501153946,-9.775310516357422
1.729496338545468e+18,-0.022703710943460464,-0.024570118635892868,-9.757139205932617
1.729496338554468e+18,-0.030429355800151825,-0.08381833136081696,-9.736492156982422
1.7294963385634683e+18,0.02864925004541874,-0.00261261616833508,-9.760847091674805
1.7294963385724685e+18,-0.03583882749080658,-0.010429276153445244,-9.698797225952148
1.7294963385814687e+18,-0.014726889319717884,0.023675914853811264,-9.71718978881836
1.7294963385904689e+18,0.08340828120708466,0.06874694675207138,-9.810986518859863
1.729496338599469e+18,0.048236388713121414,-0.05909713730216026,-9.721447944641113
1.7294963386084692e+18,-0.005546064581722021,0.012645525857806206,-9.714010238647461
1.7294963386174694e+18,0.04849288612604141,-0.010076030157506466,-9.734641075134277
1.7294963386264696e+18,0.0453900583088398,-0.011552185751497746,-9.745245933532715
1.7294963386354698e+18,0.015295866876840591,-0.02427694946527481,-9.847600936889648
1.72949633864447e+18,-0.002096191979944706,0.03927452489733696,-9.727761268615723
1.7294963386534702e+18,-0.011851783841848373,-0.07382634282112122,-9.716064453125
1.7294963386654705e+18,0.023879725486040115,0.006279290188103914,-9.770573616027832
1.7294963386744707e+18,-0.011797995306551456,0.10713686048984528,-9.77392578125
1.7294963386804708e+18,-0.04476156085729599,-0.011448819190263748,-9.781314849853516
1.729496338692471e+18,0.07157987356185913,-0.01954898238182068,-9.742799758911133
1.7294963387014712e+18,0.009235087782144547,0.011584535241127014,-9.789618492126465
1.7294963387104714e+18,-0.049023911356925964,0.005841816775500774,-9.721590995788574
1.7294963387194716e+18,-0.004710075911134481,-0.14521609246730804,-9.731313705444336
1.7294963387284718e+18,0.049627941101789474,-0.04572131112217903,-9.709834098815918
1.729496338737472e+18,0.00021959177684038877,-0.05296096205711365,-9.769224166870117
1.7294963387464722e+18,0.077388234436512,-0.043155498802661896,-9.649736404418945
1.7294963387554724e+18,-0.056415293365716934,0.027317380532622337,-9.755438804626465
1.7294963387644726e+18,-0.027514996007084846,-0.06185642257332802,-9.7177734375
1.7294963387734728e+18,0.008715610951185226,-0.04501132294535637,-9.759405136108398
1.729496338785473e+18,0.049332715570926666,-0.030135774984955788,-9.713502883911133
1.7294963387944732e+18,0.08962588012218475,-0.05760185047984123,-9.670422554016113
1.7294963388034734e+18,-0.05065908655524254,-0.005704232957214117,-9.683979988098145
1.7294963388124736e+18,0.04573000967502594,0.03630862012505531,-9.77747631072998
1.7294963388214738e+18,-0.012648245319724083,-0.028088081628084183,-9.718019485473633
1.729496338830474e+18,0.012397419661283493,0.04994233697652817,-9.661657333374023
1.7294963388394742e+18,0.050288811326026917,0.05544491112232208,-9.797581672668457
1.7294963388484744e+18,-0.050773438066244125,-0.025577928870916367,-9.632390022277832
1.7294963388574746e+18,-0.0200861357152462,0.0355239100754261,-9.73235034942627
1.7294963388664748e+18,-0.04016035050153732,0.0013043396174907684,-9.738517761230469
1.729496338875475e+18,-0.026331990957260132,0.020818280056118965,-9.766219139099121
1.7294963388844751e+18,-0.008012233301997185,0.0024136127904057503,-9.773244857788086
1.7294963388934753e+18,-0.09892341494560242,-0.06476665288209915,-9.731801986694336
1.7294963389024755e+18,-2.9316450309124775e-05,-0.04771053045988083,-9.700286865234375
1.7294963389114757e+18,0.0010130044538527727,-0.036507267504930496,-9.791461944580078
1.729496338920476e+18,0.007672213017940521,0.0011197018902748823,-9.810127258300781
1.729496338929476e+18,0.05450644716620445,0.014997651800513268,-9.748970031738281
1.7294963389384763e+18,0.052611157298088074,0.03343099355697632,-9.688786506652832
1.7294963389474765e+18,0.007831417955458164,0.008363382890820503,-9.83128547668457
1.7294963389564767e+18,-0.0005060550174675882,-0.024559836834669113,-9.812932968139648
1.7294963389654769e+18,-0.07361109554767609,-0.047753170132637024,-9.658609390258789
1.729496338974477e+18,-0.06056680902838707,-0.04649239405989647,-9.735663414001465
1.7294963389834772e+18,0.03614843636751175,-7.626126171089709e-05,-9.743997573852539
1.7294963389894774e+18,0.010051434859633446,-0.023068571463227272,-9.743775367736816
1.7294963389984776e+18,0.07600678503513336,-0.05018385499715805,-9.7105712890625
1.7294963390074778e+18,-0.06921914964914322,-0.010624011978507042,-9.703958511352539
1.729496339016478e+18,0.013571849092841148,0.023669224232435226,-9.736858367919922
1.7294963390254781e+18,-0.05161795765161514,-0.013226265087723732,-9.6472749710083
1.7294963390344783e+18,-0.13307298719882965,0.001749337650835514,-9.751646041870117
1.7294963390404785e+18,0.03534005954861641,-0.030354930087924004,-9.775110244750977
1.7294963390494787e+18,-0.01979675516486168,-0.0030850237235426903,-9.764074325561523
1.7294963390584788e+18,0.003301510587334633,-0.01711287349462509,-9.806175231933594
1.729496339067479e+18,0.0013458267785608768,-0.0010430437978357077,-9.730489730834961
1.7294963390764792e+18,-0.02080143801867962,-0.0331612154841423,-9.797015190124512
1.7294963390854794e+18,-0.006457140203565359,0.09705350548028946,-9.746285438537598
1.7294963390914796e+18,0.03108091838657856,0.00813688337802887,-9.671638488769531
1.7294963391004797e+18,-0.007642396725714207,0.036160293966531754,-9.742410659790039
1.72949633910948e+18,0.006361841224133968,-0.014904552139341831,-9.721404075622559
1.7294963391184801e+18,0.03954361006617546,0.005187926348298788,-9.758502960205078
1.7294963391274803e+18,-0.03424272686243057,0.024398766458034515,-9.757615089416504
1.7294963391334804e+18,-0.08640489727258682,0.07516186684370041,-9.752732276916504
1.7294963391424806e+18,-0.03658192604780197,0.0015334386844187975,-9.756072998046875
1.7294963391514808e+18,-0.0739043802022934,-0.02472558803856373,-9.75428581237793
1.729496339160481e+18,-0.023687370121479034,-0.016607223078608513,-9.811418533325195
1.7294963391664812e+18,-0.043259236961603165,0.023045163601636887,-9.73434829711914
1.7294963391754813e+18,-0.012055736035108566,0.04651982709765434,-9.766791343688965
1.7294963391844815e+18,-0.06229110434651375,0.006168760359287262,-9.744647026062012
1.7294963391934817e+18,-0.029372956603765488,0.02148579992353916,-9.758354187011719
1.7294963391994819e+18,0.00941542536020279,-0.013646874576807022,-9.730274200439453
1.729496339208482e+18,0.05131559446454048,0.001471866387873888,-9.703044891357422
1.7294963392204823e+18,0.02241405099630356,0.0482388474047184,-9.707828521728516
1.7294963392264824e+18,0.05307834967970848,0.0010462141362950206,-9.78979206085205
1.7294963392354826e+18,0.03744247928261757,0.033313360065221786,-9.706629753112793
1.7294963392444828e+18,-0.06553810089826584,-0.012905816547572613,-9.736405372619629
1.729496339250483e+18,0.0683654323220253,0.027020525187253952,-9.711466789245605
1.7294963392594831e+18,0.015487725846469402,0.06140070781111717,-9.682771682739258
1.7294963392684833e+18,0.012871078215539455,0.029097337275743484,-9.789310455322266
1.7294963392774835e+18,-0.05302602797746658,0.003910370636731386,-9.73928165435791
1.7294963392834836e+18,0.029466427862644196,0.039826542139053345,-9.825536727905273
1.7294963392924838e+18,-0.016574516892433167,-0.011851879768073559,-9.75903606414795
1.729496339301484e+18,-0.011111170053482056,0.003345008008182049,-9.819660186767578
1.7294963393104842e+18,0.0011202311143279076,-0.03599284216761589,-9.773857116699219
1.7294963393194844e+18,0.018792221322655678,-0.02503300830721855,-9.7313814163208
1.7294963393284846e+18,0.013030077330768108,-0.04413219541311264,-9.744820594787598
1.7294963393344847e+18,-0.019767872989177704,-0.017034757882356644,-9.70931625366211
1.729496339346485e+18,-0.035614628344774246,-0.006357436999678612,-9.783985137939453
1.729496339352485e+18,0.01974552311003208,0.021924953907728195,-9.694681167602539
1.7294963393614853e+18,0.07282361388206482,-0.005046951584517956,-9.671651840209961
1.7294963393674854e+18,-0.0003508088120725006,-0.03339482471346855,-9.738180160522461
1.7294963393764856e+18,0.0012787983287125826,-0.07791034132242203,-9.703596115112305
1.7294963393854858e+18,0.0038029905408620834,-0.0749255046248436,-9.822821617126465
1.729496339394486e+18,0.05972219631075859,0.05844559893012047,-9.749604225158691
1.7294963394034862e+18,0.061853159219026566,-0.03314733877778053,-9.712360382080078
1.7294963394124864e+18,0.0074811833910644054,-0.04956396669149399,-9.771064758300781
1.7294963394214866e+18,-0.004104995634406805,-0.008528918027877808,-9.771068572998047
1.7294963394304868e+18,-0.04641193524003029,0.009733106940984726,-9.735779762268066
1.729496339436487e+18,-0.010859069414436817,-0.013258719816803932,-9.797649383544922
1.729496339445487e+18,-0.0006775991641916335,-0.01672476902604103,-9.70673656463623
1.7294963394544873e+18,0.010017639957368374,0.04163362830877304,-9.677959442138672
1.7294963394634875e+18,0.013232910074293613,0.05334269255399704,-9.714628219604492
1.7294963394724877e+18,0.009101944044232368,0.0011032228358089924,-9.743352890014648
1.7294963394784878e+18,-0.039790112525224686,0.011717294342815876,-9.718429565429688
1.729496339487488e+18,-0.10019373893737793,0.02208048664033413,-9.798088073730469
1.7294963394964882e+18,0.04247486963868141,0.04220566526055336,-9.742057800292969
1.7294963395054884e+18,0.017124632373452187,0.017414584755897522,-9.788003921508789
1.7294963395114885e+18,0.017205968499183655,-0.007066791877150536,-9.79279613494873
1.7294963395204887e+18,-0.07398302108049393,0.029807714745402336,-9.762940406799316
1.729496339529489e+18,-0.028067681938409805,0.027586936950683594,-9.725608825683594
1.729496339538489e+18,-0.00773587916046381,-0.004157128278166056,-9.72943115234375
1.7294963395474893e+18,-0.048000071197748184,-0.016196267679333687,-9.743674278259277
1.7294963395564895e+18,-0.0028824168257415295,0.016271915286779404,-9.711790084838867
1.7294963395624896e+18,0.005315714981406927,-0.030336782336235046,-9.778688430786133
1.7294963395714898e+18,0.029761428013443947,-0.01846306025981903,-9.745489120483398
1.72949633958349e+18,0.02061082422733307,-0.011989105492830276,-9.720109939575195
1.7294963395894902e+18,0.11507212370634079,-0.0212593674659729,-9.704352378845215
1.7294963395984904e+18,-0.03157966583967209,-0.0673925057053566,-9.736940383911133
1.7294963396074906e+18,0.05174965411424637,0.034983571618795395,-9.755858421325684
1.7294963396134907e+18,0.057203467935323715,-0.014384506270289421,-9.733210563659668
1.729496339622491e+18,-0.018255846574902534,-0.03705459460616112,-9.695341110229492
1.729496339631491e+18,-0.01177041232585907,0.04509521648287773,-9.735506057739258
1.7294963396404913e+18,-0.03188714012503624,-0.10021428763866425,-9.7562837600708
1.7294963396464914e+18,0.022764863446354866,0.00027157942531630397,-9.780088424682617
1.7294963396554916e+18,-0.01754026487469673,-0.0009021128644235432,-9.753543853759766
1.7294963396644918e+18,-0.005779173690825701,0.03340037912130356,-9.719915390014648
1.729496339673492e+18,0.019418705254793167,0.038032084703445435,-9.800333023071289
1.7294963396824922e+18,-0.034531138837337494,0.060775261372327805,-9.837198257446289
1.7294963396914924e+18,0.013594809919595718,-0.0267357025295496,-9.766240119934082
1.7294963397004925e+18,0.05782332271337509,-0.052734922617673874,-9.778422355651855
1.7294963397064927e+18,0.024287685751914978,0.03872217237949371,-9.773152351379395
1.7294963397154929e+18,0.013444818556308746,0.0483638159930706,-9.803170204162598
1.729496339724493e+18,-0.057951848953962326,0.02520705945789814,-9.795430183410645
1.7294963397334932e+18,-0.051493577659130096,-0.05278007686138153,-9.748603820800781
1.7294963397394934e+18,-0.11443907022476196,0.00012429070193320513,-9.720682144165039
1.7294963397484936e+18,0.025677336379885674,0.004602494649589062,-9.83080768585205
1.7294963397574938e+18,0.026831086724996567,-0.03206823766231537,-9.749726295471191
1.729496339766494e+18,0.010775742121040821,-0.05329529196023941,-9.797918319702148
1.7294963397754941e+18,0.040297944098711014,0.05045326054096222,-9.754051208496094
1.7294963397844943e+18,-0.01058907713741064,0.06017637997865677,-9.697343826293945
1.7294963397934945e+18,0.005828947760164738,0.12859609723091125,-9.8643798828125
1.7294963398024947e+18,0.10500471293926239,-0.019831866025924683,-9.849993705749512
1.729496339811495e+18,0.020404718816280365,-0.008511165156960487,-9.681082725524902
1.729496339820495e+18,0.09146588295698166,-0.04219139739871025,-9.748876571655273
1.7294963398294953e+18,0.04472195729613304,0.019115105271339417,-9.797629356384277
1.7294963398384955e+18,0.011507038958370686,-0.0025573924649506807,-9.796643257141113
1.7294963398474957e+18,0.11758620291948318,0.03540267050266266,-9.788644790649414
1.7294963398534958e+18,0.0026984456926584244,-0.03738291934132576,-9.76662540435791
1.729496339865496e+18,-0.033451735973358154,-0.01805073395371437,-9.77405071258545
1.7294963398744963e+18,0.04949704557657242,0.012516877613961697,-9.785675048828125
1.7294963398834964e+18,0.03198305889964104,0.025560053065419197,-9.77243709564209
1.7294963398894966e+18,0.06331366300582886,-0.005001456942409277,-9.8543062210083
1.7294963399014968e+18,0.002708389889448881,-0.07211192697286606,-9.805150032043457
1.729496339907497e+18,-0.09062600135803223,0.013433734886348248,-9.758381843566895
1.7294963399164972e+18,0.03861815482378006,0.05697152763605118,-9.781719207763672
1.7294963399254973e+18,0.06298340111970901,-0.01779347099363804,-9.707779884338379
1.7294963399344975e+18,-0.005856954026967287,-0.08967011421918869,-9.784297943115234
1.7294963399434977e+18,-0.04615291953086853,-0.00616871053352952,-9.742774963378906
1.729496339952498e+18,-0.0075883385725319386,-0.061945244669914246,-9.72419261932373
1.729496339961498e+18,-0.020794102922081947,0.060952384024858475,-9.812017440795898
1.7294963399734984e+18,0.023734482005238533,0.0011344272643327713,-9.746665954589844
1.7294963399824986e+18,-0.04605231061577797,-0.07186868041753769,-9.788888931274414
1.7294963399914988e+18,-0.010269097983837128,0.0033620630856603384,-9.784066200256348
1.729496339997499e+18,0.017801335081458092,0.025596342980861664,-9.70445442199707
1.729496340006499e+18,-0.041662879288196564,0.07149151712656021,-9.754441261291504
1.7294963400154993e+18,0.033684346824884415,0.05942269414663315,-9.786113739013672
1.7294963400244995e+18,-0.06316769868135452,0.0507461316883564,-9.785808563232422
1.7294963400334996e+18,0.11345301568508148,-0.04732038453221321,-9.697199821472168
1.7294963400424998e+18,-0.00019419213640503585,-0.009380355477333069,-9.830944061279297
1.7294963400515e+18,0.00843845959752798,0.07917705178260803,-9.80440616607666
1.7294963400605002e+18,-0.026420241221785545,-0.026496846228837967,-9.805038452148438
1.7294963400695004e+18,-0.029714295640587807,-0.05444427579641342,-9.692713737487793
1.7294963400785006e+18,0.03783991187810898,0.010439470410346985,-9.758111953735352
1.7294963400845007e+18,-0.005946267396211624,0.06771010160446167,-9.845931053161621
1.729496340093501e+18,-0.02189742773771286,-0.05060383304953575,-9.736383438110352
1.729496340102501e+18,-0.0034602356608957052,0.042305294424295425,-9.674053192138672
1.7294963401115013e+18,0.005816326010972261,-0.028903011232614517,-9.802165031433105
1.7294963401205015e+18,-0.002053827280178666,0.05069274455308914,-9.734748840332031
1.7294963401295017e+18,-0.06933225691318512,-0.07708325237035751,-9.882856369018555
1.729496340138502e+18,-0.06873331218957901,0.0421634279191494,-9.753677368164062
1.729496340144502e+18,0.019259629771113396,-0.006702811922878027,-9.856505393981934
1.7294963401535022e+18,0.01633598655462265,-0.09291946887969971,-9.703847885131836
1.7294963401625024e+18,0.023892363533377647,0.0065361568704247475,-9.754155158996582
1.7294963401685025e+18,-0.06309797614812851,-0.06857331842184067,-9.81859016418457
1.7294963401775027e+18,-0.0030458581168204546,0.05520492047071457,-9.878460884094238
1.7294963401835028e+18,0.07422740757465363,0.02670685574412346,-9.751256942749023
1.729496340192503e+18,0.06840456277132034,-0.0038843881338834763,-9.822404861450195
1.7294963402015032e+18,-0.040971457958221436,0.06870553642511368,-9.852044105529785
1.7294963402105034e+18,0.02259610965847969,-0.07294227927923203,-9.816690444946289
1.7294963402195036e+18,0.07053862512111664,-0.030988026410341263,-9.836613655090332
1.7294963402285038e+18,-0.0022289168555289507,0.0008374374592676759,-9.767251014709473
1.729496340237504e+18,-0.07819744199514389,-0.046941809356212616,-9.7579345703125
1.729496340243504e+18,0.0005504818400368094,-0.013185465708374977,-9.820751190185547
1.7294963402525043e+18,-0.06786279380321503,0.044546984136104584,-9.798630714416504
1.7294963402615045e+18,0.11312414705753326,-0.0029614511877298355,-9.895092010498047
1.7294963402675046e+18,0.03239612281322479,-0.003188449190929532,-9.789534568786621
1.7294963402765048e+18,-0.07449007034301758,0.024341508746147156,-9.734928131103516
1.729496340285505e+18,0.08267639577388763,-0.03426152095198631,-9.793560028076172
1.7294963402945052e+18,0.015764955431222916,0.01995558850467205,-9.856163024902344
1.7294963403035054e+18,0.07231971621513367,-0.04721498116850853,-9.693463325500488
1.7294963403125056e+18,0.031128928065299988,-0.058255475014448166,-9.790910720825195
1.7294963403185057e+18,-0.0030295616015791893,-0.07168566435575485,-9.774511337280273
1.729496340327506e+18,0.005648335441946983,0.03009510040283203,-9.75555419921875
1.729496340336506e+18,-0.01053699478507042,0.08995126187801361,-9.7169189453125
1.7294963403455063e+18,-0.05665839836001396,-0.009997603483498096,-9.85090160369873
1.7294963403545065e+18,-0.043515644967556,0.008887450210750103,-9.80142593383789
1.7294963403605066e+18,0.015513689257204533,0.047961995005607605,-9.809412002563477
1.7294963403695068e+18,-0.007182722445577383,-0.029596703127026558,-9.820771217346191
1.729496340378507e+18,0.04418490454554558,0.0973992794752121,-9.796099662780762
1.7294963403875072e+18,-0.022924834862351418,-0.04770873114466667,-9.819650650024414
1.7294963403935073e+18,0.05837384611368179,-0.05603396147489548,-9.818953514099121
1.7294963404025075e+18,-0.0007707129116170108,0.04581291973590851,-9.804247856140137
1.7294963404115077e+18,-0.011134525761008263,0.0053834146820008755,-9.78436279296875
1.729496340420508e+18,0.04141434282064438,0.03813721612095833,-9.800705909729004
1.729496340429508e+18,0.09065936505794525,-0.04546217992901802,-9.729040145874023
1.7294963404385083e+18,-0.06483668088912964,-0.02811223641037941,-9.855710983276367
1.7294963404445084e+18,0.017727557569742203,-0.025055717676877975,-9.822267532348633
1.7294963404535086e+18,-0.04625248908996582,-0.06353448331356049,-9.728241920471191
1.7294963404625088e+18,0.058231182396411896,-0.0626111850142479,-9.809967994689941
1.729496340468509e+18,-0.006140951532870531,-0.030392220243811607,-9.770942687988281
1.729496340477509e+18,-0.010560383088886738,0.002447403036057949,-9.872969627380371
1.7294963404835092e+18,0.015546785667538643,-0.07772205770015717,-9.801236152648926
1.7294963404925094e+18,0.04814320430159569,-0.010982247069478035,-9.723847389221191
1.7294963405015096e+18,-0.030850199982523918,0.06688189506530762,-9.761884689331055
1.7294963405105098e+18,0.045623667538166046,-0.06001550331711769,-9.780691146850586
1.72949634051651e+18,0.07530175894498825,0.08021243661642075,-9.81313705444336
1.7294963405255101e+18,0.022857019677758217,-0.06696435064077377,-9.7857084274292
1.7294963405345103e+18,0.002215825952589512,-0.008090870454907417,-9.739065170288086
1.7294963405435105e+18,-0.034423720091581345,0.044873639941215515,-9.723580360412598
1.7294963405495107e+18,-0.024220416322350502,-0.006248640827834606,-9.772462844848633
1.7294963405585108e+18,0.021900901570916176,0.01507868617773056,-9.82703685760498
1.729496340564511e+18,-0.04777936637401581,-0.012339293025434017,-9.89528751373291
1.7294963405735112e+18,0.028030600398778915,-0.06662002205848694,-9.737754821777344
1.7294963405825114e+18,0.06279800832271576,0.08834749460220337,-9.77675724029541
1.7294963405915116e+18,-0.06805004924535751,-0.06397197395563126,-9.701292037963867
1.7294963405975117e+18,0.029782189056277275,-0.018573394045233727,-9.804376602172852
1.7294963406065119e+18,-0.04868285357952118,0.03714745491743088,-9.779291152954102
1.729496340615512e+18,0.02592127025127411,-0.0543430857360363,-9.761942863464355
1.7294963406215122e+18,-0.019867362454533577,0.04152373597025871,-9.875564575195312
1.7294963406305124e+18,0.027654534205794334,-0.019652245566248894,-9.79188346862793
1.7294963406395126e+18,0.03743436932563782,0.04502469301223755,-9.809701919555664
1.7294963406485128e+18,-0.014553792774677277,-0.024560168385505676,-9.816800117492676
1.729496340657513e+18,-0.004981081932783127,-0.06671421974897385,-9.799788475036621
1.729496340663513e+18,0.020502470433712006,0.0557093471288681,-9.809760093688965
1.7294963406725133e+18,0.029893826693296432,-0.08722290396690369,-9.821975708007812
1.7294963406815135e+18,-0.00030974511173553765,-0.047433193773031235,-9.771279335021973
1.7294963406875136e+18,-0.022512778639793396,-0.019384128972887993,-9.757729530334473
1.7294963406965138e+18,-0.026008835062384605,-0.048115022480487823,-9.777117729187012
1.729496340705514e+18,-0.011920414865016937,0.020926853641867638,-9.866479873657227
1.7294963407145142e+18,0.01858448050916195,0.001329226535744965,-9.787997245788574
1.7294963407235144e+18,0.01775507442653179,0.00416723033413291,-9.787480354309082
1.7294963407295145e+18,-0.025872815400362015,-0.06300941854715347,-9.750998497009277
1.7294963407385147e+18,-0.026614725589752197,-0.007256578654050827,-9.797572135925293
1.729496340747515e+18,0.0299701951444149,0.0024772740434855223,-9.81281566619873
1.729496340756515e+18,-0.04584411904215813,-0.08561728894710541,-9.749258041381836
1.7294963407655153e+18,-0.03297751769423485,-0.08242074400186539,-9.832902908325195
1.7294963407715154e+18,0.01426062360405922,0.01233089528977871,-9.726109504699707
1.7294963407805156e+18,-0.043133947998285294,-0.040913403034210205,-9.806539535522461
1.7294963407895158e+18,0.048476576805114746,-0.050203971564769745,-9.779955863952637
1.729496340798516e+18,-0.03806828334927559,-0.0029035136103630066,-9.832143783569336
1.7294963408075162e+18,0.14010049402713776,-0.06447918713092804,-9.736682891845703
1.7294963408165164e+18,-0.0238534864038229,-0.0006467652856372297,-9.834653854370117
1.7294963408225165e+18,-0.015955312177538872,0.07313761860132217,-9.811058044433594
1.7294963408315167e+18,0.04850770905613899,-0.03083401918411255,-9.80394458770752
1.7294963408405169e+18,0.034774839878082275,-0.06336373835802078,-9.740621566772461
1.729496340849517e+18,-0.03455639258027077,0.07205310463905334,-9.854659080505371
1.7294963408585172e+18,0.0592927522957325,0.004448257852345705,-9.759081840515137
1.7294963408645174e+18,-0.0003969311073888093,0.037323955446481705,-9.838062286376953
1.7294963408735176e+18,-0.013948222622275352,0.12228214740753174,-9.8229341506958
1.7294963408825178e+18,0.06150178983807564,0.04030246660113335,-9.816349983215332
1.729496340888518e+18,0.024629028514027596,0.028000488877296448,-9.807793617248535
1.729496340897518e+18,-0.012662318535149097,-0.02832828089594841,-9.768641471862793
1.7294963409065183e+18,-0.07194235175848007,0.01900065876543522,-9.851324081420898
1.7294963409155185e+18,0.06460247188806534,0.012158527038991451,-9.797947883605957
1.7294963409245187e+18,0.022533506155014038,-0.029450831934809685,-9.770707130432129
1.7294963409335188e+18,-0.010602222755551338,-0.03606019169092178,-9.819929122924805
1.729496340942519e+18,0.04768901318311691,-0.01712801307439804,-9.80066204071045
1.7294963409515192e+18,-0.021124083548784256,-0.019220557063817978,-9.872838973999023
1.7294963409605194e+18,0.07678031921386719,0.00946171022951603,-9.79503345489502
1.7294963409695196e+18,0.039718303829431534,0.029257412999868393,-9.788331031799316
1.7294963409785198e+18,-0.04332374781370163,0.035151444375514984,-9.846044540405273
1.72949634098752e+18,-0.06727083772420883,0.03293878585100174,-9.773958206176758
1.7294963409965202e+18,-0.03166765719652176,0.018617995083332062,-9.83462905883789
1.7294963410055204e+18,0.09029113501310349,-0.027406536042690277,-9.801898002624512
1.7294963410115205e+18,-0.0561576783657074,0.00653591426089406,-9.80367374420166
1.7294963410205207e+18,0.03374404460191727,-0.00764800887554884,-9.82512092590332
1.729496341029521e+18,-0.023380806669592857,-0.0016039585461840034,-9.807908058166504
1.729496341038521e+18,-0.01108584925532341,0.02384253405034542,-9.724028587341309
1.7294963410475213e+18,-0.0007218674873001873,0.010635517537593842,-9.756707191467285
1.7294963410535214e+18,-0.009051774628460407,0.08319535851478577,-9.740732192993164
1.7294963410625216e+18,0.023815954104065895,-0.06634435057640076,-9.89144515991211
1.7294963410715218e+18,0.04496833309531212,-0.0633557066321373,-9.791908264160156
1.729496341080522e+18,-0.013688195496797562,-0.020373178645968437,-9.832112312316895
1.7294963410895222e+18,0.017275981605052948,0.04159175232052803,-9.806042671203613
1.7294963410985224e+18,-0.025281459093093872,0.016231290996074677,-9.824056625366211
1.7294963411075226e+18,0.00880371779203415,-0.07355517894029617,-9.742878913879395
1.7294963411165228e+18,0.045755766332149506,0.016556765884160995,-9.805253028869629
1.729496341122523e+18,0.032807253301143646,0.04239790141582489,-9.761028289794922
1.729496341131523e+18,0.0068109831772744656,0.012780753895640373,-9.741251945495605
1.7294963411405233e+18,0.02822054736316204,-0.01009276695549488,-9.808500289916992
1.7294963411495235e+18,0.018187828361988068,-0.036330629140138626,-9.834458351135254
1.7294963411585236e+18,0.08236309140920639,-0.027609936892986298,-9.84406566619873
1.7294963411675238e+18,-0.03577841818332672,0.007047938648611307,-9.76498031616211
1.729496341176524e+18,0.08593642711639404,-0.12899667024612427,-9.752471923828125
1.7294963411855242e+18,-0.041439253836870193,-0.04717687517404556,-9.77645492553711
1.7294963411945244e+18,0.05398125573992729,-0.07614270597696304,-9.794001579284668
1.7294963412035246e+18,0.0614655502140522,0.014935292303562164,-9.829168319702148
1.7294963412095247e+18,0.08231194317340851,0.018930034711956978,-9.772494316101074
1.729496341218525e+18,-0.039054132997989655,-0.03847294673323631,-9.756629943847656
1.7294963412305252e+18,0.06174492463469505,0.03396205976605415,-9.808404922485352
1.7294963412365253e+18,-0.011560065671801567,0.006353331729769707,-9.874584197998047
1.7294963412455255e+18,0.07903733849525452,-0.08418704569339752,-9.740938186645508
1.7294963412545257e+18,-0.020648114383220673,0.0011308760149404407,-9.866113662719727
1.729496341263526e+18,-0.00563355628401041,-0.0008670835522934794,-9.868180274963379
1.729496341272526e+18,-0.04533357918262482,0.021697532385587692,-9.763355255126953
1.7294963412815263e+18,0.08419130742549896,0.01968148909509182,-9.858674049377441
1.7294963412905265e+18,-0.006112303119152784,0.03601659834384918,-9.741969108581543
1.7294963412995267e+18,0.02500155009329319,-0.04374047368764877,-9.873270988464355
1.7294963413055268e+18,-0.015715885907411575,0.03386002406477928,-9.782496452331543
1.729496341314527e+18,-0.026772955432534218,-0.011603930033743382,-9.792941093444824
1.7294963413235272e+18,-0.026505542919039726,0.037584103643894196,-9.882631301879883
1.7294963413355274e+18,-0.032429881393909454,0.04015646129846573,-9.709715843200684
1.7294963413415276e+18,-0.008074917830526829,-0.0065034180879592896,-9.777323722839355
1.7294963413505277e+18,-0.04652295261621475,-0.03837353736162186,-9.776339530944824
1.729496341359528e+18,0.015444429591298103,0.015367269515991211,-9.817327499389648
1.729496341365528e+18,0.007222016807645559,0.03252550587058067,-9.831645965576172
1.7294963413745283e+18,-0.023581979796290398,0.0032559444662183523,-9.810239791870117
1.7294963413835284e+18,-0.02596428245306015,0.05299275740981102,-8.404146194458008
1.7294963413925286e+18,-0.04226663336157799,0.017483921721577644,-7.064192295074463
1.7294963414015288e+18,0.004755726084113121,0.07483573257923126,-6.334397315979004
1.729496341407529e+18,-0.02788320556282997,0.02618587762117386,-6.33277702331543
1.7294963414165292e+18,-0.0567459836602211,0.08336855471134186,-6.237512111663818
1.7294963414255293e+18,0.011768590658903122,0.061640359461307526,-5.869434833526611
1.7294963414315295e+18,-0.053906992077827454,0.1126689538359642,-5.9066314697265625
1.7294963414405297e+18,-0.038228947669267654,0.05686827749013901,-5.9454545974731445
1.7294963414495299e+18,0.028697295114398003,0.07638304680585861,-6.0699663162231445
1.72949634145853e+18,0.009801188483834267,0.11971989274024963,-5.983029842376709
1.7294963414675302e+18,-0.019925817847251892,0.10237375646829605,-5.97992467880249
1.7294963414735304e+18,-0.07323762774467468,0.07073932886123657,-6.095616340637207
1.7294963414825306e+18,0.038816824555397034,0.08501213043928146,-5.937069892883301
1.7294963414915308e+18,0.013202764093875885,0.02573643997311592,-5.959226131439209
1.729496341497531e+18,-0.02048022486269474,0.061097994446754456,-6.016376972198486
1.7294963415095311e+18,-0.1293347030878067,0.062031008303165436,-6.135746002197266
1.7294963415155313e+18,-0.05469166487455368,0.0346820130944252,-6.240949630737305
1.7294963415245315e+18,0.012711359187960625,-0.0027437731623649597,-6.402392387390137
1.7294963415335316e+18,-0.03874052315950394,0.022028520703315735,-6.0785064697265625
1.7294963415425318e+18,-0.023293375968933105,0.023684555664658546,-6.185245037078857
1.729496341554532e+18,0.029913995414972305,-0.04929926246404648,-6.2866435050964355
1.7294963415635323e+18,-0.03202294930815697,0.019844943657517433,-6.251254081726074
1.7294963415695324e+18,-0.04336271062493324,0.12753084301948547,-6.230306625366211
1.7294963415785326e+18,0.01570843532681465,0.011967279016971588,-6.403240203857422
1.7294963415875328e+18,-0.10997967422008514,0.039109379053115845,-6.456935405731201
1.729496341596533e+18,-0.015616810880601406,-0.015517797321081161,-6.448631763458252
1.7294963416055332e+18,0.04711933061480522,-0.01920473203063011,-6.294134616851807
1.7294963416115333e+18,-0.0300653837621212,0.009739572182297707,-6.426998138427734
1.7294963416205335e+18,0.031721096485853195,0.023797646164894104,-6.515676021575928
1.7294963416295337e+18,-0.03876708820462227,0.010965640656650066,-4.6697797775268555
1.729496341638534e+18,-0.009589189663529396,-0.016627660021185875,-4.576730728149414
1.729496341647534e+18,0.027157284319400787,-0.005666286684572697,-4.7195916175842285
1.7294963416565343e+18,-0.0610898956656456,-0.06771855801343918,-4.66609525680542
1.7294963416655345e+18,0.013650909997522831,0.024371720850467682,-4.867673873901367
1.7294963416715346e+18,0.03302394226193428,-0.018312525004148483,-5.00576114654541
1.7294963416805348e+18,-0.013559199869632721,0.02912384830415249,-5.188188076019287
1.729496341686535e+18,0.05562886968255043,0.0040104202926158905,-5.355878829956055
1.729496341695535e+18,-0.02821221761405468,-0.019871270284056664,-5.4364142417907715
1.7294963417045353e+18,-0.05730610713362694,-0.005270160734653473,-5.630619049072266
1.7294963417135355e+18,0.033804092556238174,-0.045329749584198,-5.707251071929932
1.7294963417195356e+18,0.041434455662965775,0.009448590688407421,-5.868865013122559
1.7294963417285358e+18,0.024475200101733208,-0.01560233160853386,-5.999975204467773
1.729496341737536e+18,-0.0025791102088987827,-0.02031875029206276,-5.971226215362549
1.7294963417465362e+18,-0.01755787618458271,-0.011614745482802391,-6.153385639190674
1.7294963417555364e+18,-0.0305633582174778,-5.577225238084793e-06,-6.357903480529785
1.7294963417645366e+18,-0.05753261595964432,-0.0010972660966217518,-6.472688674926758
1.7294963417705367e+18,0.018024388700723648,0.027464985847473145,-6.473117828369141
1.729496341779537e+18,0.00965154729783535,0.015354475006461143,-6.67698335647583
1.729496341788537e+18,0.008522503077983856,-0.018782492727041245,-6.714529991149902
1.7294963417975373e+18,0.03611019253730774,-0.021416466683149338,-6.857539653778076
1.7294963418095375e+18,-0.003664539195597172,-0.059524234384298325,-6.991397380828857
1.7294963418155377e+18,0.0486493855714798,-0.004076419398188591,-7.100539207458496
1.729496341827538e+18,-0.03742624446749687,-0.08895755559206009,-7.212498188018799
1.729496341833538e+18,0.046292200684547424,-0.07716303318738937,-7.120813846588135
1.7294963418425382e+18,0.061118606477975845,-0.029972126707434654,-7.371917724609375
1.7294963418515384e+18,-0.05141396075487137,-0.08234832435846329,-7.383815765380859
1.7294963418575386e+18,-0.021550510078668594,0.03032463788986206,-7.385274410247803
1.7294963418665388e+18,-0.021599506959319115,0.002885519526898861,-7.573806285858154
1.729496341875539e+18,0.013354242779314518,-0.0013057701289653778,-7.725944995880127
1.7294963418845391e+18,-0.06574095785617828,0.057719916105270386,-7.704131126403809
1.7294963418905393e+18,0.05835803598165512,-0.06423105299472809,-7.784285545349121
1.7294963418995395e+18,-0.015198400244116783,-0.028693698346614838,-7.746923923492432
1.7294963419085396e+18,0.08705563098192215,-0.023169049993157387,-7.9526848793029785
1.7294963419175398e+18,0.0023066867142915726,0.031769100576639175,-7.986559867858887
1.72949634192654e+18,-0.024290556088089943,-0.006288531702011824,-8.06268310546875
1.7294963419355402e+18,0.07050823420286179,-0.036028675734996796,-8.12059497833252
1.7294963419445404e+18,-0.03887184336781502,-0.10132627189159393,-8.234461784362793
1.7294963419535406e+18,0.013096008449792862,0.04901917651295662,-8.133696556091309
1.7294963419625408e+18,-0.0016227487940341234,-0.0476178415119648,-8.258325576782227
1.729496341968541e+18,-0.055211201310157776,-0.022674912586808205,-8.346634864807129
1.729496341977541e+18,-0.0321710929274559,-0.019802898168563843,-8.292182922363281
1.7294963419865413e+18,-0.030670877546072006,-0.020081516355276108,-8.405911445617676
1.7294963419955415e+18,0.04884396865963936,0.04034174978733063,-8.428509712219238
1.7294963420045417e+18,0.037519168108701706,0.054463647305965424,-8.477167129516602
1.7294963420105418e+18,-0.005235797725617886,0.006152365356683731,-8.535357475280762
1.729496342019542e+18,0.03300017863512039,-0.029134022071957588,-8.615017890930176
1.7294963420285422e+18,0.015774503350257874,0.011777274310588837,-8.633302688598633
1.7294963420375424e+18,-0.028066907078027725,-0.055676139891147614,-8.710617065429688
1.7294963420465426e+18,-0.01572694629430771,-0.016433831304311752,-8.721250534057617
1.7294963420525427e+18,0.05211443454027176,-0.04228903353214264,-8.73546028137207
1.729496342061543e+18,-0.03649301454424858,-0.020884143188595772,-8.809280395507812
1.729496342070543e+18,0.09741973131895065,-0.0017983270809054375,-8.883252143859863
1.7294963420795433e+18,0.03434453904628754,0.005521476734429598,-8.87116813659668
1.7294963420885435e+18,-0.012036368250846863,0.01443885825574398,-8.826680183410645
1.7294963420975437e+18,-0.08005944639444351,0.017424410209059715,-8.912104606628418
1.7294963421065439e+18,-0.07948877662420273,-0.0023063505068421364,-8.955302238464355
1.729496342112544e+18,7.315760012716055e-05,-0.020376738160848618,-8.994863510131836
1.7294963421215442e+18,0.03250445798039436,-0.043226078152656555,-8.9524507522583
1.7294963421305444e+18,0.019052395597100258,0.056747205555438995,-8.973979949951172
1.7294963421395446e+18,0.06443536281585693,0.06173624470829964,-8.973186492919922
1.7294963421485448e+18,0.021976206451654434,-0.035119447857141495,-9.081363677978516
1.729496342157545e+18,0.01747715286910534,0.01325080543756485,-9.09314250946045
1.7294963421665452e+18,0.05279272422194481,0.021942108869552612,-9.120197296142578
1.7294963421755453e+18,0.07432892918586731,-0.002719065174460411,-9.129539489746094
1.7294963421845455e+18,-0.04084042087197304,-0.027643419802188873,-9.14713191986084
1.7294963421905457e+18,0.007671632803976536,0.02691522240638733,-9.220386505126953
1.7294963421995459e+18,-0.02488594874739647,0.04381987452507019,-9.250247955322266
1.729496342208546e+18,9.7027572337538e-05,0.020555971190333366,-9.185604095458984
1.7294963422175462e+18,-0.04865075275301933,0.06517453491687775,-9.269937515258789
1.7294963422265464e+18,0.014530906453728676,0.012575458735227585,-9.265748977661133
1.7294963422355466e+18,-0.030775249004364014,0.046942390501499176,-9.315220832824707
1.7294963422415468e+18,0.05299501121044159,0.023269180208444595,-9.333840370178223
1.729496342250547e+18,0.0384598970413208,0.061160918325185776,-9.354957580566406
1.7294963422595471e+18,-0.003372685518115759,0.054147809743881226,-9.374144554138184
1.7294963422685473e+18,0.027594629675149918,-0.013198763132095337,-9.344834327697754
1.7294963422775475e+18,0.020566288381814957,0.0009779185056686401,-9.42371940612793
1.7294963422865477e+18,0.004044241271913052,0.004168100655078888,-9.428953170776367
1.729496342295548e+18,0.025363076478242874,0.08780821412801743,-9.430923461914062
1.729496342304548e+18,-0.006876712664961815,0.0503167062997818,-9.447142601013184
1.7294963423135483e+18,-0.03913803771138191,-0.04615762084722519,-9.465757369995117
1.7294963423225485e+18,-9.703183604869992e-05,-0.043743133544921875,-9.468951225280762
1.7294963423315487e+18,0.019622528925538063,0.0572037547826767,-9.545272827148438
1.7294963423405489e+18,0.02363046072423458,0.027796095237135887,-9.567587852478027
1.729496342349549e+18,0.03503677248954773,0.02808220125734806,-9.575617790222168
1.7294963423585492e+18,0.11367669701576233,0.08152341842651367,-9.604074478149414
1.7294963423675494e+18,-0.021296154707670212,0.04377689212560654,-9.601766586303711
1.7294963423765496e+18,-0.011515134014189243,-0.020240187644958496,-9.53261947631836
1.7294963423825498e+18,-0.09631874412298203,-0.04521571844816208,-9.551636695861816
1.72949634239155e+18,0.001597581896930933,0.0862012580037117,-9.63467025756836
1.7294963424005501e+18,-0.011604677885770798,0.0745210200548172,-9.626718521118164
1.7294963424095503e+18,0.01320290844887495,0.09157069027423859,-9.565034866333008
1.7294963424185505e+18,-0.040279656648635864,0.06914040446281433,-9.671463966369629
1.7294963424245507e+18,-0.011037503369152546,0.07107369601726532,-9.681720733642578
1.7294963424335508e+18,-0.0766628086566925,-0.010307207703590393,-9.648835182189941
1.729496342442551e+18,-0.05518621951341629,0.06142636016011238,-9.61015796661377
1.7294963424545513e+18,-0.04656491428613663,0.044531598687171936,-9.70228099822998
1.7294963424635515e+18,0.03304769843816757,0.03953743726015091,-9.781222343444824
1.7294963424695516e+18,0.019423620775341988,0.02272592857480049,-9.726517677307129
1.7294963424785518e+18,0.01158229261636734,0.10829134285449982,-9.728381156921387
1.729496342484552e+18,-0.002409203676506877,0.09065160155296326,-9.68581771850586
1.729496342493552e+18,-0.009671536274254322,0.1779710352420807,-9.666223526000977
1.7294963425025523e+18,-0.018297940492630005,0.06528298556804657,-9.785542488098145
1.7294963425115525e+18,0.05144740268588066,0.13585899770259857,-9.708053588867188
1.7294963425205527e+18,0.06899907439947128,0.04287348687648773,-9.694838523864746
1.729496342529553e+18,-0.02943243831396103,0.017728663980960846,-9.78546142578125
1.729496342538553e+18,-0.0006856467807665467,0.09458092600107193,-9.785683631896973
1.7294963425475533e+18,0.041895583271980286,0.1459176391363144,-9.857540130615234
1.7294963425565535e+18,0.08242294937372208,0.10193715989589691,-9.755289077758789
1.7294963425655537e+18,-0.0517459437251091,0.11306661367416382,-9.78937816619873
1.7294963425745539e+18,-0.040445197373628616,0.12849289178848267,-9.781726837158203
1.729496342580554e+18,-0.04877179488539696,0.09301859140396118,-9.858705520629883
1.7294963425895542e+18,-0.09680410474538803,0.042552873492240906,-9.723833084106445
1.7294963425985544e+18,0.02880937233567238,0.08364682644605637,-9.84959602355957
1.7294963426075546e+18,-0.03527856990695,0.10503315925598145,-9.808629989624023
1.7294963426165548e+18,0.00828675739467144,0.10612159967422485,-9.833951950073242
1.729496342625555e+18,0.04494893178343773,0.006159916520118713,-9.826510429382324
1.7294963426345551e+18,-0.027306318283081055,0.08680274337530136,-9.815178871154785
1.7294963426435553e+18,0.007615074515342712,0.07624261826276779,-9.811214447021484
1.7294963426525555e+18,0.06248722970485687,0.08874223381280899,-9.869284629821777
1.7294963426615557e+18,0.022747702896595,0.08651074022054672,-9.84395980834961
1.729496342670556e+18,-0.019415825605392456,0.07415016740560532,-9.776721954345703
1.729496342676556e+18,0.01267295517027378,0.11826050281524658,-9.809271812438965
1.7294963426855562e+18,0.044606395065784454,0.11491517722606659,-9.834263801574707
1.7294963426915564e+18,-0.10503275692462921,0.012511245906352997,-9.793301582336426
1.7294963427035566e+18,-0.0366797149181366,0.13029202818870544,-9.88829231262207
1.7294963427125568e+18,0.005318247713148594,0.09695006161928177,-9.746814727783203
1.729496342718557e+18,0.10429342836141586,0.11175461113452911,-9.840425491333008
1.729496342727557e+18,0.00869758427143097,0.11500875651836395,-9.842613220214844
1.7294963427365573e+18,0.029159188270568848,0.10709182918071747,-9.792519569396973
1.7294963427455575e+18,0.005198541097342968,0.0790858268737793,-9.828875541687012
1.7294963427545577e+18,-0.041373174637556076,0.10220090299844742,-9.895566940307617
1.729496342763558e+18,-0.010709457099437714,0.1436835378408432,-9.886274337768555
1.729496342772558e+18,-0.009502779692411423,0.10506198555231094,-9.833059310913086
1.7294963427785582e+18,0.02939152717590332,0.15484222769737244,-9.878872871398926
1.7294963427875584e+18,-0.02016165293753147,0.16240954399108887,-9.86288070678711
1.7294963427965586e+18,0.020369617268443108,0.08488113433122635,-9.885825157165527
1.7294963428055588e+18,-0.06229548156261444,0.15351589024066925,-9.739252090454102
1.729496342814559e+18,-0.07072781026363373,0.08067338168621063,-9.83938980102539
1.7294963428235592e+18,-0.07013365626335144,0.21332086622714996,-10.544293403625488
1.7294963428325594e+18,0.03260793536901474,0.042649880051612854,-11.367365837097168
1.7294963428415596e+18,0.02897055074572563,0.049687083810567856,-11.469639778137207
1.7294963428475597e+18,0.02015693672001362,0.09858519583940506,-11.510400772094727
1.7294963428565599e+18,0.008177170529961586,0.10004591941833496,-11.454217910766602
1.72949634286556e+18,-0.10610100626945496,0.08810067921876907,-11.45061206817627
1.7294963428745603e+18,-0.059720855206251144,0.10730142891407013,-11.491397857666016
1.7294963428835604e+18,0.003482305910438299,0.09490419179201126,-11.563955307006836
1.7294963428895606e+18,-0.04655729606747627,0.09008774161338806,-11.545158386230469
1.7294963428985608e+18,-0.01214697677642107,0.08955079317092896,-11.608625411987305
1.729496342910561e+18,0.0024009239859879017,0.12493320554494858,-11.543835639953613
1.7294963429165612e+18,0.06122539937496185,0.1149739921092987,-11.658835411071777
1.7294963429255613e+18,-0.005432561505585909,0.1323469877243042,-11.549291610717773
1.7294963429345615e+18,0.02987467125058174,0.09578387439250946,-11.621862411499023
1.7294963429435617e+18,0.027957115322351456,0.06439225375652313,-11.585660934448242
1.729496342952562e+18,-0.07163766026496887,0.15963353216648102,-11.564447402954102
1.729496342961562e+18,0.01816132478415966,0.12541455030441284,-11.62703800201416
1.7294963429675622e+18,0.028938237577676773,0.09006057679653168,-11.654074668884277
1.7294963429765624e+18,0.0062736626714468,0.16299663484096527,-11.590728759765625
1.7294963429825626e+18,-0.020688679069280624,0.1946510374546051,-11.601105690002441
1.7294963429915628e+18,-0.0276325810700655,0.07717958092689514,-11.49980640411377
1.729496343000563e+18,-0.10351938009262085,0.08071641623973846,-11.507179260253906
1.7294963430125632e+18,-0.03711352497339249,0.05558148771524429,-11.642304420471191
1.7294963430215634e+18,0.022937899455428123,0.12694860994815826,-11.601470947265625
1.7294963430305636e+18,-0.06796489655971527,0.1875285655260086,-11.567390441894531
1.7294963430395638e+18,0.00410053413361311,0.09264320135116577,-11.581700325012207
1.729496343048564e+18,-0.02793070487678051,0.1568133533000946,-11.67940902709961
1.7294963430575642e+18,0.023133534938097,0.12377943098545074,-11.652406692504883
1.7294963430635643e+18,0.013478908687829971,0.07823680341243744,-11.709670066833496
