timestamp,accel_x,accel_y,accel_z
1.7294945709227594e+18,0.005141289904713631,-0.003598172916099429,-9.784549713134766
1.7294945709317596e+18,-0.003766352543607354,0.06000170484185219,-9.831497192382812
1.7294945709407598e+18,-0.025070197880268097,-0.054837655276060104,-9.77824592590332
1.72949457094676e+18,-0.05561660975217819,0.05287719517946243,-9.727561950683594
1.72949457095576e+18,-0.10196736454963684,-0.011029581539332867,-9.723341941833496
1.7294945709647603e+18,0.07410471141338348,0.0021489893551915884,-9.779428482055664
1.7294945709707604e+18,0.046913109719753265,0.025545863434672356,-9.785672187805176
1.7294945709797606e+18,0.005401729606091976,-0.05748126283288002,-9.872842788696289
1.7294945709887608e+18,0.027806665748357773,-0.0011262038024142385,-9.72714614868164
1.729494570997761e+18,-0.05979439988732338,-0.048765264451503754,-9.786982536315918
1.7294945710037612e+18,-0.0667593777179718,-0.012992002069950104,-9.754456520080566
1.7294945710127613e+18,0.04779685661196709,0.04355252906680107,-9.806580543518066
1.7294945710217615e+18,-0.01039019227027893,0.015911057591438293,-9.839746475219727
1.7294945710337618e+18,-0.03236797824501991,-0.03935987874865532,-9.728568077087402
1.729494571042762e+18,0.034664418548345566,0.013302166946232319,-9.908990859985352
1.7294945710517622e+18,0.03392443433403969,0.015199803747236729,-9.777494430541992
1.7294945710607624e+18,-0.055462177842855453,0.021319890394806862,-9.795149803161621
1.7294945710697626e+18,0.03421244025230408,0.07442307472229004,-9.790372848510742
1.7294945710787628e+18,-0.020900966599583626,0.04795161634683609,-9.783478736877441
1.729494571090763e+18,0.041183650493621826,-0.006083700340241194,-9.895907402038574
1.7294945710967631e+18,0.0016438644379377365,0.012302613817155361,-9.804665565490723
1.7294945711057633e+18,0.0532398484647274,0.04213278740644455,-9.837776184082031
1.7294945711117635e+18,-0.001399803557433188,0.033025484532117844,-9.785528182983398
1.7294945711207636e+18,0.03804152458906174,-0.02172834426164627,-9.79379940032959
1.7294945711297638e+18,-0.037610165774822235,0.08599727600812912,-9.799403190612793
1.729494571135764e+18,0.03283805027604103,0.03614553064107895,-9.842351913452148
1.7294945711447642e+18,-0.021148599684238434,-0.029177213087677956,-9.716575622558594
1.7294945711567644e+18,0.05585601180791855,-0.008144490420818329,-9.8566255569458
1.7294945711657646e+18,0.08027808368206024,0.03873775899410248,-9.791304588317871
1.7294945711717647e+18,0.04489053785800934,-0.03181767463684082,-9.749236106872559
1.729494571180765e+18,-0.03979647159576416,0.011656115762889385,-9.758456230163574
1.729494571189765e+18,-0.03425700590014458,0.03170843422412872,-9.766608238220215
1.7294945711987653e+18,-0.048662442713975906,0.020491257309913635,-9.856030464172363
1.7294945712077655e+18,-0.018823416903614998,-0.004034263081848621,-9.831018447875977
1.7294945712167657e+18,0.019665908068418503,-0.03219740092754364,-9.780689239501953
1.729494571225766e+18,-0.058425698429346085,-0.011933058500289917,-9.824236869812012
1.729494571234766e+18,0.05004546046257019,-0.02111232280731201,-9.7998628616333
1.7294945712437663e+18,-0.03355620801448822,0.007336816284805536,-9.830362319946289
1.7294945712557665e+18,-0.006651148200035095,-0.010823462158441544,-9.790169715881348
1.7294945712647667e+18,-0.05826666206121445,-0.0014178304700180888,-9.728249549865723
1.729494571276767e+18,-0.01358488854020834,-0.02740650810301304,-9.759082794189453
1.7294945712857672e+18,0.011795759201049805,-0.003098604502156377,-9.745990753173828
1.7294945712947674e+18,-0.04682721197605133,0.012326471507549286,-9.797191619873047
1.7294945713037676e+18,-0.013582531362771988,-0.03346116840839386,-9.819738388061523
1.7294945713157678e+18,0.06451348960399628,0.05116717517375946,-9.850311279296875
1.729494571321768e+18,-0.05805443972349167,-0.0033829123713076115,-9.904214859008789
1.7294945713337682e+18,0.05426275357604027,-0.029004095122218132,-9.814037322998047
1.7294945713427684e+18,-0.015131953172385693,-0.025141535326838493,-9.856255531311035
1.7294945713517686e+18,-0.003637667279690504,-0.0217533390969038,-9.717707633972168
1.7294945713577687e+18,0.008491636253893375,-0.014895317144691944,-9.718462944030762
1.729494571369769e+18,0.01590917631983757,-0.027465777471661568,-9.794936180114746
1.7294945713787692e+18,0.0772237777709961,0.038388293236494064,-9.84184741973877
1.7294945713877693e+18,-0.02596733532845974,0.020044701173901558,-9.852093696594238
1.7294945713997696e+18,-0.028203073889017105,-0.02358248643577099,-9.826272010803223
1.7294945714087698e+18,-0.001847655395977199,0.019909005612134933,-9.81468677520752
1.72949457141777e+18,-0.09618185460567474,0.041152212768793106,-9.721202850341797
1.7294945714267702e+18,-0.02702229656279087,0.07286635041236877,-9.728158950805664
1.7294945714387704e+18,-0.0714179128408432,-0.0205390602350235,-9.820343017578125
1.7294945714477706e+18,-0.032855939120054245,-0.039151642471551895,-9.787114143371582
1.7294945714567708e+18,0.019530804827809334,0.016853567212820053,-9.76327896118164
1.729494571465771e+18,-0.0948319360613823,-0.041558995842933655,-9.837677955627441
1.7294945714747712e+18,0.013762947171926498,-0.09441401064395905,-9.76225757598877
1.7294945714837714e+18,0.03946052864193916,-0.006965666078031063,-9.725749015808105
1.7294945714957716e+18,0.019862491637468338,0.05879821628332138,-9.803309440612793
1.729494571507772e+18,-0.054703518748283386,-0.06469126790761948,-9.790680885314941
1.729494571516772e+18,0.027423476800322533,-0.013543955981731415,-9.857463836669922
1.7294945715257723e+18,-0.0008615600527264178,0.010921123437583447,-9.842832565307617
1.7294945715347725e+18,0.014458359219133854,-0.017741898074746132,-9.790575981140137
1.7294945715437727e+18,-0.04575881361961365,-0.0038665439933538437,-9.747058868408203
1.7294945715527729e+18,-0.07784261554479599,0.06775160878896713,-9.779767036437988
1.729494571558773e+18,-0.010231784544885159,-0.002301397966220975,-9.765857696533203
1.7294945715677732e+18,-0.10843154042959213,-0.06421402841806412,-9.820664405822754
1.7294945715767734e+18,0.025250814855098724,0.0462929904460907,-9.818655014038086
1.7294945715887736e+18,-0.010620325803756714,0.04475129768252373,-9.841984748840332
1.7294945715977738e+18,-0.026635335758328438,0.015776848420500755,-9.876419067382812
1.729494571606774e+18,0.010586852207779884,-0.030378449708223343,-9.779763221740723
1.7294945716127741e+18,-0.01754775270819664,0.0018034168751910329,-9.881497383117676
1.7294945716247744e+18,0.09677844494581223,0.03104582242667675,-9.810885429382324
1.7294945716337746e+18,0.0586685873568058,-0.020054582506418228,-9.864866256713867
1.7294945716427748e+18,0.0022453332785516977,-0.056392401456832886,-9.740152359008789
1.729494571651775e+18,0.027055012062191963,-0.05808841809630394,-9.813759803771973
1.7294945716607752e+18,-0.05196317657828331,0.031121348962187767,-9.83096694946289
1.7294945716727754e+18,-0.052632398903369904,-0.043397579342126846,-9.8567533493042
1.7294945716817756e+18,0.07645291090011597,0.023684581741690636,-9.82969856262207
1.7294945716877757e+18,0.00481397844851017,-0.03393660485744476,-9.862674713134766
1.729494571696776e+18,-0.013243565335869789,0.026292292401194572,-9.792759895324707
1.729494571705776e+18,0.013160123489797115,0.006882587913423777,-9.77763843536377
1.7294945717147763e+18,0.07434550672769547,0.03593467175960541,-9.764506340026855
1.7294945717237765e+18,0.03264126181602478,0.000966555904597044,-9.81821060180664
1.7294945717327767e+18,-0.0021889994386583567,0.0014143383596092463,-9.831183433532715
1.729494571741777e+18,0.13605333864688873,-0.00043855508556589484,-9.87544059753418
1.729494571750777e+18,0.02365507185459137,-0.020987944677472115,-9.714747428894043
1.7294945717597773e+18,-0.02018171176314354,0.0870148316025734,-9.765490531921387
1.7294945717687775e+18,-0.01663137786090374,0.038079634308815,-9.771434783935547
1.7294945717777777e+18,0.08011708408594131,-0.04018537327647209,-9.833845138549805
1.7294945717837778e+18,-0.0034705977886915207,0.021031346172094345,-9.791960716247559
1.729494571792778e+18,-0.03047456406056881,0.0036758750211447477,-9.813044548034668
1.7294945718017782e+18,-0.058108072727918625,0.05172797664999962,-9.819974899291992
1.7294945718107784e+18,0.02212168276309967,0.03190426155924797,-9.784467697143555
1.7294945718167785e+18,0.006950275506824255,0.0122111476957798,-9.893860816955566
1.7294945718257787e+18,0.01290148962289095,0.008073613047599792,-9.707032203674316
1.729494571834779e+18,-0.033223796635866165,0.002832013415172696,-9.768498420715332
1.729494571843779e+18,0.0598972924053669,-0.005945649463683367,-9.7896089553833
1.7294945718557793e+18,0.0035664336755871773,-0.08961979299783707,-9.759370803833008
1.7294945718647795e+18,0.03234154358506203,-0.041140083223581314,-9.754127502441406
1.7294945718737797e+18,-4.857328167418018e-05,0.0837021917104721,-9.832351684570312
1.72949457188278e+18,-0.00886303186416626,0.06255485862493515,-9.827033042907715
1.72949457189178e+18,-0.026542508974671364,0.0013487653341144323,-9.790101051330566
1.7294945719007803e+18,-0.04125669598579407,-0.06075136736035347,-9.748252868652344
1.7294945719097805e+18,-0.034162480384111404,-0.019166747108101845,-9.794363021850586
1.7294945719187807e+18,0.0015458471607416868,0.016660384833812714,-9.829475402832031
1.729494571930781e+18,-0.017688369378447533,0.011364595964550972,-9.850359916687012
1.729494571939781e+18,-0.020286329090595245,0.05489354208111763,-9.725567817687988
1.7294945719487813e+18,-0.005633620545268059,-0.0237414613366127,-9.805941581726074
1.7294945719577815e+18,-0.042674534022808075,0.015573395416140556,-9.78956127166748
1.7294945719667817e+18,0.030328042805194855,0.03951803222298622,-9.733777046203613
1.729494571975782e+18,0.03938386216759682,0.029596585780382156,-9.848824501037598
1.729494571984782e+18,0.025843728333711624,-0.05325007438659668,-9.904035568237305
1.7294945719937823e+18,0.046906374394893646,0.02935386449098587,-9.870524406433105
1.7294945720027825e+18,0.031161457300186157,-0.09331777691841125,-9.78193473815918
1.7294945720117827e+18,-0.0662662535905838,0.015005008317530155,-9.840832710266113
1.7294945720207828e+18,-0.005430454388260841,-0.0013829900417476892,-9.8397798538208
1.729494572029783e+18,-0.007643801160156727,-0.0551263801753521,-9.735852241516113
1.7294945720387832e+18,-0.0214660856872797,-0.024208592250943184,-9.753682136535645
1.7294945720477834e+18,0.04974237456917763,-0.02073158137500286,-9.794084548950195
1.7294945720567836e+18,-0.03227073326706886,-0.0010569622972980142,-9.93356704711914
1.7294945720687839e+18,0.06717222929000854,0.010714144445955753,-9.75971794128418
1.729494572077784e+18,-0.01757480576634407,0.006969065871089697,-9.776920318603516
1.7294945720837842e+18,0.018869848921895027,-0.018296292051672935,-9.747581481933594
1.7294945720957844e+18,0.039858367294073105,0.03330239653587341,-9.847883224487305
1.7294945721047846e+18,-0.07757294923067093,0.04129275307059288,-9.831067085266113
1.7294945721137848e+18,-0.012232361361384392,0.060051437467336655,-9.788717269897461
1.729494572122785e+18,-0.03841502219438553,-0.05262679606676102,-9.792855262756348
1.7294945721317852e+18,-0.043903011828660965,0.009308126755058765,-9.801846504211426
1.7294945721407854e+18,0.07061798125505447,0.006302907597273588,-9.84542465209961
1.7294945721497856e+18,-0.0007610081811435521,0.04012690857052803,-9.790602684020996
1.7294945721587858e+18,-0.011967945843935013,0.02312508225440979,-9.763935089111328
1.729494572167786e+18,0.05618089810013771,-0.014254203997552395,-9.852887153625488
1.7294945721767862e+18,-0.002871837466955185,-0.05648138374090195,-9.824888229370117
1.7294945721857864e+18,0.037197910249233246,0.02122163400053978,-9.79383659362793
1.7294945721947866e+18,0.03744287043809891,0.007650356739759445,-9.81092643737793
1.7294945722037868e+18,0.00806453637778759,0.020997248589992523,-9.77985668182373
1.729494572212787e+18,0.028177576139569283,-0.03755419701337814,-9.727985382080078
1.7294945722217871e+18,0.00013082410441711545,0.011203221045434475,-9.823166847229004
1.7294945722307873e+18,-0.0043106358498334885,0.04938765615224838,-9.791609764099121
1.7294945722397875e+18,-0.03591551631689072,-0.02032572031021118,-9.804770469665527
1.7294945722487877e+18,-0.013929929584264755,-0.05156037583947182,-9.876452445983887
1.729494572260788e+18,-0.08849842846393585,0.034576158970594406,-9.925436973571777
1.7294945722697882e+18,-0.005540576763451099,0.05538426712155342,-9.798027038574219
1.7294945722787884e+18,-0.009059527888894081,-0.008383119478821754,-9.719121932983398
1.7294945722877885e+18,-0.0035567546728998423,-0.04483697935938835,-9.816760063171387
1.7294945722967887e+18,0.08076949417591095,0.02644507773220539,-9.794198036193848
1.729494572305789e+18,-0.03060416504740715,0.012993763200938702,-9.712864875793457
1.729494572314789e+18,-0.02506345510482788,-0.025333572179079056,-9.830248832702637
1.7294945723237893e+18,0.032898880541324615,-0.09485312551259995,-9.783955574035645
1.7294945723327895e+18,0.011098582297563553,0.0017173013184219599,-9.751128196716309
1.7294945723417897e+18,0.029193507507443428,-0.0023004685062915087,-9.771040916442871
1.72949457235079e+18,-0.06602812558412552,0.024144478142261505,-9.819934844970703
1.72949457235979e+18,0.024915270507335663,-0.005377721507102251,-9.889208793640137
1.7294945723687903e+18,-0.029290439561009407,0.0755542665719986,-9.889671325683594
1.7294945723777905e+18,0.033322129398584366,-0.05304568633437157,-9.830766677856445
1.7294945723867907e+18,-0.05688431113958359,0.05304780974984169,-9.765097618103027
1.7294945723957908e+18,0.0039283535443246365,-0.005521393846720457,-9.737509727478027
1.729494572404791e+18,-0.04118885099887848,-0.05067357420921326,-9.730440139770508
1.7294945724137912e+18,0.013494816608726978,0.009392045438289642,-9.76716423034668
1.7294945724227914e+18,0.025311848148703575,0.06553591787815094,-9.789711952209473
1.7294945724317916e+18,-0.04836398735642433,0.008796961978077888,-9.816628456115723
1.7294945724407918e+18,0.024611031636595726,0.034354664385318756,-9.815735816955566
1.729494572449792e+18,0.02644682675600052,0.004509034566581249,-9.78614616394043
1.7294945724587922e+18,0.02275613695383072,0.011453961953520775,-9.820821762084961
1.7294945724677924e+18,-0.058206651359796524,0.012847961857914925,-9.738438606262207
1.7294945724767926e+18,0.0013443626230582595,0.0363619364798069,-9.801997184753418
1.7294945724857928e+18,-0.016886373981833458,-0.04508700966835022,-9.734563827514648
1.729494572494793e+18,-0.023920997977256775,-0.030689092352986336,-9.892918586730957
1.729494572500793e+18,0.06058625504374504,-0.06273812055587769,-9.736252784729004
1.7294945725127933e+18,-0.041742026805877686,0.022661134600639343,-9.845076560974121
1.7294945725217935e+18,0.07242407649755478,0.010653780773282051,-9.75018310546875
1.7294945725307937e+18,0.0217405017465353,-0.006869954522699118,-9.852132797241211
1.729494572539794e+18,-0.02111533284187317,-0.0022845545317977667,-9.724028587341309
1.729494572548794e+18,-0.07007914036512375,-0.044130709022283554,-9.83061695098877
1.7294945725577943e+18,0.04667810723185539,0.0300957802683115,-9.743048667907715
1.7294945725667945e+18,0.01369156502187252,0.07574860751628876,-9.746163368225098
1.7294945725757947e+18,-0.019439827650785446,0.061516858637332916,-9.781380653381348
1.7294945725817948e+18,-0.015304441563785076,-0.02993786334991455,-9.733226776123047
1.729494572593795e+18,0.01020877342671156,-0.06079317629337311,-9.884002685546875
1.7294945726027953e+18,0.01091737486422062,0.03950641676783562,-9.832915306091309
1.7294945726117955e+18,0.013602483086287975,-0.005005746614187956,-9.827800750732422
1.7294945726177956e+18,0.009930344298481941,-0.0934237614274025,-9.823365211486816
1.7294945726267958e+18,0.02956853061914444,-0.0427040234208107,-9.781512260437012
1.729494572635796e+18,-0.03515207767486572,0.059325240552425385,-9.80174446105957
1.7294945726447962e+18,-0.034609053283929825,-0.049114640802145004,-9.853813171386719
1.7294945726537964e+18,0.034363653510808945,0.02786911278963089,-9.814826011657715
1.7294945726597965e+18,0.039084434509277344,-0.02476825937628746,-9.813267707824707
1.7294945726687967e+18,-0.013934921473264694,0.011852772906422615,-9.884488105773926
1.7294945726777969e+18,0.03003969043493271,0.06177748367190361,-9.732696533203125
1.729494572686797e+18,-0.03285497426986694,0.04510695859789848,-9.777433395385742
1.7294945726957972e+18,0.0026501903776079416,-0.012285835109651089,-9.851552963256836
1.7294945727017974e+18,0.024954110383987427,0.01676640287041664,-9.751069068908691
1.7294945727107976e+18,0.07625223696231842,0.00027956528356298804,-9.768330574035645
1.7294945727167977e+18,0.025480492040514946,-0.0020856009796261787,-9.772156715393066
1.729494572725798e+18,-0.05250270292162895,0.030735399574041367,-9.79074764251709
1.729494572734798e+18,0.00035922578535974026,-0.004673274699598551,-9.751380920410156
1.7294945727437983e+18,-0.086110420525074,0.015199554152786732,-9.8157958984375
1.7294945727527985e+18,0.026798995211720467,-0.0650816485285759,-9.800636291503906
1.7294945727617987e+18,-0.005817989353090525,-0.02781248278915882,-9.796221733093262
1.7294945727707988e+18,0.00739882281050086,0.019011663272976875,-9.800667762756348
1.729494572779799e+18,-0.0009018700220622122,-0.01172789465636015,-9.818512916564941
1.7294945727887992e+18,0.009836398996412754,0.0017874790355563164,-9.829606056213379
1.7294945728007995e+18,0.007676844950765371,-0.050410591065883636,-9.768464088439941
1.7294945728067996e+18,0.032258469611406326,0.022342538461089134,-9.845291137695312
1.7294945728127997e+18,-0.03127777948975563,-0.016885792836546898,-9.788102149963379
1.7294945728187999e+18,0.06180931627750397,0.03226054087281227,-9.76883316040039
1.7294945728248e+18,0.014187485910952091,-0.02410348318517208,-9.829915046691895
1.7294945728338002e+18,0.05449619144201279,0.05061129480600357,-9.83938980102539
1.7294945728428004e+18,0.0012103505432605743,0.017307531088590622,-9.886878967285156
1.7294945728488005e+18,-0.022554488852620125,0.07052595913410187,-9.922182083129883
1.7294945728578007e+18,-0.07601884007453918,-0.06533750891685486,-9.794054985046387
1.729494572866801e+18,-0.07138338685035706,-0.018479425460100174,-9.83167839050293
1.729494572875801e+18,-0.11934416741132736,-0.0367802157998085,-9.984636306762695
1.7294945728848013e+18,-0.051803335547447205,0.033227331936359406,-9.91348934173584
1.7294945728908014e+18,-0.06351415812969208,0.007038355804979801,-10.005058288574219
1.7294945728968015e+18,0.044039033353328705,0.048381950706243515,-9.943553924560547
1.7294945729028017e+18,-0.0029288213700056076,0.0701131746172905,-9.9699125289917
1.7294945729118019e+18,-0.03267630934715271,0.06877341121435165,-10.038763999938965
1.729494572920802e+18,-0.06532283127307892,-0.06693115830421448,-10.010150909423828
1.7294945729268022e+18,-0.054829999804496765,0.021125297993421555,-9.976266860961914
1.7294945729328023e+18,0.014937752857804298,0.042374610900878906,-10.053899765014648
1.7294945729418025e+18,0.06557013094425201,0.030522888526320457,-10.055822372436523
1.7294945729478026e+18,0.03207971155643463,0.021742725744843483,-10.097326278686523
1.7294945729568028e+18,-0.05112498253583908,-0.053044334053993225,-10.094673156738281
1.729494572968803e+18,0.08507531136274338,0.007357798982411623,-10.141765594482422
1.7294945729778033e+18,-0.03102738782763481,-0.030859148129820824,-10.299930572509766
1.7294945729868035e+18,-0.08398349583148956,-0.11703439056873322,-10.41870403289795
1.7294945729958036e+18,-0.026690619066357613,0.029276710003614426,-10.477278709411621
1.7294945730048038e+18,-0.009970661252737045,0.06861083209514618,-10.480241775512695
1.729494573013804e+18,-0.816105842590332,0.2535451054573059,-9.78490924835205
1.7294945730198042e+18,-0.00021928083151578903,-0.03597200661897659,-10.411128997802734
1.7294945730288044e+18,-0.01668635755777359,0.04455890506505966,-10.574565887451172
1.7294945730378045e+18,-0.008432596921920776,0.03415267542004585,-10.571450233459473
1.7294945730468047e+18,0.01040707342326641,-0.027404217049479485,-10.464339256286621
1.729494573055805e+18,-0.04373833164572716,-0.0228138230741024,-10.528168678283691
1.729494573064805e+18,0.018088750541210175,0.02775956317782402,-10.466933250427246
1.7294945730738053e+18,-0.06606793403625488,0.0482519194483757,-10.547857284545898
1.7294945730828055e+18,0.037110574543476105,0.03606603294610977,-10.556305885314941
1.7294945730888056e+18,-0.010952162556350231,0.028992898762226105,-10.536768913269043
1.729494573100806e+18,0.037675000727176666,-0.0036110656801611185,-10.524079322814941
1.729494573109806e+18,0.032675597816705704,0.010037836618721485,-10.581899642944336
1.7294945731188063e+18,0.023251613602042198,0.09308002889156342,-10.576845169067383
1.7294945731278065e+18,-0.03555803745985031,-0.045291002839803696,-10.540285110473633
1.7294945731368067e+18,0.009513834491372108,0.045026879757642746,-10.50758171081543
1.7294945731428068e+18,0.09818164259195328,-0.012913867831230164,-10.588129043579102
1.729494573151807e+18,0.019082296639680862,-0.07243181765079498,-10.521683692932129
1.7294945731608072e+18,-0.02012144774198532,-0.011016860604286194,-10.546564102172852
1.7294945731698074e+18,0.09186242520809174,-0.04322763532400131,-10.633455276489258
1.7294945731788076e+18,-0.03022516705095768,-0.018028639256954193,-10.584168434143066
1.7294945731848077e+18,0.10359625518321991,-0.023660805076360703,-10.640504837036133
1.729494573196808e+18,0.09427434206008911,-0.05987062305212021,-10.63367748260498
1.729494573205808e+18,-0.06019817292690277,-0.05998454988002777,-10.591193199157715
1.7294945732118083e+18,0.0009161750786006451,-0.04395629093050957,-10.599884033203125
1.7294945732208084e+18,-0.011308010667562485,0.00860011950135231,-10.581791877746582
1.7294945732268086e+18,-0.01879223808646202,-0.07050565630197525,-10.666549682617188
1.7294945732358088e+18,-0.023788662627339363,-0.025083407759666443,-10.641249656677246
1.729494573244809e+18,-0.06192510202527046,0.04700775071978569,-10.570060729980469
1.7294945732538092e+18,0.03069133311510086,0.007899676449596882,-10.557621002197266
1.7294945732598093e+18,-0.013627818785607815,-0.0606624074280262,-10.67772388458252
1.7294945732688095e+18,-0.045682769268751144,-0.05008894205093384,-10.559408187866211
1.7294945732778097e+18,0.015843426808714867,0.024837259203195572,-10.60214614868164
1.72949457328981e+18,0.05140417441725731,0.02995995432138443,-10.657513618469238
1.72949457329581e+18,0.011648965999484062,-0.03452437371015549,-10.65593147277832
1.7294945733048102e+18,-0.06840883940458298,-0.03244718536734581,-10.695886611938477
1.7294945733138104e+18,0.030734604224562645,0.054112378507852554,-10.626067161560059
1.7294945733228106e+18,0.05362372100353241,0.0022856963332742453,-10.63472843170166
1.7294945733288108e+18,0.02948831394314766,0.0004112706519663334,-10.649531364440918
1.729494573340811e+18,0.09015601128339767,-0.03079913929104805,-10.536858558654785
1.729494573343811e+18,0.016840921714901924,-0.028225252404808998,-10.593360900878906
1.7294945733528113e+18,-0.07201357930898666,-0.03279837220907211,-10.672079086303711
1.7294945733618115e+18,0.004874463193118572,0.06976208835840225,-10.61125659942627
1.7294945733708116e+18,0.05810072273015976,-0.023090850561857224,-10.602789878845215
1.7294945733798118e+18,0.07001317292451859,0.017255796119570732,-10.597290992736816
1.729494573385812e+18,0.0266437791287899,-0.011033302173018456,-10.64594841003418
1.729494573391812e+18,-0.05190866440534592,-0.021497739478945732,-10.653127670288086
1.7294945734008123e+18,-0.019835002720355988,0.0058756181970238686,-10.629552841186523
1.7294945734098125e+18,-0.00022574234753847122,0.019271500408649445,-10.564496994018555
1.7294945734158126e+18,-0.027884498238563538,0.029141046106815338,-10.646685600280762
1.7294945734248128e+18,0.05547703430056572,0.009771302342414856,-10.634098052978516
1.729494573430813e+18,-0.02076377160847187,-0.008172888308763504,-10.696579933166504
1.729494573436813e+18,0.03375513479113579,-0.07803621888160706,-10.608613014221191
1.7294945734458132e+18,-0.004679605830460787,0.01015319861471653,-10.650212287902832
1.7294945734548134e+18,-0.10080837458372116,0.008317035622894764,-10.591316223144531
1.7294945734638136e+18,0.045080654323101044,-0.01653985306620598,-10.691624641418457
1.7294945734728138e+18,-0.011300808750092983,-0.06195538118481636,-10.599124908447266
1.729494573481814e+18,0.03475303202867508,-0.0005300062475726008,-10.602785110473633
1.7294945734908142e+18,-0.10175658762454987,0.01615811325609684,-10.680371284484863
1.7294945734998144e+18,0.01013978011906147,-0.03291797265410423,-10.625056266784668
1.7294945735058145e+18,-0.06423704326152802,0.03221731260418892,-10.586649894714355
1.7294945735118147e+18,0.022354496642947197,-0.011269398964941502,-10.627463340759277
1.7294945735208148e+18,-0.002723363693803549,0.06433765590190887,-10.623888969421387
1.729494573529815e+18,-0.008634688332676888,-0.02860604226589203,-10.623979568481445
1.7294945735388152e+18,0.10112515091896057,0.022117651998996735,-10.60072135925293
1.7294945735478154e+18,0.030506815761327744,-0.007085185963660479,-10.66801929473877
1.7294945735538156e+18,-0.09100504964590073,-0.04146901145577431,-10.690624237060547
1.7294945735628157e+18,-0.0329899899661541,-0.03253750503063202,-10.641852378845215
1.7294945735688159e+18,0.012690681964159012,-0.02977895177900791,-10.600820541381836
1.729494573577816e+18,0.011206327937543392,0.025328069925308228,-10.590232849121094
1.7294945735838162e+18,-0.02298300340771675,0.020092369988560677,-10.576516151428223
1.7294945735898163e+18,0.04581055790185928,-0.028201036155223846,-10.646217346191406
1.7294945735988165e+18,0.022340696305036545,0.0013156727654859424,-10.6196870803833
1.7294945736078167e+18,0.024041282013058662,0.05485503375530243,-10.650238037109375
1.7294945736138168e+18,0.006980813108384609,-0.020284419879317284,-10.565691947937012
1.729494573619817e+18,-0.025586888194084167,-0.08098629862070084,-10.570695877075195
1.7294945736288172e+18,-0.03319959342479706,0.04356096312403679,-10.641409873962402
1.7294945736408174e+18,-0.06437457352876663,-0.020228717476129532,-10.595538139343262
1.7294945736468175e+18,-0.026585275307297707,0.0023660764563828707,-10.618019104003906
1.7294945736558177e+18,0.058898694813251495,0.009571717120707035,-10.534436225891113
1.7294945736618179e+18,0.07945040613412857,0.031541917473077774,-10.607725143432617
1.729494573667818e+18,0.029722649604082108,-0.023674149066209793,-10.569873809814453
1.7294945736768182e+18,0.007401198148727417,-0.014947541058063507,-10.528261184692383
1.7294945736858184e+18,0.027209356427192688,-0.01468346081674099,-10.613636016845703
1.7294945736918185e+18,0.07594839483499527,-0.037462614476680756,-10.66530990600586
1.7294945737008187e+18,-0.019436810165643692,0.03820211812853813,-10.608718872070312
1.7294945737068188e+18,-0.011722269468009472,-0.009418479166924953,-10.535715103149414
1.729494573715819e+18,-0.0008286848897114396,0.010131210088729858,-10.513404846191406
1.7294945737218191e+18,-0.00769994268193841,-0.001319817965850234,-10.534619331359863
1.7294945737308193e+18,0.024676233530044556,0.018617922440171242,-10.59982681274414
1.7294945737398195e+18,0.08174353837966919,-0.02475959248840809,-10.676103591918945
1.7294945737458196e+18,0.027336271479725838,-0.08138667047023773,-10.605490684509277
1.7294945737548198e+18,0.034359730780124664,0.047505542635917664,-10.574565887451172
1.72949457376382e+18,0.0460071787238121,0.01565016433596611,-10.559231758117676
1.7294945737728202e+18,-0.05397003889083862,0.045464783906936646,-10.520797729492188
1.7294945737818204e+18,0.08411961048841476,0.03196696192026138,-10.582549095153809
1.7294945737908206e+18,-0.006620267406105995,-0.036168765276670456,-10.639923095703125
1.7294945737998208e+18,-0.012950324453413486,-0.03656265139579773,-10.541993141174316
1.729494573808821e+18,0.007524450309574604,0.016053736209869385,-10.577397346496582
1.7294945738178212e+18,0.029545128345489502,0.06762759387493134,-10.658843040466309
1.7294945738268214e+18,0.04784741997718811,0.024061284959316254,-10.530211448669434
1.7294945738358216e+18,0.059256162494421005,0.003310165833681822,-10.488871574401855
1.7294945738448218e+18,0.048352405428886414,-0.05943954363465309,-10.583172798156738
1.729494573853822e+18,0.08165005594491959,0.06573353707790375,-10.639716148376465
1.7294945738628221e+18,0.031022343784570694,0.01358979195356369,-10.57748031616211
1.7294945738688223e+18,-0.0076023610308766365,-0.010110124945640564,-10.562468528747559
1.7294945738808225e+18,0.01861509494483471,-0.020426180213689804,-10.47953987121582
1.7294945738868227e+18,0.012053187005221844,-0.047484010457992554,-10.49703311920166
1.7294945738958228e+18,-0.0246480330824852,-0.013302158564329147,-10.489710807800293
1.729494573904823e+18,-0.041950665414333344,0.015241269022226334,-10.48250961303711
1.7294945739138232e+18,0.013729201629757881,-0.060525454580783844,-10.572921752929688
1.7294945739258235e+18,-0.009438030421733856,-0.045845311135053635,-10.627252578735352
1.7294945739318236e+18,-0.0652313381433487,-0.015179118141531944,-10.522592544555664
1.7294945739408238e+18,-0.015432339161634445,-0.0940217599272728,-10.576254844665527
1.729494573949824e+18,-0.035784024745225906,0.03337278962135315,-10.546667098999023
1.7294945739588242e+18,0.048831306397914886,0.0025458955205976963,-10.60743522644043
1.7294945739678244e+18,-0.045418303459882736,0.03292121738195419,-10.633871078491211
1.7294945739768246e+18,-0.012095440179109573,0.008590037934482098,-10.600321769714355
1.7294945739858248e+18,0.03805844113230705,0.0063020288944244385,-10.515151023864746
1.729494573994825e+18,0.005291185807436705,-0.02635599486529827,-10.469198226928711
1.7294945740038252e+18,0.06622456014156342,-0.021767545491456985,-10.508630752563477
1.7294945740128253e+18,0.019761452451348305,0.025499023497104645,-10.546601295471191
1.7294945740218255e+18,-0.04066065698862076,-0.005042314529418945,-10.525775909423828
1.7294945740308257e+18,0.006644316948950291,-0.06554444134235382,-10.406427383422852
1.729494574039826e+18,-0.06676838546991348,0.009942890144884586,-10.52186393737793
1.729494574045826e+18,-0.010189528577029705,0.023037757724523544,-10.57724666595459
1.7294945740548262e+18,0.04410393908619881,0.003295084461569786,-10.574175834655762
1.7294945740668265e+18,-0.08672074973583221,0.0024926080368459225,-10.456069946289062
1.7294945740728266e+18,0.021032335236668587,-0.015460931695997715,-10.528905868530273
1.7294945740818268e+18,0.03381497040390968,-0.0126289501786232,-10.526545524597168
1.729494574093827e+18,0.019136624410748482,0.04836267605423927,-10.465063095092773
1.7294945741028273e+18,-0.042293477803468704,-0.0283601526170969,-10.563230514526367
1.7294945741118275e+18,-0.0908905565738678,-0.01054162997752428,-10.470810890197754
1.7294945741208276e+18,-0.01791674643754959,0.006700248923152685,-10.489546775817871
1.7294945741298278e+18,-0.028996551409363747,-0.045041605830192566,-10.474596977233887
1.729494574138828e+18,-0.010292097926139832,0.06939581036567688,-10.589361190795898
1.7294945741478282e+18,-0.0009873515227809548,-0.020524270832538605,-10.552019119262695
1.7294945741568284e+18,0.014269576407968998,0.030382804572582245,-10.53643798828125
1.7294945741658286e+18,-0.07699126750230789,0.02787831425666809,-10.410125732421875
1.7294945741748288e+18,-0.08600772172212601,-0.05492347851395607,-10.523695945739746
1.729494574183829e+18,-0.00703849783167243,-0.004259738605469465,-10.499700546264648
1.729494574189829e+18,-0.07198889553546906,0.03189251571893692,-10.499464988708496
1.7294945741988293e+18,0.011190947145223618,-0.06656113266944885,-10.539327621459961
1.7294945742078295e+18,0.0520743690431118,-0.013026027008891106,-10.548839569091797
1.7294945742198298e+18,-0.024203522130846977,0.03332747146487236,-10.374855995178223
1.72949457422583e+18,0.015819082036614418,0.06852587312459946,-10.492727279663086
1.72949457423483e+18,-0.013860885053873062,-0.13341931998729706,-10.512519836425781
1.7294945742438303e+18,0.0355125293135643,-0.040180303156375885,-10.431962013244629
1.7294945742528305e+18,0.02937663346529007,-0.047604214400053024,-10.499463081359863
1.7294945742618307e+18,0.011011895723640919,0.025926364585757256,-10.4585542678833
1.7294945742708308e+18,-0.01340517308562994,-0.05021798238158226,-10.465911865234375
1.729494574282831e+18,0.060416460037231445,-0.05775728076696396,-10.49487018585205
1.7294945742918313e+18,0.040685150772333145,0.009837513789534569,-10.450241088867188
1.7294945743008315e+18,-0.015719285234808922,0.015053318813443184,-10.404105186462402
1.7294945743098317e+18,0.08897238969802856,0.05309614911675453,-10.364922523498535
1.7294945743188319e+18,-0.020196761935949326,-0.017205100506544113,-10.434475898742676
1.729494574327832e+18,0.0675492137670517,0.0024061696603894234,-10.533199310302734
1.7294945743368323e+18,0.010527137666940689,0.04475855082273483,-10.401285171508789
1.7294945743458324e+18,0.02112804725766182,0.03991484269499779,-10.481169700622559
1.7294945743548326e+18,0.05824953317642212,-0.04207136109471321,-10.357768058776855
1.7294945743638328e+18,0.03929716348648071,0.1139405220746994,-10.416152954101562
1.729494574372833e+18,-0.01892964355647564,-0.016955407336354256,-10.410601615905762
1.7294945743818332e+18,0.05647533759474754,-0.004242027644068003,-10.358012199401855
1.7294945743908334e+18,0.02533678710460663,-0.009767172858119011,-10.349238395690918
1.7294945743998336e+18,-0.08184444904327393,0.03301754966378212,-10.268631935119629
1.7294945744088338e+18,-0.04810909926891327,-0.05215981602668762,-10.248427391052246
1.729494574417834e+18,-0.07645662128925323,0.031078699976205826,-10.230344772338867
1.729494574423834e+18,-0.06935811042785645,-0.08629507571458817,-10.265972137451172
1.7294945744328343e+18,0.02969365380704403,0.01148785650730133,-10.108596801757812
1.7294945744418345e+18,0.022461872547864914,-0.07014626264572144,-10.15933609008789
1.7294945744508347e+18,0.04336213320493698,-0.004537956323474646,-10.163369178771973
1.729494574459835e+18,0.0001804884523153305,0.04268018156290054,-10.12999439239502
1.7294945744718351e+18,-0.005026086699217558,0.07889251410961151,-10.07169246673584
1.7294945744808353e+18,-0.0011293584248051047,-0.004090908449143171,-10.153462409973145
1.7294945744898355e+18,-0.006986360065639019,0.03787887096405029,-10.081741333007812
1.7294945744988357e+18,-0.012938614934682846,-0.04616269841790199,-9.957472801208496
1.729494574507836e+18,0.03980941325426102,0.020906593650579453,-10.013099670410156
1.729494574516836e+18,0.04834437370300293,0.037775419652462006,-9.975149154663086
1.7294945745258363e+18,-0.03525601699948311,-0.015106691047549248,-9.946484565734863
1.7294945745348365e+18,0.00755901075899601,-0.04625573009252548,-9.911602973937988
1.7294945745438367e+18,-0.012655161321163177,0.02702391892671585,-9.93920612335205
1.7294945745528369e+18,-0.04029490798711777,0.006471776869148016,-9.874581336975098
1.729494574561837e+18,-0.016444044187664986,-0.026193462312221527,-9.859223365783691
1.7294945745708372e+18,-0.015973608940839767,0.04969346523284912,-9.724875450134277
1.7294945745798374e+18,-0.01041506975889206,0.03566381707787514,-9.762133598327637
1.7294945745888376e+18,-0.011842734180390835,-0.0759764015674591,-9.830730438232422
1.7294945745948378e+18,-0.011921169236302376,0.005421680398285389,-9.78408145904541
1.729494574603838e+18,0.04818108305335045,0.03305268660187721,-9.70073413848877
1.729494574609838e+18,0.08196168392896652,-0.06234137713909149,-9.71801471710205
1.7294945746188383e+18,0.02148297056555748,0.021837497130036354,-9.692992210388184
1.7294945746278385e+18,0.022419357672333717,-0.022200651466846466,-9.618432998657227
1.7294945746368387e+18,0.029467610642313957,0.04446849599480629,-9.574627876281738
1.7294945746458388e+18,0.055523354560136795,0.035183195024728775,-9.613855361938477
1.729494574657839e+18,-0.004258170258253813,-0.01648593321442604,-9.596957206726074
1.7294945746668393e+18,0.01581411063671112,-0.009264882653951645,-9.603373527526855
1.7294945746758395e+18,0.027818040922284126,0.0014382959343492985,-9.634051322937012
1.7294945746848397e+18,-0.046026356518268585,-0.024976378306746483,-9.721226692199707
1.72949457469384e+18,0.06152788922190666,-0.009507453069090843,-9.658415794372559
1.72949457469984e+18,-0.0008263179333880544,0.03434687480330467,-9.622636795043945
1.7294945747118403e+18,0.009513248689472675,-0.04683433100581169,-9.635517120361328
1.7294945747178404e+18,0.0011445678537711501,-0.012766705825924873,-9.581697463989258
1.7294945747298406e+18,-0.0036229591351002455,0.04376488924026489,-9.53841495513916
1.7294945747388408e+18,0.010982688516378403,-0.0326814204454422,-9.56982421875
1.729494574747841e+18,-0.015429532155394554,-0.05809520557522774,-9.705437660217285
1.7294945747568412e+18,-0.011552789248526096,-0.039027243852615356,-9.661643981933594
1.7294945747658414e+18,0.05137072503566742,-0.011482711881399155,-9.676058769226074
1.7294945747778417e+18,-0.11429500579833984,0.02181682549417019,-9.617085456848145
1.7294945747838418e+18,0.007052863482385874,0.05113428086042404,-9.603822708129883
1.729494574792842e+18,-0.058177147060632706,-0.017229478806257248,-9.56842041015625
1.7294945748048422e+18,-0.04078156501054764,0.03302321583032608,-9.59249210357666
1.7294945748138424e+18,-0.02624327503144741,0.02825843170285225,-9.604580879211426
1.7294945748228426e+18,-0.006146769039332867,0.026627087965607643,-9.55611801147461
1.7294945748318428e+18,0.028157882392406464,0.016361117362976074,-9.617417335510254
1.729494574840843e+18,0.05266278237104416,-0.033619120717048645,-9.601018905639648
1.7294945748498432e+18,0.0028301978018134832,0.026528306305408478,-9.652170181274414
1.7294945748588434e+18,-0.053253863006830215,-0.023351464420557022,-9.606101036071777
1.7294945748678436e+18,-0.021172448992729187,0.037577591836452484,-9.572206497192383
1.7294945748768438e+18,-0.02462831139564514,-0.06713519990444183,-9.607928276062012
1.729494574888844e+18,0.01965218223631382,-0.05821886286139488,-9.604941368103027
1.7294945748978442e+18,0.0358397476375103,-0.009226981550455093,-9.663653373718262
1.7294945749068444e+18,-0.003860476892441511,0.00022500785416923463,-9.572135925292969
1.7294945749158446e+18,0.001868561957962811,0.012462766841053963,-9.59776782989502
1.7294945749248448e+18,0.01230972446501255,-0.09292475134134293,-9.548209190368652
1.729494574933845e+18,0.04491795599460602,0.05229753628373146,-9.556069374084473
1.7294945749428452e+18,-0.01172533817589283,0.05417105183005333,-9.654216766357422
1.7294945749518454e+18,-0.11300276964902878,0.030934279784560204,-9.608235359191895
1.7294945749638456e+18,-0.017628923058509827,-0.003124834271147847,-9.6308012008667
1.7294945749728458e+18,0.11521157622337341,0.049410734325647354,-9.574044227600098
1.729494574981846e+18,0.016379546374082565,-0.029836023226380348,-9.671989440917969
1.7294945749908462e+18,0.024406587705016136,-0.034163981676101685,-9.593719482421875
1.7294945749998464e+18,0.027038631960749626,-0.039056796580553055,-9.54941463470459
1.7294945750088466e+18,-0.013143554329872131,0.04647563770413399,-9.633657455444336
1.7294945750208468e+18,-0.04699990898370743,0.029092546552419662,-9.608709335327148
1.729494575029847e+18,0.03467933461070061,0.11535806953907013,-9.485651969909668
1.7294945750388472e+18,-0.004144864622503519,0.0029399190098047256,-9.5189847946167
1.7294945750478474e+18,0.0110499681904912,-0.05568065866827965,-9.565863609313965
1.7294945750568476e+18,0.030518913641572,0.005207723937928677,-9.504071235656738
1.7294945750658478e+18,0.04049736633896828,-0.003558038966730237,-9.564079284667969
1.729494575074848e+18,0.04438593611121178,-0.017312094569206238,-9.582534790039062
1.7294945750838482e+18,-0.0324709415435791,0.011508755385875702,-9.584122657775879
1.7294945750958484e+18,0.009542828425765038,-0.08612526953220367,-9.527558326721191
1.7294945751048486e+18,0.010142283514142036,0.05003747344017029,-9.447044372558594
1.7294945751138488e+18,-0.015940044075250626,0.010288182646036148,-9.51193618774414
1.729494575122849e+18,-0.047563184052705765,0.017134863883256912,-9.591156959533691
1.7294945751318492e+18,-0.10173822194337845,-0.03532397747039795,-9.564306259155273
1.7294945751408494e+18,0.01568966917693615,-0.028073305264115334,-9.6228666305542
1.7294945751528497e+18,0.05312889441847801,-0.03807392343878746,-9.555190086364746
1.7294945751588498e+18,0.01177527941763401,0.046006686985492706,-9.531177520751953
1.72949457516785e+18,0.003246080595999956,-0.010744843631982803,-9.628854751586914
1.7294945751768502e+18,0.013853400014340878,0.0025221300311386585,-9.539401054382324
1.7294945751858504e+18,0.040474873036146164,0.041254136711359024,-9.588743209838867
1.7294945751948506e+18,0.016472676768898964,0.024235717952251434,-9.512032508850098
1.7294945752038508e+18,-0.03548102080821991,0.02181866578757763,-9.492176055908203
1.729494575212851e+18,0.046452973037958145,-0.07666142284870148,-9.545968055725098
1.7294945752248512e+18,0.013579292222857475,-0.042394667863845825,-9.52873706817627
1.7294945752338514e+18,-0.056538838893175125,0.026503462344408035,-9.539695739746094
1.7294945752428516e+18,0.05721820145845413,0.006748865358531475,-9.53109073638916
1.7294945752488517e+18,-0.0094318687915802,-0.05257919803261757,-9.5325345993042
1.729494575260852e+18,-0.004317954648286104,-0.038661617785692215,-9.512523651123047
1.7294945752698522e+18,0.05712771788239479,0.05982170253992081,-9.578277587890625
1.7294945752788524e+18,-0.009012894704937935,-0.0082025695592165,-9.468095779418945
1.7294945752878525e+18,-0.028276797384023666,0.03476658836007118,-9.559637069702148
1.7294945752968527e+18,0.026340091601014137,0.010910497047007084,-9.458667755126953
1.729494575305853e+18,0.05161973088979721,0.03216251730918884,-9.466778755187988
1.729494575314853e+18,-0.0034901886247098446,0.10719536244869232,-9.530251502990723
1.7294945753238533e+18,-0.012986043468117714,0.026959914714097977,-9.4741792678833
1.7294945753328535e+18,0.03816699981689453,-0.02083195373415947,-9.534540176391602
1.7294945753418537e+18,-0.020120199769735336,-0.07011689990758896,-9.452093124389648
1.729494575350854e+18,-0.016202369704842567,-0.0076703643426299095,-9.462778091430664
1.729494575359854e+18,0.0570535883307457,-0.031082777306437492,-9.471356391906738
1.7294945753688543e+18,0.04503047838807106,0.10274000465869904,-9.57371711730957
1.7294945753778545e+18,0.12908193469047546,0.01958361081779003,-9.455015182495117
1.7294945753868547e+18,-0.056166477501392365,-0.02099710702896118,-9.46949577331543
1.7294945753958548e+18,-0.022025400772690773,0.06832242012023926,-9.571131706237793
1.729494575404855e+18,0.05821849778294563,0.03076641634106636,-9.439059257507324
1.7294945754138552e+18,-0.07872524112462997,0.013594666495919228,-9.486601829528809
1.7294945754228554e+18,0.062306106090545654,0.03278270736336708,-9.577374458312988
1.7294945754318556e+18,0.03384913131594658,-0.00913030095398426,-9.401805877685547
1.7294945754408558e+18,-0.041143838316202164,0.029654178768396378,-9.413805961608887
1.729494575449856e+18,-0.031113428995013237,-0.024293327704072,-9.483739852905273
1.7294945754588562e+18,-0.004175365902483463,-0.04162534698843956,-9.424896240234375
1.7294945754678564e+18,0.003119268687441945,0.05194057896733284,-9.46015453338623
1.7294945754768566e+18,0.0032013324089348316,-0.09272955358028412,-9.475096702575684
1.7294945754858568e+18,-0.005734114442020655,-0.03753609210252762,-9.423998832702637
1.729494575494857e+18,-0.017929494380950928,0.026920419186353683,-9.462233543395996
1.7294945755038572e+18,0.06481333822011948,0.02598925307393074,-9.471665382385254
1.7294945755128573e+18,0.046227339655160904,-0.006314386148005724,-9.471041679382324
1.7294945755218575e+18,0.025701411068439484,-0.041626133024692535,-9.44956111907959
1.7294945755308577e+18,0.03548789769411087,-0.01117742620408535,-9.434849739074707
1.729494575539858e+18,0.027915330603718758,-0.01472769770771265,-9.476571083068848
1.729494575548858e+18,-0.038471803069114685,0.03478112444281578,-9.456125259399414
1.7294945755578583e+18,0.032442424446344376,-0.08028006553649902,-9.42213249206543
1.7294945755668585e+18,-0.053389571607112885,0.02101532742381096,-9.457164764404297
1.7294945755758587e+18,0.08471794426441193,0.046289242804050446,-9.560266494750977
1.729494575587859e+18,-0.02064063586294651,-0.06916648149490356,-9.400324821472168
1.729494575593859e+18,-0.010933511890470982,0.0546344593167305,-9.46061897277832
1.7294945756058593e+18,-0.01964891515672207,0.049979083240032196,-9.510836601257324
1.7294945756148595e+18,0.04153621569275856,-0.002449114341288805,-9.53235149383545
1.7294945756208596e+18,-0.004928940907120705,0.016068758442997932,-9.46868896484375
1.7294945756298598e+18,-0.018367575481534004,-0.0036484836600720882,-9.418128967285156
1.72949457563886e+18,-0.006405070424079895,0.08652075380086899,-9.398149490356445
1.7294945756508603e+18,0.001870052656158805,-4.038281622342765e-05,-9.36489486694336
1.7294945756568604e+18,0.008647285401821136,-0.0025339275598526,-9.410881996154785
1.7294945756658606e+18,-0.04953950643539429,0.04282023385167122,-9.471445083618164
1.7294945756748608e+18,-0.0571029894053936,0.017923925071954727,-9.3816499710083
1.729494575680861e+18,0.006952297408133745,-0.006488649640232325,-9.41801929473877
1.729494575686861e+18,-0.02188429981470108,0.05782614275813103,-9.467206954956055
1.7294945756958612e+18,0.07420440763235092,-0.055200204253196716,-9.426298141479492
1.7294945757078615e+18,-0.06582873314619064,0.0205138698220253,-9.422856330871582
1.7294945757168617e+18,0.04992320388555527,0.033989910036325455,-9.458243370056152
1.729494575725862e+18,-0.0036789881996810436,0.027255428954958916,-9.524620056152344
1.729494575734862e+18,0.047527242451906204,0.03331635519862175,-9.478182792663574
1.7294945757408622e+18,-0.019312283024191856,0.001815146068111062,-9.431105613708496
1.7294945757498624e+18,-0.02626744471490383,0.025858230888843536,-9.409342765808105
1.7294945757588626e+18,-0.0651540532708168,0.09924057126045227,-9.480853080749512
1.7294945757678628e+18,-0.02746030129492283,0.025623619556427002,-9.5071439743042
1.729494575776863e+18,0.015966014936566353,-0.05979348346590996,-9.398120880126953
1.7294945757858632e+18,0.04140568524599075,0.03729695454239845,-9.476295471191406
1.7294945757918633e+18,0.025644656270742416,-0.014706576243042946,-9.422455787658691
1.7294945758008635e+18,-0.0363202802836895,-0.03207921236753464,-9.370113372802734
1.7294945758128637e+18,-0.020957237109541893,0.050548676401376724,-9.45639705657959
1.729494575821864e+18,-0.0044293212704360485,-0.05086011812090874,-9.42653751373291
1.7294945758308641e+18,-0.04297872260212898,-0.035094618797302246,-9.392565727233887
1.7294945758398643e+18,-0.060735251754522324,-0.05496801808476448,-9.419212341308594
1.7294945758488645e+18,-0.027511416003108025,0.004877124913036823,-9.499128341674805
1.7294945758548646e+18,-0.032030463218688965,-0.043762512505054474,-9.418540954589844
1.7294945758638648e+18,-0.03086979128420353,-0.07783906161785126,-9.400890350341797
1.729494575872865e+18,0.05556277185678482,-0.003295072354376316,-9.484325408935547
1.7294945758788652e+18,-0.065057672560215,-0.035850878804922104,-9.419116973876953
1.7294945758848653e+18,0.01340877078473568,-0.06003212556242943,-9.351470947265625
1.7294945758938655e+18,-0.012364654801785946,-0.0180036723613739,-9.372900009155273
1.7294945759028657e+18,0.026592710986733437,-0.022908687591552734,-9.4205322265625
1.7294945759118659e+18,-0.021668463945388794,0.02186691388487816,-9.437798500061035
1.729494575917866e+18,-0.10668925940990448,-0.062245793640613556,-9.360162734985352
1.729494575923866e+18,-0.05270575359463692,-0.015462634153664112,-9.371749877929688
1.7294945759328663e+18,-0.023906543850898743,-0.025134239345788956,-9.288277626037598
1.7294945759388664e+18,0.05334170535206795,-0.028980974107980728,-9.375900268554688
1.7294945759508667e+18,-0.015328395180404186,-0.013505261391401291,-9.347317695617676
1.7294945759568668e+18,0.06073073297739029,0.028904322534799576,-9.351554870605469
1.729494575962867e+18,0.027017146348953247,0.011651256121695042,-9.369427680969238
1.729494575968867e+18,0.009641711600124836,-0.061100803315639496,-9.317936897277832
1.7294945759778673e+18,-0.06394486129283905,-0.017266426235437393,-9.266077041625977
1.7294945759868675e+18,-0.03306666389107704,0.008592609316110611,-9.26620864868164
1.7294945759958676e+18,-0.031225742772221565,0.007610962726175785,-9.201359748840332
1.7294945760048678e+18,0.044954657554626465,-0.023648204281926155,-9.119020462036133
1.729494576010868e+18,0.04637898877263069,0.016030989587306976,-9.108019828796387
1.7294945760228682e+18,0.044853225350379944,-0.02083740010857582,-9.115436553955078
1.7294945760318684e+18,0.0013641191180795431,0.02249312400817871,-9.032546997070312
1.7294945760378685e+18,0.08203703910112381,-0.033018145710229874,-9.040327072143555
1.7294945760438687e+18,0.0049874805845320225,-0.04569583013653755,-9.071927070617676
1.7294945760528689e+18,0.04339083656668663,0.003613659180700779,-8.944234848022461
1.729494576061869e+18,0.06869775056838989,-0.006887922994792461,-8.93752384185791
1.7294945760708692e+18,-0.02547639235854149,0.0111467894166708,-8.90542984008789
1.7294945760738693e+18,-0.015509138815104961,0.014058222062885761,-8.932340621948242
1.7294945760828695e+18,0.022422445937991142,-0.07970044761896133,-8.898063659667969
1.7294945760888696e+18,0.018431497737765312,-0.03184179589152336,-8.93757438659668
1.7294945760978698e+18,-0.043253883719444275,-0.029897702857851982,-8.866933822631836
1.72949457610687e+18,0.04116411134600639,-0.00442422553896904,-8.78504467010498
1.7294945761128701e+18,0.0020165122114121914,-0.0032900392543524504,-8.877785682678223
1.7294945761188703e+18,-0.03471650183200836,0.021938133984804153,-8.732420921325684
1.7294945761278705e+18,-0.044277891516685486,0.07384118437767029,-8.699403762817383
1.7294945761398707e+18,-0.04931573569774628,0.08042079210281372,-8.664884567260742
1.729494576148871e+18,0.0012138370657339692,-0.01698901690542698,-8.671490669250488
1.729494576154871e+18,0.002780705690383911,-0.0456932857632637,-8.64732551574707
1.7294945761638712e+18,-0.012796585448086262,0.04001760855317116,-8.65514087677002
1.7294945761728714e+18,-0.020201120525598526,0.006568710319697857,-8.641514778137207
1.7294945761818716e+18,0.005381148774176836,-0.030936621129512787,-8.603195190429688
1.7294945761908718e+18,-0.03419473022222519,-0.10656583309173584,-8.624442100524902
1.729494576199872e+18,-0.018516721203923225,0.04343067854642868,-8.611735343933105
1.7294945762088722e+18,-0.005585905164480209,-0.021676860749721527,-8.668068885803223
1.7294945762178724e+18,0.007116641383618116,0.03383485972881317,-8.655632972717285
1.7294945762268726e+18,0.03789064660668373,-0.024280913174152374,-8.719165802001953
1.7294945762328727e+18,-0.03355398774147034,-0.009458302520215511,-8.680322647094727
1.729494576241873e+18,0.011157776229083538,-0.009918168187141418,-8.69328498840332
1.729494576250873e+18,0.028266362845897675,-0.1258479654788971,-8.63662052154541
1.7294945762628733e+18,0.05316672846674919,-0.07947154343128204,-8.75800895690918
1.7294945762718735e+18,-0.031043775379657745,-0.037071797996759415,-8.720654487609863
1.7294945762808737e+18,-0.0245010107755661,-0.032941319048404694,-8.773590087890625
1.729494576289874e+18,0.06602241098880768,0.00020651657541748136,-12.098968505859375
1.729494576298874e+18,0.03226558864116669,0.006906560156494379,-15.548158645629883
1.7294945763078743e+18,0.036047011613845825,0.07598341256380081,-16.12586784362793
1.7294945763138744e+18,-0.04879981651902199,0.005210901610553265,-16.133710861206055
1.7294945763228746e+18,-0.016034455969929695,0.09836596995592117,-16.124292373657227
1.7294945763288748e+18,-0.0451277457177639,-0.04679443687200546,-16.2191219329834
1.729494576337875e+18,0.07333902269601822,-0.09563329070806503,-16.071800231933594
1.7294945763468751e+18,0.0021244105882942677,-0.010586796328425407,-16.10104751586914
1.7294945763528753e+18,0.04534149169921875,0.009172167629003525,-15.876397132873535
1.7294945763588754e+18,0.01258863601833582,-0.002563747577369213,-15.772873878479004
1.7294945763678756e+18,0.08268660306930542,0.012266216799616814,-15.792718887329102
1.7294945763738757e+18,-0.0009310811292380095,-0.023214157670736313,-15.569744110107422
1.729494576385876e+18,0.02217794954776764,0.027167361229658127,-15.398327827453613
1.7294945763948762e+18,0.011461788788437843,0.022742634639143944,-15.316184997558594
1.7294945764038764e+18,-0.06423258781433105,0.05602852627635002,-15.14973258972168
1.7294945764128765e+18,0.04928245767951012,0.03072001412510872,-14.959216117858887
1.7294945764218767e+18,-0.019220393151044846,0.05420028418302536,-14.816505432128906
1.729494576430877e+18,0.03986595943570137,0.028094157576560974,-14.696465492248535
1.729494576439877e+18,-0.05848328396677971,-0.01818815991282463,-14.650789260864258
1.7294945764488773e+18,0.016489583998918533,-0.021326279267668724,-14.519940376281738
1.7294945764578775e+18,0.02541431598365307,0.029221614822745323,-14.39093017578125
1.7294945764668777e+18,-0.01876361109316349,0.07528877258300781,-14.22369384765625
1.729494576475878e+18,0.01223822869360447,-0.03725709766149521,-14.190825462341309
1.729494576484878e+18,-0.02839270420372486,-0.027020089328289032,-14.113390922546387
1.7294945764938783e+18,0.07643493264913559,-0.1295633763074875,-13.948731422424316
1.7294945765028785e+18,0.06197462975978851,-0.007002080790698528,-13.8707275390625
1.7294945765118787e+18,0.015511244535446167,0.02852080762386322,-13.831108093261719
1.7294945765208788e+18,0.0038021705113351345,0.04232703149318695,-13.738812446594238
1.729494576529879e+18,0.03393935412168503,-0.067268505692482,-13.596848487854004
1.7294945765388792e+18,0.0012069842778146267,-0.03596275672316551,-13.437440872192383
1.7294945765418793e+18,-0.07833101600408554,0.029622763395309448,-13.41961669921875
1.7294945765508795e+18,-0.035693660378456116,0.005458202213048935,-13.339852333068848
1.7294945765598797e+18,0.027381660416722298,0.04884876310825348,-13.33582878112793
1.7294945765688799e+18,0.07374754548072815,0.009163343347609043,-13.203389167785645
1.72949457657788e+18,-0.007132732309401035,0.0065855528227984905,-13.104408264160156
1.7294945765868803e+18,0.08450793474912643,-0.009776853956282139,-13.06505298614502
1.7294945765958804e+18,0.0082936342805624,0.027427570894360542,-12.927740097045898
1.7294945766048806e+18,-0.05164828896522522,-0.0022492206189781427,-12.918695449829102
1.7294945766138808e+18,-0.03640807792544365,-0.05839773267507553,-12.840360641479492
1.729494576622881e+18,0.005143375135958195,0.043613605201244354,-12.850987434387207
1.7294945766318812e+18,0.021758710965514183,-0.016547035425901413,-12.728279113769531
1.7294945766408814e+18,0.05817774683237076,-0.02063405141234398,-12.642777442932129
1.7294945766498816e+18,-0.02571047469973564,-0.00746261328458786,-12.47803783416748
1.7294945766588818e+18,-0.015743214637041092,0.03143012523651123,-12.48348331451416
1.729494576667882e+18,0.04325587674975395,-0.011316362768411636,-12.44471549987793
1.7294945766768822e+18,0.026526881381869316,-0.019328977912664413,-12.421969413757324
1.7294945766888824e+18,-0.031239164993166924,-0.013811237178742886,-12.271327018737793
1.7294945766978826e+18,0.017181213945150375,-0.010815917514264584,-12.198939323425293
1.729494576709883e+18,0.02886047400534153,-0.05222495645284653,-12.208106994628906
1.729494576718883e+18,-0.008045712485909462,-0.03774892911314964,-12.071556091308594
1.7294945767278833e+18,-0.020096754655241966,-0.016338683664798737,-11.973575592041016
1.7294945767368835e+18,-0.07356268167495728,-0.015470223501324654,-11.990102767944336
1.7294945767458836e+18,0.05694083496928215,-0.08279354125261307,-11.923818588256836
1.729494576757884e+18,-0.015232868492603302,-0.07199633866548538,-11.974552154541016
1.729494576766884e+18,0.025204837322235107,-0.07281233370304108,-11.788392066955566
1.7294945767758843e+18,-0.011073260568082333,0.03459341824054718,-11.835405349731445
1.7294945767878845e+18,0.08723048120737076,0.008240663446485996,-11.811704635620117
1.7294945767968847e+18,-0.03444700688123703,-0.05339129641652107,-11.752105712890625
1.729494576805885e+18,0.028302699327468872,0.01105224248021841,-11.664791107177734
1.729494576814885e+18,0.01982487365603447,0.04265494644641876,-11.600074768066406
1.7294945768238853e+18,-0.030022796243429184,0.03498470038175583,-11.59363079071045
1.7294945768358856e+18,-0.023896433413028717,-0.013574310578405857,-11.498754501342773
1.7294945768448858e+18,-0.06273724138736725,-0.03576059266924858,-11.554510116577148
1.729494576850886e+18,-0.05598482862114906,0.002105278894305229,-11.505169868469238
1.729494576859886e+18,-0.01968308910727501,-0.04565027356147766,-11.50013256072998
1.7294945768688863e+18,-0.04028536006808281,-0.11745902895927429,-11.38073444366455
1.7294945768778865e+18,0.026834635064005852,0.024461453780531883,-11.332274436950684
1.7294945768868867e+18,0.08601144701242447,-0.02795904129743576,-11.319437980651855
1.7294945768958868e+18,0.05069611594080925,0.010235138237476349,-11.346081733703613
1.729494576904887e+18,0.01163794007152319,-0.0170122217386961,-11.329411506652832
1.7294945769138872e+18,-0.14627812802791595,0.024945111945271492,-11.318221092224121
1.7294945769228874e+18,0.07477857917547226,-0.04063715040683746,-11.13750171661377
1.7294945769318876e+18,-0.008961898274719715,-0.02351030521094799,-11.182439804077148
1.7294945769378877e+18,-0.03736761584877968,0.04411276802420616,-11.173483848571777
1.729494576949888e+18,-0.060417160391807556,0.055879686027765274,-11.1317777633667
1.7294945769588882e+18,0.08352197706699371,0.06874552369117737,-11.090696334838867
1.7294945769648883e+18,0.048084806650877,0.0003839954733848572,-11.088274002075195
1.7294945769768886e+18,-0.011572763323783875,-0.0805993527173996,-11.09222412109375
1.7294945769858888e+18,-0.04895612224936485,0.04385797679424286,-10.97091293334961
1.729494576991889e+18,0.046147286891937256,0.06858454644680023,-11.032479286193848
1.729494577000889e+18,-0.055162761360406876,-0.017807023599743843,-10.922525405883789
1.7294945770098893e+18,-0.04496641457080841,0.008576234802603722,-11.053217887878418
1.7294945770188895e+18,0.005396959837526083,-0.009328644722700119,-10.910959243774414
1.7294945770248896e+18,-0.028859253972768784,0.013067375868558884,-10.928252220153809
1.7294945770338898e+18,-0.02932991087436676,-0.03154155611991882,-10.964103698730469
1.72949457704289e+18,-0.03393924608826637,0.009712232276797295,-10.85036563873291
1.7294945770518902e+18,0.030644714832305908,0.04450387507677078,-10.750163078308105
1.7294945770608904e+18,0.03285681828856468,-0.025039557367563248,-10.899880409240723
1.7294945770698906e+18,0.019884854555130005,0.05234867334365845,-10.82308292388916
1.7294945770788908e+18,-0.002228203695267439,-0.010436130687594414,-10.82096004486084
1.729494577087891e+18,-0.01259511150419712,0.0038876752369105816,-10.795342445373535
1.7294945770968911e+18,-0.01819666102528572,-0.09273035079240799,-10.72618579864502
1.7294945771058913e+18,0.008524660021066666,0.0658617690205574,-10.69095516204834
1.7294945771118915e+18,0.041042011231184006,0.0757240504026413,-10.706445693969727
1.7294945771208916e+18,-0.010363725945353508,0.017089497298002243,-10.686285018920898
1.7294945771298918e+18,0.01805366948246956,-0.011067153885960579,-10.627753257751465
1.729494577138892e+18,0.0403679683804512,0.021431148052215576,-10.6414213180542
1.7294945771478922e+18,-0.027925757691264153,0.006412831600755453,-10.625128746032715
1.7294945771568924e+18,-0.0159361083060503,-0.03412950783967972,-10.662561416625977
1.7294945771658926e+18,-0.0409163236618042,0.04788098856806755,-10.637269020080566
1.7294945771748928e+18,0.028901351615786552,0.05639803409576416,-10.559284210205078
1.729494577183893e+18,0.0012798598036170006,0.006027182564139366,-10.603052139282227
1.7294945771928932e+18,0.006615953519940376,0.013584189116954803,-10.594192504882812
1.7294945772018934e+18,0.002238356741145253,-0.009845583699643612,-10.495080947875977
1.7294945772108936e+18,-0.02270320989191532,0.07232865691184998,-10.474688529968262
1.7294945772198938e+18,-0.06603916734457016,-0.0034903718624264,-10.462629318237305
1.729494577228894e+18,-0.05621352046728134,0.005744961556047201,-10.448847770690918
1.7294945772378941e+18,0.0010791869135573506,-0.021387575194239616,-10.413189888000488
1.7294945772438943e+18,-0.0013395503628998995,-0.03564981743693352,-10.489412307739258
1.7294945772528945e+18,-0.0076392353512346745,0.043295376002788544,-10.388406753540039
1.7294945772618947e+18,0.02218805067241192,0.006534222513437271,-10.42695140838623
1.7294945772708948e+18,-0.021912187337875366,-0.021330799907445908,-10.38435173034668
1.729494577279895e+18,0.0746702253818512,0.054416924715042114,-10.38890266418457
1.7294945772888952e+18,-0.09848836809396744,0.041120000183582306,-10.422066688537598
1.7294945772978954e+18,-0.03998849540948868,0.0011024962877854705,-10.330060005187988
1.7294945773038956e+18,-0.007314423099160194,-0.0341816321015358,-10.420768737792969
1.7294945773128957e+18,-0.09085171669721603,0.08554515242576599,-10.296340942382812
1.729494577321896e+18,-0.006397556513547897,0.02267475053668022,-10.300737380981445
1.7294945773308961e+18,0.03469417244195938,-0.030514420941472054,-10.409616470336914
1.7294945773398963e+18,0.07214757800102234,0.029596693813800812,-10.252241134643555
1.7294945773428964e+18,0.04582523554563522,0.10089700669050217,-10.314665794372559
1.7294945773518966e+18,0.04806327447295189,-0.06880557537078857,-10.240641593933105
1.7294945773638968e+18,0.07761504501104355,-0.026745522394776344,-10.281835556030273
1.729494577372897e+18,0.024034947156906128,0.002503360155969858,-10.263773918151855
1.7294945773818972e+18,0.01153200026601553,0.0016048813704401255,-10.188450813293457
1.7294945773878973e+18,0.0169606301933527,-0.022032804787158966,-10.20663070678711
1.7294945773968975e+18,-0.011953367851674557,-0.00251032505184412,-10.237214088439941
1.7294945774058977e+18,-0.029084183275699615,0.03842095285654068,-10.141124725341797
1.729494577417898e+18,-2.593372482806444e-05,-0.05337624251842499,-10.303276062011719
1.729494577423898e+18,-0.055531200021505356,0.021560559049248695,-10.212167739868164
1.7294945774328983e+18,0.12348409742116928,-0.03377603739500046,-10.170677185058594
1.7294945774418985e+18,-0.021929755806922913,0.07367248833179474,-10.10158920288086
1.7294945774508987e+18,0.00035019376082345843,-0.002012602984905243,-10.21782112121582
1.729494577459899e+18,0.0028083459474146366,-0.012026432901620865,-10.093160629272461
1.7294945774718991e+18,0.04097473993897438,-0.03645358979701996,-10.151920318603516
1.7294945774808993e+18,0.0005689474055543542,0.024513477459549904,-10.064887046813965
1.7294945774928996e+18,0.013259082101285458,0.05919620394706726,-10.091582298278809
1.7294945774988997e+18,0.02368994802236557,0.11523901671171188,-10.038739204406738
1.7294945775109e+18,0.06656894832849503,0.035998616367578506,-10.08065128326416
1.7294945775199002e+18,-0.09045690298080444,-0.005685766693204641,-10.126649856567383
1.7294945775289004e+18,-0.017854344099760056,0.12939555943012238,-10.092828750610352
1.7294945775379005e+18,-0.058555521070957184,0.021285291761159897,-10.045784950256348
1.7294945775439007e+18,-0.03839174658060074,0.03853113204240799,-10.010159492492676
1.7294945775529009e+18,0.0003909061197191477,-0.08412104845046997,-10.042707443237305
1.729494577561901e+18,0.004377844277769327,-0.022952500730752945,-10.044767379760742
1.7294945775709012e+18,0.06333822757005692,0.03670524060726166,-10.061388969421387
1.7294945775799014e+18,-0.002736286260187626,-0.01881224662065506,-9.979219436645508
1.7294945775859016e+18,-0.04285991191864014,-0.08875636011362076,-9.942206382751465
1.7294945775919017e+18,0.05075302720069885,-0.013007435016334057,-10.008913040161133
1.729494577600902e+18,-0.04067995771765709,0.013376906514167786,-9.959148406982422
1.729494577606902e+18,-0.08151336759328842,-0.053841762244701385,-10.04948902130127
1.7294945776159022e+18,-0.01986665464937687,-0.02570136822760105,-10.021906852722168
1.7294945776279025e+18,-0.009285274893045425,-0.048970095813274384,-10.045458793640137
1.7294945776369027e+18,0.011169246397912502,-0.06659722328186035,-9.965154647827148
1.7294945776429028e+18,-0.0068640150129795074,-0.05046146363019943,-9.985228538513184
1.729494577654903e+18,0.050980400294065475,-0.04055234417319298,-9.947115898132324
1.7294945776609032e+18,0.006219153292477131,0.046066612005233765,-9.948293685913086
1.7294945776699034e+18,0.001231171889230609,0.0320267379283905,-9.917551040649414
1.7294945776819036e+18,0.04381190240383148,0.07177651673555374,-10.013551712036133
1.7294945776909038e+18,0.09202232211828232,0.03683669865131378,-9.908432960510254
1.729494577696904e+18,-0.017908791080117226,0.0790354460477829,-9.921506881713867
1.729494577705904e+18,-0.04739126190543175,0.050810836255550385,-9.940705299377441
1.7294945777149043e+18,0.03386269137263298,-0.034371618181467056,-9.967828750610352
1.7294945777239045e+18,-0.012692813761532307,-0.012393920682370663,-9.955896377563477
1.7294945777329047e+18,-0.03756679221987724,0.023529671132564545,-9.866158485412598
1.729494577741905e+18,0.012044211849570274,0.0525767020881176,-9.948256492614746
1.729494577750905e+18,0.03656354174017906,-0.01731412671506405,-9.932038307189941
1.7294945777569052e+18,-0.04988102614879608,0.05897527560591698,-9.964201927185059
1.7294945777689055e+18,0.003921851050108671,0.08929018676280975,-9.910013198852539
1.7294945777749056e+18,-0.04453614726662636,-0.04907717555761337,-9.9238920211792
1.7294945777839058e+18,-0.02072785049676895,-0.051755234599113464,-9.904717445373535
1.729494577792906e+18,0.05851764604449272,0.09094249457120895,-9.799851417541504
1.7294945778019062e+18,0.03970147669315338,0.07375574111938477,-9.919743537902832
1.7294945778109064e+18,0.04155344143509865,-0.04559217020869255,-9.864866256713867
1.7294945778199066e+18,-0.04499258100986481,-0.07162848114967346,-9.884135246276855
1.7294945778289068e+18,-0.005341917742043734,0.01761375553905964,-9.881108283996582
1.729494577837907e+18,0.01943640410900116,0.08680692315101624,-9.887195587158203
1.7294945778469071e+18,-0.012875232845544815,-0.025455089285969734,-9.79414176940918
1.7294945778559073e+18,-0.06544703245162964,-0.018981482833623886,-9.92025089263916
1.7294945778619075e+18,0.03372728452086449,-0.013485286384820938,-9.796361923217773
1.7294945778709076e+18,0.0013134974287822843,-0.036953236907720566,-9.898301124572754
1.7294945778799078e+18,-0.052169475704431534,0.09498460590839386,-9.855630874633789
1.729494577888908e+18,0.0032670050859451294,-0.03803117573261261,-9.824840545654297
1.7294945778979082e+18,0.026104383170604706,-0.007622241973876953,-9.95280933380127
1.7294945779039084e+18,-0.10353253036737442,0.044268202036619186,-9.801056861877441
1.7294945779129085e+18,-0.008433754555881023,0.0004586470313370228,-9.817854881286621
1.7294945779219087e+18,-0.01192537322640419,-0.03853655233979225,-9.89419174194336
1.7294945779279089e+18,0.07159790396690369,0.027106832712888718,-9.847164154052734
1.729494577936909e+18,0.04637331888079643,0.04521565139293671,-9.866008758544922
1.7294945779459092e+18,-0.026188606396317482,-0.053753167390823364,-9.81558895111084
1.7294945779549094e+18,0.02862166054546833,0.010047677904367447,-9.737202644348145
1.7294945779639096e+18,-0.004231000319123268,-0.0026383185759186745,-9.826742172241211
1.7294945779729098e+18,0.040049467235803604,0.030412692576646805,-9.80102252960205
1.72949457798191e+18,0.019638486206531525,0.01420225016772747,-9.762898445129395
1.7294945779909102e+18,0.044346585869789124,0.009030917659401894,-9.845708847045898
1.7294945780029105e+18,0.005706325173377991,0.07478059083223343,-9.83797550201416
1.7294945780119107e+18,0.01946042850613594,-0.08438445627689362,-9.76724910736084
1.7294945780209108e+18,0.0012147908564656973,-0.008975768461823463,-9.7473783493042
1.729494578026911e+18,0.00014652282698079944,-0.008965278044342995,-9.805892944335938
1.7294945780359112e+18,-0.035005923360586166,0.02060667984187603,-9.784526824951172
1.7294945780449114e+18,0.022760383784770966,-0.006500083487480879,-9.84213638305664
1.7294945780539116e+18,-0.049139440059661865,-0.014135049656033516,-9.808910369873047
1.7294945780629117e+18,-0.020793702453374863,0.007356394547969103,-9.771262168884277
1.7294945780689119e+18,0.01813061349093914,0.007544057443737984,-9.874706268310547
1.729494578077912e+18,0.049712590873241425,0.05286745727062225,-9.744610786437988
1.7294945780839122e+18,0.020940955728292465,-0.028251908719539642,-9.725919723510742
1.7294945780929124e+18,-0.053482912480831146,0.012406064197421074,-9.849727630615234
1.7294945781019126e+18,-0.05955938994884491,-0.0883362740278244,-9.75023078918457
1.7294945781109128e+18,0.0031019325833767653,-0.04088461026549339,-9.783559799194336
1.729494578116913e+18,-0.039159901440143585,-0.0165413785725832,-9.654298782348633
1.729494578125913e+18,0.04841446131467819,0.011558923870325089,-9.797215461730957
1.7294945781349133e+18,0.06175834313035011,0.015510435216128826,-9.697101593017578
1.7294945781409134e+18,-0.0434526726603508,0.046496812254190445,-9.758442878723145
1.7294945781499136e+18,-0.0596461221575737,-0.04312862083315849,-9.771342277526855
1.7294945781589138e+18,-0.05381244793534279,0.02969389222562313,-9.826373100280762
1.729494578164914e+18,0.0008768782136030495,-0.003834750736132264,-9.785370826721191
1.729494578173914e+18,0.037123903632164,0.031866397708654404,-9.756803512573242
1.7294945781859144e+18,0.02822180464863777,0.05172640457749367,-9.792862892150879
1.7294945781919145e+18,-0.042007386684417725,-0.030053317546844482,-9.669669151306152
1.7294945782039148e+18,-0.009213659912347794,0.030277997255325317,-9.726057052612305
1.729494578215915e+18,0.009067201986908913,-0.0062360321171581745,-9.744352340698242
1.7294945782249152e+18,-0.016763759776949883,-0.003470578696578741,-9.795555114746094
1.7294945782309153e+18,0.025079401209950447,0.01658434234559536,-9.7302885055542
1.7294945782429156e+18,-0.015400550328195095,-0.04054143652319908,-9.768316268920898
1.7294945782519158e+18,-0.06613361835479736,0.042467065155506134,-9.726611137390137
1.729494578260916e+18,-0.04252848029136658,-0.04570178687572479,-9.7855224609375
1.7294945782699162e+18,0.03290681168437004,0.020983170717954636,-9.689499855041504
1.7294945782789164e+18,-0.01508040726184845,0.033507149666547775,-9.763797760009766
1.7294945782879165e+18,-0.09070292860269547,-0.01784151792526245,-9.715978622436523
1.7294945782969167e+18,-0.040960073471069336,-0.057826705276966095,-9.781527519226074
1.729494578308917e+18,-0.020772825926542282,0.050898123532533646,-9.843674659729004
1.7294945783179172e+18,-0.0449916273355484,0.04906296730041504,-9.716958999633789
1.7294945783269174e+18,-0.011551788076758385,-0.039939943701028824,-9.751001358032227
1.7294945783359176e+18,-0.005615595728158951,0.041764434427022934,-9.802910804748535
1.7294945783449178e+18,-0.00921687576919794,-0.0013517274055629969,-9.867835998535156
1.729494578353918e+18,0.03902580216526985,0.004618448670953512,-9.92992877960205
1.7294945783629181e+18,0.029412001371383667,0.06250108033418655,-9.762510299682617
1.7294945783719183e+18,-0.03813602030277252,-0.006715200841426849,-9.779614448547363
1.7294945783809185e+18,-0.025582119822502136,0.015410142950713634,-9.815591812133789
1.7294945783899187e+18,-0.002417651703581214,0.07052031904459,-9.841191291809082
1.729494578398919e+18,0.038290929049253464,-0.010018950328230858,-9.870149612426758
1.729494578404919e+18,-0.01711271144449711,-0.025667663663625717,-9.823485374450684
1.7294945784139192e+18,-0.006465431302785873,0.008082471787929535,-9.798449516296387
1.7294945784229194e+18,0.036106571555137634,-0.06660228967666626,-9.845026016235352
1.7294945784289196e+18,0.0008220274467021227,0.01868843287229538,-9.801353454589844
1.7294945784409198e+18,-0.03122905269265175,0.0417063944041729,-9.76345157623291
1.72949457844692e+18,-0.0705341324210167,-0.02966604381799698,-9.870452880859375
1.7294945784589202e+18,0.05766305699944496,-0.046006910502910614,-9.824450492858887
1.7294945784679204e+18,-0.05026332288980484,-0.05116070806980133,-9.782957077026367
1.7294945784769206e+18,-0.018733453005552292,-0.005104554817080498,-9.763589859008789
1.7294945784859208e+18,0.04568762332201004,-0.041878871619701385,-9.857024192810059
1.729494578491921e+18,0.0530964657664299,0.030033696442842484,-9.694286346435547
1.7294945785039212e+18,-0.04364939406514168,-0.006604259833693504,-9.840624809265137
1.7294945785129213e+18,-0.02674086019396782,-0.0003955281572416425,-9.745201110839844
1.7294945785219215e+18,-0.004689796827733517,0.06633525341749191,-9.76612377166748
1.7294945785309217e+18,-0.054697562009096146,0.06097603216767311,-9.887286186218262
1.729494578542922e+18,-0.0069964975118637085,-0.05846298485994339,-9.83316707611084
1.729494578548922e+18,0.10600153356790543,-0.06896039098501205,-9.773737907409668
1.7294945785579223e+18,-0.08555279672145844,-0.019690539687871933,-9.67303466796875
1.7294945785669225e+18,-0.03210015222430229,-0.022887270897626877,-9.794023513793945
1.7294945785759227e+18,0.03381780534982681,0.00041139376116916537,-9.765937805175781
1.729494578584923e+18,0.05116730183362961,0.019099893048405647,-9.7764892578125
1.7294945785969231e+18,0.06562545895576477,0.009447721764445305,-9.790338516235352
1.7294945786059233e+18,0.016405275091528893,-0.0211433507502079,-9.731497764587402
1.7294945786149235e+18,0.05671738088130951,0.04072784259915352,-9.743167877197266
1.7294945786239237e+18,0.02253403514623642,0.06661058962345123,-9.727018356323242
1.729494578632924e+18,0.01436048373579979,0.012666023336350918,-9.772757530212402
1.729494578641924e+18,0.060835834592580795,0.015024146996438503,-9.703816413879395
1.7294945786509243e+18,-0.0346074216067791,0.047702111303806305,-9.72468090057373
1.7294945786599245e+18,0.02432708442211151,-0.06821668893098831,-9.812366485595703
1.7294945786659246e+18,0.04149915277957916,-0.053063616156578064,-9.792247772216797
1.7294945786749248e+18,0.03212232515215874,0.031749870628118515,-9.711790084838867
1.729494578683925e+18,0.009558120742440224,0.0208005141466856,-9.782355308532715
1.729494578689925e+18,0.01921982504427433,-0.02986975386738777,-9.732013702392578
1.7294945787019254e+18,0.0662928894162178,-0.036884110420942307,-9.696925163269043
1.7294945787139256e+18,-0.018536046147346497,0.04182492196559906,-9.682971000671387
1.7294945787229258e+18,-0.039425481110811234,-0.05047279968857765,-9.69813060760498
1.729494578731926e+18,0.028450749814510345,0.0028960094787180424,-9.700567245483398
1.7294945787409262e+18,-0.020711764693260193,0.029439743608236313,-9.759882926940918
1.7294945787499264e+18,0.010951787233352661,-0.00965713057667017,-9.803873062133789
1.7294945787559265e+18,0.043463293462991714,-0.046502768993377686,-9.762609481811523
1.7294945787649267e+18,0.01680338755249977,0.011182369664311409,-9.660510063171387
1.729494578776927e+18,0.014439228922128677,-0.03264351934194565,-9.789579391479492
1.729494578782927e+18,0.030277326703071594,0.022310148924589157,-9.810331344604492
1.7294945787919273e+18,0.017859455198049545,0.015435523353517056,-9.765914916992188
1.7294945788039276e+18,-0.023063184693455696,0.04036629572510719,-9.763212203979492
1.7294945788129277e+18,0.013688822276890278,-0.029275260865688324,-9.70654010772705
1.729494578821928e+18,0.0934118703007698,0.018210500478744507,-9.7044095993042
1.7294945788309281e+18,-0.01172146201133728,-0.04214336723089218,-9.713791847229004
1.7294945788429284e+18,0.005238978657871485,-0.005907295271754265,-9.739805221557617
1.7294945788519286e+18,-0.022294308990240097,0.006339377257972956,-9.754316329956055
1.7294945788609288e+18,0.025042952969670296,0.10619986802339554,-9.813084602355957
1.729494578866929e+18,0.04939167574048042,-0.1040661558508873,-9.671060562133789
1.729494578875929e+18,0.051145561039447784,-0.11346280574798584,-9.762651443481445
1.7294945788849293e+18,-0.08798880875110626,0.015103795565664768,-9.674511909484863
1.7294945788939295e+18,0.034369174391031265,-0.004057661630213261,-9.721423149108887
1.7294945789029297e+18,0.04537380114197731,-0.031056229025125504,-9.751226425170898
1.7294945789119299e+18,0.026364080607891083,-0.02856820449233055,-9.69778823852539
1.72949457891793e+18,0.0267488993704319,0.014319618232548237,-9.693203926086426
1.7294945789269302e+18,0.03706936538219452,0.04479438066482544,-9.74975872039795
1.7294945789359304e+18,0.015906769782304764,-0.011657482013106346,-9.737305641174316
1.7294945789419305e+18,-0.009707454591989517,0.029138170182704926,-9.700299263000488
1.7294945789509307e+18,-0.04263758286833763,-0.09512679278850555,-9.798015594482422
1.729494578959931e+18,-0.03309623524546623,0.009900976903736591,-9.676839828491211
1.729494578968931e+18,0.05044662207365036,0.014255481772124767,-9.77169132232666
1.7294945789779313e+18,0.014369531534612179,-0.027927419170737267,-9.719375610351562
1.7294945789869315e+18,0.013164445757865906,0.07202473282814026,-9.70118522644043
1.7294945789959316e+18,-0.04588022828102112,-0.0421312041580677,-9.672593116760254
1.7294945790049318e+18,-0.021473033353686333,0.0020589884370565414,-9.675626754760742
1.729494579010932e+18,-0.0006263608811423182,-0.00332707935012877,-9.708696365356445
1.7294945790199322e+18,-0.06857597082853317,0.03486055135726929,-9.742907524108887
1.7294945790259323e+18,0.10978005081415176,0.041229572147130966,-9.765284538269043
1.7294945790349325e+18,0.05086736008524895,0.035215824842453,-9.683043479919434
1.7294945790409326e+18,0.039420418441295624,0.07750408351421356,-9.660111427307129
1.7294945790499328e+18,0.09931416064500809,0.029207460582256317,-9.67203140258789
1.729494579058933e+18,-0.07945913821458817,0.05802207440137863,-9.757002830505371
1.729494579064933e+18,-0.02636694721877575,0.0604073666036129,-9.70974063873291
1.7294945790769334e+18,-0.01199113205075264,-0.008875507861375809,-9.816191673278809
1.7294945790859336e+18,0.040191181004047394,-0.022368133068084717,-9.804642677307129
1.7294945790949338e+18,0.08225292712450027,-0.06260248273611069,-9.739741325378418
1.729494579103934e+18,0.03909189626574516,0.008247308433055878,-9.734238624572754
1.7294945791129341e+18,-0.04596562683582306,-0.010861998423933983,-9.673826217651367
1.7294945791219343e+18,0.058010444045066833,-0.04588336497545242,-9.771273612976074
1.7294945791309345e+18,-0.023584406822919846,-0.04550286754965782,-9.708321571350098
1.7294945791369347e+18,-0.008713416755199432,0.023163367062807083,-9.664766311645508
1.7294945791459348e+18,0.11940989643335342,0.003082752227783203,-9.774630546569824
1.729494579154935e+18,0.06210575997829437,-0.02535206824541092,-9.756163597106934
1.7294945791639352e+18,0.007990335114300251,-0.00957335252314806,-9.716797828674316
1.7294945791699354e+18,0.08985402435064316,0.02500336989760399,-9.784173011779785
1.7294945791759355e+18,0.020001428201794624,-0.057094868272542953,-9.686208724975586
1.7294945791849357e+18,0.07198664546012878,-0.005635982379317284,-9.667659759521484
1.7294945791909358e+18,0.032337628304958344,-0.033546332269907,-9.747848510742188
1.729494579199936e+18,0.001520475372672081,-0.011060663498938084,-9.747584342956543
1.7294945792089362e+18,0.018863890320062637,0.07422719150781631,-9.714653968811035
1.7294945792179364e+18,0.013386146165430546,-0.03667699545621872,-9.70212173461914
1.7294945792239365e+18,0.0028253134805709124,-0.061499472707509995,-9.777329444885254
1.7294945792329367e+18,-0.007541470229625702,-0.03196834772825241,-9.769381523132324
1.7294945792389368e+18,0.0014167954213917255,-0.06932920217514038,-9.703105926513672
1.729494579247937e+18,0.029078152030706406,-0.07770037651062012,-9.679998397827148
1.7294945792569372e+18,0.05116834118962288,-0.05708320066332817,-9.718074798583984
1.7294945792659374e+18,-0.008523538708686829,0.06113949790596962,-9.753728866577148
1.7294945792749376e+18,-0.006935065146535635,0.05255504325032234,-9.662662506103516
1.7294945792809377e+18,-0.001041880575940013,-0.013174397870898247,-9.708841323852539
1.7294945792869379e+18,-0.0020463080145418644,-0.038302332162857056,-9.710890769958496
1.729494579298938e+18,0.03050873801112175,-0.009633803740143776,-9.684964179992676
1.7294945793079383e+18,-0.024856649339199066,-0.013978670351207256,-9.685440063476562
1.7294945793139384e+18,0.08074028789997101,0.055641476064920425,-9.795890808105469
1.7294945793229386e+18,-0.030509673058986664,-0.006235514301806688,-9.749507904052734
1.7294945793319388e+18,-0.007696624845266342,-0.028418662026524544,-9.777234077453613
1.729494579337939e+18,0.0204326082020998,0.036167409271001816,-9.817343711853027
1.7294945793469391e+18,-0.005363130941987038,-0.03760369122028351,-9.716095924377441
1.7294945793559393e+18,0.02418685331940651,-0.023133112117648125,-9.765419960021973
1.7294945793619395e+18,0.017189234495162964,0.054607972502708435,-9.806730270385742
1.7294945793679396e+18,0.022027218714356422,-0.02196982502937317,-9.755847930908203
1.7294945793769398e+18,-0.019785312935709953,0.02990208938717842,-9.800363540649414
1.72949457938594e+18,-0.04612439498305321,-0.027848409488797188,-9.73924446105957
1.7294945793949402e+18,0.010212041437625885,0.05338016897439957,-9.73480224609375
1.7294945794039404e+18,0.0061383601278066635,0.03924718499183655,-9.805159568786621
1.7294945794129405e+18,-0.0035539951641112566,-0.0017070008907467127,-9.668691635131836
1.7294945794219407e+18,0.02751101180911064,0.0006514169508591294,-9.706121444702148
1.729494579433941e+18,-0.018132850527763367,0.015984978526830673,-9.748873710632324
1.7294945794429412e+18,0.10610290616750717,-0.0337834507226944,-9.73122501373291
1.7294945794549414e+18,0.017277857288718224,-0.01602860540151596,-9.644392967224121
1.7294945794639416e+18,0.04178810119628906,-0.05970871448516846,-9.741965293884277
1.7294945794729418e+18,-0.030950307846069336,0.07675821334123611,-9.751669883728027
1.729494579481942e+18,-0.031957946717739105,-0.03748249262571335,-9.721765518188477
1.7294945794879421e+18,0.016487080603837967,0.003521251492202282,-9.80276870727539
1.7294945794969423e+18,0.014016673900187016,0.01005653478205204,-9.817987442016602
1.7294945795059425e+18,0.03387688845396042,-0.049400635063648224,-9.809813499450684
1.7294945795119427e+18,0.03551714867353439,0.06430976092815399,-9.6831693649292
1.7294945795209428e+18,-0.020883141085505486,-0.023117879405617714,-9.749080657958984
1.729494579529943e+18,-0.024309782311320305,-0.008049952797591686,-9.700000762939453
1.7294945795389432e+18,-0.029593121260404587,0.026419807225465775,-9.798136711120605
1.7294945795509435e+18,0.0010773567482829094,-0.0016219597309827805,-9.729973793029785
1.7294945795569436e+18,-0.00944794062525034,-0.06124347448348999,-9.800751686096191
1.7294945795659438e+18,-0.01091974601149559,-0.008738525211811066,-9.77791976928711
1.729494579577944e+18,-0.013393927365541458,0.08232005685567856,-9.681918144226074
1.7294945795869443e+18,-0.036712683737277985,0.06074756383895874,-9.796215057373047
1.7294945795989445e+18,0.008872298523783684,0.05763455480337143,-9.704721450805664
1.7294945796079447e+18,-0.028643421828746796,0.0928698182106018,-9.787847518920898
1.729494579616945e+18,-0.010936585254967213,-0.0032743029296398163,-9.742658615112305
1.729494579625945e+18,-0.0386166088283062,0.052070003002882004,-9.793834686279297
1.7294945796349453e+18,-0.004578371066600084,0.0061523765325546265,-9.741047859191895
1.7294945796439455e+18,0.013848334550857544,-0.003992508165538311,-9.806321144104004
1.7294945796529457e+18,0.03207769617438316,-0.055216383188962936,-9.782525062561035
1.729494579664946e+18,-0.0017968675820156932,-0.0707196295261383,-9.772539138793945
1.729494579673946e+18,0.013070911169052124,-0.014102568849921227,-9.780261039733887
1.7294945796829463e+18,0.013326280750334263,0.033576834946870804,-9.85610294342041
1.7294945796949466e+18,0.0006348706083372235,-0.07038811594247818,-9.829183578491211
1.7294945797039468e+18,-0.15625742077827454,0.07588838785886765,-9.777350425720215
1.729494579715947e+18,-0.007203237619251013,-0.057623203843832016,-9.762459754943848
1.7294945797249472e+18,0.08352638781070709,0.020678015425801277,-9.764527320861816
1.7294945797339474e+18,-0.030608568340539932,0.04103630781173706,-9.671562194824219
1.7294945797429476e+18,-0.03889070078730583,-0.059358108788728714,-9.676199913024902
1.7294945797519478e+18,0.06967741250991821,-0.03652762249112129,-9.726848602294922
1.729494579760948e+18,-0.0212834645062685,-0.08626162260770798,-9.768197059631348
1.7294945797699482e+18,-0.054495424032211304,-0.07245593518018723,-9.70643138885498
1.7294945797789484e+18,0.02194235287606716,-0.042535897344350815,-9.727507591247559
1.7294945797879485e+18,0.016512837260961533,0.030508296564221382,-9.669700622558594
1.7294945797969487e+18,0.06126175448298454,0.015311665832996368,-9.770601272583008
1.729494579805949e+18,-0.009482041001319885,-0.02211013436317444,-9.737373352050781
1.729494579814949e+18,-0.012739943340420723,0.0122914994135499,-9.718965530395508
1.7294945798239493e+18,-0.012801195494830608,-0.020272962749004364,-9.83104419708252
1.7294945798329495e+18,-0.062360674142837524,-0.02910587750375271,-9.742621421813965
1.7294945798419497e+18,0.08321461081504822,0.016326241195201874,-9.780450820922852
1.72949457985095e+18,0.012468849308788776,0.030565084889531136,-9.74948501586914
1.72949457985995e+18,-0.009490171447396278,0.04909145087003708,-9.815234184265137
1.7294945798689503e+18,-0.05585847049951553,-0.03731578588485718,-9.770879745483398
1.7294945798779505e+18,0.0144904013723135,0.004888487979769707,-9.736480712890625
1.7294945798869507e+18,-0.06293212622404099,0.005534674506634474,-9.810651779174805
1.7294945798959508e+18,-0.002934433985501528,-0.005853917449712753,-9.765873908996582
1.729494579904951e+18,-0.014036480337381363,0.06442252546548843,-9.76640796661377
1.7294945799139512e+18,0.056311916559934616,0.0016983661334961653,-9.76134204864502
1.7294945799229514e+18,-0.018158702179789543,-0.08225317299365997,-9.777043342590332
1.7294945799319516e+18,-0.005377567373216152,0.014782226644456387,-9.798578262329102
1.7294945799409518e+18,0.002770676277577877,-0.01218395959585905,-9.784538269042969
1.729494579949952e+18,0.1201748251914978,0.06831054389476776,-9.822248458862305
1.7294945799589522e+18,0.03202127665281296,0.024936171248555183,-9.799656867980957
1.7294945799679524e+18,0.022513054311275482,0.05811016261577606,-9.770196914672852
1.7294945799769526e+18,0.062234632670879364,-0.0007401654729619622,-9.765915870666504
1.7294945799889528e+18,-0.0027690629940479994,-0.006768182385712862,-9.761065483093262
1.729494579997953e+18,0.023470208048820496,-0.03906172141432762,-9.844721794128418
1.7294945800069532e+18,0.004692812915891409,0.0015246904222294688,-9.832220077514648
1.7294945800159534e+18,0.03527545928955078,0.019984254613518715,-9.832533836364746
1.7294945800249536e+18,0.024948200210928917,-0.09112009406089783,-9.751996994018555
1.7294945800339538e+18,-0.01412234827876091,0.007832623086869717,-9.790569305419922
1.729494580042954e+18,-0.019770128652453423,0.040129274129867554,-9.816837310791016
1.7294945800519542e+18,-0.011677022092044353,0.019905565306544304,-9.674661636352539
1.7294945800609544e+18,0.09409185498952866,-0.07234183698892593,-9.813767433166504
1.7294945800699546e+18,0.0051166038028895855,0.09893932193517685,-9.785652160644531
1.7294945800789548e+18,0.03764268383383751,0.0035578503739088774,-9.775373458862305
1.729494580087955e+18,0.008063062094151974,-0.11026787757873535,-9.800106048583984
1.7294945800999552e+18,0.09627072513103485,0.02610616572201252,-9.705756187438965
1.7294945801089554e+18,0.051549091935157776,0.010922136716544628,-9.796631813049316
1.7294945801179556e+18,0.04916064813733101,0.0049501340836286545,-9.764594078063965
1.7294945801239557e+18,-0.08798306435346603,0.022330744192004204,-9.83039665222168
1.729494580135956e+18,0.045206014066934586,0.08395210653543472,-9.764424324035645
1.7294945801449562e+18,0.0002559308777563274,0.049101393669843674,-9.841094017028809
1.7294945801539564e+18,-0.020474489778280258,-0.008098144084215164,-9.77907657623291
1.7294945801629565e+18,0.03908321633934975,-0.019144071266055107,-9.810870170593262
1.7294945801749568e+18,-0.021464619785547256,-0.03943821042776108,-9.782869338989258
1.729494580183957e+18,0.02762684039771557,-0.05305745452642441,-9.778870582580566
1.7294945801929572e+18,0.005084151402115822,-0.0007409435929730535,-9.767340660095215
1.7294945802019574e+18,0.020007921382784843,-0.006273624487221241,-9.832749366760254
1.7294945802109576e+18,-0.0050565507262945175,-0.02286706306040287,-9.828113555908203
1.7294945802229578e+18,0.06374660134315491,0.0031602811068296432,-9.78577709197998
1.729494580231958e+18,0.02942262962460518,0.01467694528400898,-9.801941871643066
1.7294945802409582e+18,0.011816819198429585,-0.007870489731431007,-9.740459442138672
1.7294945802499584e+18,0.06899189203977585,0.0029652894008904696,-9.805482864379883
1.7294945802589586e+18,-0.03438568115234375,-0.008095639757812023,-9.69755744934082
1.7294945802679588e+18,-0.014041206799447536,0.026844792068004608,-9.894176483154297
1.729494580276959e+18,-0.017368575558066368,0.05207090079784393,-9.80305290222168
1.7294945802889592e+18,-0.0021955794654786587,0.016469284892082214,-9.759549140930176
1.7294945803009595e+18,-0.034512706100940704,-0.04661503806710243,-9.780006408691406
1.7294945803099597e+18,0.00356735335662961,0.050973743200302124,-9.900470733642578
1.7294945803189599e+18,0.034688256680965424,-0.012394474819302559,-9.82400894165039
1.72949458032796e+18,0.01468945574015379,0.029691245406866074,-9.720616340637207
1.7294945803369603e+18,-0.047970857471227646,0.029442036524415016,-9.761306762695312
1.7294945803489605e+18,0.04012926295399666,0.03433724120259285,-9.72224235534668
1.7294945803579607e+18,-0.06523391604423523,0.014756765216588974,-9.789009094238281
1.729494580366961e+18,0.00618601031601429,0.006285916082561016,-9.827157974243164
1.729494580375961e+18,-0.01563376374542713,-0.008707288652658463,-9.825423240661621
1.7294945803879613e+18,-0.0402107760310173,0.05784633383154869,-9.769342422485352
1.7294945803969615e+18,-0.06123773381114006,0.06029060482978821,-9.806390762329102
1.7294945804059617e+18,-0.05652797222137451,0.012252748012542725,-9.745179176330566
1.729494580414962e+18,-0.006546635180711746,-0.04372016713023186,-9.78992748260498
1.729494580423962e+18,-0.012931477278470993,0.051712941378355026,-9.803566932678223
1.7294945804359624e+18,0.03838927298784256,0.012473230250179768,-9.892123222351074
1.7294945804449626e+18,0.02036556787788868,0.0054648458026349545,-9.767728805541992
1.7294945804539628e+18,0.072732113301754,0.04131830483675003,-9.80825138092041
1.729494580462963e+18,0.029903681948781013,0.0480336919426918,-9.834571838378906
1.7294945804749632e+18,-0.0066665904596447945,-0.043783560395240784,-9.809457778930664
1.7294945804839634e+18,-0.011121202260255814,-0.03687198460102081,-9.78665828704834
1.7294945804959636e+18,0.01698947325348854,0.04437316209077835,-9.785768508911133
1.7294945805049638e+18,0.009858181700110435,-0.008388995192945004,-9.75024700164795
1.729494580513964e+18,0.003099745837971568,0.049224045127630234,-9.76119327545166
1.7294945805259643e+18,-0.06005395948886871,0.04256816580891609,-9.879050254821777
1.7294945805349645e+18,-0.01858949288725853,0.007418946363031864,-9.842816352844238
1.7294945805439647e+18,-0.001262602978385985,-0.022193629294633865,-9.809080123901367
1.729494580555965e+18,0.04899921640753746,0.007380913011729717,-9.825810432434082
1.729494580564965e+18,-0.007117188535630703,-0.0371851921081543,-9.746018409729004
1.7294945805739653e+18,0.013807173818349838,-0.025322027504444122,-9.74319839477539
1.7294945805829655e+18,-0.07252679020166397,0.009352843277156353,-9.816760063171387
1.7294945805949658e+18,0.041589029133319855,0.07263490557670593,-9.804473876953125
1.729494580603966e+18,-0.005374075844883919,-0.0434463731944561,-9.808218002319336
1.7294945806129661e+18,-0.0017417932394891977,0.021530671045184135,-9.808639526367188
1.7294945806219663e+18,-0.017356645315885544,-0.014634744264185429,-9.77890682220459
1.7294945806309665e+18,-0.04820157587528229,0.031190117821097374,-9.769120216369629
1.7294945806429668e+18,0.06785786151885986,0.07615961134433746,-9.80158805847168
1.729494580651967e+18,-0.01139821670949459,0.0007284125895239413,-9.788235664367676
1.7294945806609672e+18,-0.024098750203847885,-0.03403177857398987,-9.776765823364258
1.7294945806699674e+18,-0.09858757257461548,-0.006919644773006439,-9.73768138885498
1.7294945806819676e+18,0.0015409152256324887,0.01837644726037979,-9.767828941345215
1.7294945806909678e+18,-0.027875753119587898,-0.016299912706017494,-9.734105110168457
1.729494580699968e+18,-0.0012823864817619324,0.016603117808699608,-9.736899375915527
1.7294945807089682e+18,0.0803162157535553,-0.06970242410898209,-9.825719833374023
1.7294945807209684e+18,0.03331397473812103,0.07264847308397293,-9.862296104431152
1.7294945807299686e+18,-0.03629393130540848,0.044650714844465256,-9.863178253173828
1.7294945807389688e+18,0.03916994109749794,0.007334256079047918,-9.79295539855957
1.729494580747969e+18,0.030915679410099983,-0.0001725080655887723,-9.786288261413574
1.7294945807599693e+18,0.07511577755212784,0.02842218615114689,-9.843551635742188
1.7294945807689695e+18,0.04471961408853531,0.01695609837770462,-9.779097557067871
1.7294945807779697e+18,-0.04512616991996765,0.0020739082247018814,-9.733367919921875
1.7294945807869699e+18,-0.021219342947006226,-0.016124973073601723,-9.811115264892578
1.72949458079597e+18,0.005839774385094643,-0.02715974859893322,-9.787160873413086
1.7294945808049702e+18,0.07490987330675125,-0.016167785972356796,-9.763235092163086
1.7294945808169705e+18,-0.007877182215452194,-0.03933937847614288,-9.858427047729492
1.7294945808259707e+18,0.008184116333723068,0.02808443084359169,-9.882411003112793
1.729494580834971e+18,-0.01772054098546505,-0.08448660373687744,-9.743194580078125
1.7294945808469711e+18,-0.03453937917947769,0.010864662006497383,-9.851418495178223
1.7294945808559713e+18,-0.08008618652820587,-0.0653560608625412,-9.753684043884277
1.7294945808679716e+18,0.06648789346218109,0.03179597854614258,-9.811244010925293
1.7294945808769718e+18,-0.0400116927921772,0.02252243459224701,-9.85856819152832
1.729494580888972e+18,-0.0641009658575058,0.02769085019826889,-9.801177978515625
1.7294945808979722e+18,-0.05580069124698639,-0.08732343465089798,-9.841897010803223
1.7294945809069724e+18,0.030500661581754684,0.011344192549586296,-9.836053848266602
1.7294945809159726e+18,0.010019135661423206,0.016241034492850304,-9.869135856628418
1.7294945809249728e+18,0.04382538050413132,0.04779824614524841,-9.860246658325195
1.729494580933973e+18,0.132470041513443,-0.03709753230214119,-9.851075172424316
1.7294945809429732e+18,-0.010063713416457176,-0.0027096399571746588,-9.769832611083984
1.7294945809519734e+18,0.02509567141532898,-0.04328233376145363,-9.843987464904785
1.7294945809609736e+18,0.022662190720438957,0.036102280020713806,-9.768620491027832
1.7294945809699738e+18,0.04102393612265587,0.01961897313594818,-9.806379318237305
1.729494580978974e+18,-0.020970532670617104,0.04035833477973938,-9.812359809875488
1.7294945809879741e+18,0.06946207582950592,-0.029021911323070526,-9.893115997314453
1.7294945809969743e+18,-0.054985810071229935,0.005926087033003569,-9.775688171386719
1.7294945810059745e+18,-0.07189275324344635,0.03121427446603775,-9.79150104522705
1.7294945810149747e+18,0.006413676310330629,0.007969371974468231,-9.761628150939941
1.729494581026975e+18,0.03416015952825546,-0.06996654719114304,-9.791081428527832
1.729494581032975e+18,0.006602690555155277,-0.04912618175148964,-9.821413040161133
1.7294945810419753e+18,-0.019071001559495926,-0.024486176669597626,-9.876852035522461
1.7294945810539756e+18,-0.08245640248060226,0.013680361211299896,-9.814881324768066
1.7294945810629757e+18,-0.005398805718868971,-0.055672138929367065,-9.78178882598877
1.729494581071976e+18,-0.0070854052901268005,-0.023488612845540047,-9.804530143737793
1.7294945810809761e+18,0.0153263034299016,-0.06391817331314087,-9.797138214111328
1.7294945810899763e+18,0.005692180711776018,-0.03994973376393318,-9.81333065032959
1.7294945811019766e+18,0.0032896280754357576,0.09128405898809433,-9.788333892822266
1.7294945811109768e+18,0.020723702386021614,0.04897446557879448,-9.775237083435059
1.729494581116977e+18,6.753701018169522e-05,0.03601722791790962,-9.746764183044434
1.729494581125977e+18,0.030098894611001015,-0.09004515409469604,-9.787830352783203
1.7294945811349773e+18,-0.05056646093726158,0.028612220659852028,-9.79299545288086
1.7294945811439775e+18,-0.01942889392375946,0.0007553469622507691,-9.75885009765625
1.7294945811529777e+18,-0.10794904083013535,-0.02062312699854374,-9.817232131958008
1.729494581164978e+18,-0.007000959478318691,-0.083791583776474,-9.805356979370117
1.729494581170978e+18,-0.004877395927906036,-0.07690587639808655,-9.767617225646973
1.7294945811829783e+18,-0.016725759953260422,0.05819255858659744,-9.790328025817871
1.7294945811919785e+18,-0.007457910105586052,-0.008934994228184223,-9.850646018981934
1.7294945812039788e+18,0.01078423298895359,-0.0018001702846959233,-9.77769947052002
1.729494581212979e+18,-0.05396869778633118,0.013624785467982292,-9.761442184448242
1.7294945812219791e+18,0.08595993369817734,0.06621747463941574,-9.849617004394531
1.7294945812309793e+18,-0.0026319106109440327,-0.02899021841585636,-9.81367301940918
1.7294945812399795e+18,-0.057893868535757065,-0.052963342517614365,-9.863557815551758
1.7294945812489797e+18,0.05956289917230606,-0.020349886268377304,-9.816624641418457
1.72949458126098e+18,0.005584965460002422,0.03223947063088417,-9.856793403625488
1.7294945812699802e+18,0.011235004290938377,0.06882274895906448,-9.794454574584961
1.7294945812789804e+18,0.02693064697086811,0.05391153320670128,-9.814742088317871
1.7294945812879805e+18,-0.00911769364029169,0.003996465355157852,-9.749938011169434
1.7294945812969807e+18,-0.04492698609828949,0.015647785738110542,-9.807727813720703
1.729494581305981e+18,0.0617351233959198,-0.012264110147953033,-9.802507400512695
1.729494581314981e+18,-0.030559325590729713,0.010684184730052948,-9.801231384277344
1.7294945813269814e+18,0.048210259526968,-0.04911039024591446,-9.80929946899414
1.7294945813359816e+18,-0.003883890574797988,-0.021736538037657738,-9.766459465026855
1.7294945813419817e+18,0.010464913211762905,-0.011603787541389465,-9.829245567321777
1.729494581350982e+18,0.09867248684167862,0.0233562421053648,-9.859803199768066
1.729494581359982e+18,-0.02346165105700493,0.04506197199225426,-9.79846477508545
1.7294945813689823e+18,-0.009642680175602436,-0.02720896154642105,-9.753841400146484
1.7294945813779825e+18,0.08222010731697083,0.024623148143291473,-9.81959342956543
1.7294945813869827e+18,-0.03578320890665054,-0.010765885934233665,-9.847514152526855
1.7294945813959828e+18,0.015342670492827892,0.00819617509841919,-9.861517906188965
1.729494581404983e+18,0.03395441919565201,0.027428798377513885,-9.752286911010742
1.7294945814139832e+18,-0.004715903662145138,0.07294048368930817,-9.824836730957031
1.7294945814229834e+18,-0.0006613882724195719,0.08042584359645844,-7.808897495269775
1.7294945814319836e+18,0.06114765256643295,0.032003141939640045,-6.9624176025390625
1.7294945814409838e+18,0.030749214813113213,-0.028776444494724274,-6.755575656890869
1.729494581449984e+18,0.002330861985683441,-0.07686557620763779,-7.791365623474121
1.7294945814619843e+18,0.03989071398973465,-0.16045300662517548,-11.655434608459473
1.7294945814679844e+18,0.07139833271503448,-0.10508910566568375,-12.433716773986816
1.7294945814769846e+18,0.06664050370454788,-0.12787139415740967,-11.775521278381348
1.7294945814859848e+18,0.08320361375808716,-0.1546163558959961,-12.140129089355469
1.729494581494985e+18,0.058253172785043716,-0.07431942224502563,-12.978086471557617
1.7294945815069852e+18,-0.07335015386343002,-0.16302534937858582,-12.24351692199707
1.7294945815159854e+18,0.09220921993255615,-0.11547155678272247,-12.23613166809082
1.7294945815249856e+18,0.060726348310709,-0.1479519009590149,-12.708080291748047
1.7294945815339858e+18,0.15250085294246674,-0.11435407400131226,-12.365974426269531
1.729494581542986e+18,0.04327370226383209,-0.01429157704114914,-11.647077560424805
1.7294945815519862e+18,0.036362092941999435,-0.09796150028705597,-11.22946548461914
1.7294945815579863e+18,0.016376322135329247,-0.09519949555397034,-11.493643760681152
1.7294945815699866e+18,0.032533492892980576,-0.061776772141456604,-12.102466583251953
1.7294945815789868e+18,0.07594894617795944,-0.06576060503721237,-12.068456649780273
1.729494581587987e+18,0.08882617205381393,-0.11879761517047882,-12.018900871276855
1.7294945815969871e+18,0.04132342338562012,-0.07104598730802536,-12.000123977661133
1.7294945816059873e+18,0.06163536012172699,-0.055404212325811386,-11.729655265808105
1.7294945816149875e+18,0.08761926740407944,-0.07769262790679932,-11.618158340454102
1.7294945816239877e+18,-0.0376143753528595,-0.04462433606386185,-11.521984100341797
1.729494581635988e+18,-0.048615507781505585,-0.006760226562619209,-11.0833740234375
1.7294945816449882e+18,-0.02365168184041977,-0.05305834859609604,-10.974302291870117
1.7294945816539884e+18,0.062436603009700775,-0.019658051431179047,-10.868982315063477
1.7294945816629885e+18,-0.05946978181600571,0.027208693325519562,-10.972543716430664
1.7294945816719887e+18,-0.010579267516732216,0.005629325285553932,-10.81557559967041
1.7294945816779889e+18,0.00714494101703167,-0.10974165052175522,-10.659774780273438
1.729494581686989e+18,0.0455416738986969,0.0020651305094361305,-10.435676574707031
1.7294945816959892e+18,0.0033450424671173096,0.02560102939605713,-10.302262306213379
1.7294945817049894e+18,-0.014834582805633545,-0.05923144519329071,-10.172446250915527
1.7294945817139896e+18,0.03592062368988991,0.025754045695066452,-10.14542007446289
1.72949458172599e+18,0.008389672264456749,0.017640013247728348,-10.195579528808594
1.72949458173499e+18,0.07922415435314178,0.016175048425793648,-10.00334644317627
1.7294945817439903e+18,0.017038412392139435,-0.061115801334381104,-9.843327522277832
1.7294945817529905e+18,-0.07412634789943695,0.04452207311987877,-9.794286727905273
1.7294945817619907e+18,-0.002922454848885536,-0.013875436037778854,-9.796956062316895
1.7294945817709908e+18,0.017105471342802048,0.05878741666674614,-9.773688316345215
1.729494581779991e+18,0.027658477425575256,-0.03482271358370781,-9.66146183013916
1.7294945817889912e+18,0.026050902903079987,0.03653683513402939,-9.598916053771973
1.7294945818009915e+18,0.0731334239244461,0.04603271558880806,-9.614270210266113
1.7294945818099917e+18,0.018752580508589745,0.022923139855265617,-9.444683074951172
1.7294945818189919e+18,0.07486651837825775,-0.01437501423060894,-9.46313762664795
1.729494581827992e+18,-0.022105898708105087,-0.009675746783614159,-9.509378433227539
1.7294945818369923e+18,0.01790601946413517,0.04627123847603798,-9.464739799499512
1.7294945818459924e+18,0.012531714513897896,-0.05166597664356232,-9.397955894470215
1.7294945818549926e+18,-0.11076778918504715,-0.05848269909620285,-9.468082427978516
1.729494581866993e+18,0.017209047451615334,0.009344035759568214,-9.212993621826172
1.729494581875993e+18,-0.03196068853139877,-0.0035422220826148987,-9.29360580444336
1.7294945818849933e+18,-0.01917269453406334,-0.01595980115234852,-8.656148910522461
1.7294945818939935e+18,-0.033678196370601654,-0.0714472085237503,-8.092167854309082
1.7294945819029937e+18,-0.03555605560541153,0.0036929240450263023,-7.875760555267334
1.7294945819119939e+18,0.0010534566827118397,0.008478222414851189,-7.777571201324463
1.729494581920994e+18,0.06457652151584625,0.0373825803399086,-7.792439937591553
1.7294945819329943e+18,-0.038225676864385605,-0.053342580795288086,-7.917217254638672
1.7294945819419945e+18,0.028251441195607185,0.0031714830547571182,-8.024617195129395
1.7294945819539948e+18,0.11361561715602875,-0.006684292107820511,-7.598869800567627
1.729494581962995e+18,0.0020910236053168774,0.018475405871868134,-7.435980796813965
1.7294945819719951e+18,-0.04801218584179878,-0.06192106008529663,-7.355043888092041
1.7294945819809953e+18,0.07223012298345566,-0.08483515679836273,-7.471848011016846
1.7294945819929956e+18,0.01784687303006649,-0.007846765220165253,-7.489786148071289
1.7294945820019958e+18,0.0020828195847570896,0.03573209047317505,-7.550936222076416
1.729494582010996e+18,0.02770206704735756,-0.05995051562786102,-7.508920669555664
1.7294945820229962e+18,0.029615677893161774,-0.03768207132816315,-7.556224346160889
1.7294945820319964e+18,0.01037352904677391,-0.02232522889971733,-7.331436634063721
1.7294945820409966e+18,-0.07011136412620544,0.03946184739470482,-7.3053765296936035
1.7294945820499968e+18,0.05376485362648964,-0.00013418798334896564,-7.486711502075195
1.729494582061997e+18,-0.03612104803323746,-0.0232998114079237,-7.454206466674805
1.7294945820709972e+18,0.05880765989422798,0.037156250327825546,-7.541658878326416
1.7294945820829975e+18,0.07227596640586853,0.004690586123615503,-7.4935407638549805
1.7294945820919977e+18,-0.057659126818180084,-0.08873586356639862,-7.459743976593018
1.729494582100998e+18,0.025182470679283142,0.06277162581682205,-7.284983158111572
1.7294945821129981e+18,-0.036904476583004,0.0904170498251915,-7.344285488128662
1.7294945821219983e+18,-0.05881841480731964,0.012908168137073517,-7.433571815490723
1.7294945821279985e+18,-0.006498096510767937,-0.010146589949727058,-7.360490322113037
1.7294945821399987e+18,0.020159078761935234,0.013815851882100105,-7.396054267883301
1.729494582148999e+18,0.06371216475963593,-0.0037502311170101166,-7.333860874176025
1.7294945821609992e+18,0.037260040640830994,-0.004759509116411209,-7.505439758300781
1.7294945821699994e+18,-0.010565324686467648,-0.03279087692499161,-7.617448329925537
1.7294945821789996e+18,0.06998880207538605,0.026709765195846558,-7.570413112640381
1.7294945821909998e+18,0.04780176281929016,0.020090553909540176,-7.591309547424316
1.7294945822e+18,0.09210655838251114,0.008238080888986588,-7.540032386779785
1.7294945822120003e+18,0.0010086256079375744,0.004542365670204163,-7.495151042938232
1.7294945822210004e+18,0.009176859632134438,0.05113732069730759,-7.564157009124756
1.7294945822300006e+18,-0.03583036735653877,-0.04960620775818825,-7.609943866729736
1.7294945822390008e+18,-0.0032057492062449455,-0.09754981845617294,-7.664680480957031
1.729494582251001e+18,0.041751738637685776,-0.03490617871284485,-7.578166961669922
1.7294945822570012e+18,-0.04832465574145317,-0.058730240911245346,-7.514638423919678
1.7294945822690015e+18,-0.008425412699580193,-0.017549840733408928,-7.491222858428955
1.7294945822780017e+18,0.04095993936061859,0.06094690412282944,-7.534661293029785
1.729494582290002e+18,0.03642311319708824,0.046870991587638855,-7.6960272789001465
1.729494582299002e+18,-0.06027199327945709,-0.00024960562586784363,-7.718652725219727
1.7294945823080023e+18,-0.05512914061546326,-0.05132899433374405,-7.725600719451904
1.7294945823170025e+18,0.05226125568151474,-0.05065164715051651,-7.6754045486450195
1.7294945823230026e+18,0.016776137053966522,-0.0659322589635849,-7.739552021026611
1.7294945823320028e+18,0.010730849578976631,-0.00046016089618206024,-7.834044456481934
1.729494582341003e+18,0.04466512054204941,-0.0806836411356926,-7.74069881439209
1.7294945823530033e+18,0.1157713457942009,0.018438607454299927,-7.821315765380859
1.7294945823590034e+18,-0.08558965474367142,-0.02221021242439747,-7.905734062194824
1.7294945823680036e+18,0.07343211770057678,-0.10491112619638443,-7.923079967498779
1.7294945823770038e+18,0.012933211401104927,-0.016149884089827538,-7.836524963378906
1.729494582386004e+18,0.004330549389123917,-0.003139229491353035,-7.908045768737793
1.729494582392004e+18,0.011098223738372326,-0.08858127892017365,-8.004590034484863
1.7294945824010043e+18,0.1093827337026596,-0.03641751408576965,-7.992817401885986
1.7294945824100045e+18,-0.008414294570684433,-0.15396800637245178,-7.058406352996826
1.7294945824160046e+18,0.01103744376450777,-0.013904139399528503,-6.395059108734131
1.7294945824250048e+18,0.015237884595990181,0.031242944300174713,-6.163784027099609
1.729494582434005e+18,-0.010087355971336365,-0.053088441491127014,-6.2465410232543945
1.729494582440005e+18,0.058107420802116394,-0.045981742441654205,-6.2525529861450195
1.7294945824520054e+18,0.0744786486029625,0.020424123853445053,-6.361677169799805
1.7294945824610056e+18,-0.012098100036382675,-0.04035241901874542,-6.47947359085083
1.7294945824700058e+18,0.0793064534664154,-0.08823473006486893,-6.521587371826172
1.729494582479006e+18,0.133713036775589,-0.039712902158498764,-6.701244831085205
1.7294945824910062e+18,0.01992892101407051,0.0326508954167366,-6.764857769012451
1.7294945824970063e+18,0.054785050451755524,-0.008038777858018875,-6.8945817947387695
1.7294945825030065e+18,-0.021295215934515,-0.0036641135811805725,-6.919360637664795
1.7294945825120067e+18,0.0960930734872818,-0.08202449977397919,-7.020993709564209
1.729494582524007e+18,0.03314506262540817,-0.10251429677009583,-7.214903831481934
1.729494582533007e+18,-0.05120908468961716,-0.0693482831120491,-7.141986846923828
1.7294945825420073e+18,0.023559536784887314,-0.13540178537368774,-7.258374214172363
1.7294945825480074e+18,0.007812734693288803,-0.010777771472930908,-7.3200531005859375
1.7294945825600077e+18,0.1043001115322113,-0.051410675048828125,-7.413914680480957
1.7294945825690079e+18,0.0583353266119957,-0.005404576659202576,-7.5662150382995605
1.7294945825810081e+18,0.027899794280529022,-0.029255496338009834,-7.4901814460754395
1.7294945825900083e+18,0.10376427322626114,0.055399611592292786,-7.668233394622803
1.7294945825990085e+18,0.041453659534454346,-0.008843760937452316,-7.688241958618164
1.7294945826110088e+18,0.009035449475049973,-0.029518412426114082,-7.80654764175415
1.729494582620009e+18,0.0546577125787735,-0.08231426775455475,-7.823786735534668
1.7294945826290092e+18,0.00729641318321228,-0.08625610917806625,-7.94685697555542
1.7294945826380093e+18,0.1602051854133606,-0.10943698137998581,-7.9614949226379395
1.7294945826470095e+18,0.07097863405942917,-0.10681560635566711,-8.014816284179688
1.7294945826560097e+18,0.01447346806526184,-0.08707870543003082,-8.074577331542969
1.72949458266501e+18,0.06885554641485214,-0.013477511703968048,-8.145964622497559
1.72949458267401e+18,0.054538920521736145,-0.0572296641767025,-8.206546783447266
1.7294945826830103e+18,0.05666390806436539,-0.061557669192552567,-8.191248893737793
1.7294945826920105e+18,0.005996819585561752,-0.0935838371515274,-8.34714126586914
1.7294945827010107e+18,0.03365326300263405,-0.04699856415390968,-8.370174407958984
1.729494582710011e+18,0.06237637996673584,-0.06578614562749863,-8.38644027709961
1.729494582719011e+18,0.11330777406692505,-0.07573436200618744,-8.369245529174805
1.7294945827280113e+18,-0.017677925527095795,-0.06424352526664734,-8.481306076049805
1.7294945827370115e+18,0.11055822670459747,0.011408906430006027,-8.452878952026367
1.7294945827460116e+18,0.09497281908988953,-0.018810708075761795,-8.522281646728516
1.7294945827550118e+18,0.07086747139692307,0.006869576871395111,-8.545337677001953
1.729494582764012e+18,0.03181448578834534,-0.1094001978635788,-8.662094116210938
1.7294945827730122e+18,0.10705603659152985,-0.007143013179302216,-8.618634223937988
1.7294945827820124e+18,0.08676017075777054,-0.08753132075071335,-8.72386646270752
1.7294945827910126e+18,0.06989598274230957,-0.041812293231487274,-8.751155853271484
1.7294945828000128e+18,0.048506543040275574,-0.03441176563501358,-8.756011009216309
1.729494582809013e+18,0.09317828714847565,-0.07949359714984894,-8.777878761291504
1.7294945828180132e+18,0.07037640362977982,-0.050720565021038055,-8.754820823669434
1.7294945828270134e+18,0.06688471138477325,-0.021455135196447372,-8.910208702087402
1.7294945828360136e+18,0.0001227855682373047,-0.12172931432723999,-8.880932807922363
1.7294945828480138e+18,0.09225133061408997,0.0722157210111618,-8.902466773986816
1.729494582857014e+18,0.044969119131565094,-0.09511812031269073,-8.959519386291504
1.7294945828660142e+18,0.05432704836130142,-0.02974630892276764,-8.92936897277832
1.7294945828750144e+18,0.04458674043416977,-0.11058428138494492,-9.063438415527344
1.7294945828840146e+18,0.020996183156967163,-0.07790832221508026,-9.021588325500488
1.7294945828960148e+18,0.13189244270324707,-0.08636309951543808,-9.096086502075195
1.729494582905015e+18,-0.03464684635400772,-0.045720454305410385,-9.120355606079102
1.7294945829140152e+18,0.03042040765285492,-0.013590943068265915,-9.086644172668457
1.7294945829230154e+18,0.09384642541408539,-0.08822927623987198,-9.22127628326416
1.7294945829350157e+18,0.051602572202682495,-0.05444282293319702,-9.185552597045898
1.729494582944016e+18,0.07890871912240982,-0.10883834213018417,-9.138232231140137
1.729494582953016e+18,0.015585191547870636,-0.06290838122367859,-9.11955738067627
1.7294945829650163e+18,0.07083059102296829,0.007101990282535553,-9.24167537689209
1.7294945829740165e+18,0.08480314165353775,-0.08150698989629745,-9.212995529174805
1.7294945829830167e+18,0.0323183536529541,-0.04782503843307495,-9.286934852600098
1.729494582992017e+18,0.1183660626411438,-0.1270895004272461,-9.233796119689941
1.729494583001017e+18,0.062406398355960846,-0.04585060477256775,-9.270428657531738
1.7294945830130173e+18,0.15235662460327148,-0.0997362732887268,-9.282052040100098
1.7294945830220175e+18,0.14803645014762878,0.0010611489415168762,-9.294429779052734
1.7294945830340178e+18,0.1528386026620865,-0.10888971388339996,-9.37283706665039
1.729494583043018e+18,0.059392329305410385,-0.1276130974292755,-10.85033893585205
1.7294945830550182e+18,0.02764793112874031,-0.16170775890350342,-11.072894096374512
1.7294945830640184e+18,0.11859390884637833,-0.039927028119564056,-11.11014461517334
1.7294945830730186e+18,0.0418456606566906,-0.07505714148283005,-11.178451538085938
1.7294945830820188e+18,0.0345916748046875,-0.08114727586507797,-11.230606079101562
1.729494583091019e+18,0.06096541881561279,-0.014941617846488953,-11.206148147583008
1.7294945831000192e+18,0.04392075538635254,-0.15353509783744812,-11.215988159179688
1.7294945831120195e+18,0.09483720362186432,-0.06004270911216736,-11.204000473022461
1.7294945831210196e+18,0.011647269129753113,-0.13154393434524536,-11.085440635681152
1.7294945831300198e+18,-0.002528868615627289,-0.0794689878821373,-11.208950996398926
1.72949458314202e+18,0.15268045663833618,-0.07910819351673126,-11.24918270111084
1.7294945831510203e+18,0.07376199960708618,-0.1408429592847824,-11.254015922546387
1.7294945831600205e+18,0.06866391003131866,-0.10291412472724915,-11.208072662353516
1.7294945831690207e+18,0.05795174837112427,-0.09894972294569016,-11.214533805847168
1.729494583181021e+18,0.1134909987449646,-0.026021644473075867,-11.190018653869629
1.729494583190021e+18,0.09664182364940643,-0.198184072971344,-11.122154235839844
1.7294945831990213e+18,0.1700906902551651,-0.08198732137680054,-11.10101318359375
1.7294945832080215e+18,0.004046440124511719,-0.12901058793067932,-11.220966339111328
1.7294945832170217e+18,0.07201676070690155,-0.08242787420749664,-11.224038124084473
1.729494583226022e+18,0.06971358507871628,-0.008188948035240173,-11.195297241210938
1.7294945832380221e+18,0.10368891060352325,-0.04130050167441368,-11.202797889709473
1.7294945832470223e+18,0.07242558151483536,-0.013382039964199066,-11.146191596984863
1.7294945832560225e+18,0.019460201263427734,-0.11089041829109192,-11.181553840637207
1.7294945832650227e+18,0.0402834489941597,-0.0927073135972023,-11.172026634216309
1.729494583274023e+18,0.09606203436851501,-0.06410250812768936,-11.218242645263672
1.729494583283023e+18,0.07404251396656036,-0.0560203455388546,-11.156427383422852
1.7294945832920233e+18,0.038032203912734985,-0.043639861047267914,-11.21558952331543
1.7294945833040236e+18,0.14408835768699646,-0.11645836383104324,-11.120670318603516
1.7294945833130237e+18,0.06440354883670807,-0.07123086601495743,-11.233280181884766
1.729494583322024e+18,0.06399329006671906,-0.09567096084356308,-11.062237739562988
1.7294945833340242e+18,0.05150367319583893,-0.0717679113149643,-11.242623329162598
1.7294945833430244e+18,0.006724648177623749,-0.12202127277851105,-11.202723503112793
1.7294945833520246e+18,0.10285516083240509,-0.12057284265756607,-11.244305610656738
1.7294945833610248e+18,0.16145847737789154,-0.08403854072093964,-11.202218055725098
1.729494583370025e+18,0.1058182418346405,-0.11614595353603363,-11.197455406188965
1.7294945833820252e+18,0.08615460991859436,-0.1007966622710228,-11.15778923034668
1.7294945833880253e+18,0.05073230713605881,-0.18668648600578308,-11.208584785461426
1.7294945834000256e+18,0.15335938334465027,0.0019148066639900208,-11.194972038269043
1.7294945834090258e+18,0.05548446252942085,-0.0067957863211631775,-11.172704696655273
1.729494583415026e+18,0.14555060863494873,-0.09409498423337936,-11.212454795837402
1.729494583424026e+18,0.12023521959781647,-0.08812951296567917,-11.177297592163086
1.7294945834330263e+18,0.08363226801156998,-0.019290730357170105,-11.150578498840332
1.7294945834390264e+18,0.13059785962104797,-0.07443329691886902,-11.247167587280273
1.7294945834480266e+18,0.062247104942798615,-0.10547356307506561,-11.18789291381836
1.7294945834570268e+18,0.13083691895008087,-0.10870294272899628,-11.163267135620117
1.729494583469027e+18,0.11388258635997772,-0.07903971523046494,-11.144000053405762
1.7294945834780273e+18,-0.0043243542313575745,-0.09577003121376038,-11.17203426361084
1.7294945834840274e+18,0.16891975700855255,-0.04822126030921936,-11.219043731689453
1.7294945834960276e+18,0.1486901342868805,-0.12420224398374557,-11.201652526855469
1.7294945835020278e+18,0.08744305372238159,-0.15709421038627625,-11.23108196258545
1.729494583511028e+18,0.011476866900920868,-0.04173940420150757,-11.223569869995117
1.7294945835200282e+18,0.14283888041973114,-0.11932653188705444,-11.204314231872559
1.7294945835290284e+18,0.0729791522026062,-0.12077893316745758,-11.138532638549805
1.7294945835350285e+18,0.1220802441239357,-0.06841886043548584,-11.172096252441406
1.7294945835410286e+18,0.04956670477986336,-0.12902681529521942,-11.154579162597656
1.7294945835500288e+18,0.05496630445122719,-0.1769019067287445,-11.208991050720215
1.729494583559029e+18,0.10122706741094589,-0.08354772627353668,-11.191990852355957
1.7294945835680292e+18,0.05036632716655731,-0.09593029320240021,-11.188359260559082
1.7294945835770294e+18,0.08166614919900894,-0.151814803481102,-11.204657554626465
1.7294945835860296e+18,0.05719807371497154,-0.125600203871727,-11.144501686096191
1.7294945835950298e+18,0.11909522116184235,-0.15355250239372253,-11.169063568115234
1.72949458360103e+18,0.06886737048625946,-0.1587177813053131,-11.240682601928711
1.72949458361003e+18,0.14404350519180298,-0.14158739149570465,-11.20821475982666
1.7294945836190303e+18,0.017535589635372162,-0.14389793574810028,-11.166214942932129
1.7294945836250304e+18,0.04749554768204689,-0.09161204844713211,-11.093061447143555
1.7294945836340306e+18,0.10559219121932983,-0.10341128706932068,-11.112771987915039
1.7294945836430308e+18,0.14523771405220032,-0.11596431583166122,-11.233485221862793
1.729494583652031e+18,0.08908876031637192,-0.20219668745994568,-11.150546073913574
1.7294945836640312e+18,0.10139039158821106,-0.08303241431713104,-11.119431495666504
1.7294945836700314e+18,0.14251559972763062,-0.0742650181055069,-11.140061378479004
1.7294945836790316e+18,0.15410585701465607,-0.11777529865503311,-11.199277877807617
1.7294945836880317e+18,0.044938184320926666,-0.07354472577571869,-11.19395923614502
1.729494583694032e+18,0.08185496181249619,-0.0771249532699585,-11.145901679992676
1.729494583706032e+18,0.20571914315223694,-0.10213807970285416,-11.20737075805664
1.7294945837120323e+18,0.11037874221801758,-0.14007864892482758,-11.143474578857422
