timestamp,accel_x,accel_y,accel_z
1.7294933885165353e+18,0.030760865658521652,0.03840089589357376,-9.803009986877441
1.7294933885285356e+18,0.013224462047219276,0.033919718116521835,-9.770100593566895
1.7294933885345357e+18,0.00983410980552435,-0.031368326395750046,-9.868536949157715
1.7294933885435359e+18,-0.033989593386650085,-0.026708785444498062,-9.763644218444824
1.729493388552536e+18,-0.03148173168301582,0.0010249735787510872,-9.736981391906738
1.7294933885585362e+18,-0.03301803395152092,-0.023964516818523407,-9.770915031433105
1.7294933885675364e+18,-0.0597061812877655,-0.008083242923021317,-9.796319007873535
1.7294933885735365e+18,0.008277283981442451,0.043899476528167725,-9.715913772583008
1.7294933885825367e+18,0.06042711064219475,0.0010342835448682308,-9.866161346435547
1.7294933885885368e+18,-0.0212512519210577,0.018731817603111267,-9.789422988891602
1.729493388597537e+18,-0.05642419680953026,-0.09387101978063583,-9.814055442810059
1.7294933886035372e+18,-0.008317413739860058,0.008628799580037594,-9.796317100524902
1.7294933886125373e+18,-0.00927407294511795,0.0343463197350502,-9.823308944702148
1.7294933886185375e+18,0.027997037395834923,-0.0027696688193827868,-9.797428131103516
1.7294933886275377e+18,-0.034097861498594284,-0.03981859236955643,-9.869721412658691
1.7294933886335378e+18,0.06183972209692001,0.0014519075630232692,-9.859794616699219
1.729493388642538e+18,0.04040342941880226,0.04123653098940849,-9.771004676818848
1.729493388648538e+18,0.010570542886853218,-0.015232192352414131,-9.824271202087402
1.7294933886575383e+18,0.044223640114068985,-0.017240531742572784,-9.881415367126465
1.7294933886665385e+18,-0.047997958958148956,0.018145831301808357,-9.754684448242188
1.7294933886725386e+18,-0.0739637091755867,-0.022222226485610008,-9.82562255859375
1.7294933886785388e+18,0.04958556592464447,0.06846918910741806,-9.800274848937988
1.729493388687539e+18,0.006275330204516649,0.02232176437973976,-9.804965019226074
1.729493388693539e+18,-0.029008788987994194,-0.01157171931117773,-9.673297882080078
1.7294933887025393e+18,-0.0023273585829883814,-0.02308017574250698,-9.778755187988281
1.7294933887085394e+18,0.012433900497853756,0.019293474033474922,-9.89729118347168
1.7294933887175396e+18,-0.056499313563108444,-0.02270936220884323,-9.853328704833984
1.7294933887265398e+18,-0.02613259106874466,0.022294411435723305,-9.804616928100586
1.72949338873254e+18,-0.020144294947385788,0.008656135760247707,-9.821992874145508
1.72949338874154e+18,-0.022533603012561798,0.10404710471630096,-9.780990600585938
1.7294933887475402e+18,0.0009053494432009757,0.019147874787449837,-9.879605293273926
1.7294933887565404e+18,-0.05070224404335022,-0.019363194704055786,-9.797271728515625
1.7294933887625405e+18,-0.008806944824755192,0.018849316984415054,-9.74436092376709
1.7294933887715407e+18,-0.02484908141195774,-0.008414159528911114,-9.760872840881348
1.7294933887775409e+18,0.031568124890327454,-0.03443470597267151,-9.857193946838379
1.729493388786541e+18,0.043961238116025925,-0.02911229245364666,-9.889216423034668
1.7294933887955412e+18,-0.005333926063030958,-0.019187700003385544,-9.859914779663086
1.7294933888015414e+18,-0.0240763109177351,-0.049176618456840515,-9.766268730163574
1.7294933888105416e+18,0.001064757234416902,-0.07239339500665665,-9.870223999023438
1.7294933888195418e+18,0.0752248466014862,0.02699224092066288,-9.762928009033203
1.729493388825542e+18,0.044028572738170624,-0.00873652659356594,-9.746792793273926
1.729493388834542e+18,-0.020947111770510674,0.016038386151194572,-9.788863182067871
1.7294933888405422e+18,0.043745700269937515,-0.02449783869087696,-9.838663101196289
1.7294933888555425e+18,-0.059867169708013535,0.022465629503130913,-9.86828327178955
1.7294933888645427e+18,-0.08559539914131165,-0.0021589251700788736,-9.816672325134277
1.7294933888705428e+18,-0.02821754664182663,-0.01759895123541355,-9.766777038574219
1.729493388879543e+18,0.02680251933634281,0.0036762941163033247,-9.874968528747559
1.7294933888885432e+18,0.008909600786864758,-0.0071967002004384995,-9.81960391998291
1.7294933888945434e+18,0.04516797512769699,0.0553978867828846,-9.806486129760742
1.7294933889035436e+18,0.09197039902210236,-0.008379336446523666,-9.853128433227539
1.7294933889125437e+18,-0.01792520470917225,0.08544191718101501,-9.81114673614502
1.729493388918544e+18,0.0725647509098053,0.04013587534427643,-9.821146011352539
1.729493388927544e+18,0.0157458558678627,-0.017269084230065346,-9.790772438049316
1.7294933889335442e+18,0.013409561477601528,0.011301929131150246,-9.783792495727539
1.7294933889425444e+18,-0.017922114580869675,0.0062409150414168835,-9.835864067077637
1.7294933889515446e+18,-0.06398576498031616,-0.011901823803782463,-9.847479820251465
1.7294933889605448e+18,-0.06351619958877563,-0.026872247457504272,-9.844951629638672
1.729493388969545e+18,0.0282517671585083,0.030506078153848648,-9.817532539367676
1.7294933889785452e+18,0.06713837385177612,0.03255988284945488,-9.841877937316895
1.7294933889905454e+18,-0.023963147774338722,0.03667953610420227,-9.815109252929688
1.7294933889995456e+18,0.005446982569992542,-0.02906963601708412,-9.855478286743164
1.7294933890085458e+18,0.02887892536818981,-0.04953623190522194,-9.767437934875488
1.729493389014546e+18,0.06151992455124855,-0.03603082895278931,-9.917261123657227
1.729493389023546e+18,0.059816356748342514,0.044173941016197205,-9.813557624816895
1.7294933890325463e+18,0.005999604240059853,-0.008913487195968628,-9.809754371643066
1.7294933890415465e+18,0.053027112036943436,0.02096524089574814,-9.792455673217773
1.7294933890475466e+18,0.003756660735234618,-0.009645367041230202,-9.801054000854492
1.7294933890565468e+18,-0.01298342365771532,0.05793425813317299,-9.808932304382324
1.729493389065547e+18,-0.029028141871094704,0.0006407469045370817,-9.82274341583252
1.7294933890715471e+18,0.023584410548210144,-0.0698106437921524,-9.824685096740723
1.7294933890805473e+18,0.015214546583592892,0.07435274124145508,-9.837370872497559
1.7294933890865475e+18,-0.039175476878881454,0.033112239092588425,-9.870687484741211
1.7294933890955476e+18,-0.0031117033213377,-0.013409770093858242,-9.84261703491211
1.7294933891015478e+18,-0.013466178439557552,0.05487580597400665,-9.77630615234375
1.729493389110548e+18,0.028029168024659157,-0.04117128998041153,-9.792964935302734
1.729493389116548e+18,-0.06051762029528618,-0.11266616731882095,-9.788980484008789
1.7294933891255483e+18,0.0583343431353569,0.0061039975844323635,-9.811413764953613
1.7294933891315484e+18,-0.08976627886295319,-0.01045454666018486,-9.756481170654297
1.7294933891405486e+18,0.00243373797275126,-0.00021809009194839746,-9.791106224060059
1.7294933891495488e+18,0.06537650525569916,0.039545901119709015,-9.811914443969727
1.729493389158549e+18,-0.03822294622659683,-0.013736099004745483,-9.85922908782959
1.729493389164549e+18,0.02751295268535614,0.007863285951316357,-9.755191802978516
1.7294933891735493e+18,0.053716808557510376,-0.03769528493285179,-9.787384986877441
1.7294933891795494e+18,0.04442119225859642,0.08303644508123398,-9.806243896484375
1.7294933891885496e+18,-0.042001720517873764,0.0489741787314415,-9.828285217285156
1.7294933891975498e+18,-0.07035404443740845,0.06269167363643646,-9.76380443572998
1.72949338920355e+18,0.005295499227941036,-0.004612990655004978,-9.696093559265137
1.7294933892125501e+18,0.04883785545825958,-0.03468632698059082,-9.801609992980957
1.7294933892185503e+18,0.02058814838528633,0.06646677106618881,-9.771499633789062
1.7294933892245504e+18,-0.004350148141384125,0.0019332574447616935,-9.743639945983887
1.7294933892335506e+18,-0.010672016069293022,0.06619436293840408,-9.838869094848633
1.7294933892395507e+18,-0.032783471047878265,0.004763530567288399,-9.838042259216309
1.729493389248551e+18,0.055526088923215866,-0.023297719657421112,-9.796521186828613
1.729493389254551e+18,0.021197648718953133,0.02638847939670086,-9.831303596496582
1.7294933892635512e+18,0.019651010632514954,0.001619702554307878,-9.771378517150879
1.7294933892725514e+18,-0.06132873147726059,0.0008355972240678966,-9.83611011505127
1.7294933892785516e+18,6.27634726697579e-05,-0.03095712885260582,-9.794769287109375
1.7294933892875517e+18,0.052801501005887985,-0.0472617968916893,-9.770468711853027
1.7294933892935519e+18,-0.013133539818227291,0.05030176043510437,-9.849160194396973
1.729493389302552e+18,0.027146736159920692,-0.04772435501217842,-9.789502143859863
1.7294933893085522e+18,0.016390208154916763,-0.025041067972779274,-9.855964660644531
1.7294933893175524e+18,0.044315632432699203,0.0737709254026413,-9.855414390563965
1.7294933893235525e+18,0.0054398030042648315,0.06747254729270935,-9.86523723602295
1.7294933893325527e+18,-0.0017203213647007942,0.0833369717001915,-9.836210250854492
1.7294933893385528e+18,-0.041221167892217636,-0.02634969726204872,-9.817647933959961
1.729493389347553e+18,-0.0427338182926178,0.027328014373779297,-9.784706115722656
1.7294933893565532e+18,0.035709962248802185,-0.07073137164115906,-9.807413101196289
1.7294933893655534e+18,0.03766956180334091,0.0354047492146492,-9.768839836120605
1.7294933893715535e+18,0.026484426110982895,0.02401270717382431,-9.775480270385742
1.7294933893805537e+18,-0.03381233662366867,-0.0030405207071453333,-9.895410537719727
1.7294933893865539e+18,0.04747318476438522,0.01997494325041771,-9.814010620117188
1.729493389395554e+18,-0.04679682105779648,0.03849098086357117,-9.845004081726074
1.7294933894045542e+18,-0.0066024428233504295,-0.03806835040450096,-9.828694343566895
1.7294933894105544e+18,-0.040913499891757965,0.05135699734091759,-9.75247859954834
1.7294933894195546e+18,-0.02838887646794319,-0.04508225619792938,-9.902214050292969
1.7294933894285548e+18,-0.01751895248889923,0.01802542805671692,-9.729111671447754
1.729493389434555e+18,-0.01592927798628807,-0.004114415030926466,-9.767746925354004
1.729493389443555e+18,0.005084149073809385,0.027147796005010605,-9.828595161437988
1.7294933894555553e+18,0.005725504830479622,-0.0003181826905347407,-9.831438064575195
1.7294933894645555e+18,-0.01074032299220562,-0.017746783792972565,-9.745787620544434
1.7294933894735557e+18,0.01595456525683403,0.0202125646173954,-9.852028846740723
1.729493389482556e+18,0.006736434996128082,0.003959023393690586,-9.827494621276855
1.729493389491556e+18,-0.05681649595499039,-0.003896499052643776,-9.812641143798828
1.7294933894975562e+18,0.02504277415573597,-0.0017417380586266518,-9.776847839355469
1.7294933895065564e+18,0.08487338572740555,-0.041271794587373734,-9.853424072265625
1.7294933895155566e+18,0.08958212286233902,-0.01043083518743515,-9.803329467773438
1.7294933895215567e+18,0.040894296020269394,2.841507739503868e-05,-9.743230819702148
1.729493389530557e+18,-0.03726201504468918,-0.011329508386552334,-9.81961727142334
1.729493389536557e+18,0.031340621411800385,-0.026582220569252968,-9.810640335083008
1.7294933895455572e+18,-0.03299221768975258,-0.016151243820786476,-9.818565368652344
1.7294933895515574e+18,-0.04856780171394348,-0.05471334233880043,-9.802114486694336
1.7294933895605576e+18,0.002189856255427003,-0.018962714821100235,-9.826597213745117
1.7294933895695578e+18,-0.050717078149318695,0.033673014491796494,-9.868783950805664
1.729493389575558e+18,0.02700626663863659,-0.11870233714580536,-9.839631080627441
1.729493389584558e+18,-0.04147755727171898,-0.045075904577970505,-9.835694313049316
1.7294933895905582e+18,0.03502349182963371,0.026989588513970375,-9.77253532409668
1.7294933895995584e+18,0.007046981249004602,-0.029807884246110916,-9.849161148071289
1.7294933896085586e+18,0.05976678803563118,-0.05049077421426773,-9.764739036560059
1.7294933896145587e+18,-0.018422754481434822,-0.03404370695352554,-9.777215957641602
1.729493389623559e+18,-0.0043536461889743805,-0.031544510275125504,-9.807729721069336
1.729493389629559e+18,0.004784944001585245,0.06210179999470711,-9.866077423095703
1.7294933896385592e+18,-0.02012106403708458,-0.13034416735172272,-9.758989334106445
1.7294933896475594e+18,-0.015537264756858349,0.07878819853067398,-9.794807434082031
1.7294933896535596e+18,0.01454316545277834,0.09693227708339691,-9.879724502563477
1.7294933896625597e+18,-0.0022678705863654613,-0.10215258598327637,-9.886676788330078
1.72949338966856e+18,-0.035115260630846024,-0.0006810371414758265,-9.841041564941406
1.72949338967756e+18,-0.054098065942525864,0.024259665980935097,-9.886704444885254
1.7294933896865603e+18,-0.0019177007488906384,0.018369127064943314,-9.793374061584473
1.7294933896925604e+18,-0.03419499099254608,-0.049613386392593384,-9.855298042297363
1.7294933897045606e+18,-0.031732071191072464,0.020688997581601143,-9.805809020996094
1.7294933897135608e+18,-0.05857936665415764,0.055260900408029556,-9.800477027893066
1.729493389719561e+18,0.03864588588476181,0.014059149660170078,-9.788041114807129
1.7294933897285612e+18,0.00901197362691164,-0.01541968248784542,-9.787067413330078
1.7294933897375613e+18,-0.043983735144138336,0.028762396425008774,-9.764654159545898
1.7294933897435615e+18,-0.00533157167956233,-0.0037256088107824326,-9.831948280334473
1.7294933897525617e+18,-0.0006556818261742592,0.0038610766641795635,-9.792527198791504
1.7294933897585618e+18,0.027043631300330162,0.020978866145014763,-9.79084300994873
1.729493389767562e+18,0.06106891855597496,-0.007936207577586174,-9.821228981018066
1.7294933897765622e+18,-0.012138105928897858,-0.032267678529024124,-9.794157981872559
1.7294933897825623e+18,0.01138395443558693,-0.04558243602514267,-9.865970611572266
1.7294933897915625e+18,-0.01168822217732668,0.01480324286967516,-9.870174407958984
1.7294933898005627e+18,0.037027209997177124,-0.013994342647492886,-9.845768928527832
1.729493389809563e+18,0.004943549633026123,0.059867553412914276,-9.811736106872559
1.729493389815563e+18,0.03983185067772865,0.06968255341053009,-9.862266540527344
1.7294933898245632e+18,0.03538085147738457,-0.04671536758542061,-9.78078842163086
1.7294933898305633e+18,0.035266656428575516,0.004351420793682337,-9.745865821838379
1.7294933898395635e+18,-0.05043969303369522,0.07271820306777954,-9.8528413772583
1.7294933898455636e+18,0.009260609745979309,0.04243949428200722,-9.90379810333252
1.7294933898545638e+18,0.012135826982557774,0.01738566718995571,-9.803040504455566
1.729493389860564e+18,-0.02579854615032673,0.03327435255050659,-9.818267822265625
1.7294933898695642e+18,0.05180937051773071,0.02621232345700264,-9.789600372314453
1.7294933898785644e+18,-0.004095225129276514,0.06634523719549179,-9.854119300842285
1.7294933898845645e+18,-0.014003467746078968,0.010739083401858807,-9.828961372375488
1.7294933898935647e+18,-0.04464588686823845,0.06682577729225159,-9.754829406738281
1.7294933898995648e+18,0.01969723217189312,0.018553847447037697,-9.854232788085938
1.729493389908565e+18,0.025923362001776695,-0.0075064487755298615,-9.848677635192871
1.729493389914565e+18,-0.01259958278387785,0.020764555782079697,-9.824627876281738
1.7294933899235653e+18,0.03219865635037422,0.020512694492936134,-9.827250480651855
1.7294933899325655e+18,0.011793701909482479,0.0034199070651084185,-9.884574890136719
1.7294933899385656e+18,0.02736758254468441,-0.02918228879570961,-9.820249557495117
1.7294933899475658e+18,0.03856170177459717,-0.03185322880744934,-9.818439483642578
1.729493389953566e+18,0.015769945457577705,-0.012646964751183987,-9.830230712890625
1.7294933899625661e+18,-0.014204462990164757,-0.05575224757194519,-9.773089408874512
1.7294933899775665e+18,-0.04094300419092178,0.04048772528767586,-9.762262344360352
1.7294933899835666e+18,0.04072508588433266,-0.015629075467586517,-9.753734588623047
1.7294933899925668e+18,0.010566257871687412,0.04009578377008438,-9.777029037475586
1.729493389998567e+18,-0.016546541824936867,-0.0205856841057539,-9.846677780151367
1.729493390007567e+18,-0.09611064940690994,-0.005720905028283596,-9.851692199707031
1.7294933900135672e+18,0.004978630691766739,-0.015604712069034576,-9.762242317199707
1.7294933900225674e+18,0.011433634907007217,-0.07150627672672272,-9.870946884155273
1.7294933900315676e+18,0.024080300703644753,-0.015217069536447525,-9.774200439453125
1.7294933900375677e+18,-0.032740943133831024,0.05591273307800293,-9.833949089050293
1.729493390046568e+18,-0.03183853626251221,-0.006984970532357693,-9.767195701599121
1.729493390052568e+18,-0.013243609108030796,0.03179188072681427,-9.836115837097168
1.7294933900615683e+18,0.11078588664531708,-0.02039141207933426,-9.80910587310791
1.7294933900705684e+18,-0.04921150580048561,0.0259799063205719,-9.753451347351074
1.7294933900765686e+18,0.00011762871872633696,-0.057888712733983994,-9.794401168823242
1.7294933900855688e+18,-0.04921193793416023,-0.008550764061510563,-9.790950775146484
1.729493390094569e+18,-0.04748762026429176,-0.024578696116805077,-9.809173583984375
1.729493390100569e+18,0.03490784764289856,0.04762353003025055,-9.792231559753418
1.7294933901095693e+18,-0.09556988626718521,-0.033261965960264206,-9.769845008850098
1.7294933901155694e+18,-0.003752198303118348,0.02938341163098812,-9.810998916625977
1.7294933901245696e+18,-0.05081719532608986,0.0764949768781662,-9.786412239074707
1.7294933901335698e+18,0.03701740875840187,-0.00014361250214278698,-9.860815048217773
1.72949339013957e+18,0.024029191583395004,0.07332096248865128,-9.850289344787598
1.72949339014857e+18,0.04393841698765755,-0.003170645097270608,-9.800515174865723
1.7294933901635704e+18,0.02817671373486519,-0.06213611736893654,-9.797656059265137
1.7294933901725706e+18,0.021056564524769783,0.018405195325613022,-9.890654563903809
1.7294933901815708e+18,0.08762544393539429,0.05590275302529335,-9.890774726867676
1.729493390187571e+18,0.033708032220602036,0.019140353426337242,-9.737298011779785
1.7294933901965711e+18,0.06691146641969681,0.032969050109386444,-9.798181533813477
1.7294933902055713e+18,-0.01618863269686699,0.02947480045258999,-9.80360221862793
1.7294933902115715e+18,0.007875065319240093,-0.05663182586431503,-9.829118728637695
1.7294933902205716e+18,-0.04236780107021332,-0.03279346600174904,-9.776361465454102
1.7294933902265718e+18,0.027759838849306107,0.04665815457701683,-9.777440071105957
1.729493390235572e+18,0.030529597774147987,0.025578662753105164,-9.824045181274414
1.729493390241572e+18,0.02085401676595211,0.004287482239305973,-9.807044982910156
1.7294933902505723e+18,-0.009068535640835762,-0.02889394946396351,-9.809412002563477
1.7294933902595725e+18,-0.05071653425693512,-0.0613352432847023,-9.815330505371094
1.7294933902655726e+18,-0.06889060139656067,-0.013470279984176159,-9.837987899780273
1.7294933902745728e+18,-0.05657481402158737,-0.13419212400913239,-9.904276847839355
1.729493390283573e+18,-0.08540666848421097,0.06778904050588608,-9.79964828491211
1.729493390289573e+18,0.03303380310535431,-0.0942860096693039,-9.933414459228516
1.7294933902985733e+18,0.06922685354948044,0.06995423138141632,-9.88144302368164
1.7294933903075735e+18,-0.02199237234890461,0.028090286999940872,-9.843527793884277
1.7294933903135736e+18,0.03652309253811836,0.0846724808216095,-9.847895622253418
1.7294933903225738e+18,0.08009995520114899,0.0921260416507721,-9.74726390838623
1.729493390331574e+18,0.00887785479426384,-0.041159696877002716,-9.786938667297363
1.7294933903375741e+18,-0.028103256598114967,-0.04634258151054382,-9.901530265808105
1.7294933903465743e+18,-0.07661277800798416,0.014442386105656624,-9.797268867492676
1.7294933903525745e+18,-0.0308480653911829,0.0289857666939497,-9.793686866760254
1.7294933903615747e+18,-0.030616149306297302,0.05414311960339546,-9.765717506408691
1.7294933903705748e+18,0.0814305767416954,-0.02205631695687771,-9.773707389831543
1.729493390376575e+18,-0.04574842378497124,0.010147400200366974,-9.7583589553833
1.7294933903855752e+18,-0.04542598873376846,-0.014285948127508163,-9.817322731018066
1.7294933903915753e+18,-0.004855787381529808,0.026710428297519684,-9.771206855773926
1.7294933904005755e+18,-0.04947499930858612,-0.004868446849286556,-9.783059120178223
1.7294933904095757e+18,0.03161713108420372,-0.01617041416466236,-9.827805519104004
1.7294933904155758e+18,0.0024119799491018057,-0.03167099878191948,-9.766806602478027
1.729493390424576e+18,-0.12236735224723816,-0.07775752991437912,-9.724895477294922
1.7294933904335762e+18,-0.0032664744649082422,0.0014177177799865603,-9.845551490783691
1.7294933904395763e+18,-0.041495926678180695,0.046192996203899384,-9.793694496154785
1.7294933904485765e+18,-0.02692984975874424,-0.031386081129312515,-9.8003511428833
1.7294933904575767e+18,-0.02104663848876953,-0.020565832033753395,-9.84011459350586
1.7294933904635768e+18,-0.007062998134642839,-0.020673496648669243,-9.93719482421875
1.729493390472577e+18,-0.025589747354388237,-0.0028125764802098274,-9.903234481811523
1.7294933904785772e+18,-0.012677554041147232,-0.038913022726774216,-9.886109352111816
1.7294933904875773e+18,0.018366320058703423,-0.006316646467894316,-9.977435111999512
1.7294933904935775e+18,0.029071468859910965,-0.01587151549756527,-9.958564758300781
1.7294933905025777e+18,-0.029209285974502563,0.0026558912359178066,-9.987944602966309
1.7294933905115779e+18,0.004555519670248032,-0.08926185220479965,-9.98403263092041
1.729493390517578e+18,0.0424581915140152,0.0033861103001981974,-10.053131103515625
1.7294933905265782e+18,0.005823644809424877,0.020307542756199837,-9.969223976135254
1.7294933905355784e+18,0.004952596500515938,0.08207238465547562,-10.020082473754883
1.7294933905415785e+18,-0.036689385771751404,-0.034619271755218506,-10.070905685424805
1.7294933905505787e+18,-0.0318848118185997,-0.010330970399081707,-10.070950508117676
1.7294933905565788e+18,-0.052173636853694916,0.0017365277744829655,-10.074825286865234
1.729493390565579e+18,-0.04864811524748802,-0.12485355138778687,-10.05477237701416
1.7294933905745792e+18,0.018135499209165573,0.028534166514873505,-10.084868431091309
1.7294933905805793e+18,0.047488223761320114,-0.08541356772184372,-10.139153480529785
1.7294933905895795e+18,-0.02216039039194584,0.010663633234798908,-10.371776580810547
1.7294933905955796e+18,0.005695052444934845,-0.011045729741454124,-10.39610481262207
1.7294933906045798e+18,-0.0627659261226654,0.0842340886592865,-10.476688385009766
1.72949339061058e+18,-0.019810248166322708,-0.010599762201309204,-10.489727020263672
1.7294933906195802e+18,-0.02492806315422058,-0.020023562014102936,-10.471717834472656
1.7294933906255803e+18,-0.0013623216655105352,-0.08680015802383423,-10.534199714660645
1.7294933906345805e+18,-0.0027152663096785545,0.006436264608055353,-10.496389389038086
1.7294933906435807e+18,0.04682488366961479,0.0019405491184443235,-10.470788955688477
1.7294933906525809e+18,-0.010392083786427975,-0.014932064339518547,-10.505451202392578
1.729493390661581e+18,0.04445775970816612,0.034030742943286896,-10.566980361938477
1.7294933906675812e+18,-0.08400221168994904,-0.007253775838762522,-10.517855644226074
1.7294933906765814e+18,-0.046337101608514786,0.05730758234858513,-10.569709777832031
1.7294933906855816e+18,-0.014851783402264118,-0.018818333745002747,-10.560407638549805
1.7294933906915817e+18,-0.05292360484600067,-0.09757786989212036,-10.536773681640625
1.729493390700582e+18,0.0967429131269455,-0.034852564334869385,-10.56350326538086
1.729493390709582e+18,0.029447801411151886,-0.040374867618083954,-10.522790908813477
1.7294933907185823e+18,0.0024792226031422615,0.049382198601961136,-10.496561050415039
1.7294933907245824e+18,0.01553273294121027,0.008194182068109512,-10.583151817321777
1.7294933907335826e+18,-0.0675448328256607,-0.09736727178096771,-10.634531021118164
1.7294933907425828e+18,-0.010947316884994507,0.03600239008665085,-10.519641876220703
1.729493390748583e+18,-0.06291557848453522,-0.04381139948964119,-10.584254264831543
1.729493390757583e+18,0.008145174011588097,0.0037164324894547462,-10.517571449279785
1.7294933907665833e+18,-0.039706647396087646,0.006068778224289417,-10.585931777954102
1.7294933907725834e+18,0.040208786725997925,0.056270282715559006,-10.580083847045898
1.7294933907815836e+18,0.039825689047575,0.04218941926956177,-10.54239273071289
1.7294933907905838e+18,0.04537810757756233,0.0856672152876854,-10.61275577545166
1.729493390796584e+18,-0.00663652503862977,-0.010794460773468018,-10.52902603149414
1.7294933908055841e+18,0.009959331713616848,0.030748693272471428,-10.564926147460938
1.7294933908145843e+18,-0.04952812194824219,-0.01887485757470131,-10.599361419677734
1.7294933908205844e+18,-0.03993963450193405,-0.05816401541233063,-10.619087219238281
1.7294933908295846e+18,-0.09962162375450134,-0.018065426498651505,-10.610465049743652
1.7294933908385848e+18,0.030187416821718216,0.021755408495664597,-10.637306213378906
1.729493390844585e+18,0.03255656734108925,-0.0703115165233612,-10.62981128692627
1.7294933908535852e+18,0.03851552680134773,-0.00031571625731885433,-10.622618675231934
1.7294933908625853e+18,0.02222422882914543,-0.09960160404443741,-10.522859573364258
1.7294933908685855e+18,0.07942801713943481,-0.004334568977355957,-10.570343971252441
1.7294933908775857e+18,-0.034311309456825256,-0.06151555851101875,-10.640439987182617
1.7294933908865859e+18,-0.05224715545773506,-0.011086154729127884,-10.596376419067383
1.729493390892586e+18,0.0036488468758761883,0.036782387644052505,-10.652771949768066
1.7294933909015862e+18,0.04877382516860962,0.002283392008394003,-10.59364128112793
1.7294933909075863e+18,-0.017271611839532852,-0.014761689119040966,-10.559181213378906
1.7294933909165865e+18,-0.054823894053697586,0.040682777762413025,-10.627240180969238
1.7294933909225866e+18,0.0059156110510230064,0.010328784584999084,-10.592353820800781
1.7294933909315868e+18,-0.016373224556446075,-0.015603171661496162,-10.647905349731445
1.729493390940587e+18,0.018672030419111252,-0.0582134872674942,-10.62945556640625
1.7294933909465871e+18,-0.030803686007857323,0.02143069915473461,-10.562417984008789
1.7294933909555873e+18,-0.06319531053304672,0.08294569700956345,-10.546896934509277
1.7294933909645875e+18,-0.0458446703851223,0.0022813030518591404,-10.61898136138916
1.7294933909705876e+18,-0.008107485249638557,0.04590076208114624,-10.6966552734375
1.7294933909795878e+18,-0.041799385100603104,-0.01111426018178463,-10.558658599853516
1.729493390988588e+18,0.04035959392786026,0.018406419083476067,-10.600689888000488
1.7294933909945882e+18,0.11694642156362534,0.029155893251299858,-10.530179977416992
1.7294933910035884e+18,-0.026585454121232033,0.0355474054813385,-10.69282341003418
1.7294933910095885e+18,0.04249342158436775,-0.02338121458888054,-10.63371753692627
1.7294933910185887e+18,-0.08629588782787323,-0.02500462532043457,-10.543127059936523
1.7294933910275889e+18,-0.033351510763168335,0.033394306898117065,-10.620211601257324
1.729493391036589e+18,0.035480570048093796,-0.009517553262412548,-10.573729515075684
1.7294933910425892e+18,-0.04081064462661743,0.009859620593488216,-10.527786254882812
1.7294933910515894e+18,-0.047314148396253586,-0.02088402770459652,-10.584406852722168
1.7294933910605896e+18,0.02175085060298443,0.06355701386928558,-10.628035545349121
1.7294933910665897e+18,0.03152491897344589,0.019839229062199593,-10.509510040283203
1.72949339107559e+18,-0.013251855038106441,0.020878443494439125,-10.60844612121582
1.72949339108459e+18,-0.043810732662677765,-0.05801304057240486,-10.623581886291504
1.7294933910905902e+18,0.024308588355779648,-0.029115453362464905,-10.64930534362793
1.7294933910995904e+18,0.010003279894590378,-0.06360210478305817,-10.61465835571289
1.7294933911085906e+18,-0.009909714572131634,0.06958366185426712,-10.560714721679688
1.7294933911145907e+18,-0.11190325021743774,-0.005183565896004438,-10.591307640075684
1.729493391123591e+18,0.039792418479919434,-0.0030473358929157257,-10.632246971130371
1.729493391129591e+18,-0.040391646325588226,0.07760072499513626,-10.599004745483398
1.7294933911385912e+18,0.008557204157114029,0.023707225918769836,-10.657561302185059
1.7294933911475914e+18,-0.054040830582380295,-0.0324670784175396,-10.561894416809082
1.7294933911535916e+18,0.0022954698652029037,-0.048558786511421204,-10.677620887756348
1.7294933911625917e+18,0.08441679179668427,0.0514555424451828,-10.628059387207031
1.729493391168592e+18,0.03843418508768082,-0.003932293504476547,-10.608434677124023
1.729493391177592e+18,0.027470186352729797,-0.10117921978235245,-10.59645938873291
1.7294933911865923e+18,-0.048095427453517914,-0.01605873741209507,-10.57426929473877
1.7294933911925924e+18,-0.0015523370821028948,0.00791323184967041,-10.566177368164062
1.7294933912015926e+18,0.04944360628724098,0.03998753800988197,-10.588542938232422
1.7294933912075927e+18,-0.05382505804300308,-0.0027289194986224174,-10.56949520111084
1.729493391216593e+18,0.007767504081130028,-0.037848297506570816,-10.556720733642578
1.729493391225593e+18,0.04956129938364029,-0.014642391353845596,-10.56637954711914
1.7294933912315932e+18,-0.003225059248507023,0.014365315437316895,-10.618433952331543
1.7294933912405934e+18,0.005368679761886597,-0.03990563377737999,-10.644206047058105
1.7294933912465935e+18,0.03145621344447136,0.051597800105810165,-10.58802604675293
1.7294933912555937e+18,0.027954865247011185,-0.09796003252267838,-10.633319854736328
1.7294933912615939e+18,0.0026721556205302477,0.033649202436208725,-10.569181442260742
1.729493391270594e+18,0.08590038865804672,-0.021635698154568672,-10.581954002380371
1.7294933912795942e+18,-0.07592729479074478,-0.032505061477422714,-10.642226219177246
1.7294933912855944e+18,-0.014195128343999386,0.022552473470568657,-10.598099708557129
1.7294933912945946e+18,0.024255748838186264,0.03275580331683159,-10.609147071838379
1.7294933913035948e+18,0.03766508027911186,0.018699247390031815,-10.563968658447266
1.729493391309595e+18,0.04104775935411453,-0.02469882369041443,-10.633737564086914
1.729493391318595e+18,0.042941879481077194,-0.045140303671360016,-10.58975887298584
1.7294933913275953e+18,-0.031131640076637268,-0.12441816180944443,-10.650771141052246
1.7294933913365955e+18,-0.0016821559984236956,0.010624325834214687,-10.586143493652344
1.7294933913425956e+18,-0.1307091861963272,0.026727158576250076,-10.637641906738281
1.7294933913515958e+18,0.015775710344314575,-0.030101487413048744,-10.585589408874512
1.729493391360596e+18,-0.00861027929931879,0.0100259929895401,-10.606202125549316
1.729493391366596e+18,0.09101232141256332,-0.03844323009252548,-10.675662994384766
1.7294933913755963e+18,0.03933800011873245,0.039123453199863434,-10.577960968017578
1.7294933913815964e+18,-0.008160424418747425,0.002151601016521454,-10.581544876098633
1.7294933913905966e+18,0.05817423388361931,0.020722853019833565,-10.612467765808105
1.7294933913995968e+18,0.04462594538927078,-0.05275704711675644,-10.61243724822998
1.729493391405597e+18,0.02429880015552044,0.0297226682305336,-10.549912452697754
1.729493391414597e+18,0.11201272904872894,-0.022136345505714417,-10.546748161315918
1.7294933914205972e+18,-0.012721838429570198,-0.015083689242601395,-10.561223030090332
1.7294933914295974e+18,0.011239572428166866,-0.06023458391427994,-10.627644538879395
1.7294933914385976e+18,-0.04111311212182045,-0.016520414501428604,-10.551783561706543
1.7294933914445978e+18,-0.024205908179283142,-0.016752678900957108,-10.6277494430542
1.729493391453598e+18,-0.05101025477051735,-0.061832405626773834,-10.620916366577148
1.7294933914625981e+18,-0.06379327923059464,-0.025650590658187866,-10.56233024597168
1.7294933914685983e+18,-0.03266296535730362,0.013278361409902573,-10.642794609069824
1.7294933914775985e+18,0.012562762014567852,0.10522575676441193,-10.5576810836792
1.7294933914865987e+18,-0.034823380410671234,-0.009718449786305428,-10.683755874633789
1.7294933914955988e+18,0.041726622730493546,0.06997937709093094,-10.515425682067871
1.729493391501599e+18,-0.06993024796247482,-0.018439412117004395,-10.614540100097656
1.7294933915105992e+18,-0.05453912913799286,-0.03315005451440811,-10.618084907531738
1.7294933915165993e+18,0.019404707476496696,0.06086180359125137,-10.599343299865723
1.7294933915225994e+18,0.0773453339934349,-0.03385253995656967,-10.608591079711914
1.7294933915315996e+18,0.02231929451227188,0.005283832550048828,-10.555902481079102
1.7294933915405998e+18,0.00859895907342434,0.03408348932862282,-10.700807571411133
1.7294933915466e+18,0.023626625537872314,-0.022482559084892273,-10.589081764221191
1.7294933915556001e+18,-0.0141866784542799,-0.07342207431793213,-10.5694580078125
1.7294933915646003e+18,-0.02825329080224037,-0.047606609761714935,-10.57823657989502
1.7294933915706004e+18,-0.05907101184129715,-0.036315977573394775,-10.66747760772705
1.7294933915796006e+18,-0.052720967680215836,-0.09537070244550705,-10.526917457580566
1.7294933915856008e+18,-0.08550617098808289,0.0011369716376066208,-10.609676361083984
1.729493391594601e+18,0.047783344984054565,-0.0014111482305452228,-10.531868934631348
1.729493391600601e+18,0.07808474451303482,-0.003061700379475951,-10.522377014160156
1.7294933916096013e+18,-0.007028810679912567,0.011439220979809761,-10.599272727966309
1.7294933916186015e+18,0.035492245107889175,0.003394411876797676,-10.545516014099121
1.7294933916246016e+18,0.005674845073372126,-0.013637118972837925,-10.553976058959961
1.7294933916336018e+18,0.0022700887639075518,0.03103765659034252,-10.600732803344727
1.729493391639602e+18,-0.026769811287522316,-0.0013554790057241917,-10.576851844787598
1.729493391648602e+18,0.002761517884209752,-0.045591678470373154,-10.59617805480957
1.7294933916546022e+18,-0.012976789847016335,-0.04939998686313629,-10.558218002319336
1.7294933916636024e+18,0.059623196721076965,-0.021802686154842377,-10.603399276733398
1.7294933916696026e+18,0.06508368253707886,-0.023687750101089478,-10.619392395019531
1.7294933916786028e+18,-0.0330531969666481,0.026636216789484024,-10.543558120727539
1.729493391687603e+18,-0.006289229262620211,-0.023074934259057045,-10.545271873474121
1.729493391693603e+18,0.03667466342449188,-0.08349324762821198,-10.582460403442383
1.7294933917026033e+18,0.003079627640545368,0.022319335490465164,-10.611093521118164
1.7294933917086034e+18,-0.040736932307481766,-0.020473752170801163,-10.592122077941895
1.7294933917206036e+18,0.02275223098695278,-0.044978540390729904,-10.50544548034668
1.7294933917296038e+18,-0.02613789215683937,0.02214175835251808,-10.511621475219727
1.729493391735604e+18,0.07409276068210602,-0.007193356286734343,-10.550799369812012
1.7294933917776049e+18,-0.007222144398838282,0.014311552047729492,-10.5987548828125
1.729493391783605e+18,-0.0006218170165084302,0.025538919493556023,-10.621138572692871
1.7294933917926052e+18,-0.0025723513681441545,0.050752390176057816,-10.523261070251465
1.7294933918016054e+18,0.06045707315206528,0.037822458893060684,-10.612876892089844
1.7294933918076055e+18,-0.04258960485458374,0.04304005205631256,-10.54694652557373
1.7294933918166057e+18,-0.10506117343902588,-0.0249004028737545,-10.522541046142578
1.729493391825606e+18,-0.013415401801466942,0.0180963221937418,-10.535385131835938
1.729493391831606e+18,-0.00019603024702519178,0.074019655585289,-10.523903846740723
1.7294933918406062e+18,-0.036716245114803314,-0.04478234052658081,-10.449973106384277
1.7294933918466063e+18,-0.10176344960927963,0.029258085414767265,-10.534123420715332
1.7294933918556065e+18,-0.05173327773809433,0.04803713038563728,-10.589581489562988
1.7294933918646067e+18,0.04654785245656967,-0.07529003918170929,-10.564882278442383
1.729493391873607e+18,-0.005145081784576178,0.05022937059402466,-10.577003479003906
1.729493391879607e+18,-0.006070941220968962,-0.04378868639469147,-10.481505393981934
1.7294933918886072e+18,0.0631985068321228,-0.03473439812660217,-10.543381690979004
1.7294933918976074e+18,0.028896410018205643,0.033781714737415314,-10.497517585754395
1.7294933919036076e+18,0.021522976458072662,0.05287041887640953,-10.541662216186523
1.7294933919126077e+18,-0.0015221753856167197,0.01959487423300743,-10.361444473266602
1.729493391921608e+18,0.024448737502098083,0.024428918957710266,-10.398191452026367
1.729493391927608e+18,0.04634544625878334,0.031814247369766235,-10.396944999694824
1.7294933919366083e+18,0.025279255583882332,0.015709146857261658,-10.421772003173828
1.7294933919426084e+18,-0.0746501237154007,0.04078275337815285,-10.245412826538086
1.7294933919516086e+18,0.05715087428689003,-0.07970539480447769,-10.361822128295898
1.7294933919606088e+18,-0.05659034103155136,-0.036895617842674255,-10.184733390808105
1.729493391966609e+18,-0.1220371201634407,0.10652200877666473,-10.251185417175293
1.729493391975609e+18,0.0534963496029377,0.0682612732052803,-10.267128944396973
1.7294933919846093e+18,0.007033688947558403,0.12632620334625244,-10.237713813781738
1.7294933919936095e+18,0.050509095191955566,-0.054023563861846924,-10.158416748046875
1.7294933919996096e+18,-0.006767860613763332,0.014725187793374062,-10.16616439819336
1.7294933920086098e+18,0.0036685210652649403,0.011551914736628532,-10.150033950805664
1.72949339201761e+18,-0.04131850600242615,-0.05097859352827072,-10.111706733703613
1.72949339202361e+18,0.04748236760497093,0.019709555432200432,-10.105376243591309
1.7294933920326103e+18,0.04383258521556854,0.05153246223926544,-10.008584976196289
1.7294933920386104e+18,-0.029603436589241028,-0.0023146183229982853,-9.998542785644531
1.7294933920476106e+18,0.00970827043056488,-0.046873465180397034,-9.963912963867188
1.7294933920566108e+18,-0.05595487728714943,-0.032908882945775986,-9.982415199279785
1.729493392062611e+18,0.033165279775857925,0.013096162118017673,-9.954998970031738
1.7294933920716111e+18,0.0011162785813212395,-0.013494057580828667,-9.908666610717773
1.7294933920776113e+18,0.031230106949806213,0.02054551988840103,-9.88151741027832
1.7294933920866115e+18,0.028152167797088623,-0.020307501778006554,-9.804059028625488
1.7294933920926116e+18,-0.004114719107747078,0.02173040434718132,-9.784991264343262
1.7294933921016118e+18,0.01594517193734646,-0.03684798255562782,-9.80212116241455
1.729493392110612e+18,0.05279302969574928,-0.03779478371143341,-9.742903709411621
1.729493392116612e+18,-0.04672461375594139,-0.05807952582836151,-9.767232894897461
1.7294933921256123e+18,0.005387444980442524,0.009373449720442295,-9.721933364868164
1.7294933921346125e+18,-0.036221638321876526,0.0829249769449234,-9.724969863891602
1.7294933921406126e+18,0.05263403430581093,0.012372128665447235,-9.723431587219238
1.7294933921496128e+18,0.03864441066980362,-0.028971631079912186,-9.783618927001953
1.729493392155613e+18,-0.023829927667975426,-0.0404592826962471,-9.675899505615234
1.729493392164613e+18,-0.05814357474446297,0.052924372255802155,-9.633515357971191
1.7294933921736133e+18,-0.015621142461895943,0.06377333402633667,-9.642844200134277
1.7294933921796134e+18,0.016988562420010567,-0.016877707093954086,-9.721467971801758
1.7294933921886136e+18,0.0014063887065276504,-0.046650029718875885,-9.6429443359375
1.7294933921946138e+18,0.019786249846220016,-0.027614658698439598,-9.643232345581055
1.729493392203614e+18,-0.013664576224982738,0.06953230500221252,-9.639748573303223
1.729493392209614e+18,-0.0209636352956295,0.04311108589172363,-9.68308162689209
1.7294933922186143e+18,0.05038287118077278,-0.11344008892774582,-9.641334533691406
1.7294933922276145e+18,-0.005033656023442745,0.004802950657904148,-9.640495300292969
1.7294933922336146e+18,0.07221154123544693,0.0785682424902916,-9.722108840942383
1.7294933922426148e+18,0.008186845108866692,-0.06490427255630493,-9.636123657226562
1.729493392251615e+18,-0.052550893276929855,0.0006103090709075332,-9.64225959777832
1.729493392257615e+18,0.026512691751122475,0.03318958356976509,-9.644195556640625
1.7294933922666153e+18,-0.05726465955376625,-0.025578392669558525,-9.69136905670166
1.7294933922756155e+18,0.05373936519026756,-0.01528657041490078,-9.650309562683105
1.7294933922816156e+18,-0.016355566680431366,-0.09499985724687576,-9.705911636352539
1.7294933922906158e+18,0.00816384144127369,0.03363821282982826,-9.684226989746094
1.729493392299616e+18,-0.010065088048577309,0.02084289863705635,-9.725118637084961
1.7294933923056161e+18,0.02030332386493683,-0.013423934578895569,-9.732573509216309
1.7294933923176164e+18,0.004484296776354313,-0.01322532445192337,-9.70105266571045
1.7294933923296166e+18,0.01674351841211319,-0.016322704032063484,-9.65516471862793
1.7294933923356168e+18,0.011032713577151299,-0.056492313742637634,-9.713573455810547
1.729493392344617e+18,-0.02089506946504116,-0.0038261606823652983,-9.67588996887207
1.7294933923536172e+18,0.007966739125549793,-0.05327615141868591,-9.7041654586792
1.7294933923596173e+18,0.03620763495564461,-0.032888274639844894,-9.673299789428711
1.7294933923686175e+18,-0.011739962734282017,-0.03533708304166794,-9.67967700958252
1.7294933923746176e+18,-0.06306183338165283,-0.015259219333529472,-9.635615348815918
1.7294933923836178e+18,-0.03014555387198925,0.009565621614456177,-9.786981582641602
1.729493392392618e+18,-0.0336918905377388,-0.0157379861921072,-9.615592956542969
1.7294933924016182e+18,-0.03049103356897831,0.03468180075287819,-9.7638578414917
1.7294933924106184e+18,-0.0326409637928009,0.020992489531636238,-9.738871574401855
1.7294933924196186e+18,-0.01948828250169754,-0.012325923889875412,-9.693309783935547
1.7294933924256187e+18,-0.03571919724345207,0.040957219898700714,-9.636751174926758
1.729493392434619e+18,0.01254285965114832,-0.018544377759099007,-9.60761833190918
1.729493392443619e+18,-0.024527670815587044,-0.038145873695611954,-9.656676292419434
1.7294933924526193e+18,-0.032326389104127884,-0.027139874175190926,-9.642678260803223
1.7294933924616195e+18,-0.029567983001470566,-0.015615989454090595,-9.65898323059082
1.7294933924676196e+18,-0.018611468374729156,0.0056490544229745865,-9.628528594970703
1.7294933924766198e+18,0.009063314646482468,-0.0009002197766676545,-9.553787231445312
1.72949339248562e+18,-0.004393785260617733,0.007952898740768433,-9.654581069946289
1.7294933924946202e+18,-0.02528207004070282,0.07287301123142242,-9.575167655944824
1.7294933925036204e+18,-0.04082442820072174,0.0649530291557312,-9.666906356811523
1.7294933925126205e+18,-0.016928628087043762,0.01264589000493288,-9.667219161987305
1.7294933925186207e+18,0.050640810281038284,-0.04252006858587265,-9.670289039611816
1.7294933925276209e+18,-0.04716639220714569,0.04613638296723366,-9.695767402648926
1.729493392536621e+18,0.03166576474905014,-0.016017209738492966,-9.620583534240723
1.7294933925456212e+18,-0.033589091151952744,-0.036362096667289734,-9.682550430297852
1.7294933925516214e+18,0.0025727583561092615,0.04062402620911598,-9.65119743347168
1.7294933925606216e+18,-0.023939762264490128,0.025171808898448944,-9.626530647277832
1.7294933925696218e+18,-0.015983793884515762,-0.010167679749429226,-9.594517707824707
1.729493392578622e+18,-0.03930196911096573,-0.01103238482028246,-9.646139144897461
1.7294933925876221e+18,0.019702298566699028,-0.011913243681192398,-9.664846420288086
1.7294933925966223e+18,-0.1375737339258194,0.01840926893055439,-9.612648010253906
1.7294933926056225e+18,0.011161044239997864,-0.03391757234930992,-9.608960151672363
1.7294933926116227e+18,0.046173613518476486,0.022863900288939476,-9.591408729553223
1.7294933926206228e+18,-0.02275954559445381,-0.06487508863210678,-9.61631965637207
1.729493392629623e+18,0.0020928422454744577,0.0453675240278244,-9.674922943115234
1.7294933926386232e+18,-0.06062674522399902,0.02350066974759102,-9.588772773742676
1.7294933926446234e+18,-0.014909165911376476,0.05409327894449234,-9.603114128112793
1.7294933926536236e+18,0.03358571231365204,-0.051149364560842514,-9.625814437866211
1.7294933926626237e+18,-0.015287171117961407,-0.07146703451871872,-9.641624450683594
1.729493392671624e+18,0.0674360916018486,0.007349145598709583,-9.651488304138184
1.729493392680624e+18,-0.09651026129722595,0.031041990965604782,-9.524269104003906
1.7294933926866243e+18,-0.08571384102106094,-0.000818938366137445,-9.531505584716797
1.7294933926956244e+18,0.013644406571984291,-0.04544723778963089,-9.494217872619629
1.7294933927046246e+18,-0.008104588836431503,0.029547883197665215,-9.536738395690918
1.7294933927106248e+18,-0.0637437105178833,0.025358768180012703,-9.41964054107666
1.729493392719625e+18,-0.02469669282436371,0.007726377807557583,-9.607866287231445
1.7294933927286252e+18,0.03823620453476906,-0.046817079186439514,-9.619294166564941
1.7294933927346253e+18,-0.028912629932165146,0.03661932423710823,-9.539698600769043
1.7294933927436255e+18,-0.1052442342042923,-0.007555011659860611,-9.52408218383789
1.7294933927496256e+18,0.03350834921002388,0.017277713865041733,-9.545117378234863
1.7294933927586258e+18,0.03615487739443779,0.012417459860444069,-9.546058654785156
1.729493392767626e+18,-0.01551138050854206,0.004217552952468395,-9.61299991607666
1.729493392773626e+18,-0.0626998245716095,-0.003897483926266432,-9.542278289794922
1.7294933927826263e+18,0.008207093924283981,0.01988103613257408,-9.587495803833008
1.7294933927886264e+18,0.0238825473934412,0.020393745973706245,-9.5892915725708
1.7294933927976266e+18,0.05457976460456848,0.04834423586726189,-9.590085983276367
1.7294933928066268e+18,-0.0374380499124527,-0.0028099510818719864,-9.620527267456055
1.729493392812627e+18,-0.08435521274805069,-0.025392666459083557,-9.5244140625
1.7294933928216271e+18,0.009633679874241352,0.03926987946033478,-9.58339786529541
1.7294933928306273e+18,0.014258353039622307,0.011626185849308968,-9.556825637817383
1.7294933928366275e+18,0.023751042783260345,0.03145185485482216,-9.503774642944336
1.7294933928486277e+18,-0.07754772156476974,0.022590452805161476,-9.57681941986084
1.7294933928546278e+18,0.010495838709175587,-0.028578225523233414,-9.529664993286133
1.729493392863628e+18,-0.013057984411716461,-0.04606031998991966,-9.55963134765625
1.7294933928696282e+18,-0.017504839226603508,-0.023000160232186317,-9.430606842041016
1.7294933928786284e+18,0.033514853566884995,-0.009068731218576431,-9.53307056427002
1.7294933928876285e+18,-0.013110239058732986,-0.01186645682901144,-9.550741195678711
1.7294933928936287e+18,0.0425243005156517,0.04688653722405434,-9.51016616821289
1.7294933929026289e+18,0.04916556552052498,-0.048849884420633316,-9.49322509765625
1.729493392908629e+18,-0.015758812427520752,0.05088265240192413,-9.560702323913574
1.7294933929176292e+18,-0.006652032025158405,0.0941033810377121,-9.555218696594238
1.7294933929266294e+18,0.02161422371864319,0.0390673503279686,-9.580764770507812
1.7294933929326295e+18,0.04436446726322174,-0.0006828802870586514,-9.557158470153809
1.7294933929416297e+18,0.06535588949918747,0.0244167260825634,-9.509134292602539
1.7294933929476298e+18,-0.017293229699134827,-0.018116939812898636,-9.552816390991211
1.72949339295663e+18,-0.016391567885875702,-0.057717688381671906,-9.533147811889648
1.7294933929656302e+18,0.003938052803277969,-0.0033036810345947742,-9.534205436706543
1.7294933929716303e+18,0.0012231542496010661,0.03382933512330055,-9.532862663269043
1.7294933929806305e+18,0.05132800340652466,0.001204957952722907,-9.467717170715332
1.7294933929866307e+18,0.01430228166282177,0.10852839797735214,-9.542192459106445
1.7294933929956308e+18,-0.04513004794716835,-0.01306647527962923,-9.506324768066406
1.729493393004631e+18,0.05260787531733513,-0.0013883154606446624,-9.402915000915527
1.7294933930106312e+18,0.02526407688856125,0.03367879241704941,-9.555427551269531
1.7294933930196314e+18,-0.05520917475223541,-0.05496757850050926,-9.50832748413086
1.7294933930286316e+18,0.06597233563661575,0.00905799400061369,-9.442220687866211
1.7294933930346317e+18,0.034146491438150406,-0.0197690948843956,-9.5828218460083
1.729493393046632e+18,0.037415191531181335,0.008555403910577297,-9.447646141052246
1.729493393052632e+18,0.020855816081166267,0.023602796718478203,-9.490758895874023
1.7294933930616323e+18,-0.031880561262369156,-0.005902442149817944,-9.481425285339355
1.7294933930706324e+18,0.03536782041192055,0.011863511055707932,-9.448965072631836
1.7294933930766326e+18,-0.0008351078140549362,-0.0031256498768925667,-9.566365242004395
1.7294933930856328e+18,-0.0203537717461586,-0.07327986508607864,-9.502228736877441
1.729493393094633e+18,0.018035126850008965,0.11417531967163086,-9.476360321044922
1.729493393100633e+18,-0.04303043335676193,-0.009208367206156254,-9.538410186767578
1.7294933931096333e+18,0.03814559429883957,0.06323786079883575,-9.536782264709473
1.7294933931156334e+18,-0.05095232278108597,-0.03646160662174225,-9.484915733337402
1.7294933931246336e+18,-0.12757490575313568,0.06776031106710434,-9.494463920593262
1.7294933931306337e+18,0.007728927303105593,0.01369926892220974,-9.457671165466309
1.729493393139634e+18,-0.007602423895150423,0.018614159896969795,-9.481778144836426
1.729493393148634e+18,-0.028024137020111084,0.09398788213729858,-9.49959659576416
1.7294933931546342e+18,-0.11716965585947037,-0.01962916925549507,-9.449399948120117
1.7294933931636344e+18,0.03933922201395035,-0.0566108301281929,-9.525835990905762
1.7294933931726346e+18,-0.04889358580112457,-0.011929349973797798,-9.452634811401367
1.7294933931816348e+18,0.044747646898031235,0.06680208444595337,-9.455122947692871
1.729493393187635e+18,0.030736172571778297,-0.10345348715782166,-9.493261337280273
1.7294933931966351e+18,-0.03159546107053757,-0.0658821165561676,-9.431869506835938
1.7294933932056353e+18,-0.026632647961378098,0.026282530277967453,-9.479819297790527
1.7294933932116355e+18,-0.0012908228673040867,0.01738380454480648,-9.525485038757324
1.7294933932206356e+18,0.03407558053731918,0.021576188504695892,-9.449344635009766
1.7294933932296358e+18,-0.024628281593322754,0.04814097657799721,-9.521769523620605
1.729493393238636e+18,0.01023930311203003,-0.03991291671991348,-9.539359092712402
1.7294933932446362e+18,-0.0036633398849517107,-0.04783102497458458,-9.462404251098633
1.7294933932536364e+18,-0.03694697096943855,-0.012592917308211327,-9.57832145690918
1.7294933932626365e+18,0.017325710505247116,0.020073922351002693,-9.449797630310059
1.7294933932686367e+18,-0.026887184008955956,0.015265104360878468,-9.447853088378906
1.7294933932776369e+18,-0.026562975719571114,-0.13619065284729004,-9.416045188903809
1.729493393283637e+18,-0.005580381955951452,0.0017628861824050546,-9.394424438476562
1.7294933932926372e+18,-0.00286399875767529,0.06787735968828201,-9.519990921020508
1.7294933932986373e+18,-0.0436403714120388,0.09134325385093689,-9.461385726928711
1.7294933933076375e+18,0.0027168914675712585,-0.021037479862570763,-9.472871780395508
1.7294933933166377e+18,0.046986598521471024,0.038550540804862976,-9.401644706726074
1.7294933933226378e+18,-0.01753767766058445,-0.02060968056321144,-9.441152572631836
1.729493393331638e+18,-0.04544590041041374,0.013527520932257175,-9.47187328338623
1.7294933933406382e+18,-0.03279346972703934,0.03249141573905945,-9.460882186889648
1.7294933933466383e+18,-0.0827946588397026,-0.004747149534523487,-9.469416618347168
1.7294933933556385e+18,0.040996111929416656,0.059121545404195786,-9.436006546020508
1.7294933933646387e+18,0.031910527497529984,-0.0566847063601017,-9.518613815307617
1.7294933933706388e+18,-0.02532280795276165,-0.0154513418674469,-9.47960090637207
1.729493393379639e+18,-0.1307104229927063,0.025573503226041794,-9.438224792480469
1.7294933933856392e+18,-0.004496120847761631,-0.016022156924009323,-9.4446382522583
1.7294933933946394e+18,-0.012279987335205078,0.029381394386291504,-9.385557174682617
1.7294933934036396e+18,0.03017129749059677,-0.030378025025129318,-9.46696949005127
1.7294933934126397e+18,0.04686267673969269,-0.025016669183969498,-9.343650817871094
1.72949339342164e+18,-0.0459822341799736,0.04187992960214615,-9.445794105529785
1.72949339342764e+18,0.014707913622260094,-0.04422187805175781,-9.424361228942871
1.7294933934366403e+18,0.08583492040634155,-0.1459575742483139,-9.423229217529297
1.7294933934426404e+18,0.05038536712527275,-0.041719503700733185,-9.44858169555664
1.7294933934516406e+18,-0.032273273915052414,-0.024596381932497025,-9.528815269470215
1.7294933934606408e+18,-0.029078206047415733,0.04549219086766243,-9.478893280029297
1.729493393466641e+18,-0.030525071546435356,0.030167263001203537,-9.437053680419922
1.729493393475641e+18,-0.038453735411167145,0.09994968771934509,-9.479715347290039
1.7294933934846413e+18,0.004553837236016989,-0.003076956607401371,-9.475165367126465
1.7294933934936415e+18,-0.026450859382748604,0.03785967826843262,-9.507401466369629
1.7294933934996416e+18,-0.005340432282537222,-0.012293887324631214,-9.463343620300293
1.7294933935086418e+18,0.03531474247574806,0.04052358493208885,-9.393221855163574
1.729493393514642e+18,0.0056049455888569355,-0.043535999953746796,-9.431821823120117
1.729493393523642e+18,-0.0043925028294324875,-0.0328298844397068,-9.431741714477539
1.7294933935296422e+18,0.014717835932970047,0.05554451420903206,-9.424188613891602
1.7294933935386424e+18,0.061351753771305084,-0.033167917281389236,-9.4063138961792
1.7294933935446426e+18,-0.030720869079232216,-0.023084677755832672,-9.4329252243042
1.7294933935536428e+18,0.07088188081979752,-0.08013635128736496,-9.382137298583984
1.729493393562643e+18,0.05945781245827675,0.05786332115530968,-9.346463203430176
1.729493393568643e+18,-0.0011517370585352182,-0.04865854233503342,-9.422673225402832
1.7294933935776433e+18,-0.0017243345500901341,-0.04960732161998749,-9.38675308227539
1.7294933935866435e+18,-0.045742955058813095,-0.013561923056840897,-9.39827823638916
1.7294933935926436e+18,0.052245691418647766,-0.013332908973097801,-9.420294761657715
1.7294933936016438e+18,0.045888762921094894,-0.07320389896631241,-9.439244270324707
1.729493393610644e+18,-0.051577307283878326,-0.017345892265439034,-9.475226402282715
1.729493393616644e+18,-0.01729561574757099,0.04931000620126724,-9.504583358764648
1.7294933936256443e+18,-0.015387997031211853,-0.008142172358930111,-9.432880401611328
1.7294933936316444e+18,-0.020562713965773582,-0.012581674382090569,-9.439926147460938
1.7294933936406446e+18,0.01760260947048664,0.029496166855096817,-9.320718765258789
1.7294933936496448e+18,-0.061310380697250366,0.04614756256341934,-9.297018051147461
1.729493393658645e+18,-0.04510154947638512,0.008309852331876755,-9.243325233459473
1.7294933936676452e+18,-0.07179083675146103,-0.002214245032519102,-9.327014923095703
1.7294933936796454e+18,-0.06912446767091751,0.0046793329529464245,-9.320863723754883
1.7294933936916457e+18,-0.015143263153731823,-0.033762168139219284,-9.225225448608398
1.729493393700646e+18,0.009135457687079906,-0.03246814012527466,-9.108672142028809
1.729493393709646e+18,0.02551061101257801,0.021782156080007553,-9.152612686157227
1.7294933937156462e+18,-0.025534434244036674,0.015170726925134659,-9.243470191955566
1.7294933937246464e+18,0.044645264744758606,-0.03174919635057449,-9.16876220703125
1.7294933937336466e+18,0.007167710456997156,0.003558930940926075,-9.11147403717041
1.7294933937426468e+18,0.007213515695184469,0.0484541617333889,-9.02534008026123
1.729493393748647e+18,-0.03986278921365738,-0.05545772984623909,-9.00991153717041
1.729493393757647e+18,-0.013516942039132118,0.03729165717959404,-9.022586822509766
1.7294933937666473e+18,0.09047408401966095,-0.03500821068882942,-8.941332817077637
1.7294933937726474e+18,-0.002113527851179242,-0.01694590598344803,-8.932741165161133
1.7294933937816476e+18,0.08098719269037247,-0.010289011523127556,-8.955591201782227
1.7294933937906478e+18,0.015263304114341736,0.07503347843885422,-8.768054962158203
1.729493393796648e+18,0.01150994747877121,-0.061816949397325516,-8.868636131286621
1.7294933938056481e+18,-0.04680410027503967,0.08201542496681213,-8.864225387573242
1.7294933938116483e+18,0.04745069146156311,0.005239277146756649,-8.806313514709473
1.7294933938206484e+18,-0.028780419379472733,-0.01845102570950985,-8.712089538574219
1.7294933938296486e+18,-0.02702151983976364,-0.0029115602374076843,-8.6860990524292
1.7294933938356488e+18,-0.00917520746588707,0.06147615239024162,-8.726707458496094
1.729493393844649e+18,0.04098876938223839,-0.06825132668018341,-8.598156929016113
1.7294933938536492e+18,-0.07028930634260178,0.02388690784573555,-8.648099899291992
1.7294933938596493e+18,0.01038381364196539,0.006719029508531094,-8.648242950439453
1.7294933938686495e+18,0.0013201232068240643,0.0939565971493721,-8.608278274536133
1.7294933938776497e+18,-0.011835790239274502,0.024392157793045044,-8.558337211608887
1.7294933938836498e+18,0.01850505918264389,0.13655191659927368,-8.584639549255371
1.72949339389265e+18,0.10207971930503845,-0.02893439307808876,-8.56993579864502
1.7294933939016502e+18,0.012050217017531395,0.027450254186987877,-8.626567840576172
1.7294933939106504e+18,0.08002546429634094,-0.024820685386657715,-8.7124662399292
1.7294933939166505e+18,-0.01625753752887249,0.020542427897453308,-8.672054290771484
1.7294933939256507e+18,-0.04370390251278877,0.014438529498875141,-8.73018741607666
1.729493393934651e+18,0.01869303733110428,-0.0680556520819664,-8.779333114624023
1.729493393940651e+18,0.06215841695666313,-0.026779402047395706,-8.700201034545898
1.7294933939496512e+18,0.04117115959525108,0.010974926874041557,-8.731921195983887
1.7294933939556513e+18,0.031012501567602158,-0.05149193853139877,-8.698750495910645
1.7294933939646515e+18,-0.0823606327176094,0.00039805323467589915,-8.77619457244873
1.7294933939736517e+18,-0.01173398271203041,-0.02031463384628296,-8.728278160095215
1.7294933939796518e+18,0.10462160408496857,0.05441003665328026,-8.775014877319336
1.729493393988652e+18,0.018250154331326485,-0.04727816954255104,-8.835381507873535
1.7294933939976522e+18,-0.03346192464232445,-0.03315452113747597,-8.837719917297363
1.7294933940036524e+18,0.0017019022488966584,-0.04018482193350792,-8.893134117126465
1.7294933940126525e+18,0.0752745047211647,0.010962272062897682,-8.871861457824707
1.7294933940186527e+18,0.014882699586451054,0.02834578976035118,-8.90339183807373
1.7294933940276529e+18,0.023049630224704742,0.016002200543880463,-8.904947280883789
1.729493394033653e+18,-0.022717228159308434,-0.027133198454976082,-8.878416061401367
1.7294933940426532e+18,-0.004683562554419041,0.015447520650923252,-8.95566463470459
1.7294933940516534e+18,0.07764038443565369,0.036993108689785004,-8.936262130737305
1.7294933940576535e+18,-0.08684996515512466,0.0011271798284724355,-8.884598731994629
1.7294933940666537e+18,0.1305357664823532,0.008887001313269138,-8.995808601379395
1.729493394075654e+18,-0.0387558788061142,-0.0225877296179533,-8.90678882598877
1.729493394081654e+18,-0.01578632928431034,0.031521692872047424,-8.939579963684082
1.7294933940906542e+18,0.02724475972354412,-0.024594713002443314,-9.019572257995605
1.7294933940996544e+18,-0.03540689870715141,-0.030018053948879242,-8.978442192077637
1.7294933941086546e+18,-0.011140041053295135,-0.049506496638059616,-9.016336441040039
1.7294933941146547e+18,-0.007962321862578392,0.11558008193969727,-9.072379112243652
1.729493394123655e+18,-0.03996162489056587,0.020602596923708916,-9.046008110046387
1.729493394129655e+18,-0.007746615447103977,-0.04015738517045975,-9.095995903015137
1.7294933941386552e+18,-0.03008281998336315,-0.009852961637079716,-9.096165657043457
1.7294933941476554e+18,0.11850958317518234,0.061383504420518875,-9.158048629760742
1.7294933941536556e+18,-0.0723038762807846,0.07840833812952042,-9.13864803314209
1.7294933941626557e+18,-0.01684216968715191,-0.027807030826807022,-9.129602432250977
1.729493394171656e+18,-0.03691218048334122,0.012203586287796497,-9.218307495117188
1.729493394177656e+18,-0.028065772727131844,0.04050816595554352,-9.22011947631836
1.7294933941866563e+18,0.07103019207715988,0.039543528109788895,-9.186996459960938
1.7294933941956564e+18,0.03552496060729027,-0.027858233079314232,-9.184591293334961
1.7294933942016566e+18,0.014271765016019344,0.04459959268569946,-9.16349983215332
1.7294933942106568e+18,-0.025722121819853783,0.006886622868478298,-9.18123722076416
1.729493394216657e+18,0.027718018740415573,-0.05720275267958641,-9.260002136230469
1.729493394225657e+18,0.06677959114313126,-0.02759636752307415,-9.249387741088867
1.7294933942346573e+18,0.010436974465847015,-0.009119932539761066,-9.307225227355957
1.7294933942406574e+18,-0.06971292197704315,-0.00010238497634418309,-9.25322151184082
1.7294933942496576e+18,0.07824598252773285,0.008397454395890236,-9.330801010131836
1.7294933942586578e+18,-0.12678879499435425,-0.026846304535865784,-9.28327751159668
1.729493394264658e+18,-0.0004824770148843527,-0.06535416096448898,-9.331561088562012
1.729493394273658e+18,-0.0037362065631896257,-0.02641613595187664,-9.359777450561523
1.7294933942826583e+18,0.01790234073996544,-0.016227854415774345,-9.391831398010254
1.7294933942886584e+18,0.023180225864052773,-0.008289688266813755,-9.375223159790039
1.7294933942976586e+18,-0.03734559565782547,0.04443305358290672,-9.34314250946045
1.7294933943066588e+18,-0.038335684686899185,-0.0033243841025978327,-9.44140911102295
1.729493394312659e+18,-0.007677576504647732,-0.05762198567390442,-9.441576957702637
1.7294933943216591e+18,-0.004520844668149948,-0.05019259452819824,-9.297952651977539
1.7294933943276593e+18,0.07207132130861282,0.06191715970635414,-9.428221702575684
1.7294933943366595e+18,0.03909238055348396,-0.06005688011646271,-9.464442253112793
1.7294933943456596e+18,0.06701960414648056,0.046998992562294006,-9.49933910369873
1.7294933943516598e+18,0.047442205250263214,-0.029573526233434677,-9.443723678588867
1.72949339436066e+18,0.008318288251757622,0.04854309931397438,-9.54800033569336
1.7294933943696602e+18,-0.0189819373190403,0.01787707954645157,-9.488158226013184
1.7294933943786604e+18,0.031034445390105247,-0.0889955386519432,-9.46950912475586
1.7294933943846605e+18,0.11840871721506119,0.05621558800339699,-9.412886619567871
1.7294933943936607e+18,-0.036202430725097656,0.007068198174238205,-9.507976531982422
1.7294933943996608e+18,0.043729934841394424,-0.02929399348795414,-9.532657623291016
1.729493394408661e+18,-0.05263057351112366,-0.0040528918616473675,-9.493934631347656
1.7294933944176612e+18,0.06695561856031418,0.02491212636232376,-9.581125259399414
1.7294933944236613e+18,-0.02329331636428833,-0.11031859368085861,-9.49555492401123
1.7294933944326615e+18,0.00356123736128211,-0.05348167568445206,-9.492830276489258
1.7294933944416617e+18,0.008608321659266949,0.0332651361823082,-9.650701522827148
1.729493394450662e+18,-0.06467770040035248,0.05921871215105057,-9.468999862670898
1.729493394456662e+18,0.09560471028089523,-0.017182545736432076,-9.534744262695312
1.7294933944656622e+18,-0.009477226063609123,-0.02652759477496147,-9.517035484313965
1.7294933944746624e+18,0.01595919579267502,0.06158633530139923,-9.561863899230957
1.7294933944806625e+18,-0.04643133282661438,-0.04579901322722435,-9.520418167114258
1.7294933944896627e+18,0.05699247121810913,-0.009684545919299126,-9.561868667602539
1.729493394498663e+18,-0.03357382118701935,0.031507495790719986,-9.597790718078613
1.729493394504663e+18,0.02458404190838337,0.034170426428318024,-9.504434585571289
1.7294933945136632e+18,-0.0011049932800233364,-0.014241144061088562,-9.607132911682129
1.7294933945226634e+18,-0.014888375997543335,-0.027015771716833115,-9.597630500793457
1.7294933945316636e+18,0.03514625504612923,-0.02220638282597065,-9.567317008972168
1.7294933945376637e+18,-0.018966449424624443,0.0277946125715971,-9.563558578491211
1.729493394546664e+18,-0.06790375709533691,-0.009687382727861404,-9.565488815307617
1.729493394552664e+18,0.04754945635795593,-0.03190530091524124,-9.580698013305664
1.7294933945616643e+18,0.06256291270256042,-0.008229473605751991,-9.534878730773926
1.7294933945706644e+18,0.02960105426609516,0.08299007266759872,-9.55246353149414
1.7294933945766646e+18,0.04226216673851013,0.01913175731897354,-9.541017532348633
1.7294933945856648e+18,-0.012142740190029144,0.0712251141667366,-9.538398742675781
1.729493394594665e+18,-0.04351884126663208,0.057514507323503494,-9.528058052062988
1.729493394600665e+18,-0.03423028066754341,0.013800099492073059,-9.51009464263916
1.7294933946096653e+18,0.049429215490818024,-0.07001633942127228,-9.576688766479492
1.7294933946156654e+18,-0.040135543793439865,-0.013413574546575546,-9.551318168640137
1.7294933946246656e+18,0.029405511915683746,0.019262969493865967,-9.598454475402832
1.7294933946336658e+18,-0.07162448018789291,-0.06728757172822952,-9.510786056518555
1.729493394642666e+18,0.01308345329016447,-0.006355049554258585,-9.656219482421875
1.729493394648666e+18,-0.012673156335949898,0.00916457362473011,-9.622753143310547
1.7294933946576663e+18,-0.02200128138065338,0.01663532666862011,-9.588805198669434
1.7294933946636664e+18,-0.03733311966061592,0.01849854551255703,-9.566509246826172
1.7294933946726666e+18,0.023266522213816643,-0.057329364120960236,-9.585593223571777
1.7294933946816668e+18,0.01674501970410347,0.04435968026518822,-9.608819961547852
1.729493394687667e+18,0.046541135758161545,-0.0006410779897123575,-9.629137992858887
1.7294933946966671e+18,-0.014089848846197128,0.01271998044103384,-9.54427719116211
1.7294933947056673e+18,-0.02704167179763317,-0.0051681785844266415,-9.662251472473145
1.7294933947116675e+18,-0.03328821063041687,0.007535797543823719,-9.696285247802734
1.7294933947206676e+18,-0.017695525661110878,-0.03547148033976555,-9.668366432189941
1.7294933947266678e+18,0.018897421658039093,-0.007667138706892729,-9.642879486083984
1.729493394735668e+18,-0.01885523833334446,0.0827999860048294,-9.614192962646484
1.7294933947446682e+18,0.0026092329062521458,0.029977085068821907,-9.598073959350586
1.7294933947506683e+18,0.055702369660139084,0.07169440388679504,-9.607016563415527
1.7294933947596685e+18,-0.01478592585772276,0.03814641013741493,-9.66483211517334
1.7294933947656686e+18,0.03676805645227432,0.037171315401792526,-9.622119903564453
1.7294933947746688e+18,0.07369793206453323,0.07476972043514252,-9.712532997131348
1.729493394783669e+18,-0.01229702029377222,0.0003454030957072973,-9.624312400817871
1.729493394789669e+18,-0.009909220039844513,0.022337233647704124,-9.642178535461426
1.7294933947986693e+18,-0.013518577441573143,-0.05267079174518585,-9.656305313110352
1.7294933948046694e+18,0.0004748559440486133,0.07795152068138123,-9.650971412658691
1.7294933948136696e+18,-0.023173894733190536,-0.04584360867738724,-9.665589332580566
1.7294933948226698e+18,-0.027437658980488777,-0.028419798240065575,-9.662617683410645
1.72949339483167e+18,-0.019709253683686256,-0.027831995859742165,-9.660309791564941
1.7294933948376701e+18,-0.027025217190384865,0.06427107751369476,-9.714071273803711
1.7294933948526705e+18,0.0061402833089232445,-0.05112133547663689,-9.658332824707031
1.7294933948616707e+18,-0.03393875062465668,-0.015984348952770233,-12.75610637664795
1.7294933948706708e+18,0.006816594395786524,0.030398711562156677,-15.740137100219727
1.729493394876671e+18,-0.015521989203989506,0.012508303858339787,-16.20087242126465
1.7294933948856712e+18,-0.020870568230748177,0.0022246656008064747,-16.407169342041016
1.7294933948946714e+18,0.0428333580493927,0.013025356456637383,-16.436059951782227
1.7294933949006715e+18,0.015488388016819954,-0.06458046287298203,-16.489158630371094
1.7294933949096717e+18,-0.023630648851394653,0.06996987760066986,-16.498971939086914
1.729493394918672e+18,-0.0313444547355175,0.044290777295827866,-16.408084869384766
1.729493394924672e+18,-0.015354291535913944,-0.0208161361515522,-16.381851196289062
1.7294933949336722e+18,0.041884344071149826,-0.041975539177656174,-16.354045867919922
1.7294933949426724e+18,-0.037199966609478,0.014913288876414299,-16.480588912963867
1.7294933949486725e+18,-0.03835831955075264,0.001345782889984548,-16.253812789916992
1.7294933949576727e+18,0.009233049117028713,-0.009618923999369144,-16.225719451904297
1.729493394966673e+18,0.06676752120256424,-0.03488408401608467,-16.15325927734375
1.729493394972673e+18,-0.010691341012716293,0.043469611555337906,-16.072246551513672
1.7294933949816732e+18,0.0755290538072586,-0.007578600198030472,-15.900191307067871
1.7294933949876733e+18,-0.1054244115948677,-0.043916378170251846,-15.89442253112793
1.7294933949966735e+18,0.0034914175048470497,0.02262973226606846,-15.755043983459473
1.7294933950056737e+18,-0.015372730791568756,0.008988725021481514,-15.658724784851074
1.729493395014674e+18,-0.08006151020526886,0.03163693845272064,-15.522503852844238
1.729493395020674e+18,0.02332582138478756,-0.013520047068595886,-15.41745662689209
1.7294933950296742e+18,0.041548002511262894,-0.04209571331739426,-15.28145980834961
1.7294933950386744e+18,0.04214296489953995,0.0022498087491840124,-15.214337348937988
1.7294933950476746e+18,-0.00773223303258419,-0.013058802112936974,-15.030529022216797
1.7294933950536748e+18,0.07156984508037567,0.05354681983590126,-15.048847198486328
1.729493395065675e+18,-0.047575779259204865,-0.09958462417125702,-14.68685531616211
1.7294933950716751e+18,-0.08474982529878616,0.02420956827700138,-14.72136402130127
1.7294933950806753e+18,0.02817593142390251,-0.09091231226921082,-14.596935272216797
1.7294933950896755e+18,-0.01397656835615635,-0.04775737226009369,-14.442581176757812
1.7294933950956756e+18,-0.006827890407294035,-0.0015349800232797861,-14.48250961303711
1.7294933951046758e+18,0.056047502905130386,0.052506137639284134,-14.404953956604004
1.729493395113676e+18,0.007328006438910961,0.014603512361645699,-14.10853099822998
1.7294933951226762e+18,-0.04951711744070053,0.09121938049793243,-13.987356185913086
1.7294933951286764e+18,-0.01365229394286871,-0.030175046995282173,-14.0143461227417
1.7294933951376765e+18,0.08869028091430664,0.08499486744403839,-13.923371315002441
1.7294933951466767e+18,-0.0525883212685585,0.050901737064123154,-13.877120018005371
1.7294933951526769e+18,0.0752699077129364,-0.026316408067941666,-13.776567459106445
1.729493395161677e+18,-0.03441277891397476,0.07811218500137329,-13.686418533325195
1.7294933951706772e+18,-0.005570270121097565,0.038061656057834625,-13.61508560180664
1.7294933951766774e+18,-0.0015374727081507444,-0.0043932353146374226,-13.61430835723877
1.7294933951856776e+18,0.047425318509340286,-0.02173868753015995,-13.439803123474121
1.7294933951946778e+18,0.07457767426967621,0.021212827414274216,-13.364723205566406
1.729493395203678e+18,-0.040271077305078506,-0.09144541621208191,-13.26410961151123
1.7294933952126781e+18,0.03496221452951431,0.026109587401151657,-13.162884712219238
1.7294933952216783e+18,0.04837751016020775,-0.08172304183244705,-13.091463088989258
1.7294933952306785e+18,0.013249676674604416,-0.06076883524656296,-13.06227970123291
1.7294933952396787e+18,0.055890489369630814,0.03158917278051376,-12.968525886535645
1.7294933952456788e+18,-0.0691901445388794,0.02228618785738945,-12.921232223510742
1.729493395254679e+18,-0.04100051522254944,-0.0296170711517334,-12.826373100280762
1.7294933952606792e+18,0.05420497804880142,0.0733688622713089,-12.823326110839844
1.7294933952696794e+18,-0.030026191845536232,-0.06612953543663025,-12.743605613708496
1.7294933952786796e+18,-0.04524747654795647,-0.03057699277997017,-12.678497314453125
1.7294933952846797e+18,-0.035087816417217255,-0.05935433879494667,-12.712485313415527
1.7294933952936799e+18,-0.020384246483445168,-0.04327692836523056,-12.48180103302002
1.72949339530268e+18,-0.10794837027788162,-0.051523223519325256,-12.545735359191895
1.7294933953086802e+18,-0.0524931326508522,0.052548859268426895,-12.401521682739258
1.7294933953176804e+18,0.03694375976920128,0.04701834172010422,-12.436761856079102
1.7294933953266806e+18,-0.027993090450763702,-0.010526269674301147,-12.393747329711914
1.7294933953326807e+18,-0.08620625734329224,-0.018740028142929077,-12.307939529418945
1.729493395341681e+18,0.012793302536010742,-0.0335523895919323,-12.305922508239746
1.729493395350681e+18,0.06554525345563889,-0.033806465566158295,-12.144103050231934
1.7294933953566812e+18,-0.015023108571767807,-0.07344775646924973,-12.217351913452148
1.7294933953656814e+18,0.02829289436340332,-0.009861182421445847,-12.165284156799316
1.7294933953746816e+18,-0.012711151503026485,0.03414774686098099,-12.055248260498047
1.7294933953836818e+18,-0.019552767276763916,0.006462744902819395,-12.070757865905762
1.729493395389682e+18,-0.05350188538432121,0.016644900664687157,-12.009836196899414
1.729493395398682e+18,0.029094306752085686,-0.11151880770921707,-11.954072952270508
1.7294933954076823e+18,-0.00966381374746561,-0.05318772792816162,-11.904211044311523
1.7294933954136824e+18,0.0388898067176342,0.019649818539619446,-11.790294647216797
1.7294933954226826e+18,0.0596444196999073,-0.03738371655344963,-11.876193046569824
1.7294933954316828e+18,0.05087942257523537,-0.003785137552767992,-11.760467529296875
1.729493395437683e+18,-0.053775604814291,0.02924116887152195,-11.693756103515625
1.7294933954466831e+18,-0.013776094652712345,-0.03959217667579651,-11.66664981842041
1.7294933954556833e+18,0.011192282661795616,-0.0566728338599205,-11.629592895507812
1.7294933954646835e+18,-0.00936082936823368,0.031462084501981735,-11.668407440185547
1.7294933954706836e+18,0.007225856184959412,-0.05473187938332558,-11.571293830871582
1.7294933954796838e+18,0.029250595718622208,0.02614077553153038,-11.533702850341797
1.729493395491684e+18,0.012903262861073017,0.11458391696214676,-11.480454444885254
1.7294933955006843e+18,-0.010252794250845909,-0.013841066509485245,-11.46832275390625
1.7294933955066844e+18,0.013079123571515083,-0.02278195321559906,-11.452777862548828
1.7294933955156846e+18,0.12344932556152344,-0.040909286588430405,-11.36665153503418
1.7294933955246848e+18,0.013612758368253708,0.04738694056868553,-11.314697265625
1.729493395533685e+18,0.029310906305909157,-0.1482236683368683,-11.306195259094238
1.729493395539685e+18,0.021061109378933907,0.01630753092467785,-11.312430381774902
1.7294933955486853e+18,0.0025058798491954803,0.048881568014621735,-11.305120468139648
1.7294933955576855e+18,-0.08376270532608032,-0.060870543122291565,-11.266541481018066
1.7294933955636856e+18,-0.009174524806439877,-0.030732350423932076,-11.213589668273926
1.7294933955726858e+18,-0.07361388951539993,0.06114334240555763,-11.192341804504395
1.729493395581686e+18,-0.04037031903862953,-0.05563030764460564,-11.105609893798828
1.7294933955876861e+18,-0.021818166598677635,-0.05729882791638374,-11.213373184204102
1.7294933955966863e+18,0.04501447081565857,0.029906807467341423,-11.05797004699707
1.7294933956056865e+18,-0.002576432889327407,-0.06078831106424332,-11.110771179199219
1.7294933956146867e+18,0.05207282304763794,0.008527259342372417,-11.032838821411133
1.7294933956206868e+18,0.026562761515378952,-0.019432371482253075,-10.973124504089355
1.729493395629687e+18,-0.0760064497590065,-0.007428014185279608,-11.03524112701416
1.7294933956356872e+18,0.022499680519104004,0.012033618986606598,-10.958756446838379
1.7294933956446874e+18,-0.05863635614514351,0.0038285732734948397,-10.931587219238281
1.7294933956536876e+18,0.011556603945791721,0.04534739628434181,-10.875776290893555
1.7294933956596877e+18,0.03438830375671387,0.0491531603038311,-10.861653327941895
1.729493395668688e+18,0.02030644193291664,-0.017044667154550552,-10.902054786682129
1.729493395677688e+18,-0.013426542282104492,0.03509290888905525,-10.847981452941895
1.7294933956866883e+18,0.005028169602155685,-0.03838609531521797,-10.756295204162598
1.7294933956956884e+18,-0.06601250171661377,-0.01402733288705349,-10.75417423248291
1.7294933957016886e+18,-0.0017399147618561983,0.00836169719696045,-10.80569076538086
1.7294933957106888e+18,-0.0004531480371952057,0.0016099188942462206,-10.751752853393555
1.729493395719689e+18,0.02951405942440033,0.03747992590069771,-10.675292015075684
1.729493395725689e+18,0.035484760999679565,-0.05228855833411217,-10.671399116516113
1.7294933957346893e+18,0.00046096392907202244,0.0008836055640131235,-10.674699783325195
1.7294933957436895e+18,-0.011793369427323341,0.049585971981287,-10.620989799499512
1.7294933957496896e+18,-0.07169125229120255,-0.010105058550834656,-10.685639381408691
1.7294933957586898e+18,-0.06860204041004181,-0.051385752856731415,-10.648674011230469
1.72949339576469e+18,0.01590411178767681,-0.005277245305478573,-10.59439468383789
1.72949339577369e+18,-0.029650699347257614,0.012057634070515633,-10.634390830993652
1.7294933957826903e+18,0.08954168111085892,0.013323870487511158,-10.524862289428711
1.7294933957886904e+18,-0.07152853906154633,-0.06769630312919617,-10.630034446716309
1.7294933957976906e+18,-0.027675608173012733,0.06542102992534637,-10.605905532836914
1.7294933958066908e+18,-0.0347880944609642,-0.025532009080052376,-10.478732109069824
1.729493395812691e+18,0.05217145010828972,-0.07076683640480042,-10.463397026062012
1.7294933958216911e+18,-0.028116075322031975,-0.07596569508314133,-10.539475440979004
1.7294933958306913e+18,0.10398638248443604,-0.01805129460990429,-10.4802885055542
1.7294933958396915e+18,-0.0007503707311116159,-0.012782200239598751,-10.470209121704102
1.7294933958456916e+18,-0.013098590075969696,0.009682009927928448,-10.439718246459961
1.7294933958546918e+18,-0.049595415592193604,-0.0037713926285505295,-10.492189407348633
1.729493395863692e+18,0.07181432843208313,0.008540244773030281,-10.465494155883789
1.7294933958696922e+18,0.004423806443810463,0.03981652110815048,-10.306069374084473
1.7294933958786924e+18,-0.027139553800225258,-0.0671672448515892,-10.383127212524414
1.7294933958876925e+18,0.04044867306947708,0.061274588108062744,-10.333959579467773
1.7294933958936927e+18,0.040315769612789154,0.05903884768486023,-10.348833084106445
1.7294933959026929e+18,-0.06040245667099953,0.010374104604125023,-10.379399299621582
1.729493395911693e+18,0.022192535921931267,0.008567096665501595,-10.265576362609863
1.7294933959176932e+18,-0.013969730585813522,0.02626165747642517,-10.305702209472656
1.7294933959266934e+18,-0.02108921855688095,-0.04184505343437195,-10.289746284484863
1.7294933959326935e+18,-0.08676114678382874,-0.03481995686888695,-10.233709335327148
1.7294933959416937e+18,-0.036760762333869934,-0.08223073184490204,-10.2556791305542
1.729493395950694e+18,-0.009269901551306248,0.034945785999298096,-10.201376914978027
1.729493395959694e+18,0.016816794872283936,0.03521449863910675,-10.386655807495117
1.7294933959656942e+18,0.05297752097249031,-0.04515054076910019,-10.318559646606445
1.7294933959746944e+18,-0.060124143958091736,0.019004754722118378,-10.240081787109375
1.7294933959806945e+18,0.004128595348447561,0.014058060944080353,-10.167086601257324
1.7294933959896947e+18,-0.0887402892112732,-0.03555195406079292,-10.276979446411133
1.7294933959956948e+18,0.03541833907365799,0.13359220325946808,-10.17629623413086
1.729493396004695e+18,-0.013768780045211315,0.012833155691623688,-10.171460151672363
1.7294933960136952e+18,0.030558254569768906,-0.09412498772144318,-10.11989974975586
1.7294933960196954e+18,-0.013847962021827698,-0.013441134244203568,-10.236982345581055
1.7294933960286956e+18,-0.09419912099838257,-0.0439048670232296,-10.223017692565918
1.7294933960376957e+18,-0.05678282678127289,0.010919483378529549,-10.193235397338867
1.729493396046696e+18,-0.05120930075645447,0.016610771417617798,-10.170385360717773
1.7294933960556961e+18,0.051717184484004974,0.028843263164162636,-10.167463302612305
1.7294933960616963e+18,-0.0341133214533329,-0.020392034202814102,-10.163297653198242
1.7294933960706964e+18,-0.02086855098605156,-0.05256279185414314,-10.08797836303711
1.7294933960796966e+18,-0.008912899531424046,-0.07305020093917847,-10.131019592285156
1.7294933960886968e+18,0.01876949891448021,-0.007160181645303965,-10.067351341247559
1.729493396094697e+18,-0.008988705463707447,-0.010807703249156475,-10.097804069519043
1.7294933961036972e+18,0.07212316244840622,-0.034434638917446136,-10.111246109008789
1.7294933961096973e+18,-0.016586096957325935,-0.022656193003058434,-10.13587474822998
1.7294933961186975e+18,-0.04044495150446892,-0.004968799185007811,-10.067785263061523
1.7294933961276977e+18,0.06611844897270203,-0.07903464883565903,-10.085896492004395
1.7294933961336978e+18,-0.015050065703690052,0.03733134642243385,-10.031774520874023
1.729493396142698e+18,0.033064793795347214,0.009350614622235298,-10.053328514099121
1.7294933961516982e+18,-0.018432578071951866,0.05902509018778801,-10.04958724975586
1.7294933961606984e+18,0.04425081983208656,-0.040270380675792694,-10.018911361694336
1.7294933961696986e+18,-0.01218393724411726,-0.0325239934027195,-10.019314765930176
1.7294933961786988e+18,-0.09280155599117279,-0.011045090854167938,-10.042322158813477
1.729493396184699e+18,0.0203979704529047,-0.004442665260285139,-9.968876838684082
1.729493396193699e+18,0.03511149063706398,0.01653341017663479,-9.935592651367188
1.7294933962026993e+18,-0.06492289900779724,0.029622986912727356,-10.07203197479248
1.7294933962116995e+18,0.0758790373802185,-0.04076762869954109,-9.934759140014648
1.7294933962206996e+18,-0.05188417807221413,0.03825591877102852,-9.964897155761719
1.7294933962266998e+18,0.03590800240635872,-0.02233431115746498,-9.993330001831055
1.7294933962357e+18,0.006719134747982025,-0.012753743678331375,-10.018527030944824
1.7294933962447002e+18,-0.09568793326616287,-0.03439350798726082,-9.928278923034668
1.7294933962537004e+18,-0.029731333255767822,0.013047194108366966,-9.921512603759766
1.7294933962597005e+18,-0.0206897109746933,-0.01346631906926632,-9.945333480834961
1.7294933962687007e+18,0.044318798929452896,0.0014659634325653315,-9.939156532287598
1.7294933962777009e+18,0.020030613988637924,-0.06744979321956635,-9.947175979614258
1.729493396283701e+18,2.5555898901075125e-05,0.019684186205267906,-9.871720314025879
1.7294933962927012e+18,-0.026999767869710922,-0.030447810888290405,-9.930261611938477
1.7294933963017014e+18,0.0290391743183136,0.04280480369925499,-9.893965721130371
1.7294933963107016e+18,-0.048783835023641586,-0.02986142411828041,-9.90690803527832
1.7294933963167017e+18,-0.025669770315289497,0.029886696487665176,-9.900457382202148
1.729493396325702e+18,0.005587967112660408,0.004768770653754473,-9.9154634475708
1.729493396331702e+18,0.005772331729531288,-0.0029043350368738174,-9.870011329650879
1.7294933963407022e+18,-0.020207352936267853,-0.013684535399079323,-9.903904914855957
1.7294933963497024e+18,-0.03280111402273178,-0.024889027699828148,-9.84951114654541
1.7294933963557025e+18,0.029009653255343437,0.01885133609175682,-9.874613761901855
1.7294933963647027e+18,0.005619782954454422,-0.01611236296594143,-9.776581764221191
1.729493396373703e+18,0.06793718039989471,0.0038512754254043102,-9.911126136779785
1.729493396382703e+18,0.08254162222146988,0.04405343905091286,-9.788496971130371
1.7294933963887032e+18,-0.013915037736296654,0.003983905538916588,-9.794363975524902
1.7294933963977034e+18,-0.040177226066589355,-0.06780853122472763,-9.837849617004395
1.7294933964067036e+18,-0.02025979943573475,0.00801154412329197,-9.852852821350098
1.7294933964127037e+18,0.014728676527738571,-0.0889199823141098,-9.844655990600586
1.729493396421704e+18,0.012225034646689892,0.013078299351036549,-9.837515830993652
1.729493396430704e+18,-0.0020436798222362995,-0.03744006156921387,-9.800613403320312
1.7294933964367043e+18,0.022049402818083763,-0.08643324673175812,-9.896469116210938
1.7294933964487045e+18,0.025332322344183922,-0.049536269158124924,-9.776952743530273
1.7294933964607048e+18,0.0310343150049448,0.0049871280789375305,-9.781511306762695
1.729493396472705e+18,0.059685587882995605,-0.05476728454232216,-9.83817195892334
1.7294933964847053e+18,0.09606946259737015,0.018111716955900192,-9.836912155151367
1.7294933964907054e+18,0.03947040066123009,-0.02808930166065693,-9.838458061218262
1.7294933964997056e+18,-0.03544393554329872,0.05371365696191788,-9.821084976196289
1.7294933965087058e+18,0.056723013520240784,-0.024761110544204712,-9.818257331848145
1.729493396517706e+18,-0.006937379948794842,0.031705595552921295,-9.828839302062988
1.729493396523706e+18,-0.12151849269866943,0.033825986087322235,-9.839944839477539
1.7294933965327063e+18,0.02210596576333046,0.0579780638217926,-9.834075927734375
1.7294933965417065e+18,0.04481607675552368,-0.0017404684331268072,-9.80833911895752
1.7294933965507067e+18,0.026459095999598503,0.04516279324889183,-9.76691722869873
1.7294933965567068e+18,-0.07804350554943085,-0.017322277650237083,-9.876462936401367
1.729493396565707e+18,0.00348672759719193,0.021818194538354874,-9.728277206420898
1.7294933965747072e+18,0.05658100172877312,-0.032483506947755814,-9.791048049926758
1.7294933965837074e+18,0.02439511939883232,-0.01882452331483364,-9.805232048034668
1.7294933965897075e+18,0.017020050436258316,-0.041491635143756866,-9.721051216125488
1.7294933965987077e+18,-0.04057744890451431,0.030967582017183304,-9.770331382751465
1.729493396607708e+18,0.09011728316545486,0.0034996052272617817,-9.759255409240723
1.729493396616708e+18,-0.09969023615121841,0.02742171660065651,-9.710689544677734
1.7294933966227082e+18,-0.045210275799036026,0.050655655562877655,-9.797451972961426
1.7294933966347085e+18,0.01878844015300274,-0.0053027113899588585,-9.820351600646973
1.7294933966437087e+18,0.023579156026244164,-0.01886187307536602,-9.702524185180664
1.7294933966527089e+18,0.007288950029760599,0.002092034323140979,-9.730899810791016
1.729493396661709e+18,-0.04247418791055679,0.06763453036546707,-9.675724983215332
1.7294933966677092e+18,-0.021004851907491684,-0.022999605163931847,-9.710197448730469
1.7294933966767094e+18,-0.0265516210347414,0.011569203808903694,-9.706609725952148
1.7294933966827095e+18,0.019963189959526062,-0.09529510885477066,-9.685075759887695
1.7294933966917097e+18,-0.01444103755056858,-0.03817584738135338,-9.812962532043457
1.72949339670071e+18,0.017294373363256454,-0.06324716657400131,-9.677127838134766
1.72949339670971e+18,-0.011786306276917458,0.06834442913532257,-9.716894149780273
1.7294933967157102e+18,-0.006468113046139479,0.02243105322122574,-9.707300186157227
1.7294933967247104e+18,-0.029215240851044655,-0.07857680320739746,-9.752341270446777
1.7294933967337106e+18,-0.1023319885134697,0.01909363642334938,-9.701689720153809
1.7294933967427108e+18,-0.008789489045739174,0.0025764021556824446,-9.75632095336914
1.729493396748711e+18,0.009676739573478699,0.011213406920433044,-9.75600528717041
1.729493396757711e+18,0.011182166635990143,0.013850309886038303,-9.724764823913574
1.7294933967667113e+18,0.029128223657608032,0.005190127529203892,-9.780806541442871
1.7294933967727114e+18,-0.001936373533681035,0.10045486688613892,-9.7313871383667
1.7294933967817116e+18,0.06362244486808777,0.02515370398759842,-9.76112174987793
1.7294933967907118e+18,-0.05716101825237274,-0.0010917242616415024,-9.741045951843262
1.729493396796712e+18,0.12600302696228027,-0.004908624105155468,-9.724665641784668
1.7294933968057121e+18,-0.02839810773730278,0.016167709603905678,-9.734313011169434
1.7294933968147123e+18,-9.279658843297511e-05,-0.02003195881843567,-9.725242614746094
1.7294933968207124e+18,0.0023920901585370302,-0.031788330525159836,-9.741813659667969
1.7294933968297126e+18,-0.03801192715764046,-0.03732508793473244,-9.724862098693848
1.7294933968387128e+18,-0.019209159538149834,0.05488349124789238,-9.705329895019531
1.729493396847713e+18,0.027133140712976456,0.005897294729948044,-9.74524974822998
1.7294933968537132e+18,0.03429640084505081,-0.038079530000686646,-9.704973220825195
1.7294933968627133e+18,-0.0405154824256897,0.09615705162286758,-9.64696216583252
1.7294933968717135e+18,-0.028736287727952003,-0.03753296658396721,-9.743463516235352
1.7294933968777137e+18,0.03223254531621933,0.03168481960892677,-9.717778205871582
1.7294933968867139e+18,-0.09199125319719315,0.03865791857242584,-9.75004768371582
1.729493396895714e+18,-0.0686638280749321,-0.08004320412874222,-9.661615371704102
1.7294933969017142e+18,0.06247919797897339,-0.054864056408405304,-9.653498649597168
1.7294933969107144e+18,-0.04798825457692146,0.07533106952905655,-9.711003303527832
1.7294933969197146e+18,-0.015122955664992332,0.03228845074772835,-9.662920951843262
1.7294933969257147e+18,0.054185234010219574,0.02420470491051674,-9.75529670715332
1.729493396934715e+18,-0.006789294071495533,-0.05784521624445915,-9.651090621948242
1.729493396943715e+18,-0.011761687695980072,-0.06251946836709976,-9.705201148986816
1.7294933969497152e+18,0.006413539871573448,0.016583796590566635,-9.701643943786621
1.7294933969587154e+18,-0.01817905716598034,0.0031421969179064035,-9.716691017150879
1.7294933969677156e+18,-0.007733575999736786,0.02863466553390026,-9.721062660217285
1.7294933969737157e+18,-0.03453884646296501,-0.04718545079231262,-9.70715618133545
1.729493396982716e+18,-0.027935205027461052,-0.000904188840650022,-9.753232955932617
1.729493396991716e+18,-0.026729125529527664,0.05673430487513542,-9.722518920898438
1.7294933969977162e+18,-0.010464985854923725,-0.0324319452047348,-9.74501895904541
1.7294933970067164e+18,0.008002834394574165,-0.030423231422901154,-9.679133415222168
1.7294933970157166e+18,0.024814588949084282,-0.024272320792078972,-9.729511260986328
1.7294933970217167e+18,-0.011788986623287201,-0.08029291033744812,-9.696139335632324
1.729493397030717e+18,-0.035540930926799774,0.028950171545147896,-9.693960189819336
1.729493397039717e+18,-0.04971640184521675,-0.014876448549330235,-9.689205169677734
1.7294933970487173e+18,-0.016413727775216103,-0.08145711570978165,-9.6728515625
1.7294933970547174e+18,0.02453923039138317,-0.010331879369914532,-9.730168342590332
1.7294933970637176e+18,0.04390457272529602,0.026349728927016258,-9.693756103515625
1.7294933970697178e+18,0.036521755158901215,-0.01995568349957466,-9.733915328979492
1.729493397078718e+18,0.025687435641884804,-0.07012549042701721,-9.752433776855469
1.729493397084718e+18,-0.03864631801843643,0.008780729956924915,-9.722214698791504
1.7294933970937183e+18,0.006901063956320286,-0.028441576287150383,-9.676393508911133
1.7294933970997184e+18,0.036659207195043564,0.06146467849612236,-9.710393905639648
1.7294933971087186e+18,-0.06551258265972137,0.07065421342849731,-9.743224143981934
1.7294933971177188e+18,0.05535523220896721,-0.04659373313188553,-9.668512344360352
1.729493397126719e+18,-0.07775625586509705,-0.05948013812303543,-9.694669723510742
1.729493397132719e+18,-0.012155403383076191,0.014639154076576233,-9.649733543395996
1.7294933971417193e+18,-0.06527619808912277,-0.11686613410711288,-9.726092338562012
1.7294933971477194e+18,-0.05563972145318985,-0.006571868434548378,-9.68520736694336
1.7294933971567196e+18,0.0657813549041748,0.04718678817152977,-9.684466361999512
1.7294933971657198e+18,-0.007880458608269691,-0.012869393453001976,-9.724605560302734
1.72949339717172e+18,-0.028030455112457275,-0.03994128108024597,-9.693367004394531
1.72949339718072e+18,-0.05952535942196846,-0.02138487808406353,-9.679686546325684
1.7294933971897203e+18,-0.007967285811901093,0.011820254847407341,-9.671289443969727
1.7294933971957204e+18,-0.02015475183725357,-0.01753292791545391,-9.692853927612305
1.7294933972047206e+18,0.009552538394927979,0.061626676470041275,-9.722818374633789
1.7294933972137208e+18,-0.02298320084810257,0.013842507265508175,-9.647623062133789
1.729493397219721e+18,-0.027476955205202103,-0.01137737650424242,-9.826683044433594
1.7294933972287212e+18,-0.03317534923553467,-0.03599023073911667,-9.676427841186523
1.7294933972347213e+18,0.013036196120083332,0.00588265061378479,-9.734004020690918
1.7294933972437215e+18,-0.07629936933517456,-0.0026934919878840446,-9.709893226623535
1.7294933972527217e+18,0.010261635296046734,0.032020993530750275,-9.727508544921875
1.7294933972587218e+18,-0.025873877108097076,0.05122014135122299,-9.79785442352295
1.729493397267722e+18,0.023889271542429924,0.006238188594579697,-9.660143852233887
1.729493397273722e+18,0.050521258264780045,-0.06374146044254303,-9.646228790283203
1.7294933972827223e+18,-0.04735623672604561,-0.08039022237062454,-9.702874183654785
1.7294933972917225e+18,0.007041014730930328,-0.02352079376578331,-9.72264289855957
1.7294933972977226e+18,0.049922287464141846,0.03752763196825981,-9.708864212036133
1.7294933973067228e+18,-0.07996980845928192,0.03500456362962723,-9.691484451293945
1.729493397315723e+18,-0.005687280558049679,0.009717214852571487,-9.763264656066895
1.7294933973217231e+18,0.026754260063171387,0.07002227008342743,-9.73769760131836
1.7294933973307233e+18,0.006376666482537985,-0.012675590813159943,-9.646942138671875
1.7294933973367235e+18,-0.036130063235759735,-0.03963008150458336,-9.67959976196289
1.7294933973457236e+18,0.007582320831716061,0.007449405267834663,-9.693892478942871
1.7294933973517238e+18,0.024448653683066368,-0.03316374123096466,-9.665428161621094
1.729493397360724e+18,0.024208974093198776,0.07084972411394119,-9.675436019897461
1.7294933973697242e+18,0.03590172529220581,-0.04110083356499672,-9.681395530700684
1.7294933973787244e+18,-0.033102262765169144,0.07157112658023834,-9.651131629943848
1.7294933973877245e+18,-0.007262646220624447,-0.0060841795057058334,-9.704865455627441
1.7294933973937247e+18,0.06205378472805023,0.03169214352965355,-9.75640869140625
1.7294933974027249e+18,0.030233263969421387,-0.011531690135598183,-9.698030471801758
1.729493397411725e+18,-0.01626886986196041,0.018070269376039505,-9.797977447509766
1.7294933974207252e+18,-0.04683935269713402,0.05905856192111969,-9.681024551391602
1.7294933974267254e+18,0.04163025692105293,0.006219375878572464,-9.76930046081543
1.7294933974357256e+18,-0.0882071852684021,-0.028350472450256348,-9.709405899047852
1.7294933974417257e+18,-0.03704822063446045,-0.0015886754263192415,-9.7562894821167
1.729493397450726e+18,-0.04213733226060867,-0.010079905390739441,-9.695959091186523
1.729493397459726e+18,0.004560933914035559,0.035095423460006714,-9.689740180969238
1.7294933974717263e+18,0.044141512364149094,-0.02853281982243061,-9.764443397521973
1.7294933974777265e+18,-0.02652149461209774,-0.009647476486861706,-9.732440948486328
1.7294933974867267e+18,-0.07614368200302124,-0.044594988226890564,-9.711350440979004
1.7294933974927268e+18,0.028584107756614685,-0.021956507116556168,-9.715514183044434
1.729493397501727e+18,0.030413918197155,-0.02193761058151722,-9.704418182373047
1.7294933975107272e+18,0.007373462431132793,-0.043879106640815735,-9.721283912658691
1.7294933975167273e+18,-0.07856255769729614,-0.06628639996051788,-9.774308204650879
1.7294933975257275e+18,-0.030082812532782555,0.048671454191207886,-9.778430938720703
1.7294933975347277e+18,0.007927246391773224,-0.00997992791235447,-9.655928611755371
1.7294933975407278e+18,-0.014402607455849648,0.05615564435720444,-9.746891975402832
1.729493397549728e+18,0.04391659051179886,-0.020124683156609535,-9.715254783630371
1.7294933975557281e+18,0.05679989606142044,0.022129232063889503,-9.788921356201172
1.7294933975647283e+18,-0.032140493392944336,-0.032304223626852036,-9.751663208007812
1.7294933975707284e+18,0.07170525193214417,-0.06797351688146591,-9.716348648071289
1.7294933975797286e+18,-0.05679095536470413,0.06198451295495033,-9.737245559692383
1.7294933975887288e+18,-0.019635360687971115,0.023997114971280098,-9.673665046691895
1.729493397597729e+18,-0.10211441665887833,0.026079561561346054,-9.66063117980957
1.7294933976037292e+18,0.031273625791072845,0.08072320371866226,-9.703869819641113
1.7294933976127293e+18,0.021422548219561577,-0.022721977904438972,-9.742670059204102
1.7294933976187295e+18,0.029398702085018158,-0.05920682102441788,-9.662209510803223
1.7294933976277297e+18,-0.07486583292484283,0.027937667444348335,-9.725276947021484
1.7294933976367299e+18,-0.03955152630805969,0.06874425709247589,-9.70240592956543
1.72949339764273e+18,-0.021134383976459503,-0.06587609648704529,-9.734835624694824
1.7294933976517302e+18,0.10641158372163773,0.01588938757777214,-9.713080406188965
1.7294933976577303e+18,0.021950382739305496,-0.03875148668885231,-9.769003868103027
1.7294933976667305e+18,-0.002761772833764553,0.029885686933994293,-9.68718433380127
1.7294933976757307e+18,0.029286662116646767,-0.011956753209233284,-9.72712516784668
1.729493397684731e+18,-0.053152889013290405,0.013012267649173737,-9.764819145202637
1.729493397690731e+18,-0.03694066032767296,-0.0076186987571418285,-9.745588302612305
1.7294933976997312e+18,-0.057974379509687424,-0.046257466077804565,-9.81387710571289
1.7294933977057313e+18,0.053987789899110794,0.0011070424225181341,-9.744989395141602
1.7294933977147315e+18,0.024268725886940956,-0.011639690026640892,-9.694870948791504
1.7294933977237317e+18,0.016256902366876602,9.927235078066587e-05,-9.680075645446777
1.7294933977297318e+18,0.008317629806697369,0.03989773243665695,-9.801130294799805
1.729493397738732e+18,0.014279549941420555,-0.016909128054976463,-9.655355453491211
1.7294933977477322e+18,-0.017142534255981445,0.029901642352342606,-9.732993125915527
1.7294933977567324e+18,0.047701846808195114,-0.007090290077030659,-9.728859901428223
1.7294933977657326e+18,0.07997584342956543,0.015375115908682346,-9.710037231445312
1.7294933977747328e+18,0.09511632472276688,0.00814879685640335,-9.718926429748535
1.729493397780733e+18,-0.057673368602991104,-0.005888046696782112,-9.720492362976074
1.729493397789733e+18,0.011805842630565166,-0.02804117649793625,-9.632719039916992
1.7294933977987333e+18,0.008279811590909958,-0.008580188266932964,-9.760184288024902
1.7294933978047334e+18,-0.011235443875193596,-0.04189445078372955,-9.65921401977539
1.7294933978137336e+18,-0.013074565678834915,0.0001506554544903338,-9.676909446716309
1.7294933978227338e+18,-0.03495848923921585,0.0520065501332283,-9.778039932250977
1.729493397828734e+18,0.009463581256568432,-0.04726286605000496,-9.66291618347168
1.7294933978377341e+18,0.03116530179977417,-0.1139659434556961,-9.821885108947754
1.7294933978467343e+18,-0.04432941600680351,0.0900580883026123,-9.73117733001709
1.7294933978527345e+18,-0.032530613243579865,0.002385277533903718,-9.748260498046875
1.7294933978617347e+18,0.021626286208629608,0.028153494000434875,-9.721529006958008
1.7294933978677348e+18,-0.0175178162753582,-0.015232491306960583,-9.808876037597656
1.729493397876735e+18,-0.041572365909814835,0.045004889369010925,-9.792624473571777
1.7294933978857352e+18,-0.002399982651695609,-0.00027303857496008277,-9.734821319580078
1.7294933978947354e+18,-0.059857506304979324,-0.013542506843805313,-9.740894317626953
1.7294933979037356e+18,-0.018988998606801033,0.026393594220280647,-9.691526412963867
1.7294933979127357e+18,-0.07427119463682175,0.04117957875132561,-9.755475044250488
1.729493397918736e+18,0.025200534611940384,-0.016116240993142128,-9.732678413391113
1.729493397927736e+18,-0.019199710339307785,-0.004790320992469788,-9.710785865783691
1.7294933979367363e+18,-0.01855790987610817,0.03744911029934883,-9.78283405303955
1.7294933979427364e+18,-0.08357018977403641,-0.07893525809049606,-9.648993492126465
1.7294933979517366e+18,-0.008689021691679955,0.07185066491365433,-9.786089897155762
1.7294933979607368e+18,0.023985138162970543,0.03134132921695709,-9.751066207885742
1.729493397966737e+18,-0.1598905324935913,0.029092619195580482,-9.715276718139648
1.729493397975737e+18,-0.07603004574775696,-0.006104421801865101,-9.694226264953613
1.7294933979847373e+18,0.012605522759258747,-0.026108358055353165,-9.638749122619629
1.7294933979907374e+18,-0.0335267037153244,0.06044464185833931,-9.722174644470215
1.7294933979997376e+18,-0.041081834584474564,-0.05857845023274422,-9.790548324584961
1.7294933980057377e+18,0.05467367544770241,0.014427370391786098,-9.745854377746582
1.729493398014738e+18,-0.07946862280368805,0.0999639630317688,-9.738786697387695
1.729493398023738e+18,0.026641642674803734,-0.06955550611019135,-9.746671676635742
1.7294933980297382e+18,-0.009735495783388615,-0.03074478730559349,-9.697911262512207
1.7294933980387384e+18,0.026169585064053535,0.011090467683970928,-9.731109619140625
1.7294933980447386e+18,-0.1044933944940567,0.025189705193042755,-9.683582305908203
1.7294933980537388e+18,-0.05113135650753975,-0.005155435297638178,-9.748575210571289
1.729493398065739e+18,-0.0030354943592101336,-0.05971261486411095,-9.797545433044434
1.7294933980717391e+18,-0.04032319039106369,0.037920016795396805,-9.725570678710938
1.7294933980807393e+18,-0.006033328361809254,0.027097348123788834,-9.764580726623535
1.7294933980897395e+18,0.05829472467303276,-0.0020599067211151123,-9.75748348236084
1.7294933980957396e+18,-0.019306927919387817,0.025651264935731888,-9.764065742492676
1.7294933981047398e+18,0.02335282228887081,-0.003593659494072199,-9.785619735717773
1.72949339811674e+18,0.01376472320407629,0.03135177120566368,-9.735407829284668
1.7294933981227402e+18,-0.0058470433577895164,0.04038180783390999,-9.831350326538086
1.7294933981317404e+18,0.005849253851920366,0.0030923099257051945,-9.746872901916504
1.7294933981407406e+18,0.011606141924858093,-0.04259683936834335,-9.740211486816406
1.7294933981497408e+18,-0.02969449572265148,-0.015138654038310051,-9.73733139038086
1.729493398155741e+18,-0.0177544504404068,-0.014241311699151993,-9.77712345123291
1.729493398164741e+18,0.054999612271785736,0.005058315582573414,-9.704874992370605
1.7294933981737413e+18,-0.030309665948152542,-0.0006481508025899529,-9.715834617614746
1.7294933981797414e+18,-0.00417338777333498,-0.02413996495306492,-9.829754829406738
1.7294933981887416e+18,0.02470940537750721,0.05158928781747818,-9.76412296295166
1.7294933981977418e+18,0.03798414766788483,-0.03126471862196922,-9.768294334411621
1.729493398203742e+18,-0.04812031239271164,0.01664120890200138,-9.72735595703125
1.7294933982127421e+18,0.016836097463965416,-0.054675862193107605,-9.789969444274902
1.7294933982217423e+18,-0.0723746195435524,0.08155563473701477,-9.809486389160156
1.7294933982277425e+18,-0.02197098173201084,0.033112410455942154,-9.786911010742188
1.7294933982367427e+18,0.07281164079904556,0.009879738092422485,-9.782408714294434
1.7294933982427428e+18,-0.022635262459516525,-0.014381958171725273,-9.738786697387695
1.729493398251743e+18,0.040251411497592926,-0.010045167990028858,-9.738792419433594
1.7294933982607432e+18,0.02365201525390148,-0.07201864570379257,-9.725004196166992
1.7294933982697434e+18,0.012518331408500671,0.04487522691488266,-9.771597862243652
1.7294933982787436e+18,0.0032283482141792774,-0.04439447447657585,-9.71245288848877
1.7294933982877437e+18,-0.01508705597370863,0.028880873695015907,-9.73093318939209
1.7294933982937439e+18,-0.023555289953947067,0.02509741671383381,-9.75736141204834
1.7294933983057441e+18,-0.008319055661559105,-0.006040428765118122,-9.743121147155762
1.7294933983147443e+18,-0.023652076721191406,-0.013462349772453308,-9.7584810256958
1.7294933983237445e+18,-0.006637665443122387,0.0412476509809494,-9.725096702575684
1.7294933983327447e+18,0.03242354094982147,0.028826823458075523,-9.798735618591309
1.729493398341745e+18,0.007973902858793736,-0.03814893588423729,-9.897052764892578
1.729493398350745e+18,-0.05415267124772072,-0.041731223464012146,-9.736556053161621
1.7294933983567452e+18,0.005756770726293325,-0.05800551176071167,-9.769952774047852
1.7294933983657454e+18,0.023589327931404114,-0.03434903174638748,-9.814095497131348
1.7294933983717455e+18,0.006145021878182888,-0.04903910309076309,-9.766571044921875
1.7294933983807457e+18,-0.04615859314799309,0.020963717252016068,-9.81821060180664
1.729493398389746e+18,-0.07187647372484207,0.14011958241462708,-9.809693336486816
1.729493398398746e+18,-0.05377109348773956,0.0004681987047661096,-9.848466873168945
1.7294933984077463e+18,0.003592316061258316,0.013301737606525421,-9.737135887145996
1.7294933984167465e+18,0.008498651906847954,0.005932197906076908,-9.740163803100586
1.7294933984227466e+18,-0.11422976106405258,-0.011584417894482613,-9.824265480041504
1.7294933984317468e+18,-0.038081321865320206,0.02665518969297409,-9.884199142456055
1.729493398437747e+18,-0.0250997357070446,0.04909683018922806,-9.76882553100586
1.7294933984467471e+18,-0.03804484382271767,-0.03533410280942917,-9.784750938415527
1.7294933984557473e+18,-0.03819974139332771,-0.057583775371313095,-9.702127456665039
1.7294933984647475e+18,0.02738622948527336,-0.0317373052239418,-9.830199241638184
1.7294933984737477e+18,-0.02625311352312565,-0.005572819150984287,-9.754064559936523
1.7294933984797478e+18,0.0036238916218280792,0.025508461520075798,-9.808511734008789
1.729493398488748e+18,-0.03374302387237549,-0.04867972433567047,-9.783515930175781
1.7294933985007483e+18,-0.01156711671501398,-0.0668390691280365,-9.80439281463623
1.7294933985097485e+18,-0.0692797601222992,0.01787632517516613,-9.76568603515625
1.7294933985187487e+18,0.005565159022808075,0.014840247109532356,-9.848071098327637
1.7294933985277489e+18,0.011142406612634659,0.0012017748085781932,-9.8006010055542
1.729493398536749e+18,-0.015840161591768265,0.054461121559143066,-9.693493843078613
1.7294933985457492e+18,0.06195151433348656,0.01664409600198269,-9.760661125183105
1.7294933985547494e+18,-0.011200440116226673,0.005493849515914917,-9.745072364807129
1.7294933985637496e+18,0.026863127946853638,0.017027022317051888,-9.78509521484375
1.7294933985727498e+18,-0.03139350935816765,0.018244300037622452,-9.740470886230469
1.72949339857875e+18,-0.07572915405035019,0.03198938071727753,-9.75843620300293
1.7294933985877501e+18,-0.041007209569215775,0.0124221071600914,-9.69559097290039
1.7294933985937503e+18,-0.017337266355752945,0.03040093369781971,-9.718657493591309
1.7294933986027505e+18,-0.007492555771023035,-0.029159700497984886,-9.76717472076416
1.7294933986117507e+18,-0.055279750376939774,0.018014494329690933,-9.800736427307129
1.7294933986177508e+18,-0.01715961843729019,-0.030779045075178146,-9.787607192993164
1.729493398626751e+18,0.013684378005564213,0.040776148438453674,-9.793572425842285
1.7294933986357512e+18,-0.0010775295086205006,-0.009440229274332523,-9.728999137878418
1.7294933986417513e+18,-0.017385410144925117,-0.02584034577012062,-9.733642578125
1.7294933986507515e+18,0.02904822677373886,-0.016261909157037735,-9.812202453613281
1.7294933986597517e+18,0.017506970092654228,0.06744024157524109,-9.822903633117676
1.7294933986657518e+18,0.018815772607922554,0.029869304969906807,-9.794764518737793
1.729493398674752e+18,0.019616885110735893,-0.024380885064601898,-9.819149017333984
1.7294933986867523e+18,-0.03201993182301521,-0.04511292651295662,-9.867623329162598
1.7294933986927524e+18,0.016832426190376282,0.02448633499443531,-9.791293144226074
1.7294933987017526e+18,0.03322242572903633,0.02301999181509018,-9.795646667480469
1.7294933987107528e+18,0.11745721846818924,0.019842706620693207,-9.74756908416748
1.729493398716753e+18,-0.0689033642411232,0.017387855798006058,-9.852376937866211
1.729493398725753e+18,-0.059016890823841095,0.026825573295354843,-9.7914400100708
1.7294933987317532e+18,0.01892094872891903,0.04684798792004585,-9.760162353515625
1.7294933987407534e+18,0.01784687116742134,0.05129269137978554,-9.770404815673828
1.7294933987497536e+18,0.05000707134604454,-0.005170002579689026,-9.802586555480957
1.7294933987557537e+18,0.015625089406967163,-0.012347903102636337,-9.855690956115723
1.729493398764754e+18,-0.008715727366507053,-0.033700086176395416,-9.761434555053711
1.729493398773754e+18,0.02471630647778511,-0.0759829729795456,-9.7370023727417
1.7294933987797542e+18,-0.023824945092201233,-0.0012922640889883041,-9.778632164001465
1.7294933987887544e+18,0.03694334253668785,-0.09437534213066101,-9.792726516723633
1.7294933987977546e+18,-0.0015383039135485888,-0.09437953680753708,-9.861283302307129
1.7294933988067548e+18,-0.0927218347787857,0.03472815081477165,-9.80081558227539
1.729493398818755e+18,-0.033906593918800354,0.03143293410539627,-9.815184593200684
1.7294933988247552e+18,0.002669091336429119,-0.009196138940751553,-9.813652038574219
1.7294933988367555e+18,0.0463852658867836,-0.013658862560987473,-9.804682731628418
1.7294933988457556e+18,-0.04153485223650932,-0.042773038148880005,-9.807138442993164
1.7294933988547558e+18,0.025143712759017944,-0.0015953353140503168,-9.884231567382812
1.729493398860756e+18,-0.05787471681833267,0.031282197684049606,-9.706462860107422
1.7294933988697562e+18,0.10784344375133514,0.005326281301677227,-9.823891639709473
1.7294933988787564e+18,-0.02755124121904373,-0.013954165391623974,-9.808009147644043
1.7294933988847565e+18,-0.0027634757570922375,0.022413017228245735,-9.809822082519531
1.7294933988937567e+18,0.055992819368839264,0.013098052702844143,-9.811894416809082
1.7294933988997568e+18,0.013887591660022736,-0.02001998759806156,-9.786930084228516
1.729493398908757e+18,-0.055373646318912506,0.015605109743773937,-9.711368560791016
1.7294933989177572e+18,0.033659376204013824,0.023035606369376183,-9.806386947631836
1.7294933989237573e+18,0.07699783891439438,0.000511361111421138,-9.813918113708496
1.7294933989327575e+18,0.03293924033641815,-0.05310773849487305,-9.834075927734375
1.7294933989387576e+18,0.026197416707873344,-0.006142248399555683,-9.730403900146484
1.7294933989477578e+18,-0.024850785732269287,0.024322552606463432,-9.778118133544922
1.729493398953758e+18,-0.04945944622159004,0.015575435012578964,-9.827312469482422
1.7294933989627581e+18,-0.0357573963701725,-0.011168855242431164,-9.801541328430176
1.7294933989717583e+18,-0.054075561463832855,0.018707891926169395,-9.80882453918457
1.7294933989777585e+18,-0.029004927724599838,0.015562862157821655,-9.765802383422852
1.7294933989867587e+18,0.07546299695968628,0.04626196622848511,-9.787028312683105
1.7294933989957588e+18,-0.02761939913034439,0.02012094482779503,-9.746660232543945
1.729493399001759e+18,-0.017912164330482483,0.014294618740677834,-9.81076717376709
1.7294933990107592e+18,-0.09438840299844742,0.0001631104969419539,-9.807329177856445
1.7294933990167593e+18,0.0733003318309784,-0.012945652939379215,-9.826802253723145
1.7294933990257595e+18,-0.025682277977466583,0.07905318588018417,-9.82829761505127
1.7294933990347597e+18,0.012782593257725239,-0.06740042567253113,-9.761984825134277
1.7294933990437599e+18,-0.04373321682214737,-0.030902832746505737,-9.822226524353027
1.72949339904976e+18,0.000544570095371455,0.0882522389292717,-9.738375663757324
1.7294933990587602e+18,0.015659058466553688,-0.001632030471228063,-9.786832809448242
1.7294933990677604e+18,-0.009196482598781586,-0.06692831963300705,-9.773902893066406
1.7294933990737605e+18,0.1138283759355545,-0.0816071406006813,-9.715665817260742
1.7294933990827607e+18,0.01057091262191534,0.04341486468911171,-9.801305770874023
1.729493399091761e+18,-0.004397669807076454,0.1071648970246315,-9.752842903137207
1.729493399097761e+18,0.0013683394063264132,0.003447545925155282,-9.800976753234863
1.7294933991097613e+18,0.039528753608465195,0.051791559904813766,-9.722090721130371
1.7294933991187615e+18,-0.013899681158363819,-0.0705382376909256,-9.809012413024902
1.7294933991247616e+18,0.03240597993135452,0.027493225410580635,-9.824009895324707
1.7294933991337618e+18,-0.0505509078502655,0.015056835487484932,-9.819483757019043
1.729493399139762e+18,0.01758275181055069,-0.034166913479566574,-9.811653137207031
1.729493399148762e+18,-0.007423934526741505,0.040408603847026825,-9.810954093933105
1.7294933991577623e+18,-0.03249065950512886,0.01611022651195526,-9.799783706665039
1.7294933991667625e+18,-0.05986451357603073,-0.022728171199560165,-9.820297241210938
1.7294933991727626e+18,0.07121367752552032,0.09282433241605759,-9.774471282958984
1.7294933991817628e+18,-0.005549779161810875,0.0021327936556190252,-9.849328994750977
1.729493399187763e+18,0.08592725545167923,-0.057126350700855255,-9.878649711608887
1.7294933991967631e+18,-0.03929925709962845,0.0015215302119031549,-9.801679611206055
1.7294933992057633e+18,0.0332491435110569,-0.04959450662136078,-9.792724609375
1.7294933992147635e+18,0.07581371814012527,-0.043324727565050125,-9.866240501403809
1.7294933992237637e+18,-0.06244777888059616,-0.0016925436211749911,-9.795711517333984
1.729493399232764e+18,0.05987147241830826,0.003999384120106697,-9.774807929992676
1.729493399241764e+18,-0.07183247804641724,-0.08909310400485992,-9.831827163696289
1.7294933992507643e+18,-0.019683469086885452,-0.03227405995130539,-9.784087181091309
1.7294933992597645e+18,-0.04223582521080971,0.00304040708579123,-9.792899131774902
1.7294933992687647e+18,0.08539582043886185,-0.0297891516238451,-9.84650707244873
1.7294933992777649e+18,0.011994008906185627,0.042393170297145844,-9.80224323272705
1.729493399286765e+18,0.008718457072973251,0.020029764622449875,-9.81640911102295
1.7294933992957652e+18,-0.016235101968050003,-0.061858680099248886,-9.871539115905762
1.7294933993017654e+18,-0.03360023722052574,0.03572392463684082,-9.850112915039062
1.7294933993107656e+18,-0.042758066207170486,-0.013395700603723526,-9.743975639343262
1.7294933993197658e+18,-0.0026260707527399063,0.03723454102873802,-9.696837425231934
1.729493399328766e+18,-0.009215915575623512,-0.04651684686541557,-9.796520233154297
1.7294933993377661e+18,-0.05180855467915535,0.03616912662982941,-9.760753631591797
1.7294933993467663e+18,-0.0001912076841108501,0.0034481361508369446,-9.757370948791504
1.7294933993557665e+18,-0.0408928282558918,-0.014945595525205135,-9.845163345336914
1.7294933993647667e+18,-0.05263275280594826,0.016835106536746025,-9.785360336303711
1.729493399373767e+18,-0.08406766504049301,0.006267113145440817,-9.864705085754395
1.729493399382767e+18,-0.07183390110731125,0.0456259585916996,-9.706554412841797
1.7294933993887672e+18,-0.03720524162054062,0.0035281158052384853,-9.745019912719727
1.7294933993977674e+18,-0.01677815057337284,0.008178153075277805,-9.842308044433594
1.7294933994037676e+18,0.0344603955745697,0.06445606797933578,-9.786499977111816
1.7294933994127677e+18,0.05700118839740753,0.020969554781913757,-9.799914360046387
1.729493399421768e+18,0.02596914768218994,0.07778605818748474,-9.855809211730957
1.729493399427768e+18,0.04905470088124275,-0.06534449011087418,-9.770115852355957
1.7294933994367683e+18,0.02548144944012165,-0.021482929587364197,-9.763544082641602
1.7294933994457684e+18,0.065026193857193,-0.01363423466682434,-9.814184188842773
1.7294933994517686e+18,-0.04176607355475426,0.07998531311750412,-9.848554611206055
1.7294933994607688e+18,0.04953949525952339,0.05154937133193016,-9.838510513305664
1.729493399469769e+18,0.05970226600766182,-0.012715950608253479,-9.793347358703613
1.729493399475769e+18,0.09616364538669586,0.04229925945401192,-9.780084609985352
1.7294933994847693e+18,0.06494155526161194,-0.016057882457971573,-9.812314987182617
1.7294933994937695e+18,0.007922403514385223,0.0501696802675724,-9.816032409667969
1.7294933994997696e+18,-0.008420377038419247,0.05455206334590912,-9.820762634277344
1.7294933995087698e+18,0.03566993027925491,0.017582634463906288,-9.785752296447754
1.72949339951777e+18,-0.046837516129016876,0.010035313665866852,-9.852347373962402
1.72949339952377e+18,-0.03800385445356369,-0.007106084376573563,-9.836902618408203
1.7294933995327703e+18,0.027399199083447456,-0.06146732717752457,-9.77896499633789
1.7294933995417705e+18,-0.07462158799171448,0.03328707814216614,-9.821637153625488
1.7294933995507707e+18,0.02940221130847931,-0.0041341641917824745,-9.903575897216797
1.729493399559771e+18,-0.043388597667217255,-0.009128991514444351,-9.889350891113281
1.729493399565771e+18,0.02336028777062893,0.005299951881170273,-9.833944320678711
1.7294933995747712e+18,0.02241104282438755,-0.027400502935051918,-9.746208190917969
1.7294933995837714e+18,0.05098629370331764,-0.0635356679558754,-9.84821605682373
1.7294933995897715e+18,0.006012067664414644,0.01859993115067482,-9.858464241027832
1.7294933995987717e+18,0.027777086943387985,-0.00137382373213768,-9.751532554626465
1.729493399607772e+18,0.009109807200729847,-0.04685502126812935,-9.823814392089844
1.729493399613772e+18,-0.009564315900206566,0.008343706838786602,-9.870294570922852
1.7294933996227722e+18,0.013555481098592281,0.006078650243580341,-9.823783874511719
1.7294933996317724e+18,0.044112056493759155,0.034378957003355026,-9.74421215057373
1.7294933996377725e+18,0.06954237073659897,0.018751252442598343,-9.803178787231445
1.7294933996467727e+18,0.0004440902266651392,0.003251019399613142,-9.770846366882324
1.729493399655773e+18,0.04453801363706589,-0.04879000410437584,-9.847256660461426
1.729493399661773e+18,0.05642795190215111,0.0133865000680089,-9.854278564453125
1.7294933996707732e+18,-0.06601836532354355,-0.03456537052989006,-9.766590118408203
1.7294933996767734e+18,0.0619669072329998,-0.06450013816356659,-9.832175254821777
1.7294933996857736e+18,0.030738770961761475,-0.032098088413476944,-9.800644874572754
1.7294933996947738e+18,-0.0034341870341449976,0.05543006584048271,-9.926106452941895
1.729493399700774e+18,0.04327316954731941,-0.042443692684173584,-9.802861213684082
1.729493399709774e+18,0.026869693771004677,0.013766304589807987,-9.814934730529785
1.7294933997157742e+18,-0.0060530761256814,-0.01102366205304861,-9.80475902557373
1.7294933997247744e+18,-0.022193484008312225,0.11542361229658127,-9.898895263671875
1.7294933997337746e+18,0.02656431496143341,-0.05484255775809288,-9.76121997833252
1.7294933997427748e+18,-0.00991032924503088,0.016429319977760315,-9.782511711120605
1.729493399748775e+18,-0.06271927803754807,0.04549317806959152,-9.814545631408691
1.729493399757775e+18,-0.006600826047360897,-0.04174070060253143,-9.803366661071777
1.7294933997637752e+18,-0.025838520377874374,0.04121994599699974,-9.78643798828125
1.7294933997727754e+18,-0.007607599254697561,-0.0628184825181961,-9.818443298339844
1.7294933997787756e+18,-0.018655434250831604,-0.0013979802606627345,-9.846626281738281
1.7294933997877757e+18,-0.0028607838321477175,0.020405197516083717,-9.902042388916016
1.729493399796776e+18,0.08113888651132584,-0.013208024203777313,-9.764235496520996
1.7294933998057761e+18,0.06522521376609802,0.050805170089006424,-9.763997077941895
1.7294933998147763e+18,0.09607914090156555,0.04556022956967354,-9.803802490234375
1.7294933998237765e+18,0.0014148091431707144,-0.044390760362148285,-9.766913414001465
1.7294933998327767e+18,-0.04549369588494301,0.03317474573850632,-9.856358528137207
1.729493399844777e+18,-0.004803328774869442,-0.018111564218997955,-9.847295761108398
1.729493399850777e+18,-0.035956837236881256,-0.019014976918697357,-9.807791709899902
1.7294933998597773e+18,0.039403270930051804,-0.01885657012462616,-9.823468208312988
1.7294933998687775e+18,0.005714649334549904,0.010224872268736362,-9.838364601135254
1.7294933998747776e+18,0.02881912887096405,-0.004034733399748802,-9.841081619262695
1.7294933998837778e+18,0.114389568567276,-0.008129841648042202,-9.823005676269531
1.729493399892778e+18,0.03573192283511162,0.053179383277893066,-9.857635498046875
1.7294933999017782e+18,0.028390800580382347,-0.00790014024823904,-9.841597557067871
1.7294933999077783e+18,-0.03078278712928295,-0.02683829888701439,-9.902093887329102
1.7294933999167785e+18,-0.02216314896941185,0.005010304972529411,-9.861347198486328
1.7294933999257787e+18,0.027805810794234276,-0.019695941358804703,-9.846487045288086
1.7294933999317788e+18,-0.010274198837578297,0.05933910235762596,-9.812639236450195
1.729493399940779e+18,0.060394760221242905,0.00527924345806241,-9.780793190002441
1.7294933999467791e+18,-0.08422201871871948,0.04451791197061539,-9.764017105102539
1.7294933999557793e+18,0.010656342841684818,2.803897950798273e-05,-9.872316360473633
1.7294933999647795e+18,-0.0003457261773291975,0.047168176621198654,-9.778956413269043
1.7294933999707796e+18,-0.010944387875497341,0.027048340067267418,-9.752055168151855
1.7294933999797798e+18,-0.046022847294807434,0.05006520822644234,-9.833314895629883
1.72949339998578e+18,-0.008729875087738037,0.01950330287218094,-9.79611873626709
1.7294933999947802e+18,0.0002925358712673187,-0.021749358624219894,-7.938459873199463
1.7294934000007803e+18,-0.017305810004472733,-0.011348575353622437,-7.415172100067139
1.7294934000097805e+18,0.04698183760046959,0.003828703425824642,-7.261165142059326
1.7294934000187807e+18,0.046437300741672516,-0.03285940736532211,-7.2342681884765625
1.7294934000247808e+18,0.04270327091217041,-0.06897152960300446,-8.17227554321289
1.729493400033781e+18,0.13338324427604675,0.004000432789325714,-11.276240348815918
1.7294934000427812e+18,0.06895630061626434,-0.12080926448106766,-12.607586860656738
1.7294934000487813e+18,0.0885649174451828,-0.06369557976722717,-12.571744918823242
1.7294934000577815e+18,0.07928374409675598,-0.129168301820755,-12.630037307739258
1.7294934000637816e+18,0.11828865110874176,-0.0856618732213974,-13.025838851928711
1.7294934000727818e+18,0.022289037704467773,-0.15830782055854797,-13.097731590270996
1.729493400078782e+18,0.07624166458845139,-0.035811085253953934,-13.026693344116211
1.7294934000877821e+18,0.02058979868888855,-0.07158629596233368,-12.885464668273926
1.7294934000967823e+18,0.11554291844367981,-0.04827126860618591,-12.739208221435547
