timestamp,accel_x,accel_y,accel_z
1.7275259923276782e+18,-0.017886264249682426,-0.002296527847647667,-9.831840515136719
1.7275259923366784e+18,-0.03532709553837776,-0.03090483881533146,-9.83463191986084
1.7275259923396785e+18,-0.01849299483001232,0.006553115788847208,-9.827604293823242
1.7275259923456786e+18,-0.019506290555000305,-0.04548827186226845,-9.839492797851562
1.7275259923516787e+18,0.06034458056092262,0.004803705494850874,-9.821385383605957
1.7275259923576788e+18,0.026152612641453743,0.029371168464422226,-9.809083938598633
1.727525992363679e+18,0.027361448854207993,0.06492306292057037,-9.79033374786377
1.727525992369679e+18,-0.10552908480167389,0.050998274236917496,-9.74895191192627
1.7275259923756792e+18,0.03166709467768669,0.03454292193055153,-9.890517234802246
1.7275259923786793e+18,-0.017449161037802696,0.007381509989500046,-9.84119987487793
1.7275259923846794e+18,-0.051349345594644547,-0.022153787314891815,-9.790387153625488
1.7275259923906796e+18,-0.09989077597856522,-0.01440489012748003,-9.829221725463867
1.7275259923966797e+18,0.010183052159845829,0.14804939925670624,-9.84577465057373
1.7275259923996797e+18,0.018120646476745605,-0.005751744844019413,-9.84814167022705
1.7275259924056799e+18,0.035758715122938156,0.010197289288043976,-9.789592742919922
1.72752599241168e+18,0.0022877505980432034,0.02245578169822693,-9.767680168151855
1.7275259924176801e+18,-0.05857817828655243,-0.005778404418379068,-9.822585105895996
1.7275259924236803e+18,-0.04254443570971489,0.04807969927787781,-9.878693580627441
1.7275259924296804e+18,0.0130349425598979,0.023935861885547638,-9.712657928466797
1.7275259924326804e+18,0.01066792942583561,-0.06461334973573685,-9.793288230895996
1.7275259924386806e+18,-0.043500326573848724,-0.013407676480710506,-9.733777046203613
1.7275259924446807e+18,-0.0354699082672596,0.031070735305547714,-9.82681655883789
1.7275259924506808e+18,0.02882024273276329,0.009702188894152641,-9.751434326171875
1.727525992456681e+18,-0.00997318234294653,-0.030515583232045174,-9.808913230895996
1.727525992462681e+18,-0.017361892387270927,-0.0704258382320404,-9.852622032165527
1.7275259924656812e+18,0.0073670800775289536,-0.030785473063588142,-9.859147071838379
1.7275259924716813e+18,0.02383272349834442,-0.015303267166018486,-9.834366798400879
1.7275259924776814e+18,0.057594094425439835,0.0216206181794405,-9.867140769958496
1.7275259924836815e+18,-0.03980952501296997,0.007016761228442192,-9.81678581237793
1.7275259924896817e+18,0.021890653297305107,0.05847761407494545,-9.840848922729492
1.7275259924956818e+18,-0.05738220736384392,0.08508177101612091,-9.848671913146973
1.727525992501682e+18,0.0019392798421904445,-0.010716788470745087,-9.820571899414062
1.727525992504682e+18,0.0034850032534450293,0.02270723320543766,-9.791112899780273
1.727525992510682e+18,0.05849292501807213,-0.06063191220164299,-9.799882888793945
1.7275259925166822e+18,-0.05464266985654831,0.0025444766506552696,-9.791436195373535
1.7275259925196823e+18,-0.010144163854420185,-0.028477074578404427,-9.834312438964844
1.7275259925256824e+18,0.05471663922071457,0.0586044080555439,-9.709325790405273
1.7275259925316826e+18,-0.05129259079694748,-0.014830726198852062,-9.85645866394043
1.7275259925376827e+18,0.003527149325236678,-0.12219638377428055,-9.726431846618652
1.7275259925406828e+18,-0.034043245017528534,-0.06736530363559723,-9.887330055236816
1.727525992546683e+18,0.015230531804263592,-0.051848992705345154,-9.8121919631958
1.727525992552683e+18,-0.056580495089292526,0.012310871854424477,-9.82542610168457
1.727525992555683e+18,0.056784022599458694,-0.03651837259531021,-9.836358070373535
1.7275259925616832e+18,-0.002637996105477214,0.0007198802777566016,-9.848675727844238
1.7275259925676833e+18,0.03391782194375992,-0.02822551503777504,-9.877582550048828
1.7275259925706834e+18,-0.01941504143178463,-0.07831664383411407,-9.785608291625977
1.7275259925766835e+18,-0.00274232542142272,-0.0021548632066696882,-9.817242622375488
1.7275259925826836e+18,-0.0081398980692029,-0.0029832436703145504,-9.831554412841797
1.7275259925856837e+18,-0.048028964549303055,-0.015173587016761303,-9.82582950592041
1.7275259925916838e+18,-0.012653891928493977,0.00890060793608427,-9.866994857788086
1.727525992597684e+18,0.006818974856287241,0.09662417322397232,-9.760319709777832
1.727525992600684e+18,0.009072959423065186,-0.021033065393567085,-9.84327507019043
1.7275259926066842e+18,-0.04631352052092552,-0.06340445578098297,-9.813671112060547
1.7275259926126843e+18,0.014164895750582218,-0.04027227312326431,-9.793488502502441
1.7275259926186844e+18,0.030774792656302452,0.03505637124180794,-9.815193176269531
1.7275259926216845e+18,0.0018991514807567,-0.04302782565355301,-9.801329612731934
1.7275259926276846e+18,-0.003417556406930089,0.0660243034362793,-9.835944175720215
1.7275259926336847e+18,0.004166466183960438,0.00017181329894810915,-9.89772891998291
1.7275259926396849e+18,0.039211422204971313,-0.016753869131207466,-9.75081729888916
1.727525992642685e+18,0.08175961673259735,0.001695203478448093,-9.776128768920898
1.727525992648685e+18,0.04135388880968094,-0.012272609397768974,-9.828803062438965
1.727525992651685e+18,0.04297390207648277,0.027679793536663055,-9.889137268066406
1.7275259926576852e+18,-0.0061710975132882595,0.0033282306976616383,-9.80463695526123
1.7275259926636854e+18,-0.01758098416030407,0.012943091802299023,-9.854232788085938
1.7275259926696855e+18,-0.05020907521247864,0.03261058032512665,-9.790329933166504
1.7275259926726856e+18,0.0033386526629328728,-0.04999660700559616,-9.771197319030762
1.7275259926786857e+18,-0.08920037001371384,-0.04060491546988487,-9.80181884765625
1.7275259926846858e+18,-0.13701753318309784,0.01956949755549431,-9.787514686584473
1.727525992690686e+18,-0.03901493176817894,0.027683626860380173,-9.826645851135254
1.727525992693686e+18,0.04740624502301216,-0.00208189245313406,-9.822540283203125
1.7275259926996861e+18,-0.03579924628138542,0.019119994714856148,-9.843228340148926
1.7275259927056863e+18,-0.016264012083411217,-0.02924598939716816,-9.731109619140625
1.7275259927116864e+18,-0.002054648706689477,-0.04177040234208107,-9.820815086364746
1.7275259927146865e+18,0.0426015667617321,-0.011454197578132153,-9.856825828552246
1.7275259927206866e+18,-0.007426452822983265,0.025742219761013985,-9.783038139343262
1.7275259927236867e+18,-0.008771846070885658,0.0129105718806386,-9.902626037597656
1.7275259927296868e+18,-0.03262212499976158,0.027632946148514748,-9.79627513885498
1.727525992735687e+18,-0.034716006368398666,-0.08017341047525406,-9.790546417236328
1.727525992738687e+18,-0.025727640837430954,-0.007827985100448132,-9.719801902770996
1.727525992744687e+18,0.06330117583274841,0.0062422361224889755,-9.863619804382324
1.7275259927506872e+18,0.036695245653390884,-0.033596523106098175,-9.812637329101562
1.7275259927566874e+18,0.03691195696592331,0.037510890513658524,-9.825553894042969
1.7275259927596874e+18,0.026128951460123062,0.035717226564884186,-9.798676490783691
1.7275259927656876e+18,0.05337575078010559,-0.013662897981703281,-9.776296615600586
1.7275259927716877e+18,-0.052892107516527176,0.030731042847037315,-9.779009819030762
1.7275259927746877e+18,0.010935490019619465,-0.04022694751620293,-9.81226921081543
1.727525992780688e+18,0.029133295640349388,0.020521052181720734,-9.760950088500977
1.727525992786688e+18,-0.07208670675754547,-0.01793215610086918,-9.769694328308105
1.727525992792688e+18,0.05606937035918236,-0.04630905017256737,-9.807281494140625
1.7275259927956882e+18,0.020241858437657356,0.053579047322273254,-9.8128023147583
1.7275259928016883e+18,0.007023290731012821,-0.009606488980352879,-9.771597862243652
1.7275259928076884e+18,-0.029079290106892586,-0.04060032218694687,-9.82061767578125
1.7275259928106885e+18,0.027681680396199226,0.02634531818330288,-9.746971130371094
1.7275259928166886e+18,0.0721263438463211,-0.013794336467981339,-9.715160369873047
1.7275259928226888e+18,-0.020608797669410706,0.11192873120307922,-9.845958709716797
1.727525992828689e+18,0.046299856156110764,-0.022342849522829056,-9.876117706298828
1.727525992831689e+18,-0.026836229488253593,0.024229953065514565,-9.768194198608398
1.727525992837689e+18,0.009227797389030457,-0.05572523921728134,-9.810094833374023
1.7275259928436892e+18,-0.0033221575431525707,0.04148465394973755,-9.852494239807129
1.7275259928496893e+18,-0.029508845880627632,0.07316245883703232,-9.802305221557617
1.7275259928526894e+18,0.009070582687854767,-0.015080825425684452,-9.753931045532227
1.7275259928586895e+18,0.019521936774253845,0.01258017960935831,-9.842450141906738
1.7275259928646897e+18,-0.04631420224905014,0.041056860238313675,-9.869032859802246
1.7275259928706898e+18,-0.07259220629930496,0.030584093183279037,-9.819347381591797
1.7275259928736899e+18,-0.011785338632762432,-0.05998419597744942,-9.865543365478516
1.72752599287969e+18,-0.08947834372520447,0.02566850371658802,-9.79396915435791
1.72752599288569e+18,0.02045520953834057,-0.024394461885094643,-9.782896041870117
1.7275259928916902e+18,0.00784614309668541,0.0158985685557127,-9.888304710388184
1.7275259928946903e+18,0.01148721668869257,-0.02950737625360489,-9.811203956604004
1.7275259929006904e+18,0.09431444108486176,-0.00973780732601881,-9.773189544677734
1.7275259929066906e+18,0.0045991260558366776,-0.013909947127103806,-9.797686576843262
1.7275259929096906e+18,0.06287363171577454,0.024451032280921936,-9.758508682250977
1.7275259929156908e+18,0.013076676987111568,0.060995932668447495,-9.801352500915527
1.727525992921691e+18,-0.05176372453570366,0.046016301959753036,-9.74996280670166
1.727525992927691e+18,0.003443008055910468,-0.008130942471325397,-9.763004302978516
1.7275259929336911e+18,0.017116030678153038,0.04564360901713371,-9.792520523071289
1.7275259929366912e+18,-0.00019061489729210734,0.033486656844615936,-9.802983283996582
1.7275259929426913e+18,0.05489841103553772,0.013717502355575562,-9.836591720581055
1.7275259929486915e+18,0.0063589937053620815,-0.04696907103061676,-9.788186073303223
1.7275259929516915e+18,0.016000784933567047,-0.010556966066360474,-9.727682113647461
1.7275259929576916e+18,-0.02530515566468239,0.042890820652246475,-9.854681015014648
1.7275259929636918e+18,0.036379676312208176,0.0070696379989385605,-9.882266998291016
1.727525992969692e+18,-0.05731392279267311,-0.0018305523553863168,-9.823759078979492
1.727525992972692e+18,-0.0051493518985807896,0.042440153658390045,-9.881376266479492
1.727525992978692e+18,0.015103043988347054,0.024607256054878235,-9.943309783935547
1.7275259929846922e+18,-0.10424496233463287,-0.07254716753959656,-9.82809066772461
1.7275259929876923e+18,-0.005877920426428318,-0.0294259674847126,-9.788959503173828
1.7275259929936924e+18,0.06097663193941116,-0.03893054276704788,-9.779571533203125
1.7275259929996925e+18,-0.03704596310853958,-0.026942182332277298,-9.7357759475708
1.7275259930056927e+18,-0.009235129691660404,-0.015975721180438995,-9.785097122192383
1.7275259930086927e+18,-0.01230372954159975,-0.13454189896583557,-9.805150032043457
1.7275259930146929e+18,-0.05170702934265137,-0.050602007657289505,-9.79472827911377
1.727525993020693e+18,0.017200058326125145,-0.0050797914154827595,-9.854809761047363
1.727525993023693e+18,0.02136266604065895,0.03365885466337204,-9.815511703491211
1.7275259930296932e+18,0.03200257569551468,0.01625680737197399,-9.747764587402344
1.7275259930356933e+18,0.0316983237862587,0.10013911128044128,-9.853433609008789
1.7275259930386934e+18,-0.09590858221054077,-0.05278778821229935,-9.846002578735352
1.7275259930446935e+18,0.051958080381155014,-0.14822503924369812,-9.766385078430176
1.7275259930506936e+18,0.0332772433757782,-0.006737122777849436,-9.816679000854492
1.7275259930536937e+18,-0.058682817965745926,-0.05489211156964302,-9.834030151367188
1.7275259930596938e+18,-0.03660936281085014,-0.015333712100982666,-9.800278663635254
1.727525993065694e+18,0.028339168056845665,-0.0077876015566289425,-9.815739631652832
1.727525993068694e+18,-0.04465562105178833,-0.026789722964167595,-9.84943675994873
1.7275259930746941e+18,-0.00676822429522872,-0.0072657461278140545,-9.785440444946289
1.7275259930806943e+18,0.004140400793403387,-0.09798727929592133,-9.844229698181152
1.7275259930866944e+18,0.028194470331072807,0.015181679278612137,-9.815020561218262
1.7275259930896945e+18,0.05852549523115158,0.019851693883538246,-9.863819122314453
1.7275259930956946e+18,-0.04010084271430969,0.07755276560783386,-9.776862144470215
1.7275259931016947e+18,0.03610020503401756,0.003944130148738623,-9.852853775024414
1.7275259931046948e+18,0.04107704758644104,-0.029916739091277122,-9.823957443237305
1.727525993110695e+18,-0.003661705879494548,0.030644239857792854,-9.821558952331543
1.727525993116695e+18,0.015434682369232178,0.03807457908987999,-9.757411003112793
1.7275259931226952e+18,0.03410889580845833,0.0017023147083818913,-9.779241561889648
1.7275259931286953e+18,0.03169385716319084,-0.02867220900952816,-9.784369468688965
1.7275259931316954e+18,-0.027139244601130486,-0.006377945654094219,-9.800684928894043
1.7275259931376955e+18,0.06195580214262009,-0.055751197040081024,-9.831439018249512
1.7275259931436956e+18,0.09451042115688324,-0.01805366948246956,-9.822284698486328
1.7275259931496957e+18,0.012474499642848969,-0.016116080805659294,-9.788196563720703
1.7275259931526958e+18,-0.020525315776467323,0.039399560540914536,-9.82347297668457
1.727525993158696e+18,0.038339272141456604,-0.01904459297657013,-9.778087615966797
1.727525993164696e+18,-0.0393555611371994,-0.09540753811597824,-9.774481773376465
1.7275259931706962e+18,-0.022200653329491615,-0.04515904188156128,-9.836185455322266
1.7275259931736963e+18,0.08444136381149292,0.0066736736334860325,-9.800577163696289
1.7275259931796964e+18,0.017711803317070007,-0.08453717827796936,-9.85373306274414
1.7275259931856965e+18,0.054749760776758194,0.05990757793188095,-9.872381210327148
1.7275259931916966e+18,-0.049200888723134995,0.0358816534280777,-9.829462051391602
1.7275259931946967e+18,-0.011899812147021294,0.012436158955097198,-9.781015396118164
1.7275259932006968e+18,0.05814974382519722,-0.11509208381175995,-9.840746879577637
1.727525993206697e+18,0.023045901209115982,0.014454401098191738,-9.770275115966797
1.727525993212697e+18,-0.032799918204545975,0.02772744931280613,-9.79020881652832
1.7275259932156972e+18,0.03702828660607338,0.026887016370892525,-9.767826080322266
1.7275259932216973e+18,0.07590030133724213,0.02901962772011757,-9.820462226867676
1.7275259932276974e+18,-0.03471656143665314,-0.03937898576259613,-9.780250549316406
1.7275259932336975e+18,0.006004503462463617,-0.01429931540042162,-9.80923843383789
1.7275259932366976e+18,-0.005437870975583792,-0.0379171259701252,-9.786274909973145
1.7275259932426977e+18,0.04933102801442146,-0.04571935534477234,-9.752660751342773
1.7275259932486979e+18,-0.06122514232993126,-0.009497576393187046,-9.757950782775879
1.727525993254698e+18,-0.054600972682237625,-0.037194907665252686,-9.811599731445312
1.727525993257698e+18,0.04123803228139877,-0.04669991135597229,-9.797154426574707
1.7275259932636982e+18,-0.054286520928144455,0.018949411809444427,-9.808394432067871
1.7275259932696983e+18,-0.030988922342658043,-0.08928122371435165,-9.816109657287598
1.7275259932756984e+18,-0.036358144134283066,0.03240833058953285,-9.782772064208984
1.7275259932786985e+18,-0.07925697416067123,0.024720748886466026,-9.833553314208984
1.7275259932846986e+18,0.023439981043338776,-0.012814461253583431,-9.793196678161621
1.7275259932906988e+18,-0.047847431153059006,-0.0319376140832901,-9.754074096679688
1.7275259932936988e+18,0.010889365337789059,0.02558896690607071,-9.729020118713379
1.727525993299699e+18,0.051105137914419174,-0.027173805981874466,-9.857017517089844
1.727525993305699e+18,0.04131374880671501,0.061697158962488174,-9.889571189880371
1.7275259933086991e+18,-0.04560387134552002,0.01393836084753275,-9.7628755569458
1.7275259933146993e+18,-0.012946910224854946,0.023727398365736008,-9.774002075195312
1.7275259933206994e+18,0.024044090881943703,0.01652500592172146,-9.825382232666016
1.7275259933266995e+18,0.018850110471248627,0.007977567613124847,-9.741689682006836
1.7275259933296996e+18,-0.01940416358411312,-0.0024242973886430264,-9.901991844177246
1.7275259933356997e+18,0.014294170774519444,-0.02898409590125084,-9.824304580688477
1.7275259933416998e+18,0.042618125677108765,-0.010844234377145767,-9.794926643371582
1.7275259933447e+18,-0.04620076343417168,-0.005380994640290737,-9.750393867492676
1.7275259933507e+18,0.021740704774856567,-0.0009948136284947395,-9.763338088989258
1.7275259933567002e+18,-0.008220384828746319,0.05681057646870613,-9.77214527130127
1.7275259933627003e+18,-0.005119935143738985,0.008035409264266491,-9.82878589630127
1.7275259933657004e+18,0.03531373664736748,0.01418820396065712,-9.814369201660156
1.7275259933717005e+18,-0.028890281915664673,-0.03754366189241409,-9.811545372009277
1.7275259933777006e+18,0.006781584583222866,-0.031951576471328735,-9.83572006225586
1.7275259933837007e+18,-0.02577817626297474,0.04036998003721237,-9.81533145904541
1.7275259933867008e+18,0.09496469050645828,0.02988620474934578,-9.756043434143066
1.727525993392701e+18,-0.05775487422943115,-0.0818442776799202,-9.861204147338867
1.727525993398701e+18,-0.03845887631177902,-0.03799481689929962,-9.801480293273926
1.7275259934047012e+18,0.023026026785373688,0.028154950588941574,-9.791077613830566
1.7275259934107013e+18,0.05600835382938385,-0.033586908131837845,-9.818333625793457
1.7275259934137014e+18,-0.0058859968557953835,-0.03825411945581436,-9.843498229980469
1.7275259934197015e+18,0.08740653842687607,0.03201422467827797,-9.77617359161377
1.7275259934257016e+18,-0.013026049360632896,-0.01505714189261198,-9.84888744354248
1.7275259934317018e+18,0.044789813458919525,0.013358092866837978,-9.782059669494629
1.7275259934347018e+18,0.02018924616277218,-0.056838586926460266,-9.8391752243042
1.727525993440702e+18,-0.05369839072227478,0.08155553042888641,-9.785890579223633
1.727525993446702e+18,-0.0137947341427207,0.05909145250916481,-9.77037525177002
1.7275259934497021e+18,0.050286587327718735,0.04755515605211258,-9.820401191711426
1.7275259934557023e+18,0.01852305233478546,0.0314013846218586,-9.844663619995117
1.7275259934617024e+18,0.12878039479255676,0.009990070946514606,-9.814742088317871
1.7275259934677025e+18,-0.009082760661840439,-0.014075946994125843,-9.82432746887207
1.7275259934707026e+18,-0.06088065728545189,-0.07646489888429642,-9.772686004638672
1.7275259934767027e+18,0.03069324605166912,-0.08707155287265778,-9.777508735656738
1.7275259934827028e+18,0.04972449317574501,0.04140883684158325,-9.818073272705078
1.727525993488703e+18,0.04794454202055931,-0.03485717251896858,-9.872986793518066
1.727525993491703e+18,0.029875893145799637,0.018715044483542442,-9.859671592712402
1.7275259934977032e+18,0.020989349111914635,0.01616959646344185,-9.881855010986328
1.7275259935037033e+18,0.07681619375944138,0.03285409137606621,-9.66529369354248
1.7275259935097034e+18,-0.01692914590239525,0.04371845722198486,-9.844029426574707
1.7275259935127035e+18,0.08229773491621017,0.01639734022319317,-9.774374008178711
1.7275259935187036e+18,-0.05816159024834633,-0.06333527714014053,-9.819711685180664
1.7275259935247037e+18,-0.0022102633956819773,-0.03059655986726284,-9.858154296875
1.7275259935277038e+18,0.01341666653752327,0.010267390869557858,-9.794639587402344
1.727525993533704e+18,-0.05962292104959488,0.0074779014103114605,-9.839212417602539
1.727525993539704e+18,0.02271280251443386,0.02510771155357361,-9.842264175415039
1.727525993542704e+18,-0.0037885515484958887,-0.07148327678442001,-9.742840766906738
1.7275259935487043e+18,0.055127810686826706,-0.05514974147081375,-9.789848327636719
1.7275259935547044e+18,-0.035700391978025436,-0.01381708960980177,-9.850757598876953
1.7275259935607045e+18,-0.026505982503294945,-0.025180334225296974,-9.867232322692871
1.7275259935637046e+18,0.019846295937895775,-0.039817653596401215,-9.875247955322266
1.7275259935697047e+18,-0.014426907524466515,0.037896864116191864,-9.785255432128906
1.7275259935757048e+18,0.026607053354382515,-0.031690437346696854,-9.841297149658203
1.727525993581705e+18,-0.0005991265643388033,-0.009302693419158459,-9.73569107055664
1.727525993584705e+18,-0.002250268589705229,-0.04016932472586632,-9.774930000305176
1.7275259935907052e+18,0.02074371464550495,0.08886702358722687,-9.811081886291504
1.7275259935967053e+18,-0.051378749310970306,0.009607364423573017,-9.764702796936035
1.7275259936027054e+18,0.05077911540865898,-0.02733471430838108,-9.855718612670898
1.7275259936057055e+18,-0.03498050197958946,-0.027421360835433006,-9.850990295410156
1.7275259936117056e+18,-0.0539160892367363,-0.00905791949480772,-9.77450180053711
1.7275259936177057e+18,-0.026761651039123535,-0.06074662506580353,-9.818938255310059
1.7275259936237059e+18,-0.05227093771100044,0.03769008442759514,-9.81632137298584
1.727525993626706e+18,0.02376294508576393,-0.04382407292723656,-9.835951805114746
1.727525993632706e+18,0.019542736932635307,0.05709560215473175,-9.829522132873535
1.7275259936387062e+18,0.006823750212788582,-0.03839489445090294,-9.839921951293945
1.7275259936447063e+18,-0.01777956448495388,0.04395216330885887,-9.727470397949219
1.7275259936477064e+18,0.01176130399107933,-0.038505349308252335,-9.857268333435059
1.7275259936537065e+18,0.0075624058954417706,-0.012050114572048187,-9.736222267150879
1.7275259936597066e+18,0.027512257918715477,0.009171807207167149,-9.721598625183105
1.7275259936627067e+18,-0.07173526287078857,0.013247291557490826,-9.84917163848877
1.7275259936687068e+18,-0.013506093993782997,-0.03406568244099617,-9.803914070129395
1.727525993674707e+18,-0.03352874517440796,-0.015965266153216362,-9.838875770568848
1.727525993680707e+18,0.006021312903612852,0.10690291225910187,-9.843435287475586
1.7275259936837071e+18,0.003634711029008031,0.02244391292333603,-9.922490119934082
1.7275259936897073e+18,0.030864477157592773,-0.0146721750497818,-9.757710456848145
1.7275259936957074e+18,0.06010071188211441,0.01746153086423874,-9.79570484161377
1.7275259937017075e+18,-0.0784352645277977,0.028054391965270042,-9.80502700805664
1.7275259937077076e+18,-0.04285604879260063,0.044819608330726624,-9.74752140045166
1.7275259937107077e+18,0.04206860810518265,0.016207141801714897,-9.855193138122559
1.7275259937167078e+18,-0.02401151694357395,0.016507405787706375,-9.79736614227295
1.727525993722708e+18,-0.05677247792482376,0.026304002851247787,-9.785080909729004
1.727525993725708e+18,-0.004865201190114021,0.04414617642760277,-9.835470199584961
1.7275259937317082e+18,-0.049001261591911316,-0.08771343529224396,-9.80037784576416
1.7275259937377083e+18,-0.015751637518405914,-0.007786083966493607,-9.794782638549805
1.7275259937407084e+18,0.03059183806180954,-0.05521658807992935,-9.791558265686035
1.7275259937467085e+18,0.028656793758273125,-0.0008528557373210788,-9.845974922180176
1.7275259937497085e+18,0.0432463139295578,0.10049843788146973,-9.805425643920898
1.7275259937557087e+18,-0.06856710463762283,0.04197659343481064,-9.824121475219727
1.7275259937617088e+18,0.016146859154105186,0.020129593089222908,-9.832240104675293
1.727525993767709e+18,-0.02641749568283558,-0.03946695849299431,-9.731147766113281
1.727525993770709e+18,0.00039680718327872455,0.08533725887537003,-9.793183326721191
1.727525993776709e+18,-0.014822500757873058,-0.026944896206259727,-9.811551094055176
1.7275259937827092e+18,-0.019550785422325134,-0.006933634635061026,-9.85142993927002
1.7275259937857093e+18,-0.02116047404706478,-0.012627012096345425,-9.836567878723145
1.7275259937917094e+18,-0.004350307863205671,0.03163403272628784,-9.863301277160645
1.7275259937977096e+18,-0.03489343822002411,0.020314060151576996,-9.776856422424316
1.7275259938037097e+18,0.0665140450000763,-0.011566405184566975,-9.77431869506836
1.7275259938067098e+18,0.0206083282828331,-0.05833563581109047,-9.84207534790039
1.72752599381271e+18,-0.02642018161714077,-0.07068855315446854,-9.762775421142578
1.72752599381871e+18,0.010213633999228477,0.016578547656536102,-9.874077796936035
1.72752599382171e+18,-0.0002075191878248006,-0.06986718624830246,-9.783844947814941
1.7275259938277102e+18,-0.05815000459551811,0.03164822980761528,-9.758237838745117
1.7275259938337103e+18,0.048730943351984024,0.027113821357488632,-9.795209884643555
1.7275259938397105e+18,0.02089671976864338,-0.007291307207196951,-9.716742515563965
1.7275259938427105e+18,0.011364836245775223,0.01097035314887762,-9.784649848937988
1.7275259938487107e+18,0.03935833275318146,-0.0502813421189785,-9.824787139892578
1.7275259938547108e+18,0.012844567187130451,-0.017020171508193016,-9.80732250213623
1.727525993860711e+18,0.03052135743200779,-0.004642724525183439,-9.743188858032227
1.727525993863711e+18,0.059360552579164505,0.0038543709088116884,-9.774287223815918
1.727525993869711e+18,-0.02850140631198883,0.0012131540570408106,-9.839454650878906
1.7275259938757112e+18,-0.015392943285405636,0.011577087454497814,-9.80543041229248
1.7275259938817114e+18,0.018606126308441162,-0.006016769912093878,-9.754929542541504
1.7275259938847114e+18,-0.0077799102291464806,-0.06117218732833862,-9.834000587463379
1.7275259938907116e+18,0.04384227469563484,-0.00487737450748682,-9.861937522888184
1.7275259938967117e+18,0.030503718182444572,-0.004762237425893545,-9.841472625732422
1.7275259939027118e+18,-0.0902392715215683,0.13009169697761536,-9.830835342407227
1.7275259939057119e+18,-0.0374860018491745,0.018424149602651596,-9.83118724822998
1.727525993911712e+18,-0.012876300141215324,0.05840671434998512,-9.818750381469727
1.7275259939177121e+18,-0.04380270838737488,0.04160846024751663,-9.751776695251465
1.7275259939237123e+18,0.06142135336995125,-0.0459137000143528,-9.832505226135254
1.7275259939297124e+18,0.07027142494916916,0.0969209298491478,-9.814778327941895
1.7275259939327124e+18,0.005336942616850138,-0.018774954602122307,-9.804245948791504
1.7275259939387126e+18,0.022365694865584373,-0.05767897889018059,-9.767123222351074
1.7275259939447127e+18,-0.05748143792152405,0.001330156926997006,-9.888775825500488
1.7275259939507128e+18,0.0016480166232213378,-0.04180175065994263,-9.823163986206055
1.727525993956713e+18,0.03656803444027901,0.016128234565258026,-9.831291198730469
1.727525993962713e+18,0.014360282570123672,0.0822434201836586,-9.806124687194824
1.7275259939657132e+18,0.01998857408761978,0.05382443219423294,-9.751123428344727
1.7275259939717133e+18,-0.054002292454242706,0.031701356172561646,-9.830845832824707
1.7275259939777134e+18,0.0026198180858045816,-0.03089221566915512,-9.83969783782959
1.7275259939837135e+18,0.03347457945346832,0.02677784487605095,-9.788262367248535
1.7275259939867136e+18,-0.03204190358519554,-0.09655754268169403,-9.738393783569336
1.7275259939927137e+18,-0.05781036615371704,-0.01635131612420082,-9.777474403381348
1.7275259939987139e+18,0.014775717630982399,-0.02951715514063835,-9.82336139678955
1.727525994001714e+18,0.016487164422869682,0.10495022684335709,-9.750665664672852
1.727525994007714e+18,-0.018963545560836792,-0.014827369712293148,-9.79462718963623
1.7275259940137142e+18,0.054364901036024094,-0.026773100718855858,-9.742720603942871
1.7275259940197143e+18,-0.01633184589445591,0.023405903950333595,-9.771690368652344
1.7275259940227144e+18,-0.017092233523726463,-0.02840166911482811,-9.761946678161621
1.7275259940287145e+18,-0.008604981936514378,0.04127353057265282,-9.804903030395508
1.7275259940347146e+18,-0.08367919921875,0.05144064500927925,-9.803508758544922
1.7275259940377147e+18,-0.018271302804350853,0.00418307026848197,-9.830741882324219
1.7275259940437148e+18,-0.008476125076413155,-0.012465890496969223,-9.823525428771973
1.727525994049715e+18,-0.012046408839523792,0.05905330553650856,-9.826913833618164
1.727525994052715e+18,-0.011264079250395298,-0.007798857055604458,-9.758782386779785
1.7275259940587151e+18,0.06120510399341583,-0.012969974428415298,-9.7681884765625
1.7275259940647153e+18,-0.004439854063093662,0.0842815637588501,-9.840136528015137
1.7275259940707154e+18,0.0313967801630497,-0.0004407985834404826,-9.834444999694824
1.7275259940737155e+18,0.034359414130449295,-0.020175496116280556,-9.759140968322754
1.7275259940797156e+18,0.09873306006193161,0.017003241926431656,-9.787415504455566
1.7275259940857157e+18,-0.041940826922655106,0.03724757581949234,-9.866451263427734
1.7275259940917158e+18,0.02257782593369484,0.09467002004384995,-9.780037879943848
1.727525994094716e+18,0.04429657384753227,0.09029663354158401,-9.808364868164062
1.727525994100716e+18,0.047941576689481735,-0.004220428876578808,-9.814090728759766
1.7275259941067162e+18,-0.0028859302401542664,0.05777999758720398,-9.79389476776123
1.7275259941127163e+18,0.017149826511740685,0.01452676672488451,-9.754923820495605
1.7275259941157164e+18,0.022449806332588196,0.005640501156449318,-9.81161117553711
1.7275259941217165e+18,-0.0198386088013649,0.020908476784825325,-9.856637001037598
1.7275259941277166e+18,0.0829358845949173,0.02346470206975937,-9.711236000061035
1.7275259941307167e+18,-0.029067697003483772,-0.020904939621686935,-9.822376251220703
1.7275259941367168e+18,0.059304628521203995,0.00895499624311924,-9.807901382446289
1.727525994142717e+18,-0.012052646838128567,0.07828491926193237,-9.736519813537598
1.727525994148717e+18,0.02318919077515602,-0.014635883271694183,-9.863779067993164
1.727525994151717e+18,-0.026696205139160156,0.024694271385669708,-9.795722961425781
1.7275259941577172e+18,0.035171762108802795,0.009622255340218544,-9.759411811828613
1.7275259941637174e+18,-0.016116252169013023,-0.0019302915316075087,-9.746684074401855
1.7275259941697175e+18,0.03050944395363331,-0.06953069567680359,-9.78624153137207
1.7275259941727176e+18,-0.04269162565469742,0.033764518797397614,-9.743389129638672
1.7275259941787177e+18,-0.060045696794986725,-0.02697090059518814,-9.84571361541748
1.7275259941847178e+18,0.004668972920626402,-0.07003787159919739,-9.805418968200684
1.727525994187718e+18,-0.022679505869746208,0.06537847220897675,-9.888922691345215
1.727525994193718e+18,0.06772715598344803,0.0701557919383049,-9.809081077575684
1.7275259941997181e+18,0.09430021792650223,0.037611961364746094,-9.765819549560547
1.7275259942057183e+18,-0.018050232902169228,-0.0897190272808075,-9.873091697692871
1.7275259942087183e+18,0.04128670319914818,0.010797045193612576,-9.844202041625977
1.7275259942147185e+18,0.00711035868152976,-0.04943527653813362,-9.899572372436523
1.7275259942207186e+18,-0.05165846645832062,0.05664721876382828,-9.850253105163574
1.7275259942237187e+18,0.049128759652376175,0.006627937778830528,-9.770381927490234
1.7275259942297188e+18,0.0006641499930992723,-0.0626288503408432,-9.840853691101074
1.727525994235719e+18,0.025159627199172974,-0.04680963233113289,-9.786112785339355
1.727525994238719e+18,-0.015930965542793274,-0.010489925742149353,-9.808503150939941
1.727525994244719e+18,0.010403607971966267,-0.022373130545020103,-9.891400337219238
1.7275259942507192e+18,-0.0012022583978250623,0.025904975831508636,-9.861279487609863
1.7275259942567194e+18,0.007999658584594727,-0.022405648604035378,-9.78529167175293
1.7275259942597194e+18,-0.020407123491168022,-0.10608410835266113,-9.753692626953125
1.7275259942657196e+18,-0.017476152628660202,-0.07417455315589905,-9.811965942382812
1.7275259942717197e+18,0.024647261947393417,-0.036684080958366394,-9.765606880187988
1.7275259942747197e+18,-0.008994474075734615,-0.0017231391975656152,-9.785064697265625
1.72752599428072e+18,-0.041338272392749786,-0.03485145419836044,-9.891875267028809
1.72752599428672e+18,-0.012455963529646397,0.11479703336954117,-9.829241752624512
1.72752599428972e+18,-0.06468451768159866,-0.0411483570933342,-9.754460334777832
1.7275259942957202e+18,-0.055155251175165176,-0.03856443613767624,-9.816604614257812
1.7275259943017203e+18,-0.03161442279815674,-0.04482404887676239,-9.872445106506348
1.7275259943077204e+18,0.06600859761238098,-0.03353237733244896,-9.823854446411133
1.7275259943107205e+18,-0.016850275918841362,0.04367063567042351,-9.800423622131348
1.7275259943167206e+18,0.02938399463891983,-0.022218309342861176,-9.785162925720215
1.7275259943227208e+18,-0.007420526351779699,0.00819445215165615,-9.828222274780273
1.727525994328721e+18,-0.05903903394937515,0.02315535582602024,-9.888236999511719
1.727525994331721e+18,-0.03541248291730881,-0.07003021240234375,-9.8021240234375
1.727525994337721e+18,0.10349763929843903,0.05578925460577011,-9.839526176452637
1.7275259943437212e+18,0.018782390281558037,0.03561970219016075,-9.824166297912598
1.7275259943497213e+18,-0.021758297458291054,-0.04074859619140625,-9.75479507446289
1.7275259943527214e+18,0.03690033778548241,0.03886045888066292,-9.789534568786621
1.7275259943587215e+18,-0.02967609465122223,0.03395858034491539,-9.797603607177734
1.7275259943647217e+18,0.026237303391098976,-0.017712829634547234,-9.75308609008789
1.7275259943707218e+18,0.021371178328990936,-0.07570132613182068,-9.835240364074707
1.727525994376722e+18,-0.0028146763797849417,0.021941976621747017,-9.781087875366211
1.727525994379722e+18,-0.056860942393541336,0.026388203725218773,-9.855866432189941
1.727525994385722e+18,-0.054308339953422546,0.025683755055069923,-9.799928665161133
1.7275259943917222e+18,-0.02592378482222557,0.009397577494382858,-9.808247566223145
1.7275259943977224e+18,0.06494668871164322,0.046155717223882675,-9.75041675567627
1.7275259944007224e+18,-0.0073045785538852215,-0.04341292753815651,-9.847107887268066
1.7275259944067226e+18,-0.049532242119312286,-0.014599784277379513,-9.774459838867188
1.7275259944127227e+18,-0.016245311126112938,-0.046105463057756424,-9.785438537597656
1.7275259944187228e+18,0.05753197520971298,0.0007058957708068192,-9.816227912902832
1.727525994421723e+18,-0.10162607580423355,-0.026671072468161583,-9.715987205505371
1.727525994427723e+18,-0.013086727820336819,-0.0321904718875885,-9.840365409851074
1.7275259944337231e+18,-0.0684523731470108,0.07813805341720581,-9.831604957580566
1.7275259944397233e+18,-0.009557494893670082,-0.013306421227753162,-9.800161361694336
1.7275259944427233e+18,-0.007099130656570196,-0.043326228857040405,-9.76733112335205
1.7275259944487235e+18,0.046878404915332794,0.012466885149478912,-9.840666770935059
1.7275259944547236e+18,-0.03340382128953934,0.05972347408533096,-9.794975280761719
1.7275259944607237e+18,-0.04096343740820885,-0.019841449335217476,-9.81456184387207
1.7275259944637238e+18,-0.06595126539468765,-0.036374107003211975,-9.840452194213867
1.727525994469724e+18,0.0028864664491266012,0.0168681051582098,-9.86268138885498
1.727525994475724e+18,-0.02688775584101677,0.0015079100849106908,-9.759627342224121
1.7275259944817242e+18,0.07976578176021576,0.02745635434985161,-9.745931625366211
1.7275259944847242e+18,-0.038822878152132034,-0.040150243788957596,-9.780141830444336
1.7275259944907244e+18,0.03630101680755615,-0.017646007239818573,-9.851170539855957
1.7275259944967245e+18,-0.055310964584350586,0.03336522728204727,-9.803668975830078
1.7275259944997245e+18,0.009702853858470917,0.0022028572857379913,-9.850691795349121
1.7275259945057247e+18,0.0024451231583952904,0.0428883358836174,-9.787033081054688
1.7275259945117248e+18,-0.08935759961605072,-0.010933764278888702,-9.833040237426758
1.727525994517725e+18,0.023048289120197296,0.007472410332411528,-9.806071281433105
1.727525994520725e+18,-0.038240522146224976,0.06661498546600342,-9.789015769958496
1.727525994526725e+18,-0.0072323777712881565,0.008345045149326324,-9.796052932739258
1.7275259945327252e+18,-0.01299897488206625,-0.050865158438682556,-9.839871406555176
1.7275259945387254e+18,-0.06558651477098465,-0.002266337862238288,-9.837817192077637
1.7275259945417254e+18,0.05114307627081871,0.018015360459685326,-9.780935287475586
1.7275259945477256e+18,-0.03526657447218895,-0.051754675805568695,-9.76455307006836
1.7275259945537257e+18,-0.015272989869117737,-0.05486694350838661,-9.744796752929688
1.7275259945597258e+18,-0.028421558439731598,0.05596156790852547,-9.805429458618164
1.727525994562726e+18,-0.09221728146076202,-0.00239165429957211,-9.813150405883789
1.727525994568726e+18,-0.00953626912087202,-0.025096241384744644,-9.746224403381348
1.7275259945747261e+18,0.028832562267780304,-0.07360600680112839,-9.821939468383789
1.7275259945807263e+18,0.024261539801955223,0.04570714011788368,-9.902188301086426
1.7275259945837263e+18,-0.07215257734060287,0.018332291394472122,-9.785513877868652
1.7275259945897265e+18,0.014170000329613686,0.0450890026986599,-9.78842544555664
1.7275259945957266e+18,0.02266569808125496,0.014527911320328712,-9.880946159362793
1.7275259946017267e+18,0.0028519188053905964,-0.07168766856193542,-9.813133239746094
1.7275259946047268e+18,-0.019632430747151375,0.023370902985334396,-9.722173690795898
1.727525994610727e+18,0.07040619105100632,0.038053832948207855,-9.813590049743652
1.727525994616727e+18,-0.024185292422771454,0.019948342815041542,-9.799346923828125
1.7275259946227272e+18,0.04269249364733696,-0.1007513776421547,-9.87468433380127
1.7275259946257272e+18,-0.025247028097510338,0.03663695603609085,-9.787096977233887
1.7275259946317274e+18,-0.07334461063146591,-0.007586033083498478,-9.834671020507812
1.7275259946377275e+18,-0.009011892601847649,-0.02638051100075245,-9.785638809204102
1.7275259946437276e+18,0.017249416559934616,0.0725916251540184,-9.857460975646973
1.7275259946467277e+18,-0.022564858198165894,-0.006510452833026648,-9.821733474731445
1.7275259946527278e+18,-0.0207233764231205,-0.04403155297040939,-9.945947647094727
1.727525994658728e+18,0.031000889837741852,0.0967000275850296,-9.771591186523438
1.727525994664728e+18,0.015418792143464088,-0.02399822138249874,-9.91001033782959
1.7275259946707282e+18,0.016841605305671692,0.04480716213583946,-9.827815055847168
1.7275259946737283e+18,0.003341063391417265,-0.07764455676078796,-9.789738655090332
1.7275259946797284e+18,-0.032914016395807266,-0.008802304975688457,-9.803916931152344
1.7275259946857285e+18,-0.02932499535381794,0.0472647026181221,-9.857175827026367
1.7275259946917286e+18,-0.0774739608168602,0.013777215965092182,-9.702251434326172
1.7275259946947287e+18,-0.013585714623332024,0.01235469151288271,-9.728672981262207
1.7275259947007288e+18,0.07918045669794083,0.003952153492718935,-9.789125442504883
1.727525994706729e+18,-0.031030159443616867,0.09021902829408646,-9.797719955444336
1.727525994709729e+18,-0.00979945994913578,-0.03985465317964554,-9.81974983215332
1.7275259947187292e+18,-0.026439519599080086,0.016936486586928368,-9.760003089904785
1.7275259947217293e+18,-0.023099370300769806,-0.029437841847538948,-9.852723121643066
1.7275259947277294e+18,-0.026901932433247566,-0.0010653368663042784,-9.726919174194336
1.7275259947337295e+18,-0.04183986410498619,0.013937773182988167,-9.712559700012207
1.7275259947397297e+18,0.062493402510881424,-0.014262642711400986,-9.820419311523438
1.7275259947427297e+18,0.03254396468400955,-0.02480800449848175,-9.818557739257812
1.7275259947487299e+18,0.0005663828924298286,-0.01129429042339325,-9.874367713928223
1.72752599475473e+18,0.018735263496637344,0.052044689655303955,-9.779181480407715
1.72752599475773e+18,-0.07742510735988617,0.028396358713507652,-9.74497127532959
1.7275259947637302e+18,0.11243149638175964,0.003178470069542527,-9.833723068237305
1.7275259947697303e+18,0.012454981915652752,0.035148680210113525,-9.729076385498047
1.7275259947757304e+18,0.022716743871569633,0.0008060735417529941,-9.773725509643555
1.7275259947817306e+18,-0.11704354733228683,0.009702298790216446,-9.871620178222656
1.7275259947847306e+18,0.037410881370306015,-0.05045131593942642,-9.878074645996094
1.7275259947907308e+18,-0.06446243822574615,0.03141580894589424,-9.744696617126465
1.727525994796731e+18,0.01801631972193718,-0.015931209549307823,-9.866386413574219
1.727525994799731e+18,-0.010551875457167625,0.019334716722369194,-9.834402084350586
1.727525994805731e+18,-0.06400489807128906,-0.06466669589281082,-9.832244873046875
1.7275259948117312e+18,-0.012418841011822224,-0.004614836070686579,-9.843598365783691
1.7275259948177313e+18,0.019500112161040306,-0.022764895111322403,-9.872159957885742
1.7275259948237315e+18,-0.011636652052402496,0.1277853399515152,-9.833578109741211
1.7275259948267315e+18,0.07904314249753952,0.056605491787195206,-9.84440803527832
1.7275259948327316e+18,-0.0951453298330307,0.10249416530132294,-9.81637191772461
1.7275259948387318e+18,0.004222526215016842,0.0002449904859531671,-9.805442810058594
1.727525994844732e+18,-0.062427371740341187,-0.062005750834941864,-9.831196784973145
1.727525994850732e+18,-0.01041282806545496,0.03842168673872948,-9.843188285827637
1.7275259948567322e+18,-0.07344591617584229,0.08939103782176971,-9.81740665435791
1.7275259948627323e+18,-0.03836359828710556,-0.05237964913249016,-9.791397094726562
1.7275259948687324e+18,-0.030966857448220253,0.04766140133142471,-9.861078262329102
1.7275259948717325e+18,-0.017688898369669914,-0.016617590561509132,-9.837339401245117
1.7275259948777326e+18,-0.025820793583989143,0.03603946045041084,-9.745591163635254
1.7275259948837327e+18,-0.01145597267895937,-0.007870173081755638,-9.83029842376709
1.7275259948897329e+18,-0.023834552615880966,0.02897678129374981,-9.868131637573242
1.727525994892733e+18,-0.050393011420965195,-0.010102623142302036,-9.873476028442383
1.727525994898733e+18,-0.03165004402399063,-0.060895636677742004,-9.792289733886719
1.7275259949047332e+18,-0.03981036692857742,0.022250937297940254,-9.77686595916748
1.7275259949107333e+18,-0.03169425204396248,0.013356255367398262,-9.812479972839355
1.7275259949137334e+18,-0.017578518018126488,0.05018504709005356,-9.817939758300781
1.7275259949197335e+18,-0.01582641899585724,-0.057280946522951126,-9.81847858428955
1.7275259949257336e+18,-0.001005041180178523,0.05596359819173813,-9.79980182647705
1.7275259949317338e+18,-0.04939725250005722,-0.050731416791677475,-9.855141639709473
1.7275259949347338e+18,0.011567994020879269,0.02750474587082863,-9.849133491516113
1.727525994940734e+18,0.0631360337138176,0.01190811488777399,-9.835713386535645
1.727525994946734e+18,-0.0047602481208741665,-0.05348857864737511,-9.782809257507324
1.7275259949497341e+18,0.03935527056455612,-0.03896232694387436,-9.827632904052734
1.7275259949557343e+18,-0.010019225999712944,-0.04515749216079712,-9.776958465576172
1.7275259949617344e+18,0.038862016052007675,0.06889760494232178,-9.841465950012207
1.7275259949677345e+18,0.03597217798233032,-0.003800316946581006,-9.766111373901367
1.7275259949707346e+18,0.02569843828678131,0.09607849270105362,-9.851059913635254
1.7275259949767347e+18,-0.009328708983957767,0.03209555149078369,-9.889493942260742
1.7275259949827348e+18,-0.05423831567168236,-0.03375696390867233,-9.800887107849121
1.727525994985735e+18,0.011276274919509888,-0.05627811700105667,-9.752432823181152
1.727525994991735e+18,-0.042435623705387115,-0.09684062749147415,-9.790690422058105
1.7275259949977352e+18,-0.03152089938521385,0.022693336009979248,-9.710756301879883
1.7275259950007352e+18,-0.023980917409062386,0.014869610778987408,-9.795819282531738
1.7275259950067354e+18,-0.021945202723145485,0.0024568012449890375,-9.763341903686523
1.7275259950127355e+18,0.016108978539705276,0.04927702620625496,-9.776839256286621
1.7275259950157356e+18,-0.019194910302758217,-0.039553843438625336,-9.860383987426758
1.7275259950217357e+18,0.008112912066280842,0.008909037336707115,-9.891274452209473
1.7275259950277358e+18,-0.022863877937197685,-0.00991003680974245,-9.843573570251465
1.727525995030736e+18,-0.11214999854564667,0.021053586155176163,-9.808500289916992
1.727525995036736e+18,0.009967043995857239,0.05377094820141792,-9.794833183288574
1.727525995042736e+18,0.058681681752204895,-0.011509346775710583,-9.855768203735352
1.7275259950487363e+18,-0.04030054062604904,0.03402542322874069,-9.82861042022705
1.7275259950547364e+18,-0.02215581014752388,0.044933561235666275,-9.813273429870605
1.7275259950577364e+18,0.02075006254017353,0.09873442351818085,-9.86707592010498
1.7275259950637366e+18,0.02730165421962738,0.000658523989841342,-9.821219444274902
1.7275259950697367e+18,0.02301601693034172,-0.001994555350393057,-9.778244018554688
1.7275259950727368e+18,-0.022325387224555016,0.001114003243856132,-9.909965515136719
1.727525995078737e+18,-0.04691099002957344,-0.008053836412727833,-9.804218292236328
1.727525995084737e+18,-0.08013202995061874,-0.008179220370948315,-9.80870532989502
1.7275259950907372e+18,-0.06595858931541443,-0.021046441048383713,-9.795008659362793
1.7275259950967373e+18,0.0008897728403098881,-0.07882855832576752,-9.795970916748047
1.7275259950997373e+18,0.02591932751238346,-0.007308581843972206,-9.822739601135254
1.7275259951057375e+18,0.014894037507474422,-0.03690512105822563,-9.833927154541016
1.7275259951117376e+18,0.009416470304131508,0.05477466061711311,-9.754770278930664
1.7275259951177377e+18,-0.06083565577864647,-0.02829916775226593,-9.813227653503418
1.7275259951237379e+18,0.03729819878935814,-0.006730744615197182,-9.793442726135254
1.727525995129738e+18,-0.06199202314019203,-0.048367101699113846,-9.74120044708252
1.727525995135738e+18,0.06914099305868149,0.04763158783316612,-9.850308418273926
1.7275259951417382e+18,0.0015627277316525578,0.0027136127464473248,-9.835020065307617
1.7275259951447383e+18,-0.0016573361353948712,0.05079996585845947,-9.790984153747559
1.7275259951507384e+18,0.018902765586972237,0.0029746524523943663,-9.847041130065918
1.7275259951567386e+18,0.03482688218355179,0.08112839609384537,-9.77720832824707
1.7275259951627387e+18,-0.0007022404461167753,-0.03956791013479233,-9.798439025878906
1.7275259951687388e+18,-0.041173167526721954,-0.0009331187466159463,-9.794506072998047
1.727525995174739e+18,-0.07854544371366501,-0.031152302399277687,-9.797093391418457
1.727525995180739e+18,0.004378171171993017,-0.03351093828678131,-9.79494857788086
1.7275259951867392e+18,0.04876140132546425,-0.04775848984718323,-9.849440574645996
1.7275259951897393e+18,0.05167128145694733,0.005414906423538923,-9.787172317504883
1.7275259951957394e+18,0.06877315044403076,-0.075419120490551,-9.76862621307373
1.7275259952017395e+18,0.10588064789772034,-0.10318910330533981,-9.86182975769043
1.7275259952077396e+18,-0.03707525134086609,0.0010665447916835546,-9.829090118408203
1.7275259952137398e+18,0.0012815764639526606,-0.031754329800605774,-9.85633659362793
1.72752599521974e+18,0.013591782189905643,-0.020768379792571068,-9.802306175231934
1.72752599522574e+18,0.0033758690115064383,0.044799868017435074,-9.751908302307129
1.7275259952317402e+18,0.08325046300888062,-0.04113259166479111,-9.843293190002441
1.7275259952347402e+18,0.011658047325909138,0.04582318291068077,-9.870450019836426
1.7275259952407404e+18,-0.03778248652815819,-0.0682416558265686,-9.781702995300293
1.7275259952467405e+18,0.04625314474105835,0.0713546946644783,-9.769182205200195
1.7275259952527406e+18,0.01796925626695156,-0.037498705089092255,-9.787055015563965
1.7275259952587407e+18,-0.001268206862732768,-0.030562371015548706,-9.784087181091309
1.7275259952617408e+18,0.019475659355521202,-0.04387121647596359,-9.78795051574707
1.727525995267741e+18,0.020252887159585953,0.03163636103272438,-9.814505577087402
1.727525995273741e+18,0.010237296111881733,-0.01842913031578064,-9.838797569274902
1.7275259952797412e+18,0.00795307382941246,-0.018994130194187164,-9.830501556396484
1.7275259952857413e+18,0.01871463656425476,-0.01587584614753723,-9.853569984436035
1.7275259952917414e+18,-0.05143093317747116,-0.03930618241429329,-9.93613052368164
1.7275259952947415e+18,0.024477854371070862,0.025755949318408966,-9.9019136428833
1.7275259953007416e+18,-0.006904504261910915,0.05891066789627075,-9.870390892028809
1.7275259953067418e+18,-0.01429576426744461,0.09556011855602264,-9.839951515197754
1.727525995312742e+18,-0.010987585410475731,-0.03720559924840927,-9.933921813964844
1.727525995318742e+18,-0.0013590932358056307,0.04140032082796097,-9.877520561218262
1.7275259953247421e+18,0.015423811972141266,-0.006559507921338081,-9.886069297790527
1.7275259953337423e+18,-0.0030157880391925573,0.05175860971212387,-9.841733932495117
1.7275259953427425e+18,-0.022485287860035896,0.03313083201646805,-9.926909446716309
1.7275259953517427e+18,-0.03712054714560509,0.04806702211499214,-9.822737693786621
1.727525995360743e+18,0.0720229223370552,0.02159738913178444,-9.953585624694824
1.727525995366743e+18,0.02963412180542946,-0.008558820933103561,-9.882454872131348
1.7275259953757432e+18,0.047924693673849106,0.03168822079896927,-9.899299621582031
1.7275259953817434e+18,0.017139388248324394,0.06225334480404854,-9.887166976928711
1.7275259953907436e+18,-0.08633294701576233,0.07146310806274414,-9.865138053894043
1.7275259953997437e+18,-0.005144394002854824,0.06282571703195572,-9.85738754272461
1.727525995408744e+18,-0.0022388615179806948,0.04081747680902481,-9.866398811340332
1.727525995414744e+18,0.014799803495407104,-0.006131889298558235,-9.893863677978516
1.7275259954207442e+18,0.039672188460826874,-0.00547000439837575,-9.851215362548828
1.7275259954267443e+18,-0.0029475223273038864,-0.03427186980843544,-9.889676094055176
1.7275259954327444e+18,-0.03087010607123375,-0.017328700050711632,-9.907949447631836
1.7275259954387446e+18,0.018799586221575737,0.06665091961622238,-9.887797355651855
1.7275259954447447e+18,-0.01666697859764099,-0.0224042646586895,-9.842558860778809
1.7275259954507448e+18,-0.027112197130918503,-0.04868370294570923,-9.863115310668945
1.727525995456745e+18,-0.04214704781770706,0.002968946937471628,-9.888544082641602
1.727525995462745e+18,0.0009852988878265023,-0.03720127046108246,-9.88344955444336
1.7275259954657452e+18,-0.014818631112575531,0.027323609218001366,-9.892074584960938
1.7275259954717453e+18,-0.014027777127921581,0.05327460914850235,-9.90921401977539
1.7275259954777454e+18,-0.03558915853500366,-0.039729829877614975,-9.916888236999512
1.7275259954837455e+18,0.022432103753089905,-0.02514643408358097,-9.962801933288574
1.7275259954897457e+18,-0.021436776965856552,0.014105300419032574,-10.004549980163574
1.7275259954957458e+18,0.0627799928188324,0.041395362466573715,-9.945188522338867
1.7275259954987459e+18,-0.060421157628297806,0.0846412181854248,-9.911884307861328
1.727525995504746e+18,0.03196948766708374,-0.06986594945192337,-9.910844802856445
1.727525995510746e+18,0.0049490900710225105,-0.010360868647694588,-9.846576690673828
1.7275259955137462e+18,-0.03925485536456108,-0.009620863012969494,-9.939373016357422
1.7275259955197463e+18,-0.06833037734031677,0.01252783089876175,-9.861048698425293
1.7275259955257464e+18,-0.03244681656360626,-0.05357876420021057,-9.886473655700684
1.7275259955287465e+18,0.0797184407711029,-0.028309255838394165,-9.925426483154297
1.7275259955347466e+18,0.005256615579128265,0.014066456817090511,-9.93163013458252
1.7275259955407468e+18,0.004063623026013374,-0.004517897963523865,-9.825559616088867
1.7275259955437468e+18,0.021272465586662292,-0.008525172248482704,-9.855567932128906
1.727525995549747e+18,-0.0700506791472435,-0.014865470118820667,-9.945806503295898
1.727525995555747e+18,-0.012062766589224339,-0.032731007784605026,-9.983232498168945
1.7275259955617472e+18,0.01025534886866808,-0.012286889366805553,-9.963541030883789
1.7275259955647473e+18,0.016971327364444733,-0.02245960757136345,-9.964426040649414
1.7275259955707474e+18,0.009149771183729172,-0.0025263438001275063,-9.991894721984863
1.7275259955767475e+18,0.00582865159958601,-0.036775171756744385,-10.061392784118652
1.7275259955797476e+18,0.03370784968137741,-0.04007827863097191,-9.973670959472656
1.7275259955857477e+18,-0.023655109107494354,-0.05130463093519211,-10.009024620056152
1.7275259955917478e+18,-0.009020834229886532,-0.0004970311420038342,-10.09166145324707
1.727525995594748e+18,-0.016942288726568222,0.015905676409602165,-10.089948654174805
1.727525995600748e+18,0.010202344506978989,0.043356381356716156,-10.187658309936523
1.7275259956067482e+18,-0.027041276916861534,-0.027418825775384903,-10.153507232666016
1.7275259956097482e+18,0.038246702402830124,0.0389222726225853,-10.156262397766113
1.7275259956157484e+18,0.008693423122167587,-0.0012302880641072989,-10.200512886047363
1.7275259956217485e+18,-0.037786975502967834,-0.013414731249213219,-10.048941612243652
1.7275259956277486e+18,-0.018068496137857437,0.017222285270690918,-10.203514099121094
1.7275259956307487e+18,-0.053408604115247726,0.01374080404639244,-10.303869247436523
1.7275259956367488e+18,-0.01922670006752014,0.08317716419696808,-10.276697158813477
1.727525995642749e+18,-0.04544074088335037,0.011858895421028137,-10.220489501953125
1.727525995645749e+18,0.01116950623691082,-0.04740235581994057,-10.352842330932617
1.727525995651749e+18,-0.016709668561816216,-0.044683787971735,-10.259475708007812
1.7275259956577492e+18,0.018172457814216614,-0.005912735126912594,-10.328275680541992
1.7275259956637494e+18,-0.06610333174467087,-0.031358130276203156,-10.300976753234863
1.7275259956667494e+18,0.018242934718728065,0.08608061075210571,-10.332788467407227
1.7275259956727496e+18,-0.01619688794016838,-0.014727397821843624,-10.409430503845215
1.7275259956787497e+18,-0.023791547864675522,-0.04515846446156502,-10.281797409057617
1.7275259956847498e+18,-0.010640920139849186,-0.04666948691010475,-10.278299331665039
1.72752599568775e+18,-0.05898251011967659,0.022053353488445282,-10.275952339172363
1.72752599569375e+18,0.05185231193900108,0.04240843653678894,-10.350032806396484
1.7275259956997501e+18,-0.04683013632893562,-0.0434737429022789,-10.35908317565918
1.7275259957057503e+18,-0.01481686346232891,0.006119159981608391,-10.364580154418945
1.7275259957117504e+18,0.008915633894503117,0.012239139527082443,-10.310402870178223
1.7275259957147505e+18,-0.023486874997615814,-0.024991806596517563,-10.310311317443848
1.7275259957207506e+18,-0.02593294531106949,0.023851845413446426,-10.359929084777832
1.7275259957267507e+18,-0.0035862571094185114,0.02971160039305687,-10.327091217041016
1.7275259957327508e+18,0.006247954908758402,-0.0024826605804264545,-10.34217643737793
1.727525995735751e+18,-0.026471497491002083,0.06513352692127228,-10.388075828552246
1.727525995741751e+18,-0.050887539982795715,-0.0791848823428154,-10.36725902557373
1.7275259957477512e+18,-0.014499615877866745,0.04539477452635765,-10.36225700378418
1.7275259957537513e+18,0.0255802683532238,-0.04573114216327667,-10.376311302185059
1.7275259957597514e+18,0.01643858291208744,-0.006766442209482193,-10.402588844299316
1.7275259957627515e+18,0.051390714943408966,0.09412986785173416,-10.418525695800781
1.7275259957687516e+18,0.04163432866334915,-0.014719927683472633,-10.349072456359863
1.7275259957747517e+18,0.06488841772079468,-0.06370916962623596,-10.370126724243164
1.7275259957777518e+18,-0.012772317975759506,0.03256029263138771,-10.376652717590332
1.727525995783752e+18,0.046465061604976654,0.005641006864607334,-10.283198356628418
1.727525995789752e+18,-0.005126770585775375,-0.027572304010391235,-10.469643592834473
1.7275259957957522e+18,-0.0735558494925499,-0.011476143263280392,-10.362600326538086
1.7275259957987523e+18,0.05423907935619354,0.08532824367284775,-10.300756454467773
1.7275259958047524e+18,0.033914715051651,0.1475454568862915,-10.313444137573242
1.7275259958107525e+18,0.006092362105846405,-0.05074520781636238,-10.416637420654297
1.7275259958167526e+18,-0.01127655804157257,-0.047294314950704575,-10.403462409973145
1.7275259958197527e+18,-0.08432506769895554,-0.10912590473890305,-10.353074073791504
1.7275259958257528e+18,0.05247878655791283,-0.06286916136741638,-10.340456008911133
1.727525995831753e+18,-0.05596410110592842,0.001880614785477519,-10.379777908325195
1.727525995834753e+18,0.0015041005099192262,0.009830696508288383,-10.425108909606934
1.7275259958407532e+18,-0.03639982268214226,0.029002197086811066,-10.381797790527344
1.7275259958467533e+18,-0.05450032278895378,-0.020172005519270897,-10.412310600280762
1.7275259958527534e+18,-0.02083691954612732,0.0189621914178133,-10.390982627868652
1.7275259958557535e+18,-0.007492585573345423,-0.03469133377075195,-10.31994342803955
1.7275259958617536e+18,0.012425210326910019,0.08868145942687988,-10.362042427062988
1.7275259958677537e+18,-0.03324263542890549,0.056318629533052444,-10.41406536102295
1.7275259958707538e+18,-0.06627252697944641,0.06698177754878998,-10.352066993713379
1.727525995876754e+18,0.005639948416501284,0.015008893795311451,-10.372037887573242
1.727525995882754e+18,-0.03207849711179733,0.05957682058215141,-10.284524917602539
1.7275259958887542e+18,0.05169719085097313,0.06694477051496506,-10.366314888000488
1.7275259958947543e+18,0.0066675287671387196,0.017097271978855133,-10.309516906738281
1.7275259958977544e+18,0.024773024022579193,-0.003243898507207632,-10.388592720031738
1.7275259959037545e+18,-0.01035431120544672,0.03750832751393318,-10.422416687011719
1.7275259959097546e+18,0.025045320391654968,0.018920056521892548,-10.352914810180664
1.7275259959127547e+18,-0.06733110547065735,0.0478091686964035,-10.303434371948242
1.7275259959187548e+18,0.0318596251308918,-0.04857689514756203,-10.319985389709473
1.727525995924755e+18,-0.0395868718624115,-0.03456152603030205,-10.269038200378418
1.727525995930755e+18,-0.06319966167211533,0.06381596624851227,-10.366539001464844
1.7275259959337551e+18,-0.05058837682008743,0.04525327309966087,-10.331582069396973
1.7275259959397553e+18,-0.03692435100674629,-0.08442927896976471,-10.348854064941406
1.7275259959457554e+18,0.08791790902614594,0.026056408882141113,-10.327895164489746
1.7275259959517555e+18,-0.08504290878772736,0.03172875568270683,-10.36970329284668
1.7275259959547556e+18,-0.003725555259734392,0.03570450842380524,-10.386269569396973
1.7275259959607557e+18,0.01796072907745838,0.013434583321213722,-10.364449501037598
1.7275259959667558e+18,0.01570351980626583,-0.015365643426775932,-10.25610065460205
1.727525995972756e+18,-0.017368879169225693,-0.012907274067401886,-10.322942733764648
1.727525995975756e+18,0.011945545673370361,-0.02269776538014412,-10.397830963134766
1.7275259959817562e+18,0.03724823519587517,0.015441011637449265,-10.289921760559082
1.7275259959877563e+18,0.0063950722105801105,-0.043780699372291565,-10.3329496383667
1.7275259959937564e+18,-0.027659235522150993,0.035233862698078156,-10.331371307373047
1.7275259959967565e+18,-0.0097366813570261,-0.007083418313413858,-10.364543914794922
1.7275259960027566e+18,-0.0013891422422602773,-0.07257228344678879,-10.353849411010742
1.7275259960087567e+18,-0.011981511488556862,0.01709994301199913,-10.3619384765625
1.7275259960147569e+18,0.047464750707149506,0.029026255011558533,-10.308314323425293
1.727525996017757e+18,-0.028389237821102142,0.01740332320332527,-10.36447811126709
1.727525996023757e+18,-0.022717805579304695,0.04092881828546524,-10.341106414794922
1.7275259960297572e+18,0.05214657261967659,-0.0020626061595976353,-10.296285629272461
1.7275259960327572e+18,0.00899670273065567,0.04920873045921326,-10.326313018798828
1.7275259960387574e+18,-0.06463438272476196,0.03383701667189598,-10.360697746276855
1.7275259960447575e+18,0.015325499698519707,-0.002047596499323845,-10.323040962219238
1.7275259960507576e+18,0.013476538471877575,-0.032165348529815674,-10.348224639892578
1.7275259960537577e+18,0.014883792027831078,0.04126990959048271,-10.335078239440918
1.7275259960597578e+18,-0.011025446467101574,0.0012086719507351518,-10.367582321166992
1.727525996065758e+18,-0.011319564655423164,-0.0273426566272974,-10.335565567016602
1.727525996071758e+18,0.013762426562607288,0.007327159866690636,-10.275003433227539
1.7275259960777582e+18,0.022796550765633583,0.08098991215229034,-10.314043045043945
1.7275259960807583e+18,0.02584482729434967,-0.08247807621955872,-10.39606761932373
1.7275259960867584e+18,0.0067702834494411945,-0.026412703096866608,-10.327674865722656
1.7275259960927585e+18,0.03580396622419357,0.005014881957322359,-10.351105690002441
1.7275259960987587e+18,0.06898724287748337,-0.03094635158777237,-10.31828784942627
1.7275259961047588e+18,0.013413858599960804,0.024583876132965088,-10.366796493530273
1.727525996110759e+18,-0.08803078532218933,0.03986754268407822,-10.40182876586914
1.727525996116759e+18,-0.032473672181367874,0.06692522764205933,-10.284297943115234
1.727525996119759e+18,0.030557043850421906,0.031924769282341,-10.311649322509766
1.7275259961257592e+18,-0.014390528202056885,-0.011537130922079086,-10.290278434753418
1.7275259961317594e+18,0.0724443718791008,-0.022018102928996086,-10.364245414733887
1.7275259961377595e+18,-0.03473697602748871,-0.005029349122196436,-10.29580020904541
1.7275259961407596e+18,0.04586680606007576,0.016440117731690407,-10.359395027160645
1.7275259961467597e+18,0.02247348241508007,0.030407661572098732,-10.394891738891602
1.7275259961527598e+18,-0.01706099696457386,0.04932713508605957,-10.347783088684082
1.72752599615876e+18,-0.01589728333055973,-0.07151033729314804,-10.430545806884766
1.72752599616176e+18,0.0013483039801940322,0.0333261638879776,-10.322266578674316
1.7275259961677601e+18,0.02496521733701229,0.01785719022154808,-10.404765129089355
1.7275259961737603e+18,0.01624499261379242,-0.031458452343940735,-10.31729507446289
1.7275259961767603e+18,0.008351640775799751,-0.00846052449196577,-10.2664794921875
1.7275259961827604e+18,-0.005029457621276379,-0.08748392015695572,-10.246879577636719
1.7275259961887606e+18,0.02295048162341118,0.00536092696711421,-10.319319725036621
1.7275259961947607e+18,-0.02807360328733921,-0.014978697523474693,-10.425809860229492
1.7275259961977608e+18,-0.03296533599495888,0.013088580220937729,-10.291463851928711
1.727525996203761e+18,-0.036999717354774475,0.0359058752655983,-10.324938774108887
1.727525996209761e+18,0.012624249793589115,-0.0455453023314476,-10.357475280761719
1.727525996212761e+18,-0.10829538851976395,-0.020203368738293648,-10.322458267211914
1.7275259962187612e+18,-0.0284123532474041,0.08729206025600433,-10.4221830368042
1.7275259962247613e+18,-0.06881285458803177,-0.02101934887468815,-10.342265129089355
1.7275259962307615e+18,-0.025729022920131683,-0.01311979815363884,-10.339853286743164
1.7275259962367616e+18,-0.033914268016815186,-0.0011071470798924565,-10.358558654785156
1.7275259962397617e+18,0.03752649575471878,-0.0034867594949901104,-10.2716646194458
1.7275259962457618e+18,-0.0592387355864048,-0.002208257094025612,-10.470396041870117
1.727525996251762e+18,0.023439519107341766,-0.04961869865655899,-10.31857967376709
1.727525996257762e+18,0.021316591650247574,-0.01855643466114998,-10.364789962768555
1.7275259962637622e+18,0.07103019952774048,-0.007628613151609898,-10.332082748413086
1.7275259962697623e+18,0.06715887784957886,-0.018964329734444618,-10.379145622253418
1.7275259962757624e+18,-0.014738400466740131,-0.0846155658364296,-10.285552024841309
1.7275259962787625e+18,0.009233427233994007,-0.10549154877662659,-10.328876495361328
1.7275259962877627e+18,0.013391309417784214,-0.004190173931419849,-10.290495872497559
1.7275259962937628e+18,0.04347645118832588,0.010723520070314407,-10.382391929626465
1.727525996296763e+18,0.011088619008660316,-0.022480228915810585,-10.244583129882812
1.727525996302763e+18,0.018884938210248947,-0.015108110383152962,-10.319883346557617
1.7275259963087631e+18,0.04298735782504082,0.020946430042386055,-10.343758583068848
1.7275259963147633e+18,0.0202533807605505,-0.003364081960171461,-10.341166496276855
1.7275259963207634e+18,-0.022781992331147194,-0.021295351907610893,-10.281475067138672
1.7275259963237635e+18,0.03743194416165352,-0.007184597197920084,-10.305562019348145
1.7275259963297636e+18,-0.05918922275304794,0.018118157982826233,-10.330263137817383
1.7275259963357637e+18,0.025404686108231544,-0.06304723769426346,-10.28537368774414
1.7275259963417638e+18,-0.06859239190816879,-0.0015577943995594978,-10.350188255310059
1.727525996344764e+18,0.05325743183493614,0.024270638823509216,-10.43770694732666
1.727525996350764e+18,-0.07196083664894104,0.020555341616272926,-10.379145622253418
1.7275259963567642e+18,0.047395169734954834,-0.024265117943286896,-10.312308311462402
1.7275259963627643e+18,-0.042870186269283295,-0.008895776234567165,-10.348275184631348
1.7275259963657644e+18,-0.001162574626505375,-0.006296847015619278,-10.323955535888672
1.7275259963717645e+18,-0.007051029242575169,-0.07193316519260406,-10.31645393371582
1.7275259963777646e+18,-0.011908835731446743,0.06250272691249847,-10.381134986877441
1.7275259963837647e+18,0.012762864120304585,-0.042339637875556946,-10.319014549255371
1.7275259963897649e+18,-0.00036698818439617753,-0.06118762120604515,-10.369922637939453
1.727525996392765e+18,0.07231106609106064,-0.04054831713438034,-10.2800931930542
1.727525996398765e+18,-0.03166869282722473,0.013909868896007538,-10.356878280639648
1.7275259964047652e+18,0.05002784729003906,-0.015666022896766663,-10.33910083770752
1.7275259964107653e+18,-0.029574360698461533,0.02291993424296379,-10.340828895568848
1.7275259964167654e+18,0.0037977469619363546,0.08028645068407059,-10.292924880981445
1.7275259964227656e+18,0.045213714241981506,0.0011964701116085052,-10.392549514770508
1.7275259964287657e+18,-0.053971827030181885,-0.001920959446579218,-10.38354206085205
1.7275259964347658e+18,0.026999633759260178,0.07818447798490524,-10.413029670715332
1.727525996440766e+18,0.05941203609108925,-0.0774364024400711,-10.342303276062012
1.727525996446766e+18,0.012635932303965092,0.036407507956027985,-10.286136627197266
1.7275259964527662e+18,0.04536866024136543,-0.021010398864746094,-10.312642097473145
1.7275259964587663e+18,-0.03521709144115448,0.008387178182601929,-10.311759948730469
1.7275259964617664e+18,0.001074507599696517,-0.12604370713233948,-10.392475128173828
1.7275259964677665e+18,-0.03817256912589073,-0.008092927746474743,-10.3483304977417
1.7275259964737667e+18,0.0548265315592289,-0.023811353370547295,-10.281607627868652
1.7275259964767667e+18,0.024773482233285904,0.0037627366837114096,-10.255707740783691
1.7275259964827668e+18,-0.009730382822453976,0.0013344823382794857,-10.335088729858398
1.727525996488767e+18,-0.039888978004455566,0.08363654464483261,-10.332756042480469
1.727525996494767e+18,-0.09261822700500488,0.009337692521512508,-10.288328170776367
1.7275259964977672e+18,0.04706556722521782,0.031152088195085526,-10.302088737487793
1.7275259965037673e+18,0.05144394189119339,-0.012171990238130093,-10.346963882446289
1.7275259965097674e+18,0.005047979298979044,0.00016059353947639465,-10.354470252990723
1.7275259965127675e+18,0.03645233064889908,-0.030373135581612587,-10.309489250183105
1.7275259965187676e+18,-0.016502799466252327,0.03307964652776718,-10.267724990844727
1.7275259965247677e+18,0.10465840995311737,-0.013435257598757744,-10.298332214355469
1.7275259965277678e+18,-0.0478532500565052,0.08913341164588928,-10.284320831298828
1.727525996533768e+18,-0.0510583221912384,0.014012349769473076,-10.286795616149902
1.727525996539768e+18,-0.03888048604130745,0.004698683507740498,-10.366020202636719
1.7275259965457682e+18,-0.0757327452301979,-0.020009418949484825,-10.366652488708496
1.7275259965487683e+18,-0.010006318800151348,-0.038801196962594986,-10.352517127990723
1.7275259965547684e+18,-0.027236778289079666,0.05029768869280815,-10.33677864074707
1.7275259965607685e+18,-0.010386474430561066,0.06122647598385811,-10.33934211730957
1.7275259965667686e+18,0.02246948704123497,0.046040140092372894,-10.353251457214355
1.7275259965727688e+18,-0.003225246211513877,0.04033314436674118,-10.373127937316895
1.7275259965757688e+18,-0.019912831485271454,0.043040402233600616,-10.254709243774414
1.727525996581769e+18,-0.018062103539705276,0.0854993686079979,-10.366497993469238
1.727525996587769e+18,-0.06026984006166458,-0.05447256565093994,-10.365137100219727
1.7275259965907692e+18,-0.043334681540727615,0.02386057749390602,-10.41650676727295
1.7275259965967693e+18,0.03042854741215706,0.006107810884714127,-10.289017677307129
1.7275259966027694e+18,0.0358254611492157,0.030848361551761627,-10.292791366577148
1.7275259966057695e+18,-0.013925834558904171,-0.025801990181207657,-10.344922065734863
1.7275259966117696e+18,-0.03363436087965965,0.042216721922159195,-10.316181182861328
1.7275259966177697e+18,0.046574123203754425,-0.010170910507440567,-10.35580825805664
1.7275259966237699e+18,-0.014262145385146141,0.05293852463364601,-10.274810791015625
1.72752599662677e+18,-0.042122479528188705,0.061569247394800186,-10.386940956115723
1.72752599663277e+18,-0.01092260330915451,0.014901402406394482,-10.332046508789062
1.7275259966387702e+18,-0.001105855917558074,0.022819457575678825,-10.318537712097168
1.7275259966417702e+18,0.002237852895632386,0.061322879046201706,-10.34456729888916
1.7275259966477704e+18,0.016808584332466125,0.011023561470210552,-10.349287986755371
1.7275259966537705e+18,0.03761241212487221,-0.016910754144191742,-10.312272071838379
1.7275259966567706e+18,0.013656162656843662,0.03521621972322464,-10.256498336791992
1.7275259966627707e+18,-0.012576892040669918,0.0684179812669754,-10.257440567016602
1.7275259966687708e+18,0.014217354357242584,-0.013845367357134819,-10.364249229431152
1.727525996674771e+18,-0.018219394609332085,0.0863879844546318,-10.30748176574707
1.727525996677771e+18,-0.024305641651153564,0.008307353593409061,-10.347540855407715
1.7275259966837711e+18,-0.06901844590902328,0.05276575684547424,-10.269901275634766
1.7275259966897713e+18,0.06267670542001724,-0.0523274764418602,-10.332039833068848
1.7275259966927713e+18,-0.06892477720975876,0.025987431406974792,-10.311659812927246
1.7275259966987715e+18,0.04567769542336464,0.03912219777703285,-10.337041854858398
1.7275259967047716e+18,-0.01559525914490223,0.0350024439394474,-10.303933143615723
1.7275259967107717e+18,0.028613781556487083,0.017634933814406395,-10.312698364257812
1.7275259967137718e+18,-0.02359565533697605,-0.02749856375157833,-10.362659454345703
1.727525996719772e+18,-0.0415055938065052,0.04154680669307709,-10.214637756347656
1.727525996725772e+18,-0.012707868590950966,0.019416797906160355,-10.330460548400879
1.7275259967317722e+18,-0.06354176998138428,-0.047358229756355286,-10.277729034423828
1.7275259967347722e+18,-0.010397099889814854,-0.07086244970560074,-10.316000938415527
1.7275259967407724e+18,-0.02995949611067772,0.04382672160863876,-10.247177124023438
1.7275259967467725e+18,0.030550584197044373,0.00024349591694772243,-10.26037883758545
1.7275259967527726e+18,-0.014501769095659256,-0.0037454883567988873,-10.251594543457031
1.7275259967557727e+18,-0.03247593715786934,0.014348624274134636,-10.215385437011719
1.7275259967617728e+18,-0.005017983261495829,0.0499173142015934,-10.29195785522461
1.727525996767773e+18,-0.00987221673130989,-0.020633427426218987,-10.365106582641602
1.727525996773773e+18,-0.04223877936601639,0.057171404361724854,-10.287611961364746
1.727525996776773e+18,0.006879083812236786,-0.006367535330355167,-10.344234466552734
1.7275259967827732e+18,-0.01947193220257759,-0.09154443442821503,-10.257917404174805
1.7275259967887734e+18,0.06101768836379051,0.04133157804608345,-10.368560791015625
1.7275259967947735e+18,-0.05482624098658562,-0.03567393496632576,-10.353073120117188
1.7275259968007736e+18,0.053835902363061905,0.041709527373313904,-10.362208366394043
1.7275259968037737e+18,0.06328509002923965,0.04930858314037323,-10.257457733154297
1.7275259968097738e+18,0.05038122087717056,-0.0038186288438737392,-10.262259483337402
1.727525996815774e+18,0.02214236371219158,-0.03989024460315704,-10.25615406036377
1.727525996818774e+18,0.07816749066114426,0.042045820504426956,-10.319009780883789
1.7275259968247741e+18,0.002659808611497283,0.0513620525598526,-10.411571502685547
1.7275259968307743e+18,-0.05359142646193504,0.015105810016393661,-10.316837310791016
1.7275259968367744e+18,0.019159724935889244,-0.0110433679074049,-10.32027530670166
1.7275259968397745e+18,-0.03224054351449013,-0.0150070209056139,-10.320512771606445
1.7275259968457746e+18,-0.014046143740415573,-0.014004359021782875,-10.325597763061523
1.7275259968517747e+18,-0.027605341747403145,0.010846016928553581,-10.1951265335083
1.7275259968577748e+18,-0.023783478885889053,0.011200696229934692,-10.331208229064941
1.727525996860775e+18,0.045295313000679016,-0.009769956581294537,-10.418366432189941
1.727525996866775e+18,0.03556065633893013,-0.015518475323915482,-10.390154838562012
1.7275259968727752e+18,-0.04432087391614914,0.01714932546019554,-10.254015922546387
1.7275259968757752e+18,-0.003663449315354228,-0.04407865181565285,-10.293717384338379
1.7275259968817754e+18,0.014496827498078346,-0.029290970414876938,-10.275310516357422
1.7275259968877755e+18,-0.014993032440543175,0.013011425733566284,-10.356783866882324
1.7275259968907756e+18,-0.03259659558534622,-0.03263203799724579,-10.29946517944336
1.7275259968967757e+18,-0.09414543956518173,0.017652293667197227,-10.303901672363281
1.7275259969027758e+18,-0.1004534438252449,0.01917317882180214,-10.313898086547852
1.727525996908776e+18,-0.0063039627857506275,0.0030622321646660566,-10.299646377563477
1.727525996914776e+18,0.016770433634519577,-0.00241601699963212,-10.270380973815918
1.7275259969207762e+18,0.04529956355690956,-0.05661459267139435,-10.269137382507324
1.7275259969267763e+18,-0.040191661566495895,0.011166028678417206,-10.368999481201172
1.7275259969297764e+18,0.0703405812382698,-0.01867973431944847,-10.286680221557617
1.7275259969357765e+18,0.012212304398417473,-0.0404212586581707,-10.29928970336914
1.7275259969417766e+18,-0.007655890192836523,-0.02110305055975914,-10.335176467895508
1.7275259969447767e+18,-0.007727803662419319,-0.051810864359140396,-10.304384231567383
1.7275259969507768e+18,-0.0053012315183877945,-0.024777144193649292,-10.404345512390137
1.727525996956777e+18,0.057805441319942474,-0.03320760652422905,-10.39137077331543
1.727525996959777e+18,-0.00414991332218051,0.0196383073925972,-10.426812171936035
1.7275259969657772e+18,0.04048777371644974,0.059959445148706436,-10.442377090454102
1.7275259969717773e+18,0.012426921166479588,0.03328169137239456,-10.393614768981934
1.7275259969777774e+18,0.013978163711726665,0.06694580614566803,-10.395657539367676
1.7275259969807775e+18,0.012473217211663723,0.05705241486430168,-10.428272247314453
1.7275259969867776e+18,0.07912888377904892,-0.015183932147920132,-10.390480995178223
1.7275259969927777e+18,0.01225296687334776,-0.007889841683208942,-10.38448715209961
1.7275259969987779e+18,0.004349282011389732,-0.04533702880144119,-10.379782676696777
1.727525997001778e+18,0.039964139461517334,-0.06239046901464462,-10.404577255249023
1.727525997007778e+18,0.00036472000647336245,-0.03285806253552437,-10.573083877563477
1.7275259970137782e+18,0.03158034011721611,0.06629189103841782,-10.42703628540039
1.7275259970167782e+18,-0.01814722642302513,-0.007929731160402298,-10.399459838867188
1.7275259970227784e+18,-0.03170925751328468,0.032182637602090836,-10.45134162902832
1.7275259970287785e+18,0.0024691950529813766,-0.052265770733356476,-10.425114631652832
1.7275259970347786e+18,0.030197329819202423,0.011217641644179821,-10.366508483886719
1.7275259970377787e+18,-0.010657298378646374,-0.05437009036540985,-10.444950103759766
1.7275259970437788e+18,0.024968668818473816,-0.03335756063461304,-10.442220687866211
1.727525997049779e+18,-0.042488399893045425,-0.029360368847846985,-10.393192291259766
1.727525997052779e+18,-0.002576854545623064,0.01829078607261181,-10.465826034545898
1.7275259970587791e+18,0.0074963923543691635,-0.027986157685518265,-10.461220741271973
1.7275259970647793e+18,0.0147018413990736,0.0266485046595335,-10.41388988494873
1.7275259970707794e+18,0.015107020735740662,-0.020062685012817383,-10.405534744262695
1.7275259970737795e+18,0.06068027764558792,-0.0639936774969101,-10.394779205322266
1.7275259970797796e+18,-0.031965989619493484,0.06332141160964966,-10.428156852722168
1.7275259970857797e+18,-0.019382979720830917,-0.0007714014500379562,-10.399433135986328
1.7275259970917798e+18,0.04110446199774742,-0.05110103264451027,-10.439977645874023
1.72752599709478e+18,-0.07596959173679352,-0.05770399421453476,-10.44129753112793
1.72752599710078e+18,-0.03448500111699104,0.009109392762184143,-10.517447471618652
1.7275259971067802e+18,0.01990673318505287,0.018830619752407074,-10.498016357421875
1.7275259971127803e+18,0.03545569255948067,-0.015153676271438599,-10.453633308410645
1.7275259971157804e+18,0.002932569943368435,0.022640982642769814,-10.451994895935059
1.7275259971217805e+18,0.004972125869244337,0.010376331396400928,-10.420055389404297
1.7275259971277806e+18,-0.02066047303378582,0.03298696503043175,-10.44644546508789
1.7275259971307807e+18,-0.02615237981081009,-0.035628024488687515,-10.42674446105957
1.7275259971367808e+18,0.04451696202158928,-0.08270277082920074,-10.40206527709961
1.727525997142781e+18,-0.053183894604444504,-0.0169247817248106,-10.394011497497559
1.727525997148781e+18,-0.018800165504217148,0.019223038107156754,-10.453497886657715
1.727525997151781e+18,0.04551401734352112,0.05129747465252876,-10.45511531829834
1.7275259971577812e+18,0.01683514565229416,-0.026485305279493332,-10.421982765197754
1.7275259971637814e+18,-0.022159457206726074,-0.047498270869255066,-10.489410400390625
1.7275259971667814e+18,0.009702816605567932,-0.04995674639940262,-10.40439224243164
1.7275259971727816e+18,0.03518972918391228,0.03751188889145851,-10.461994171142578
1.7275259971787817e+18,0.04373881593346596,0.04520604759454727,-10.415582656860352
1.7275259971847818e+18,0.0040537393651902676,0.024071626365184784,-10.534177780151367
1.727525997187782e+18,0.07256384193897247,-0.005112765356898308,-10.517407417297363
1.727525997193782e+18,0.029600368812680244,-0.07757391035556793,-10.436605453491211
1.7275259971997821e+18,-0.1272454559803009,-0.05907495692372322,-10.491466522216797
1.7275259972027822e+18,0.04590344429016113,0.021414875984191895,-10.467992782592773
1.7275259972087823e+18,0.03663566708564758,-0.019990380853414536,-10.470603942871094
1.7275259972147825e+18,0.05384499579668045,-0.08373543620109558,-10.401302337646484
1.7275259972207826e+18,-0.03514329344034195,0.026217816397547722,-10.461272239685059
1.7275259972237827e+18,-0.013235796242952347,0.0033660531044006348,-10.48900032043457
1.7275259972297828e+18,0.03303662687540054,-0.034007661044597626,-10.41408920288086
1.727525997235783e+18,0.05145707726478577,-0.02926645427942276,-10.45546817779541
1.727525997241783e+18,0.03139093145728111,0.03031756728887558,-10.417302131652832
1.727525997244783e+18,-0.040620356798172,-0.010172715410590172,-10.456235885620117
1.7275259972507832e+18,0.09610981494188309,-0.09182995557785034,-10.425710678100586
1.7275259972567834e+18,0.03643539175391197,0.015566674992442131,-10.369654655456543
1.7275259972627835e+18,0.04378316178917885,0.02247389778494835,-10.369640350341797
1.7275259972657836e+18,-0.026498809456825256,-0.05993517488241196,-10.429049491882324
1.7275259972717837e+18,0.015019591897726059,0.027157893404364586,-10.462090492248535
1.7275259972777838e+18,0.05776111036539078,-0.029178183525800705,-10.471014976501465
1.727525997283784e+18,0.044335007667541504,-0.07325716316699982,-10.49146556854248
1.727525997289784e+18,0.025664478540420532,0.025254834443330765,-10.428298950195312
1.727525997292784e+18,0.045284222811460495,-0.031037773936986923,-10.375185012817383
1.7275259972987843e+18,0.04228764772415161,-0.050895459949970245,-10.530058860778809
1.7275259973047844e+18,0.04520921781659126,-0.08233717083930969,-10.484309196472168
1.7275259973107845e+18,-0.0019020073814317584,0.02395986020565033,-10.524346351623535
1.7275259973167846e+18,-0.023422371596097946,-0.02148168534040451,-10.400578498840332
1.7275259973197847e+18,-0.013856400735676289,-0.009556392207741737,-10.417320251464844
1.7275259973257848e+18,0.05288198962807655,0.008711155503988266,-10.480080604553223
1.727525997331785e+18,-0.021899495273828506,-0.1225837990641594,-10.464285850524902
1.727525997337785e+18,-0.033412251621484756,0.0272861085832119,-10.426101684570312
1.7275259973407852e+18,-0.043782368302345276,-0.0238631758838892,-10.488811492919922
1.7275259973467853e+18,-0.02567736804485321,-0.05269712954759598,-10.463446617126465
1.7275259973527854e+18,-0.032950449734926224,0.014300444163382053,-10.3653564453125
1.7275259973587855e+18,0.07646983861923218,-0.005207874812185764,-10.475955963134766
1.7275259973617856e+18,0.07899124175310135,-0.02238205075263977,-10.483845710754395
1.7275259973677857e+18,-0.052737005054950714,-0.05397984758019447,-10.406521797180176
1.7275259973737859e+18,0.06296978890895844,-0.027645112946629524,-10.462237358093262
1.727525997379786e+18,-0.04913855716586113,0.04928665608167648,-10.3931245803833
1.727525997385786e+18,-0.015999481081962585,-0.011895528063178062,-10.43558406829834
1.7275259973887862e+18,0.007428821641951799,-0.03644351288676262,-10.475391387939453
1.7275259973947863e+18,0.030016452074050903,0.0360441580414772,-10.41878604888916
1.7275259974007864e+18,0.007391128223389387,0.11280699819326401,-10.455662727355957
1.7275259974067866e+18,-0.009706757962703705,-0.03902961313724518,-10.410616874694824
1.7275259974127867e+18,-0.04128900542855263,0.05290118232369423,-10.424971580505371
1.7275259974187868e+18,-0.05704242363572121,0.02370603382587433,-10.460195541381836
1.727525997421787e+18,0.014699319377541542,-0.020771551877260208,-10.451245307922363
1.727525997427787e+18,-0.01586059480905533,-0.022108159959316254,-10.439278602600098
1.7275259974337871e+18,-0.05022592470049858,-0.02253757044672966,-10.40125846862793
1.7275259974397873e+18,-0.055209506303071976,0.028511371463537216,-10.392465591430664
1.7275259974427873e+18,-0.08798789232969284,-0.0283866785466671,-10.416781425476074
1.7275259974487875e+18,-0.02739240787923336,0.01365464087575674,-10.435662269592285
1.7275259974547876e+18,-0.03360617160797119,-0.010416969656944275,-10.451022148132324
1.7275259974607877e+18,0.04867744818329811,0.05194887891411781,-10.450431823730469
1.7275259974667878e+18,0.002883432200178504,-0.04013185203075409,-10.476285934448242
1.727525997469788e+18,-0.047531649470329285,0.023433122783899307,-10.361028671264648
1.727525997475788e+18,0.002239087363705039,0.03890734165906906,-10.372204780578613
1.7275259974817882e+18,-0.018018580973148346,-0.030348610132932663,-10.457592010498047
1.7275259974877883e+18,-0.03478009253740311,0.01683354377746582,-10.377180099487305
1.7275259974907884e+18,-0.009144986048340797,0.0414915457367897,-10.410663604736328
1.7275259974967885e+18,0.0340094193816185,0.0132217425853014,-10.417987823486328
1.7275259975027886e+18,0.017274655401706696,-0.008453216403722763,-10.408788681030273
1.7275259975087887e+18,0.045266617089509964,0.1066083014011383,-10.415643692016602
1.7275259975117888e+18,0.016240069642663002,0.0012109801173210144,-10.318475723266602
1.727525997517789e+18,0.06669595837593079,-0.0195156242698431,-10.454906463623047
1.727525997523789e+18,0.00837101973593235,-0.031413257122039795,-10.365498542785645
1.7275259975297892e+18,0.05061892792582512,0.05720340460538864,-10.359694480895996
1.7275259975327892e+18,0.050647590309381485,0.044994913041591644,-10.43281364440918
1.7275259975387894e+18,0.009511735290288925,0.11470763385295868,-10.351387023925781
1.7275259975447895e+18,-0.025133531540632248,0.07085029780864716,-10.365619659423828
1.7275259975507896e+18,-0.029938634485006332,-0.06451699137687683,-10.360739707946777
1.7275259975567898e+18,0.03561464697122574,-0.02704441174864769,-10.369359970092773
1.7275259975597898e+18,0.02484753541648388,-0.03783528506755829,-10.375937461853027
1.72752599756579e+18,0.019483106210827827,0.0582500621676445,-10.38022518157959
1.72752599757179e+18,-0.02583944797515869,0.039616383612155914,-10.411249160766602
1.7275259975747901e+18,-0.018590865656733513,-0.014946624636650085,-10.415717124938965
1.7275259975807903e+18,0.02802308462560177,0.013558422215282917,-10.35470962524414
1.7275259975867904e+18,-0.12305301427841187,0.050623830407857895,-10.315056800842285
1.7275259975927905e+18,0.1297295093536377,-0.010477209463715553,-10.354408264160156
1.7275259975957906e+18,-0.002974545815959573,-0.009641779586672783,-10.376862525939941
1.7275259976017907e+18,-0.031693071126937866,-0.03894195705652237,-10.425724029541016
1.7275259976077908e+18,-0.02351236157119274,0.043987154960632324,-10.401969909667969
1.727525997613791e+18,-0.005433082580566406,0.07409635186195374,-10.284262657165527
1.727525997619791e+18,0.03596528246998787,0.0034182388335466385,-10.394222259521484
1.7275259976227912e+18,-0.04042533412575722,0.06510227918624878,-10.37817096710205
1.7275259976287913e+18,0.002355308039113879,0.015655551105737686,-10.357954025268555
1.7275259976347914e+18,-0.014841698110103607,0.0430460199713707,-10.338319778442383
1.7275259976407916e+18,-0.08235535025596619,0.017693322151899338,-10.42613697052002
1.7275259976437916e+18,-0.008607602678239346,0.04573242738842964,-10.3746337890625
1.7275259976497917e+18,-0.055954709649086,0.004649176262319088,-10.356850624084473
1.7275259976557919e+18,0.023921797052025795,-0.04975339025259018,-10.268792152404785
1.727525997661792e+18,-0.031746216118335724,0.028055954724550247,-10.338705062866211
1.727525997664792e+18,0.020851893350481987,0.018556950613856316,-10.328703880310059
1.7275259976707922e+18,0.05001502484083176,-0.01043179351836443,-10.360543251037598
1.7275259976767923e+18,-0.01636076346039772,0.004774091765284538,-10.383082389831543
1.7275259976827924e+18,0.011282478459179401,0.04486778751015663,-10.364760398864746
1.7275259976857925e+18,0.027404101565480232,0.020819664001464844,-10.346622467041016
1.7275259976917926e+18,-0.014233569614589214,0.026012543588876724,-10.389849662780762
1.7275259976977928e+18,0.02722332254052162,-0.006071862764656544,-10.444018363952637
1.727525997703793e+18,0.035627495497465134,-0.053370650857686996,-10.419145584106445
1.727525997706793e+18,0.05486135184764862,0.04926442727446556,-10.42843246459961
1.727525997712793e+18,0.014233624562621117,0.08566315472126007,-10.368059158325195
1.7275259977187932e+18,-0.06147416681051254,0.018264571204781532,-10.38389778137207
1.7275259977247933e+18,0.018326018005609512,0.014558595605194569,-10.327362060546875
1.7275259977277934e+18,-0.03414534777402878,0.12823066115379333,-10.388821601867676
1.7275259977337935e+18,0.010072058998048306,0.052620258182287216,-10.376094818115234
1.7275259977397937e+18,0.05909188836812973,-0.023824062198400497,-10.366952896118164
1.7275259977457938e+18,-0.026089003309607506,-0.021831948310136795,-10.338390350341797
1.7275259977487939e+18,-0.01346840150654316,-0.005590812768787146,-10.351553916931152
1.727525997754794e+18,0.02761976234614849,0.07735362648963928,-10.332934379577637
1.727525997760794e+18,-0.0882420763373375,0.061789121478796005,-10.334867477416992
1.7275259977637942e+18,0.058802615851163864,-0.00024936534464359283,-10.313114166259766
1.7275259977697943e+18,0.049021098762750626,0.040998585522174835,-10.376361846923828
1.7275259977757944e+18,-0.03025747649371624,-0.039392709732055664,-10.382938385009766
1.7275259977817946e+18,-0.006660327780991793,0.008978602476418018,-10.291037559509277
1.7275259977847946e+18,-0.0033022414427250624,-0.03854910284280777,-10.3201904296875
1.7275259977907948e+18,-0.005706210155040026,0.060473062098026276,-10.320960998535156
1.727525997796795e+18,-0.02460242621600628,0.01305154524743557,-10.446389198303223
1.727525997802795e+18,-0.06661125272512436,-0.06149843707680702,-10.383062362670898
1.7275259978087951e+18,0.18325747549533844,0.09924637526273727,-10.337858200073242
1.7275259978117952e+18,-0.05119643732905388,-0.0439620241522789,-10.35501480102539
1.7275259978177953e+18,-0.015433584339916706,0.028035877272486687,-10.394694328308105
1.7275259978237955e+18,-0.033586498349905014,-0.029051952064037323,-10.320478439331055
1.7275259978297956e+18,-0.07952526211738586,-0.02131553366780281,-10.405107498168945
1.7275259978327956e+18,-0.022841239348053932,0.029552791267633438,-10.273714065551758
1.7275259978387958e+18,-0.022716647014021873,0.027249738574028015,-10.350362777709961
1.727525997844796e+18,-0.024855706840753555,0.00926283374428749,-10.32752799987793
1.727525997850796e+18,0.06076296046376228,0.050592608749866486,-10.25015640258789
1.7275259978567962e+18,0.009523766115307808,-0.005292849615216255,-10.34482479095459
1.7275259978597962e+18,0.019241124391555786,0.03328102454543114,-10.290668487548828
1.7275259978657964e+18,-0.005830437410622835,-0.0675908625125885,-10.348043441772461
1.7275259978717965e+18,0.04195765405893326,0.06275632232427597,-10.396781921386719
1.7275259978777966e+18,0.047819267958402634,0.08153563737869263,-10.275233268737793
1.7275259978807967e+18,0.047278303653001785,3.863684833049774e-05,-10.351561546325684
1.7275259978867968e+18,-0.04542069137096405,0.009193075820803642,-10.223783493041992
1.727525997892797e+18,0.0655052438378334,-0.016774723306298256,-10.330362319946289
1.727525997898797e+18,0.0842573344707489,-0.0035047358833253384,-10.260469436645508
1.727525997901797e+18,-0.03770902380347252,-0.0008073730859905481,-10.289263725280762
1.7275259979077972e+18,-0.0641976147890091,-0.006584531627595425,-10.354119300842285
1.7275259979137974e+18,-0.0018458827398717403,0.008837325498461723,-10.393293380737305
1.7275259979197975e+18,0.02857951447367668,-0.015237749554216862,-10.412666320800781
1.7275259979257976e+18,0.0009722436079755425,-0.019504111260175705,-10.262824058532715
1.7275259979317978e+18,-0.06340547651052475,0.10126937925815582,-10.319219589233398
1.7275259979347978e+18,0.026256566867232323,-0.03744421526789665,-10.372258186340332
1.727525997940798e+18,0.07668409496545792,0.0018563539488241076,-10.301301956176758
1.727525997946798e+18,-0.010539883747696877,0.0465300977230072,-10.323945045471191
1.7275259979497981e+18,-0.040316566824913025,0.03292332589626312,-10.346590042114258
1.7275259979557983e+18,-0.052810631692409515,0.033943843096494675,-10.41455078125
1.7275259979617984e+18,0.018829554319381714,-0.023124324157834053,-10.345242500305176
1.7275259979677985e+18,-0.02290968783199787,0.05113913118839264,-10.348386764526367
1.7275259979707986e+18,0.010098877362906933,0.030583884567022324,-10.269828796386719
1.7275259979767987e+18,-0.003539477474987507,-0.00962033774703741,-10.314743041992188
1.7275259979827988e+18,0.018384283408522606,0.021674731746315956,-10.27746868133545
1.727525997985799e+18,0.05227131396532059,0.0017656437121331692,-10.268291473388672
1.727525997991799e+18,0.03866184875369072,0.008511225692927837,-10.2776517868042
1.7275259979977992e+18,0.06934671849012375,0.0040945145301520824,-10.269644737243652
1.7275259980037993e+18,0.01327442191541195,-0.07440192252397537,-10.289994239807129
1.7275259980067994e+18,0.029429800808429718,0.004217609763145447,-10.378911972045898
1.7275259980127995e+18,-0.06850191205739975,0.06320896744728088,-10.31843090057373
1.7275259980187996e+18,-0.06852913647890091,0.038894351571798325,-10.259458541870117
1.7275259980217997e+18,0.0020530642941594124,0.0067732008174061775,-10.268596649169922
1.7275259980277998e+18,0.021440062671899796,0.009332755580544472,-10.345450401306152
1.7275259980338e+18,-0.02699923701584339,-0.03269193321466446,-10.265772819519043
1.7275259980398e+18,0.06948734074831009,0.016535362228751183,-10.29145336151123
1.7275259980428e+18,-0.01072248537093401,0.07370544970035553,-10.364203453063965
1.7275259980488003e+18,0.04926712065935135,-0.020199129357933998,-10.32791519165039
1.7275259980548004e+18,-0.0016942922957241535,0.004186676815152168,-10.365713119506836
1.7275259980608005e+18,0.0475083626806736,0.037303753197193146,-10.354790687561035
1.7275259980668006e+18,0.0027219378389418125,0.01579582691192627,-10.267245292663574
1.7275259980728008e+18,-0.005603381432592869,-0.017867811024188995,-10.24931526184082
1.727525998078801e+18,0.0019270065240561962,0.022219590842723846,-10.35303783416748
1.727525998081801e+18,-0.002777600660920143,0.04364055395126343,-10.253815650939941
1.727525998087801e+18,0.08473021537065506,0.07391536235809326,-10.25958251953125
1.7275259980938012e+18,0.06700854003429413,0.02729613706469536,-10.227673530578613
1.7275259980998013e+18,-0.010744714178144932,-0.006635173223912716,-10.27025318145752
1.7275259981058015e+18,0.051669180393218994,-0.029097888618707657,-10.305781364440918
1.7275259981088015e+18,-0.018229816108942032,-0.03738504648208618,-10.198814392089844
1.7275259981148017e+18,-0.08651534467935562,0.06927775591611862,-10.252823829650879
1.7275259981208018e+18,0.0211009718477726,0.021608801558613777,-10.245099067687988
1.727525998126802e+18,-0.029075630009174347,-0.04885690659284592,-10.257307052612305
1.727525998129802e+18,0.0069087715819478035,-0.10257699340581894,-10.236614227294922
1.727525998135802e+18,-0.02910550683736801,-0.01126827858388424,-10.316804885864258
1.7275259981418022e+18,0.06724942475557327,0.03684926778078079,-10.21061897277832
1.7275259981448023e+18,0.021229319274425507,0.007330916356295347,-10.30298137664795
1.7275259981508024e+18,-0.017828859388828278,0.04865463450551033,-10.259845733642578
1.7275259981568026e+18,-0.0013966590631753206,0.007750838994979858,-10.253684997558594
1.7275259981598026e+18,0.008968847803771496,-0.03818248212337494,-10.263958930969238
1.7275259981658028e+18,-0.009278769604861736,0.007030485197901726,-10.378417015075684
1.727525998171803e+18,0.040921468287706375,0.021614093333482742,-10.277838706970215
1.727525998177803e+18,0.05692066252231598,0.053423214703798294,-10.228400230407715
1.7275259981838031e+18,0.07909835129976273,0.04229404777288437,-10.167511940002441
1.7275259981868032e+18,-0.07893937826156616,-0.08717013895511627,-10.279153823852539
1.7275259981928033e+18,-0.05390578880906105,0.07635711878538132,-10.303775787353516
1.7275259981988035e+18,0.011712227016687393,0.025141138583421707,-10.233258247375488
1.7275259982018035e+18,-0.035920437425374985,-0.06398563832044601,-10.249406814575195
1.7275259982078036e+18,0.061265021562576294,-0.044285863637924194,-10.15386962890625
1.7275259982138038e+18,0.027163129299879074,0.019510716199874878,-10.24805736541748
1.727525998219804e+18,-0.038193229585886,0.0028725434094667435,-10.331178665161133
1.727525998222804e+18,0.00977522786706686,0.0440090037882328,-10.232803344726562
1.727525998228804e+18,0.014977147802710533,0.024880224838852882,-10.290678977966309
1.7275259982348042e+18,0.03589623048901558,-0.002051621675491333,-10.206674575805664
1.7275259982408044e+18,0.026923080906271935,0.04861649125814438,-10.248234748840332
1.7275259982438044e+18,0.0374850332736969,0.03284229338169098,-10.238587379455566
1.7275259982498045e+18,-0.00039750896394252777,-0.009226752445101738,-10.307414054870605
1.7275259982558047e+18,-0.0025787996128201485,0.0164636317640543,-10.255023956298828
1.7275259982618048e+18,-0.04310651868581772,-0.007775276433676481,-10.275856018066406
1.7275259982648049e+18,-0.0046198307536542416,0.028818698599934578,-10.266764640808105
1.727525998270805e+18,-0.013293571770191193,-0.061353884637355804,-10.167495727539062
1.727525998276805e+18,-0.022628476843237877,0.0005344680976122618,-10.24172306060791
1.7275259982828052e+18,0.015340037643909454,0.0067561836913228035,-10.242334365844727
1.7275259982858053e+18,-0.04924618452787399,0.02278115227818489,-10.294337272644043
1.7275259982918054e+18,-0.008430679328739643,-0.03497379273176193,-10.277929306030273
1.7275259982978056e+18,0.04744327813386917,-0.0187484472990036,-10.233455657958984
1.7275259983038057e+18,-0.0500679537653923,0.009229917079210281,-10.132789611816406
1.7275259983068058e+18,-0.044585391879081726,-0.01601519249379635,-10.192510604858398
1.727525998312806e+18,0.007031384389847517,0.05818276107311249,-10.229473114013672
1.727525998318806e+18,-0.022548245266079903,0.02923225797712803,-10.209078788757324
1.7275259983248061e+18,-0.032352108508348465,0.04058695584535599,-10.15054988861084
1.7275259983308063e+18,-0.047486819326877594,0.005846838466823101,-10.2664155960083
1.7275259983338063e+18,-0.05996822193264961,-0.020640060305595398,-10.207615852355957
1.7275259983398065e+18,0.07804833352565765,0.03672325983643532,-10.212051391601562
1.7275259983458066e+18,0.01988164521753788,0.023581452667713165,-10.2152681350708
1.7275259983488067e+18,-0.08477918803691864,0.03144529461860657,-10.27685260772705
1.7275259983548068e+18,-0.09031430631875992,0.0006005421746522188,-10.266759872436523
1.727525998360807e+18,0.07513713836669922,0.018259264528751373,-10.251317024230957
1.727525998366807e+18,0.06533204764127731,0.019144412130117416,-10.261802673339844
1.7275259983728072e+18,0.047287750989198685,-0.005957231856882572,-10.280191421508789
1.7275259983758072e+18,-0.043113332241773605,-0.03395574912428856,-10.287458419799805
1.7275259983818074e+18,-0.057705607265233994,0.02442055381834507,-10.298370361328125
1.7275259983878075e+18,-0.04845404252409935,0.04449034109711647,-10.248764038085938
1.7275259983938076e+18,-0.02876700460910797,0.03420866280794144,-10.2399320602417
1.7275259983968077e+18,0.03339690715074539,0.024294458329677582,-10.250402450561523
1.7275259984028078e+18,0.002820969559252262,-0.06124534830451012,-10.20351505279541
1.727525998408808e+18,-0.06164819002151489,-0.07766224443912506,-10.235810279846191
1.727525998414808e+18,0.08895644545555115,0.06811303645372391,-10.275482177734375
1.7275259984208082e+18,-0.040065158158540726,0.0010399698512628675,-10.214579582214355
1.7275259984298084e+18,0.03842373192310333,-0.06480040401220322,-10.271260261535645
1.7275259984358085e+18,-0.06144583225250244,0.009721027687191963,-10.211358070373535
1.7275259984388086e+18,-0.002140191849321127,0.040618401020765305,-10.233492851257324
1.7275259984448087e+18,0.01801156997680664,-0.02635915018618107,-10.17573070526123
1.7275259984508088e+18,0.007492140866816044,0.06208505108952522,-10.146384239196777
1.727525998456809e+18,-0.007199892774224281,0.0035977037623524666,-10.29885482788086
1.727525998462809e+18,0.007800000719726086,0.020510654896497726,-10.200462341308594
1.7275259984688092e+18,0.07211185246706009,0.0374705009162426,-10.200823783874512
1.7275259984718093e+18,-0.11886558681726456,0.05467179790139198,-10.156691551208496
1.7275259984778094e+18,-0.028309550136327744,-0.04637908190488815,-10.244407653808594
1.7275259984838095e+18,-0.0630110576748848,-0.005888242740184069,-10.187634468078613
1.7275259984898097e+18,0.024355772882699966,0.04233662411570549,-10.221663475036621
1.7275259984928097e+18,-0.09459861367940903,-0.04130345955491066,-10.227554321289062
1.7275259984988099e+18,0.0019987300038337708,-0.023412512615323067,-10.17822265625
1.72752599850481e+18,0.004677910357713699,-0.016979685053229332,-10.213393211364746
1.72752599851081e+18,0.004862557630985975,0.028310783207416534,-10.146146774291992
1.7275259985168102e+18,-0.01133479829877615,0.026001255959272385,-10.17347240447998
1.7275259985198103e+18,0.0030937721021473408,0.0020546987652778625,-10.156188011169434
1.7275259985258104e+18,0.0003970604739151895,-0.008271257393062115,-10.21550178527832
1.7275259985318106e+18,-0.025823326781392097,0.02505478821694851,-10.27170467376709
1.7275259985378107e+18,-0.04876759275794029,0.011095276102423668,-10.157831192016602
1.7275259985408108e+18,-0.07900950312614441,-0.06540051102638245,-10.25586223602295
1.727525998546811e+18,0.030094880610704422,-0.013733919709920883,-10.225948333740234
1.727525998552811e+18,-0.03814542666077614,-0.0364067405462265,-10.239632606506348
1.7275259985588111e+18,-0.04124140366911888,-0.043115824460983276,-10.124584197998047
1.7275259985648113e+18,0.03146045655012131,0.008356450125575066,-10.247885704040527
1.7275259985678113e+18,-0.07010944187641144,-0.014757828786969185,-10.161038398742676
1.7275259985738115e+18,-0.01379428431391716,0.0029446929693222046,-10.131669998168945
1.7275259985798116e+18,0.06429146975278854,0.01597864367067814,-10.25845718383789
1.7275259985858117e+18,0.005694314371794462,-0.022114504128694534,-10.18116569519043
1.7275259985918118e+18,-0.017354777082800865,-0.026260454207658768,-10.232069969177246
1.727525998594812e+18,0.018400846049189568,-0.012887317687273026,-10.191119194030762
1.727525998600812e+18,0.03188446909189224,-0.00714779132977128,-10.184341430664062
1.7275259986068122e+18,0.01529383659362793,0.02872951328754425,-10.171585083007812
1.7275259986128123e+18,0.007452048361301422,0.05068522319197655,-10.224140167236328
1.7275259986158124e+18,0.03374914824962616,0.06963982433080673,-10.19057559967041
1.7275259986218125e+18,0.007678165566176176,0.01570834591984749,-10.110700607299805
1.7275259986278126e+18,0.08789311349391937,-0.025644510984420776,-10.111536026000977
1.7275259986338127e+18,0.007459585089236498,-0.020008284598588943,-10.211491584777832
1.7275259986398129e+18,0.028494589030742645,-0.024173825979232788,-10.27130126953125
1.727525998645813e+18,0.006772328168153763,-0.06079035624861717,-10.155052185058594
1.727525998651813e+18,-0.03627616539597511,0.0355311781167984,-10.137738227844238
1.7275259986548132e+18,-0.01755002699792385,0.009393258020281792,-10.186086654663086
1.7275259986608133e+18,-0.06849177181720734,0.05222422629594803,-10.213189125061035
1.7275259986668134e+18,0.053056392818689346,0.05219554528594017,-10.212221145629883
1.7275259986698135e+18,-0.012552415020763874,0.04332103580236435,-10.248796463012695
1.7275259986758136e+18,0.054962143301963806,0.02085048332810402,-10.292296409606934
1.7275259986818138e+18,0.0025728580076247454,-0.041289061307907104,-10.208419799804688
1.727525998687814e+18,-0.02360629290342331,-0.04149806499481201,-10.20693588256836
1.727525998693814e+18,0.014726665802299976,-0.010792291723191738,-10.129939079284668
1.727525998696814e+18,0.037002529948949814,0.03086582012474537,-10.184135437011719
1.7275259987028142e+18,-0.0100228451192379,-0.023562679067254066,-10.176884651184082
1.7275259987088143e+18,-0.05211104825139046,0.0033904770389199257,-10.23085880279541
1.7275259987148145e+18,-0.05788643658161163,0.022322367876768112,-10.165765762329102
1.7275259987178145e+18,-0.08396205306053162,-0.00819705706089735,-10.168679237365723
1.7275259987238147e+18,-0.0013640992110595107,-0.05050240829586983,-10.278045654296875
1.7275259987298148e+18,-0.07241956889629364,-0.08561644703149796,-10.154842376708984
1.727525998735815e+18,0.005582733545452356,-0.13958223164081573,-10.11953353881836
1.727525998738815e+18,-0.012113121338188648,-0.009004435501992702,-10.163777351379395
1.727525998744815e+18,-0.00858047790825367,0.007989468984305859,-10.23932933807373
1.7275259987508152e+18,0.025409702211618423,0.03651769459247589,-10.174575805664062
1.7275259987568154e+18,-0.07336687296628952,-0.040498510003089905,-10.175765991210938
1.7275259987598154e+18,0.08271238207817078,0.007493593730032444,-10.171124458312988
1.7275259987658156e+18,0.048775993287563324,-0.07775821536779404,-10.184711456298828
1.7275259987718157e+18,-0.03960593044757843,0.04016736149787903,-10.193952560424805
1.7275259987778158e+18,-0.011953331530094147,0.058562587946653366,-10.23001766204834
1.727525998780816e+18,0.004727661609649658,0.008711554110050201,-10.160439491271973
1.727525998786816e+18,-0.024895379319787025,0.04727941006422043,-10.208794593811035
1.727525998792816e+18,-0.04863136634230614,0.043876297771930695,-10.158023834228516
1.7275259987958162e+18,0.037686169147491455,0.011045174673199654,-10.237539291381836
1.7275259988018163e+18,-0.04862304776906967,0.0006723478436470032,-10.153883934020996
1.7275259988078164e+18,0.04254643991589546,-9.100278839468956e-05,-10.149349212646484
1.7275259988138166e+18,-0.05840113013982773,0.004375648219138384,-10.190690040588379
1.7275259988198167e+18,-0.01064129825681448,-0.04363233223557472,-10.202554702758789
1.7275259988228168e+18,-0.0020898303482681513,-0.02457163855433464,-10.2081937789917
1.727525998828817e+18,0.03919823095202446,-0.008817944675683975,-10.265074729919434
1.727525998834817e+18,-0.020308371633291245,0.0016941109206527472,-10.212076187133789
1.7275259988408172e+18,-0.022307049483060837,-0.025184903293848038,-10.187119483947754
1.7275259988438172e+18,-0.011647879146039486,-0.008496948517858982,-10.220743179321289
1.7275259988498173e+18,-0.09148475527763367,0.06849010288715363,-10.220935821533203
1.7275259988558175e+18,-0.036666080355644226,0.01924363523721695,-10.128085136413574
1.7275259988618176e+18,-0.054402031004428864,-0.006814226508140564,-10.179537773132324
1.7275259988648177e+18,-0.0583823025226593,0.043905749917030334,-10.139249801635742
1.7275259988708178e+18,-0.006250277161598206,-0.06335215270519257,-10.166923522949219
1.727525998876818e+18,-0.04982307553291321,0.07485750317573547,-10.238615989685059
1.727525998879818e+18,0.013075451366603374,-0.04157380759716034,-10.218820571899414
1.727525998885818e+18,-0.11164527386426926,-0.039515815675258636,-10.174737930297852
1.7275259988918182e+18,-0.05495604872703552,-0.018394242972135544,-10.125404357910156
1.7275259988978184e+18,-0.08079209178686142,-0.018469899892807007,-10.187729835510254
1.7275259989038185e+18,0.035248640924692154,0.030870284885168076,-10.126255989074707
1.7275259989098186e+18,0.0025878609158098698,0.05967438966035843,-10.219853401184082
1.7275259989128187e+18,0.005756847560405731,-0.006765745114535093,-10.209595680236816
1.7275259989188188e+18,-0.031187336891889572,0.03145905211567879,-10.247241020202637
1.727525998924819e+18,-0.022320076823234558,-0.007919371128082275,-10.18690013885498
1.727525998930819e+18,-0.0439392551779747,0.0041556041687726974,-10.185272216796875
1.7275259989338191e+18,-0.008652609772980213,-0.040212713181972504,-10.116172790527344
1.7275259989398193e+18,-0.008498802781105042,-0.035332273691892624,-10.162795066833496
1.7275259989458194e+18,0.00492325983941555,0.018672797828912735,-10.147631645202637
1.7275259989518195e+18,-0.05430484563112259,0.009624898433685303,-10.16502571105957
1.7275259989578196e+18,-0.006570478901267052,-0.11968446522951126,-10.19190788269043
1.7275259989608197e+18,0.07550704479217529,0.04397573694586754,-10.161027908325195
1.7275259989668198e+18,-0.016974862664937973,-0.02010667324066162,-10.181116104125977
1.72752599897282e+18,-0.031981583684682846,0.014966722577810287,-10.216652870178223
1.72752599897882e+18,0.02081247791647911,-0.014922184869647026,-10.302605628967285
1.7275259989848202e+18,0.005802918691188097,0.006818806752562523,-10.169805526733398
1.7275259989878203e+18,0.002467587823048234,-0.0050140805542469025,-10.181511878967285
1.7275259989938204e+18,-0.061009977012872696,-0.08345124125480652,-10.206663131713867
1.7275259989998205e+18,0.04308256506919861,-0.03890372812747955,-10.059412002563477
1.7275259990058207e+18,0.009534613229334354,-0.017984358593821526,-10.140193939208984
1.7275259990088207e+18,-0.02315785177052021,-0.0013350250665098429,-10.251131057739258
1.7275259990148209e+18,0.01083587110042572,0.04377172887325287,-10.182137489318848
1.727525999020821e+18,0.03646082803606987,0.00799707043915987,-10.256818771362305
1.727525999023821e+18,0.010981207713484764,0.02672727406024933,-10.148384094238281
1.7275259990298212e+18,0.05918896570801735,0.015281767584383488,-10.146349906921387
1.7275259990358213e+18,-0.084199920296669,0.04689402133226395,-10.173346519470215
1.7275259990418214e+18,0.035521820187568665,-0.005980899091809988,-10.188323020935059
1.7275259990448215e+18,-0.07228919863700867,-0.08201293647289276,-10.17446231842041
1.7275259990508216e+18,-0.008386045694351196,0.04384171962738037,-10.125528335571289
1.7275259990568218e+18,0.022242190316319466,0.010916294530034065,-10.17147445678711
1.727525999062822e+18,0.003921665251255035,0.05462489277124405,-10.124896049499512
1.727525999068822e+18,-0.012795175425708294,0.014285532757639885,-10.262763977050781
1.727525999071822e+18,-0.018667249009013176,-0.005286431405693293,-10.090592384338379
1.7275259990778222e+18,-0.052242591977119446,0.0659598559141159,-10.105224609375
1.7275259990838223e+18,-0.0003182468644808978,-0.1046476662158966,-10.170361518859863
1.7275259990898225e+18,-0.07429835200309753,-0.11692027747631073,-10.183061599731445
1.7275259990928225e+18,-0.023473728448152542,0.024440664798021317,-10.131634712219238
1.7275259990988227e+18,-0.004767343867570162,0.02948985993862152,-10.12283706665039
1.7275259991048228e+18,0.014358637854456902,0.0010499157942831516,-10.158781051635742
1.727525999110823e+18,0.0021352607291191816,-0.039380818605422974,-10.146982192993164
1.727525999113823e+18,-0.018519626930356026,0.00915425457060337,-10.165846824645996
1.727525999119823e+18,-0.004150549881160259,-0.023815108463168144,-10.117472648620605
1.7275259991258232e+18,-0.023095300421118736,-0.027617327868938446,-10.158685684204102
1.7275259991318234e+18,0.000978168100118637,0.042418524622917175,-10.145124435424805
1.7275259991348234e+18,-0.02820999175310135,-0.030154960229992867,-10.09688949584961
1.7275259991408236e+18,-0.026325995102524757,0.004579599015414715,-10.092046737670898
1.7275259991468237e+18,-0.03735700249671936,-0.046145860105752945,-10.151423454284668
1.7275259991528238e+18,-0.024497658014297485,-0.0038323570042848587,-10.08653450012207
1.7275259991558239e+18,0.014787505380809307,0.03874778002500534,-10.156691551208496
1.727525999161824e+18,-0.013273574411869049,0.029139617457985878,-10.104432106018066
1.7275259991678241e+18,-0.08361634612083435,-0.01221327856183052,-10.113091468811035
1.7275259991738243e+18,0.014805814251303673,-0.0452456921339035,-10.17475414276123
1.7275259991768243e+18,-0.011829325929284096,-0.06841468811035156,-10.089627265930176
1.7275259991828244e+18,-0.054665304720401764,-0.05328371375799179,-10.144598960876465
1.7275259991888246e+18,-0.001971288351342082,0.02560955286026001,-10.069278717041016
1.7275259991948247e+18,0.009166126139461994,0.0331113263964653,-10.132558822631836
1.7275259992008248e+18,-0.010866623371839523,-0.032226864248514175,-10.109225273132324
1.727525999203825e+18,0.0679439902305603,0.05664363503456116,-10.139057159423828
1.727525999209825e+18,0.032636143267154694,0.031539857387542725,-10.058160781860352
1.7275259992158252e+18,0.0012283140094950795,0.04297211021184921,-10.123087882995605
1.7275259992218253e+18,-0.01925589144229889,0.06344772130250931,-10.124771118164062
1.7275259992248253e+18,0.029126504436135292,0.014605890028178692,-10.048357009887695
1.7275259992308255e+18,0.01744348555803299,0.011809339746832848,-10.132023811340332
1.7275259992368256e+18,-0.0028575740288943052,0.008929610252380371,-10.077154159545898
1.7275259992428257e+18,-0.009036041796207428,0.002239200286567211,-10.133363723754883
1.7275259992488259e+18,0.07736558467149734,0.007793373428285122,-10.109430313110352
1.727525999254826e+18,-0.008686256594955921,0.05958184972405434,-10.070073127746582
1.727525999257826e+18,-0.01656176522374153,0.02865784987807274,-10.111577033996582
1.7275259992638262e+18,0.006292060483247042,-0.05010182037949562,-10.115670204162598
1.7275259992698263e+18,-0.01918686181306839,-0.015433227643370628,-10.035809516906738
1.7275259992728264e+18,0.07380244135856628,0.03889443725347519,-10.08582878112793
1.7275259992788265e+18,-0.02915835939347744,0.08428256958723068,-10.126016616821289
1.7275259992848266e+18,0.008693519048392773,0.017678305506706238,-10.072872161865234
1.7275259992878267e+18,0.038374438881874084,-0.03062937594950199,-10.11152172088623
1.7275259992938268e+18,-0.0999671220779419,0.01624343916773796,-10.092249870300293
1.727525999299827e+18,0.1040482223033905,0.007162385154515505,-10.096193313598633
1.727525999305827e+18,-0.0035159119870513678,0.010751860216259956,-10.168810844421387
1.7275259993088271e+18,-0.010405616834759712,-0.08235253393650055,-10.186548233032227
1.7275259993148273e+18,0.03616377338767052,0.016522089019417763,-10.148662567138672
1.7275259993208274e+18,-0.08339688181877136,0.0039010904729366302,-10.020563125610352
1.7275259993268275e+18,-0.007202346809208393,-0.003910953179001808,-10.039430618286133
1.7275259993328276e+18,-0.029615696519613266,-0.034760698676109314,-10.063302993774414
1.7275259993358277e+18,-0.03468915820121765,0.07641831040382385,-10.089082717895508
1.7275259993418278e+18,0.05233928933739662,-0.04139900952577591,-10.10091495513916
1.727525999347828e+18,-0.05379163846373558,-0.020764507353305817,-10.13250732421875
1.727525999353828e+18,0.024774953722953796,0.015619631856679916,-10.144465446472168
1.7275259993598282e+18,0.025839656591415405,0.022273190319538116,-10.059942245483398
1.7275259993658284e+18,0.01391180045902729,0.04696798324584961,-10.07839298248291
1.7275259993718285e+18,-0.03564856946468353,0.08317424356937408,-10.12363052368164
1.7275259993778286e+18,0.023225300014019012,0.005718151573091745,-10.147199630737305
1.7275259993838287e+18,-0.036254510283470154,0.026610447093844414,-10.060178756713867
1.7275259993898289e+18,0.053234703838825226,0.02066659741103649,-10.104241371154785
1.727525999395829e+18,0.02640959434211254,0.046207770705223083,-10.072653770446777
1.727525999401829e+18,0.0428769625723362,0.09229214489459991,-10.04033374786377
1.7275259994078292e+18,0.011996554210782051,-0.036010175943374634,-10.13181209564209
1.7275259994138294e+18,0.06625840812921524,-0.0053497012704610825,-10.077681541442871
1.7275259994198295e+18,-0.01711144670844078,0.015472781844437122,-10.088906288146973
1.7275259994258296e+18,0.00553008820861578,0.04292088747024536,-10.076712608337402
1.7275259994318298e+18,-0.0014419122599065304,-0.047547437250614166,-10.128777503967285
1.7275259994348298e+18,0.06864211708307266,-0.06687091290950775,-10.047881126403809
1.72752599944083e+18,-0.015316392295062542,-0.01627233624458313,-10.192438125610352
1.72752599944683e+18,0.131461039185524,-0.053589221090078354,-10.14938735961914
1.7275259994528302e+18,0.07052329927682877,-0.02155834436416626,-10.196330070495605
1.7275259994588303e+18,-0.01164684072136879,0.04173177108168602,-10.073299407958984
1.7275259994648305e+18,-0.06378813087940216,-0.008538173511624336,-10.06787109375
1.7275259994708306e+18,-0.10859992355108261,-0.03221038356423378,-10.138779640197754
1.7275259994768307e+18,0.023248936980962753,-0.031723860651254654,-10.054413795471191
1.7275259994828308e+18,-0.031387899070978165,-0.011695616878569126,-10.10322380065918
1.727525999488831e+18,-0.02654152177274227,-0.02728978358209133,-10.072044372558594
1.727525999494831e+18,0.04751376807689667,-0.058031730353832245,-10.061297416687012
1.7275259994978312e+18,-0.05813547223806381,-0.01686081476509571,-10.015280723571777
1.7275259995038313e+18,0.03216211125254631,-0.014724928885698318,-10.05122184753418
1.7275259995098314e+18,0.0002730984124355018,0.03201401233673096,-10.07950496673584
1.7275259995158316e+18,0.011237368918955326,-0.08877542614936829,-9.992382049560547
1.7275259995218317e+18,-0.012881750240921974,0.04568355157971382,-10.09253215789795
1.7275259995278318e+18,-0.02254573628306389,-0.0320584774017334,-9.998438835144043
1.727525999533832e+18,-0.023986099287867546,0.0005715691950172186,-10.050074577331543
1.727525999539832e+18,0.021160416305065155,0.012307880446314812,-10.023310661315918
1.7275259995458322e+18,0.02999807894229889,0.009784266352653503,-10.070381164550781
1.7275259995518323e+18,-0.0005900324904359877,0.0810040608048439,-10.05320930480957
1.7275259995548324e+18,0.015929486602544785,0.055359188467264175,-10.056448936462402
1.7275259995608325e+18,-0.025741569697856903,-0.06868137419223785,-10.062273025512695
1.7275259995668326e+18,0.09125300496816635,-0.021298203617334366,-10.102587699890137
1.7275259995728328e+18,-0.01975449174642563,-0.0006980322068557143,-10.055038452148438
1.727525999578833e+18,0.027828682214021683,0.07123082131147385,-10.085052490234375
1.727525999584833e+18,-0.017681710422039032,0.035253237932920456,-10.043354034423828
1.727525999587833e+18,-0.027397241443395615,0.04316869378089905,-10.040169715881348
1.7275259995938332e+18,0.021023614332079887,-0.01790771260857582,-10.067341804504395
1.7275259995998333e+18,0.04699360206723213,-0.009779417887330055,-10.045283317565918
1.7275259996058335e+18,0.048546768724918365,-0.026029089465737343,-10.03082275390625
1.7275259996088335e+18,-0.03961225226521492,0.09451108425855637,-10.062395095825195
1.7275259996148337e+18,0.0200490765273571,-0.04756300523877144,-10.056245803833008
1.7275259996208338e+18,-0.03521813824772835,-0.06272992491722107,-10.083152770996094
1.727525999626834e+18,-0.028603624552488327,-0.05807994678616524,-9.980866432189941
1.727525999632834e+18,0.027292747050523758,-0.007676704786717892,-10.074381828308105
1.727525999635834e+18,-0.0368310771882534,-0.04398667439818382,-9.903017044067383
1.7275259996418342e+18,-0.04936765506863594,-0.10586375743150711,-9.985756874084473
1.7275259996478344e+18,0.0521516278386116,-0.01496175304055214,-10.111618995666504
1.7275259996538345e+18,0.035462237894535065,-0.07950203120708466,-10.103105545043945
1.7275259996598346e+18,-0.021074149757623672,-0.04035249352455139,-10.071053504943848
1.7275259996628347e+18,0.024241000413894653,-0.04377460852265358,-10.022743225097656
1.7275259996688348e+18,-0.022205112501978874,0.03381600230932236,-10.109879493713379
1.727525999674835e+18,0.035639308393001556,0.04978177323937416,-10.083440780639648
1.727525999677835e+18,0.009777194820344448,-0.05176927149295807,-10.019124984741211
1.7275259996838351e+18,0.05777209252119064,0.009208252653479576,-10.124565124511719
1.7275259996898353e+18,0.05889659374952316,0.0751257836818695,-10.049871444702148
1.7275259996928353e+18,-0.014069827273488045,-0.0007364910561591387,-10.062686920166016
1.7275259996988355e+18,0.12339665740728378,-0.04036684334278107,-10.032666206359863
1.7275259997048356e+18,0.024798277765512466,-0.00869891606271267,-10.023247718811035
1.7275259997108357e+18,-0.05178787559270859,-0.008699875324964523,-9.99106216430664
1.7275259997168358e+18,-0.00961415097117424,0.005377345718443394,-10.140007972717285
1.727525999719836e+18,-0.031360939145088196,0.014515725895762444,-9.988207817077637
1.727525999725836e+18,0.06983264535665512,-0.013258520513772964,-9.973885536193848
1.7275259997318362e+18,-0.017314769327640533,-0.017347518354654312,-10.079826354980469
1.7275259997378363e+18,-0.01265817228704691,-0.01608998328447342,-10.043506622314453
1.7275259997438364e+18,-0.0675964504480362,-0.06659121811389923,-10.04483413696289
1.7275259997468365e+18,0.012940519489347935,0.0845637321472168,-10.014083862304688
1.7275259997528366e+18,0.005858397576957941,0.06969809532165527,-10.075826644897461
1.7275259997588367e+18,-0.027067184448242188,-0.0012575611472129822,-10.065702438354492
1.7275259997648369e+18,0.045692265033721924,-0.019451681524515152,-9.988182067871094
1.727525999770837e+18,-0.00988507829606533,0.027585983276367188,-10.071708679199219
1.727525999773837e+18,0.06732398271560669,-0.029584374278783798,-9.979195594787598
1.7275259997798372e+18,0.03962787985801697,-0.0778820589184761,-10.049513816833496
1.7275259997858373e+18,-0.02256832644343376,0.03212979435920715,-10.022085189819336
1.7275259997918374e+18,-0.029281795024871826,-0.0006324675632640719,-10.032604217529297
1.7275259997978376e+18,-0.015500269830226898,-0.04175746440887451,-10.068037033081055
1.7275259998038377e+18,0.10778019577264786,-0.04999749734997749,-9.988839149475098
1.7275259998068378e+18,0.0281333290040493,0.02801607921719551,-9.991809844970703
1.727525999812838e+18,-0.03606591001152992,-0.12800326943397522,-9.91242504119873
1.727525999818838e+18,-0.006196791771799326,0.027049750089645386,-10.093542098999023
1.7275259998248381e+18,-0.009924717247486115,0.025270992890000343,-10.033117294311523
1.7275259998308383e+18,-0.012439320795238018,-0.019929280504584312,-9.988602638244629
1.7275259998368384e+18,0.003710031509399414,0.010490999557077885,-9.989910125732422
1.7275259998428385e+18,0.008689199574291706,0.013628661632537842,-9.935378074645996
1.7275259998488387e+18,0.06853917986154556,-0.09667392820119858,-10.06381607055664
1.7275259998548388e+18,-0.029169132933020592,0.03947754204273224,-10.008918762207031
1.727525999860839e+18,0.021150335669517517,0.02229217067360878,-10.033461570739746
1.727525999866839e+18,0.0006527916993945837,0.02410605177283287,-10.0969877243042
1.7275259998728392e+18,-0.019914701581001282,-0.03913097083568573,-10.008968353271484
1.7275259998788393e+18,0.01313258707523346,-0.005880280863493681,-9.99522590637207
1.7275259998848394e+18,-0.06254400312900543,0.07857027649879456,-9.969785690307617
1.7275259998908396e+18,-0.036402612924575806,-0.04047767072916031,-9.92890453338623
1.7275259998938396e+18,-0.031982507556676865,0.05706831067800522,-9.968461990356445
1.7275259998998397e+18,0.010054918937385082,-0.03575315698981285,-9.977021217346191
