timestamp,accel_x,accel_y,accel_z
1.7275290267746399e+18,-0.04570559039711952,0.06573604047298431,-9.858763694763184
1.72752902678364e+18,-0.06854695081710815,0.009072734974324703,-9.806207656860352
1.7275290267896402e+18,-0.025433920323848724,-0.05319904163479805,-9.846195220947266
1.7275290267956403e+18,-0.05430545285344124,-0.05462219938635826,-9.814401626586914
1.7275290268016404e+18,0.054452646523714066,-0.006764010060578585,-9.832868576049805
1.7275290268046405e+18,-0.027875812724232674,-0.011013741604983807,-9.893216133117676
1.7275290268106406e+18,0.0697062611579895,0.0579315684735775,-9.817893981933594
1.7275290268166408e+18,0.06823801249265671,5.4759042541263625e-05,-9.7744779586792
1.727529026822641e+18,0.008023510687053204,0.04054415971040726,-9.841363906860352
1.727529026828641e+18,0.012525979429483414,0.0682600811123848,-9.78014087677002
1.727529026831641e+18,-0.0938500165939331,0.034740325063467026,-9.802621841430664
1.7275290268376412e+18,0.02180694229900837,0.0282395388931036,-9.833634376525879
1.7275290268436413e+18,0.08138982951641083,0.023840581998229027,-9.745498657226562
1.7275290268496415e+18,0.04394180700182915,0.017927682027220726,-9.79311466217041
1.7275290268556416e+18,-0.05568581447005272,-0.031230498105287552,-9.801669120788574
1.7275290268616417e+18,-0.09244605153799057,-0.020121943205595016,-9.81711483001709
1.7275290268646418e+18,-0.03984692692756653,0.03284676373004913,-9.830768585205078
1.727529026870642e+18,0.052881937474012375,0.01787170208990574,-9.803077697753906
1.727529026876642e+18,-0.015758700668811798,-0.026599766686558723,-9.837594032287598
1.7275290268826422e+18,-0.018913405016064644,0.035403963178396225,-9.86472225189209
1.7275290268856422e+18,0.027216285467147827,0.06406671553850174,-9.782105445861816
1.7275290268916424e+18,-0.057169802486896515,-0.004890095442533493,-9.832561492919922
1.7275290268976425e+18,0.028476642444729805,-0.04609532654285431,-9.828990936279297
1.7275290269036426e+18,-0.02494923025369644,0.09956935048103333,-9.833395957946777
1.7275290269096428e+18,-0.031010758131742477,0.009921212680637836,-9.864110946655273
1.727529026915643e+18,0.040594469755887985,-0.00024268597189802676,-9.851509094238281
1.727529026921643e+18,0.0036260047927498817,0.0873524472117424,-9.838079452514648
1.7275290269276431e+18,0.022438203915953636,0.02315065823495388,-9.850544929504395
1.7275290269306432e+18,-0.04135267436504364,-0.040336836129426956,-9.753222465515137
1.7275290269366433e+18,-0.054411016404628754,0.012976942583918571,-9.902018547058105
1.7275290269426435e+18,-0.011904308572411537,0.07357142120599747,-9.823657989501953
1.7275290269486436e+18,-0.08423120528459549,-0.02738158404827118,-9.882067680358887
1.7275290269546437e+18,-0.005869721528142691,-0.05167968571186066,-9.802117347717285
1.7275290269606438e+18,0.06847672164440155,-0.01517352182418108,-9.789039611816406
1.727529026966644e+18,-0.005129816010594368,0.04901151731610298,-9.8903169631958
1.727529026969644e+18,0.03092849813401699,0.0037197365891188383,-9.785762786865234
1.7275290269756442e+18,-0.0066387527622282505,0.0007327934727072716,-9.769938468933105
1.7275290269816443e+18,0.009322978556156158,0.010791860520839691,-9.865484237670898
1.7275290269876444e+18,0.024896280840039253,0.0612640306353569,-9.797735214233398
1.7275290269906445e+18,-0.031897179782390594,0.031110456213355064,-9.769831657409668
1.7275290269966446e+18,-0.012723559513688087,-0.043551042675971985,-9.775042533874512
1.7275290270026447e+18,-0.025725649669766426,-0.14052562415599823,-9.795777320861816
1.7275290270086449e+18,0.031930021941661835,0.0025762170553207397,-9.870895385742188
1.727529027014645e+18,0.032544758170843124,0.008251100778579712,-9.776113510131836
1.727529027017645e+18,0.04113755375146866,-0.057174794375896454,-9.749058723449707
1.7275290270236452e+18,0.029208369553089142,0.00038246193435043097,-9.784673690795898
1.7275290270296453e+18,-0.03962228447198868,-0.07029049098491669,-9.797954559326172
1.7275290270326454e+18,-0.006591226439923048,-0.012717553414404392,-9.852399826049805
1.7275290270386455e+18,-0.021022042259573936,0.008013801649212837,-9.804388046264648
1.7275290270446456e+18,-0.02064448595046997,0.016173815354704857,-9.777576446533203
1.7275290270506458e+18,-0.0038071726448833942,0.03538180887699127,-9.828042030334473
1.7275290270536458e+18,-0.09053243696689606,0.029662054032087326,-9.787363052368164
1.727529027059646e+18,-0.013115841895341873,-0.03396071493625641,-9.845447540283203
1.727529027065646e+18,-0.04868312180042267,-0.015870945528149605,-9.843425750732422
1.7275290270716462e+18,0.07351143658161163,-0.012819475494325161,-9.788055419921875
1.7275290270746463e+18,0.03344122692942619,-0.03382697328925133,-9.75461483001709
1.7275290270806464e+18,-0.06842286884784698,-0.009210188873112202,-9.815152168273926
1.7275290270866465e+18,-0.04556654393672943,0.10319030284881592,-9.684896469116211
1.7275290270896466e+18,0.04481601342558861,-0.057093001902103424,-9.76657485961914
1.7275290270956467e+18,-0.08802099525928497,-0.017714591696858406,-9.824342727661133
1.7275290271016468e+18,-0.024024730548262596,-0.00046053723781369627,-9.797410011291504
1.727529027107647e+18,-0.07674568891525269,0.027383912354707718,-9.793465614318848
1.727529027110647e+18,-0.035295452922582626,0.023189105093479156,-9.798118591308594
1.7275290271166472e+18,-0.04632340371608734,-0.06079445406794548,-9.819640159606934
1.7275290271226473e+18,0.011025921441614628,0.006595383398234844,-9.7147855758667
1.7275290271256474e+18,-0.007963299751281738,-0.010456717573106289,-9.801238059997559
1.7275290271316475e+18,-0.02035975456237793,0.027961362153291702,-9.77625846862793
1.7275290271376476e+18,0.05513588711619377,-0.02008591778576374,-9.783538818359375
1.7275290271406477e+18,-0.03909729793667793,-0.020583519712090492,-9.817791938781738
1.7275290271466478e+18,0.03982323780655861,-0.023844750598073006,-9.724218368530273
1.727529027152648e+18,-0.02475331537425518,0.03935691714286804,-9.80021858215332
1.727529027155648e+18,-0.019601523876190186,-0.008432657457888126,-9.777324676513672
1.727529027161648e+18,-0.04040975123643875,-0.012850946746766567,-9.844765663146973
1.7275290271676483e+18,-0.029541365802288055,-0.0948072299361229,-9.817156791687012
1.7275290271736484e+18,0.06249617412686348,0.057500094175338745,-9.823003768920898
1.7275290271766484e+18,-0.03435380384325981,-0.012211325578391552,-9.782415390014648
1.7275290271826486e+18,0.00789546500891447,-0.014684867113828659,-9.771133422851562
1.7275290271886487e+18,0.04116314277052879,-0.059262465685606,-9.812752723693848
1.7275290271946488e+18,-0.025286134332418442,0.02087235264480114,-9.801793098449707
1.727529027197649e+18,0.04176172614097595,0.009642773307859898,-9.778276443481445
1.727529027203649e+18,0.022412877529859543,0.038581423461437225,-9.789359092712402
1.7275290272096492e+18,0.013308467343449593,-0.0543392114341259,-9.750567436218262
1.7275290272126492e+18,0.04863212630152702,0.013901199214160442,-9.798927307128906
1.7275290272186493e+18,-0.007472390308976173,0.015556556172668934,-9.745620727539062
1.7275290272246495e+18,0.01773364469408989,-0.04139630123972893,-9.815133094787598
1.7275290272306496e+18,-0.05111917853355408,0.0674111545085907,-9.793137550354004
1.7275290272336497e+18,-0.015153138898313046,0.013415250927209854,-9.82365608215332
1.7275290272396498e+18,0.014889631420373917,0.0051760305650532246,-9.811569213867188
1.72752902724565e+18,-0.03036564588546753,-0.017133519053459167,-9.82048225402832
1.72752902725165e+18,0.04008613899350166,0.061831969767808914,-9.836729049682617
1.72752902725465e+18,-0.014037572778761387,-0.05927594006061554,-9.690519332885742
1.7275290272606502e+18,0.04667768254876137,0.016083557158708572,-9.7674560546875
1.7275290272666504e+18,0.08080114424228668,0.01740949973464012,-9.804025650024414
1.7275290272726505e+18,-0.029767395928502083,0.06428620964288712,-9.809405326843262
1.7275290272756506e+18,0.013765709474682808,-0.03218237683176994,-9.756711959838867
1.7275290272816507e+18,0.022838318720459938,-0.04557783156633377,-9.842479705810547
1.7275290272876508e+18,-0.006471802480518818,0.03624548763036728,-9.8507080078125
1.727529027290651e+18,-0.005729529075324535,-0.01498460490256548,-9.760214805603027
1.727529027296651e+18,-0.09081652015447617,0.009641244076192379,-9.79438304901123
1.7275290273026511e+18,-0.02790779434144497,-0.00456360075622797,-9.832581520080566
1.7275290273056512e+18,-0.03424282371997833,0.05265939608216286,-9.893624305725098
1.7275290273116513e+18,0.07876653969287872,0.05386314541101456,-9.774149894714355
1.7275290273176515e+18,-0.01479185651987791,-0.011572123505175114,-9.814045906066895
1.7275290273236516e+18,-0.014027301222085953,-0.007453633472323418,-9.809011459350586
1.7275290273266516e+18,0.056580010801553726,0.04531598463654518,-9.802212715148926
1.7275290273326518e+18,-0.03750356659293175,-0.0255165733397007,-9.78776741027832
1.727529027338652e+18,0.021263131871819496,0.021443568170070648,-9.826019287109375
1.727529027344652e+18,0.01863859035074711,-0.03235864266753197,-9.89543628692627
1.727529027347652e+18,0.0026949772145599127,-0.0532848946750164,-9.882040023803711
1.7275290273536522e+18,0.021969763562083244,0.05337412282824516,-9.804464340209961
1.7275290273596524e+18,0.01631239987909794,0.024735944345593452,-9.83253288269043
1.7275290273656525e+18,0.0193822979927063,-0.04530355706810951,-9.867677688598633
1.7275290273686525e+18,-0.044483624398708344,-0.04042989760637283,-9.902152061462402
1.7275290273746527e+18,0.027641115710139275,-0.024046625941991806,-9.772028923034668
1.7275290273806528e+18,0.0027765484992414713,-0.027354424819350243,-9.790031433105469
1.7275290273836529e+18,0.03150384873151779,0.006593943573534489,-9.802864074707031
1.727529027389653e+18,0.0003217168268747628,-0.02741430141031742,-9.800735473632812
1.727529027395653e+18,0.003400219604372978,-0.01935834251344204,-9.799129486083984
1.7275290274016532e+18,0.020088806748390198,-0.01590808294713497,-9.824610710144043
1.7275290274076534e+18,0.018411507830023766,0.04229835420846939,-9.832171440124512
1.7275290274106534e+18,0.04250973090529442,-0.01932273805141449,-9.802367210388184
1.7275290274166536e+18,0.007245266810059547,0.04938036575913429,-9.831515312194824
1.7275290274226537e+18,0.028264518827199936,0.03978297486901283,-9.788430213928223
1.7275290274286538e+18,-0.012496810406446457,0.018889576196670532,-9.854386329650879
1.727529027431654e+18,0.05691133439540863,-0.03571594879031181,-9.792098045349121
1.727529027437654e+18,-0.012650296092033386,0.04371822997927666,-9.779620170593262
1.7275290274436541e+18,-0.08219422399997711,-0.004827933385968208,-9.88071060180664
1.7275290274466542e+18,-0.021708890795707703,-0.0049207778647542,-9.74550724029541
1.7275290274526543e+18,-0.01887119933962822,-0.01786159537732601,-9.816656112670898
1.7275290274586545e+18,0.008669731207191944,-0.02234199456870556,-9.860259056091309
1.7275290274646546e+18,-0.008670611307024956,0.06520961970090866,-9.847772598266602
1.7275290274676547e+18,0.028805764392018318,-0.010608638636767864,-9.83657169342041
1.7275290274736548e+18,0.0189823005348444,-0.007743361871689558,-9.90700626373291
1.727529027479655e+18,-0.014565795660018921,0.04295856133103371,-9.815810203552246
1.727529027482655e+18,0.08324230462312698,-0.032992925494909286,-9.796321868896484
1.727529027488655e+18,-0.03613335266709328,-0.02282697893679142,-9.789305686950684
1.7275290274946552e+18,-0.016226930543780327,0.013323770835995674,-9.78836727142334
1.7275290274976553e+18,0.04213476553559303,-0.10702178627252579,-9.810250282287598
1.7275290275036554e+18,0.002075226977467537,-0.0007286636391654611,-9.710765838623047
1.7275290275096556e+18,0.035295866429805756,0.010882440023124218,-9.779011726379395
1.7275290275126556e+18,-0.009095551446080208,0.03142748028039932,-9.77287769317627
1.7275290275186557e+18,-0.0011693411506712437,-0.004226216580718756,-9.828544616699219
1.7275290275246559e+18,-0.008016512729227543,-0.035002682358026505,-9.812843322753906
1.727529027530656e+18,0.02760201133787632,0.051830168813467026,-9.818306922912598
1.727529027533656e+18,-0.03279591724276543,0.020568732172250748,-9.857611656188965
1.7275290275396562e+18,0.003361049573868513,0.02323434315621853,-9.879568099975586
1.7275290275456563e+18,0.048243917524814606,0.03968627750873566,-9.807061195373535
1.7275290275486564e+18,-0.027213066816329956,0.07978052645921707,-9.77908992767334
1.7275290275546565e+18,0.020596569404006004,-0.04731684550642967,-9.82677936553955
1.7275290275606566e+18,-0.014916769228875637,-0.07313759624958038,-9.866779327392578
1.7275290275636567e+18,-0.05372361093759537,-0.08222071081399918,-9.788065910339355
1.7275290275696568e+18,-0.07891134917736053,0.04774192348122597,-9.749330520629883
1.727529027575657e+18,-0.03274965658783913,-0.0025328819174319506,-9.818103790283203
1.727529027581657e+18,0.020339759066700935,-0.0032152181956917048,-9.75107479095459
1.7275290275846572e+18,-0.09587235748767853,-0.002045162720605731,-9.80541706085205
1.7275290275906573e+18,-0.003347694640979171,0.015493301674723625,-9.808859825134277
1.7275290275966574e+18,0.0028616765048354864,-0.043562617152929306,-9.778029441833496
1.7275290276026575e+18,-0.05653458088636398,-0.03676595538854599,-9.800509452819824
1.7275290276086577e+18,-0.02688298374414444,-0.046414218842983246,-9.8078031539917
1.7275290276116577e+18,0.01606368087232113,-0.0778358206152916,-9.854764938354492
1.7275290276176579e+18,-0.004018370993435383,-0.056515078991651535,-9.80908489227295
1.727529027623658e+18,0.010493066161870956,-0.017139384523034096,-9.760912895202637
1.727529027626658e+18,-0.06513547152280807,-0.022569796070456505,-9.736759185791016
1.7275290276326582e+18,0.010297958739101887,-0.015662023797631264,-9.777315139770508
1.7275290276386583e+18,0.03945675492286682,-0.039428967982530594,-9.749490737915039
1.7275290276446584e+18,-0.05075068026781082,0.001781606231816113,-9.84253215789795
1.7275290276476585e+18,0.05697553977370262,0.01765388809144497,-9.796663284301758
1.7275290276536586e+18,-0.03897688537836075,-0.047075387090444565,-9.82144546508789
1.7275290276596588e+18,0.0035317549481987953,-0.12875419855117798,-9.814260482788086
1.727529027665659e+18,-0.010452124290168285,-0.0014039294328540564,-9.86670207977295
1.727529027671659e+18,0.07356199622154236,0.03232060745358467,-9.82398509979248
1.727529027674659e+18,-0.026926271617412567,-0.004547551274299622,-9.833351135253906
1.7275290276806592e+18,-0.011615078896284103,0.0579293854534626,-9.822564125061035
1.7275290276866593e+18,-0.025127671658992767,-0.0012926497729495168,-9.820537567138672
1.7275290276896594e+18,-0.009365108795464039,0.022287867963314056,-9.824604034423828
1.7275290276956595e+18,-0.0006146106170490384,-0.025985615327954292,-9.76380729675293
1.7275290277016596e+18,-0.011174539104104042,0.05619914457201958,-9.73886489868164
1.7275290277076598e+18,-0.04152333363890648,-0.00625643040984869,-9.797774314880371
1.7275290277106598e+18,-0.018224606290459633,-0.03651799261569977,-9.781831741333008
1.72752902771666e+18,0.021060137078166008,0.030615398660302162,-9.745224952697754
1.72752902772266e+18,-0.024736875668168068,0.04714453965425491,-9.74217414855957
1.7275290277286602e+18,0.02193763665854931,-0.11132866889238358,-9.820320129394531
1.7275290277316603e+18,0.04998511075973511,-0.08880648016929626,-9.76358699798584
1.7275290277376604e+18,-0.1084597036242485,-0.04459969326853752,-9.808062553405762
1.7275290277436605e+18,0.000752243387978524,-0.011121798306703568,-9.80751895904541
1.7275290277496607e+18,0.0016600057715550065,0.03081330843269825,-9.803642272949219
1.7275290277556608e+18,-0.011432752013206482,0.10030535608530045,-9.830309867858887
1.7275290277586609e+18,0.07515637576580048,0.002456395421177149,-9.815242767333984
1.727529027764661e+18,-0.05622990429401398,-0.050807032734155655,-9.731169700622559
1.727529027770661e+18,0.02414722740650177,0.0580960176885128,-9.861668586730957
1.7275290277736612e+18,0.05566108226776123,0.020201390609145164,-9.810790061950684
1.7275290277796613e+18,0.049265798181295395,-0.041891757398843765,-9.76857852935791
1.7275290277856614e+18,-0.042888712137937546,-0.014017375186085701,-9.745820045471191
1.7275290277916616e+18,0.03533605486154556,0.05399459972977638,-9.800304412841797
1.7275290277976617e+18,0.026986517012119293,0.03385881707072258,-9.719261169433594
1.7275290278036618e+18,0.02058703638613224,-0.03525912016630173,-9.833895683288574
1.727529027806662e+18,0.004294244106858969,-4.410338442539796e-05,-9.827022552490234
1.727529027812662e+18,-0.015225358307361603,0.018958983942866325,-9.857390403747559
1.7275290278186621e+18,-0.038912802934646606,-0.02968030795454979,-9.7405424118042
1.7275290278216622e+18,0.05489030480384827,0.06440634280443192,-9.831382751464844
1.7275290278276623e+18,-0.021906422451138496,-0.002780935959890485,-9.784242630004883
1.7275290278336625e+18,0.013533013872802258,-0.013009709306061268,-9.773175239562988
1.7275290278366625e+18,-0.04076205939054489,-0.048278361558914185,-9.791742324829102
1.7275290278426627e+18,-0.007891271263360977,-0.004872801247984171,-9.783721923828125
1.7275290278486628e+18,-0.01799340546131134,-0.07893458008766174,-9.824654579162598
1.7275290278516628e+18,-0.00012579910981003195,0.06228712573647499,-9.8504056930542
1.727529027857663e+18,-0.0020336355082690716,0.012400859035551548,-9.720987319946289
1.727529027863663e+18,0.027070365846157074,0.010174796916544437,-9.828011512756348
1.7275290278666632e+18,0.03688696771860123,-0.022247256711125374,-9.786757469177246
1.7275290278726633e+18,0.01213383860886097,0.02224770188331604,-9.780135154724121
1.7275290278786634e+18,-0.08472149074077606,0.05016053467988968,-9.748512268066406
1.7275290278846636e+18,0.014219701290130615,-0.01930539309978485,-9.78895092010498
1.7275290278876636e+18,0.0007997814100235701,0.004196717403829098,-9.769562721252441
1.7275290278936637e+18,0.007679808884859085,0.04734347015619278,-9.774595260620117
1.727529027899664e+18,-0.050684016197919846,0.05338118597865105,-9.797971725463867
1.727529027905664e+18,0.02356896921992302,0.05776095390319824,-9.757070541381836
1.727529027911664e+18,-0.08787095546722412,-0.0033202175982296467,-9.836379051208496
1.7275290279176643e+18,-0.029983965680003166,-0.05840504914522171,-9.875410079956055
1.7275290279206643e+18,0.004838534630835056,-0.012546111829578876,-9.800333023071289
1.7275290279266644e+18,0.047167714685201645,0.00370581797324121,-9.787094116210938
1.7275290279326646e+18,-0.009101505391299725,-0.011770057491958141,-9.790740013122559
1.7275290279386647e+18,0.0031120607163757086,-0.002631310373544693,-9.797737121582031
1.7275290279416648e+18,-0.01620454341173172,-0.0007297125412151217,-9.789653778076172
1.727529027947665e+18,-0.040983498096466064,0.030094563961029053,-9.84835433959961
1.727529027953665e+18,-0.019242987036705017,0.07519811391830444,-9.737682342529297
1.7275290279596652e+18,-0.009825201705098152,-0.009698521345853806,-9.809696197509766
1.7275290279626652e+18,-0.09306923300027847,-0.06967437267303467,-9.831003189086914
1.7275290279686653e+18,-0.06124739348888397,0.056495651602745056,-9.799175262451172
1.7275290279746655e+18,0.06696958094835281,0.03835959732532501,-9.82947063446045
1.7275290279776655e+18,-0.08720654249191284,-0.09200163930654526,-9.80282211303711
1.7275290279836657e+18,0.056649886071681976,0.0527031309902668,-9.809467315673828
1.7275290279896658e+18,-0.01527413446456194,-0.07077952474355698,-9.71890926361084
1.727529027995666e+18,0.024616701528429985,0.06152457743883133,-9.788725852966309
1.727529027998666e+18,0.027177218347787857,-0.03774608299136162,-9.751038551330566
1.727529028004666e+18,-0.014587397687137127,-0.010438749566674232,-9.730374336242676
1.7275290280106662e+18,-0.014003660529851913,-0.058412957936525345,-9.800429344177246
1.7275290280136663e+18,0.011642975732684135,-0.026041390374302864,-9.73776912689209
1.7275290280196664e+18,0.008960133418440819,-0.04049112647771835,-9.815762519836426
1.7275290280256666e+18,-0.036604177206754684,0.003540650475770235,-9.765750885009766
1.7275290280316667e+18,0.01790940947830677,-0.109158955514431,-9.858381271362305
1.7275290280376668e+18,0.04501138627529144,0.03722355514764786,-9.855104446411133
1.727529028040667e+18,-0.04379602149128914,0.0018672801088541746,-9.776712417602539
1.727529028046667e+18,-0.033505380153656006,-0.04305490478873253,-9.82657241821289
1.7275290280526671e+18,-0.03502252325415611,0.08005188405513763,-9.828714370727539
1.7275290280556672e+18,-0.057713206857442856,-0.08769337832927704,-9.76050090789795
1.7275290280616673e+18,0.019324755296111107,0.05230512097477913,-9.788080215454102
1.7275290280676675e+18,0.06058196350932121,0.007321866229176521,-9.85012435913086
1.7275290280736676e+18,-0.013295604847371578,-0.029787681996822357,-9.859013557434082
1.7275290280766676e+18,-0.0078018298372626305,0.026060892269015312,-9.695943832397461
1.7275290280826678e+18,0.059740424156188965,-0.01041804626584053,-9.75841999053955
1.727529028088668e+18,0.060577213764190674,-0.037316255271434784,-9.80452823638916
1.727529028091668e+18,-0.030614463612437248,-0.0011609933571889997,-9.784835815429688
1.727529028097668e+18,-0.02677529864013195,-0.039575472474098206,-9.817281723022461
1.7275290281036682e+18,-0.013102317228913307,-0.04268939048051834,-9.73277473449707
1.7275290281096684e+18,-0.03446488827466965,0.038661714643239975,-9.810044288635254
1.7275290281126684e+18,-0.01916494406759739,0.07366164028644562,-9.796127319335938
1.7275290281186685e+18,0.02110116183757782,0.06238904222846031,-9.860228538513184
1.7275290281246687e+18,0.055094797164201736,-0.012094324454665184,-9.856958389282227
1.7275290281306688e+18,0.045140381902456284,-0.023807987570762634,-9.798857688903809
1.7275290281336689e+18,0.007430186029523611,0.057369962334632874,-9.825587272644043
1.727529028139669e+18,0.03265974670648575,-0.057791613042354584,-9.856901168823242
1.727529028145669e+18,-0.017911693081259727,-0.009110305458307266,-9.807674407958984
1.7275290281486692e+18,-0.09152249991893768,-0.003908025100827217,-9.720168113708496
1.7275290281546693e+18,-0.09120459109544754,0.0028775674290955067,-9.83939266204834
1.7275290281606694e+18,0.005957798566669226,-0.012654697522521019,-9.771342277526855
1.7275290281636695e+18,0.021076397970318794,-0.03272319957613945,-9.76200008392334
1.7275290281696696e+18,-0.024468427523970604,-0.001153685967437923,-9.80749797821045
1.7275290281756698e+18,-0.05806782469153404,0.006492880638688803,-9.848876953125
1.72752902818167e+18,0.08605384081602097,-0.027508482336997986,-9.78505802154541
1.72752902818467e+18,0.010528454557061195,-0.1018528938293457,-9.811086654663086
1.72752902819067e+18,-0.010987093672156334,-0.07808830589056015,-9.823280334472656
1.7275290281966702e+18,-0.004868915770202875,6.316555663943291e-05,-9.818171501159668
1.7275290282026703e+18,-0.002051236340776086,-0.03589983284473419,-9.77084732055664
1.7275290282056704e+18,0.05887218564748764,0.09657996892929077,-9.80238151550293
1.7275290282116705e+18,-0.0277163814753294,-0.038447681814432144,-9.804296493530273
1.7275290282176707e+18,0.030602728947997093,0.030713465064764023,-9.815607070922852
1.7275290282236708e+18,-0.009646748192608356,-0.007553596515208483,-9.832849502563477
1.7275290282266708e+18,0.016615353524684906,0.03177492693066597,-9.778192520141602
1.727529028232671e+18,0.021633228287100792,-0.039398763328790665,-9.772934913635254
1.727529028238671e+18,0.013329342007637024,-0.09539872407913208,-9.884140968322754
1.7275290282416712e+18,-0.004741281270980835,-0.057795725762844086,-9.757486343383789
1.7275290282476713e+18,0.008407877758145332,0.00495722983032465,-9.860994338989258
1.7275290282536714e+18,-0.014874019660055637,-0.018137095496058464,-9.82844352722168
1.7275290282596716e+18,-0.0525166355073452,0.06347211450338364,-9.845460891723633
1.7275290282626716e+18,-0.027725188061594963,-0.028234168887138367,-9.848603248596191
1.7275290282686717e+18,-0.041986361145973206,0.019934268668293953,-9.801558494567871
1.7275290282746719e+18,0.018781810998916626,0.0006832610233686864,-9.92036247253418
1.727529028277672e+18,-0.03138373792171478,-0.02818962186574936,-9.796897888183594
1.727529028283672e+18,-0.022872811183333397,0.010326266288757324,-9.816353797912598
1.7275290282896722e+18,0.06649389863014221,-0.035081539303064346,-9.836182594299316
1.7275290282956723e+18,0.011106005869805813,0.06315714865922928,-9.804418563842773
1.7275290282986724e+18,-0.07842465490102768,0.0214243121445179,-9.907169342041016
1.7275290283046725e+18,0.0038426455575972795,-0.03099375031888485,-9.806292533874512
1.7275290283106726e+18,0.07066848874092102,-0.050455279648303986,-9.80256175994873
1.7275290283166728e+18,-0.012469240464270115,-0.0037930135149508715,-9.771955490112305
1.7275290283196728e+18,-0.03236788138747215,0.014700123108923435,-9.78995418548584
1.727529028328673e+18,0.06783636659383774,-0.0007920590578578413,-9.724382400512695
1.727529028331673e+18,-0.0175873264670372,0.04496842250227928,-9.824886322021484
1.7275290283376732e+18,-0.06444089859724045,-0.09366709738969803,-9.824881553649902
1.7275290283436733e+18,0.04012003913521767,0.03034154511988163,-9.863469123840332
1.7275290283466734e+18,0.06758754700422287,-0.0012203453807160258,-9.812471389770508
1.7275290283526735e+18,-0.013478528708219528,0.042571090161800385,-9.841897964477539
1.7275290283586737e+18,0.012823449447751045,-0.03746676445007324,-9.797155380249023
1.7275290283616737e+18,0.05267564207315445,0.07058963924646378,-9.796711921691895
1.7275290283676739e+18,-0.11492269486188889,-0.04160477966070175,-9.732688903808594
1.727529028373674e+18,0.040351882576942444,-0.01180713064968586,-9.809694290161133
1.727529028379674e+18,0.006843669340014458,0.0315486341714859,-9.774096488952637
1.7275290283826742e+18,0.0363517589867115,0.02978760004043579,-9.840055465698242
1.7275290283886743e+18,-0.005833284929394722,-0.022137342020869255,-9.708316802978516
1.7275290283946744e+18,0.04829629510641098,0.07378756254911423,-9.87040901184082
1.7275290284006746e+18,0.04772278666496277,-0.04036741331219673,-9.79615306854248
1.7275290284066747e+18,0.0442061573266983,-0.009389261715114117,-9.776060104370117
1.7275290284096748e+18,-0.046236131340265274,0.0004485419485718012,-9.833921432495117
1.727529028415675e+18,-0.018077267333865166,0.010819892399013042,-9.799631118774414
1.727529028421675e+18,-0.029888950288295746,0.030518775805830956,-9.826836585998535
1.7275290284276751e+18,-0.040118928998708725,-0.05745047703385353,-9.816102027893066
1.7275290284306752e+18,0.019501760601997375,-0.010939945466816425,-9.817893981933594
1.7275290284366753e+18,-0.009097919799387455,-0.01167349424213171,-9.738987922668457
1.7275290284426755e+18,-0.02745279110968113,0.022646766155958176,-9.799324989318848
1.7275290284486756e+18,0.03066142648458481,-0.05148905888199806,-9.815739631652832
1.7275290284516756e+18,-0.01553343515843153,-0.066901795566082,-9.793821334838867
1.7275290284576758e+18,-0.002735777059569955,-0.051593102514743805,-9.845308303833008
1.727529028463676e+18,0.0022758962586522102,0.12638364732265472,-9.879069328308105
1.727529028466676e+18,0.09261365234851837,-0.0002938848047051579,-9.802520751953125
1.727529028472676e+18,-0.03367023915052414,-0.07928586006164551,-9.846692085266113
1.7275290284786762e+18,-0.016940569505095482,-0.009635079652071,-9.831449508666992
1.7275290284846764e+18,0.026482274755835533,-0.0002224463678430766,-9.869071006774902
1.7275290284876764e+18,0.029689207673072815,0.00032703063334338367,-9.745945930480957
1.7275290284936765e+18,-0.040339816361665726,-0.03862040117383003,-9.837211608886719
1.7275290284996767e+18,-0.03169168531894684,0.012975462712347507,-9.796372413635254
1.7275290285056768e+18,-0.030226100236177444,0.07494498789310455,-9.81151294708252
1.7275290285086769e+18,0.028196217492222786,-0.010517069138586521,-9.80001163482666
1.727529028514677e+18,-0.11996061354875565,0.029721630737185478,-9.848593711853027
1.727529028520677e+18,-0.08126188814640045,-0.06586319208145142,-9.820596694946289
1.7275290285266772e+18,0.060433704406023026,-0.01382388360798359,-9.877535820007324
1.7275290285296773e+18,0.03298080340027809,0.06265496462583542,-9.821361541748047
1.7275290285356774e+18,-0.03167874366044998,-0.033967409282922745,-9.75481128692627
1.7275290285416776e+18,0.16974079608917236,-0.027988389134407043,-9.830435752868652
1.7275290285446776e+18,-0.02833125926554203,0.010954839177429676,-9.916511535644531
1.7275290285506778e+18,-0.013279935345053673,-0.003741227788850665,-9.786026000976562
1.727529028556678e+18,0.018099231645464897,-0.005629143677651882,-9.774561882019043
1.727529028559678e+18,0.009846005588769913,-0.005451330449432135,-9.827777862548828
1.727529028565678e+18,0.05553242564201355,0.047876738011837006,-9.774508476257324
1.7275290285716782e+18,-0.032172705978155136,0.009534379467368126,-9.769317626953125
1.7275290285776783e+18,0.00013696818496100605,0.026089778169989586,-9.826359748840332
1.7275290285836785e+18,-0.029424918815493584,0.03536223992705345,-9.723713874816895
1.7275290285866785e+18,-0.013445230200886726,-0.004620533436536789,-9.862580299377441
1.7275290285926787e+18,-0.01572750322520733,0.02482067234814167,-9.717558860778809
1.7275290285986788e+18,0.06520886719226837,0.003121123416349292,-9.834744453430176
1.7275290286016788e+18,0.028584865853190422,-0.033837612718343735,-9.738558769226074
1.727529028607679e+18,-0.1340370625257492,0.009622919373214245,-9.800569534301758
1.727529028613679e+18,0.014067382551729679,-0.05367307737469673,-9.766974449157715
1.7275290286196792e+18,-0.053733933717012405,0.11894773691892624,-9.894407272338867
1.7275290286226793e+18,-0.028239600360393524,-0.0216011181473732,-9.792036056518555
1.7275290286286794e+18,-0.027705730870366096,0.05414864793419838,-9.809501647949219
1.7275290286346796e+18,-0.008555667474865913,-0.06749697774648666,-9.824329376220703
1.7275290286406797e+18,-0.08509984612464905,-0.08560056239366531,-9.794724464416504
1.7275290286436797e+18,0.05436371639370918,-0.038769740611314774,-9.795937538146973
1.72752902864968e+18,0.01846613548696041,-0.0012550198007375002,-9.754426002502441
1.72752902865568e+18,0.05674772709608078,0.05549784377217293,-9.843400955200195
1.72752902866168e+18,0.024634918197989464,-0.053108539432287216,-9.776580810546875
1.7275290286646802e+18,0.010990884155035019,0.007706284988671541,-9.842035293579102
1.7275290286706803e+18,0.01346878707408905,0.0027215969748795033,-9.840898513793945
1.7275290286766804e+18,-0.05458078905940056,0.01705242320895195,-9.861774444580078
1.7275290286826806e+18,0.10941478610038757,-0.02805192582309246,-9.801908493041992
1.7275290286856806e+18,-0.021436495706439018,0.0320262536406517,-9.792258262634277
1.7275290286916808e+18,-0.01919868402183056,-0.02229408361017704,-9.766366004943848
1.727529028697681e+18,0.0680975392460823,0.07817652821540833,-9.793453216552734
1.727529028700681e+18,-0.011615345254540443,0.07622080296278,-9.787392616271973
1.727529028706681e+18,-0.03230462223291397,0.0502965971827507,-9.785550117492676
1.7275290287126812e+18,-0.01626027747988701,0.03982759639620781,-9.793946266174316
1.7275290287186813e+18,-0.1474083662033081,-0.051576167345047,-9.813735961914062
1.7275290287216814e+18,-0.007342944387346506,0.0549486018717289,-9.814445495605469
1.7275290287276815e+18,-0.02807907946407795,-0.005898188333958387,-9.820395469665527
1.7275290287336817e+18,0.09120731800794601,0.022700458765029907,-9.775943756103516
1.7275290287396818e+18,-0.025990350171923637,-0.01279360894113779,-9.825421333312988
1.7275290287426819e+18,-0.021416090428829193,-0.04312694072723389,-9.728096008300781
1.727529028748682e+18,-0.016760362312197685,0.026103675365447998,-9.808540344238281
1.727529028754682e+18,0.0435209721326828,0.018997590988874435,-9.811882019042969
1.7275290287606822e+18,-0.05474249646067619,-0.006875148508697748,-9.822175025939941
1.7275290287666824e+18,0.03764253482222557,0.018215777352452278,-9.809102058410645
1.7275290287696824e+18,0.05068768933415413,-0.046627357602119446,-9.87777328491211
1.7275290287756826e+18,-0.03759246692061424,-0.004007337614893913,-9.794553756713867
1.7275290287816827e+18,-0.00987598393112421,0.03676404431462288,-9.805635452270508
1.7275290287846828e+18,0.006064401473850012,0.019009815528988838,-9.737054824829102
1.727529028790683e+18,-0.0990302786231041,0.08215689659118652,-9.760763168334961
1.727529028796683e+18,-0.10639513283967972,-0.02106480859220028,-9.702007293701172
1.7275290288026831e+18,-0.020485736429691315,-0.004395236261188984,-9.809772491455078
1.7275290288086833e+18,0.0092731649056077,-0.008146234788000584,-9.828059196472168
1.7275290288116833e+18,0.06555390357971191,0.008644511923193932,-9.838669776916504
1.7275290288176835e+18,0.08154195547103882,-0.009854074567556381,-9.803585052490234
1.7275290288236836e+18,-0.0009885149775072932,0.006918298080563545,-9.81804084777832
1.7275290288296837e+18,0.023067690432071686,-0.04047765955328941,-9.7905912399292
1.7275290288326838e+18,-0.05459379032254219,-0.004153563641011715,-9.850939750671387
1.727529028838684e+18,0.1058790311217308,-0.042464952915906906,-9.801450729370117
1.727529028844684e+18,-0.058268316090106964,0.01035585068166256,-9.891401290893555
1.7275290288506842e+18,0.012643461115658283,-0.04475751519203186,-9.768817901611328
1.7275290288566843e+18,-0.00960292387753725,-0.04507892206311226,-9.775360107421875
1.7275290288596844e+18,0.010558774694800377,-0.07318801432847977,-9.877645492553711
1.7275290288656845e+18,0.019546009600162506,0.00718044163659215,-9.847079277038574
1.7275290288716846e+18,-0.03513304889202118,0.004265968222171068,-9.754876136779785
1.7275290288776847e+18,0.06666015833616257,-0.060501791536808014,-9.786941528320312
1.7275290288806848e+18,0.04626112058758736,0.010390499606728554,-9.802326202392578
1.727529028886685e+18,-0.07970822602510452,-0.0006927156355232,-9.792760848999023
1.727529028892685e+18,-0.030823638662695885,-0.03399041295051575,-9.767110824584961
1.7275290288986852e+18,0.03859780356287956,0.054667819291353226,-9.824267387390137
1.7275290289016852e+18,-0.014568567276000977,0.00475617591291666,-9.78761100769043
1.7275290289076854e+18,-0.020439859479665756,0.032926011830568314,-9.779069900512695
1.7275290289136855e+18,0.048890795558691025,0.020653879269957542,-9.759855270385742
1.7275290289166856e+18,-0.005848982371389866,-0.11642241477966309,-9.832010269165039
1.7275290289226857e+18,0.02739321067929268,-0.059488460421562195,-9.802786827087402
1.7275290289286858e+18,0.024493535980582237,0.001773147494532168,-9.838467597961426
1.727529028931686e+18,0.03981567174196243,-0.004870411939918995,-9.782036781311035
1.727529028937686e+18,-0.02665056101977825,-0.008979621343314648,-9.766250610351562
1.7275290289436861e+18,-0.06195675954222679,-0.09051620215177536,-9.83960247039795
1.7275290289466862e+18,0.010624763555824757,0.06819093227386475,-9.862870216369629
1.7275290289526863e+18,0.04865742102265358,0.010254970751702785,-9.819643020629883
1.7275290289586865e+18,-0.021245703101158142,0.015312343835830688,-9.859588623046875
1.7275290289616865e+18,0.08796094357967377,-0.002324859844520688,-9.801178932189941
1.7275290289676867e+18,-0.0036636018194258213,0.04182547330856323,-9.80711555480957
1.7275290289736868e+18,-0.1265733689069748,-0.029075857251882553,-9.83219051361084
1.727529028979687e+18,0.02023850940167904,0.018314041197299957,-9.830741882324219
1.727529028982687e+18,-0.001141087501309812,0.008686108514666557,-9.768152236938477
1.727529028988687e+18,0.0330212265253067,0.024414557963609695,-9.761818885803223
1.7275290289946872e+18,0.04191171005368233,0.01593363657593727,-9.818217277526855
1.7275290290006874e+18,-0.046869006007909775,0.0011054978240281343,-9.839189529418945
1.7275290290036874e+18,0.03636270761489868,0.02122325450181961,-9.84170150756836
1.7275290290096876e+18,-0.011278694495558739,-0.030926009640097618,-9.88674545288086
1.7275290290156877e+18,0.04001931473612785,0.06030605733394623,-9.829601287841797
1.7275290290186877e+18,-0.04410884529352188,-0.019897479563951492,-9.82844352722168
1.7275290290246879e+18,0.0173143669962883,-0.005760445725172758,-9.883909225463867
1.727529029030688e+18,0.031866081058979034,-0.0272993091493845,-9.856783866882324
1.7275290290366881e+18,-0.033724986016750336,0.08162467926740646,-9.71932601928711
1.7275290290396882e+18,-0.05036101117730141,-0.04150968790054321,-9.75518798828125
1.7275290290456883e+18,-0.05083233863115311,-0.04184712842106819,-9.83604907989502
1.7275290290516884e+18,0.015303929336369038,0.020320408046245575,-9.789915084838867
1.7275290290546885e+18,-0.014771496877074242,0.027874596416950226,-9.840156555175781
1.7275290290606886e+18,-0.08057146519422531,-0.044024452567100525,-9.837467193603516
1.7275290290666888e+18,0.002606147201731801,0.008544474840164185,-9.73178482055664
1.727529029072689e+18,-0.01222329679876566,-0.01766832545399666,-9.856332778930664
1.727529029075689e+18,-0.020168913528323174,0.03488245978951454,-9.873419761657715
1.727529029081689e+18,-0.028547203168272972,-0.08006814867258072,-9.78548812866211
1.7275290290876892e+18,-0.007063097786158323,-0.023265235126018524,-9.835768699645996
1.7275290290906893e+18,0.020343784242868423,-0.034558288753032684,-9.864063262939453
1.7275290290966894e+18,0.008841648697853088,-0.05345223471522331,-9.913890838623047
1.7275290291026895e+18,0.03865288197994232,-0.04173174872994423,-9.784008026123047
1.7275290291056896e+18,-0.06414811313152313,0.06770066916942596,-9.89783763885498
1.7275290291116897e+18,0.03873320668935776,-0.06418617814779282,-9.90833568572998
1.7275290291176899e+18,-0.040362391620874405,-0.009206090122461319,-9.968668937683105
1.72752902912369e+18,0.010545329190790653,0.023812126368284225,-9.974020004272461
1.72752902912669e+18,-0.030706483870744705,-0.0185476616024971,-9.873684883117676
1.7275290291326902e+18,0.11079780757427216,-0.03454412519931793,-9.952507972717285
1.7275290291386903e+18,-0.030961977317929268,0.05036551132798195,-9.934826850891113
1.7275290291446904e+18,0.03310509771108627,0.008912865072488785,-9.98885440826416
1.7275290291476905e+18,0.049717240035533905,-0.04895542934536934,-9.979351997375488
1.7275290291536906e+18,-0.0629487857222557,-0.0073195756413042545,-9.985817909240723
1.7275290291596908e+18,-0.05456897243857384,-0.061244700103998184,-9.993919372558594
1.727529029165691e+18,0.04933629184961319,-0.08008323609828949,-9.998531341552734
1.727529029168691e+18,0.011824310757219791,-0.03640199825167656,-9.933869361877441
1.727529029174691e+18,0.04362349212169647,0.0340447723865509,-9.996617317199707
1.7275290291806912e+18,0.021895814687013626,0.05359504744410515,-9.994888305664062
1.7275290291836913e+18,0.05834519863128662,0.07319682091474533,-10.01149845123291
1.7275290291896914e+18,0.08240223675966263,-0.05144558474421501,-10.152324676513672
1.7275290291956915e+18,0.04434651508927345,-0.00519598089158535,-10.046853065490723
1.7275290292016916e+18,-0.043232470750808716,-0.05891292914748192,-9.988812446594238
1.7275290292076918e+18,-0.02863222360610962,0.047312766313552856,-10.003149032592773
1.727529029213692e+18,-0.02299901656806469,0.1273840367794037,-10.028729438781738
1.727529029216692e+18,-0.012463432736694813,-0.025933125987648964,-10.049853324890137
1.727529029222692e+18,-0.009196283295750618,-0.005566763691604137,-10.142053604125977
1.7275290292286922e+18,-0.0032931638415902853,-0.012661865912377834,-10.113486289978027
1.7275290292316923e+18,0.055770039558410645,-0.02253717929124832,-10.136241912841797
1.7275290292376924e+18,-0.013305740430951118,0.0383477509021759,-10.1278076171875
1.7275290292436925e+18,0.014414466917514801,0.09764834493398666,-10.127229690551758
1.7275290292496927e+18,0.006609664764255285,0.10303491353988647,-10.153027534484863
1.7275290292526927e+18,0.017398392781615257,0.06620976328849792,-10.101714134216309
1.7275290292586929e+18,0.006620211526751518,0.03180763125419617,-10.089529037475586
1.727529029264693e+18,0.03388223424553871,0.048365022987127304,-10.098515510559082
1.727529029270693e+18,0.037349626421928406,0.08086133003234863,-10.211792945861816
1.7275290292736932e+18,0.01093274261802435,0.03617469221353531,-10.174500465393066
1.7275290292796933e+18,0.03718386963009834,0.04789188131690025,-10.20529842376709
1.7275290292856934e+18,-0.006447590887546539,0.07509071379899979,-10.166105270385742
1.7275290292916936e+18,-0.02185135893523693,-0.032068051397800446,-10.28461742401123
1.7275290292946936e+18,0.004509223625063896,0.00995237473398447,-10.211682319641113
1.7275290293006938e+18,0.043053168803453445,0.031345952302217484,-10.231481552124023
1.727529029306694e+18,0.021980054676532745,0.059621673077344894,-10.140921592712402
1.727529029312694e+18,0.07290002703666687,-0.03942393511533737,-10.202507019042969
1.7275290293186941e+18,0.0016529517015442252,-0.012781995348632336,-10.366195678710938
1.7275290293246943e+18,0.0019047677051275969,-0.04368269816040993,-10.442225456237793
1.7275290293276943e+18,-0.09810832142829895,0.011103818193078041,-10.50107192993164
1.7275290293336945e+18,0.03457321226596832,0.04449377954006195,-10.61119270324707
1.7275290293396946e+18,0.002097517251968384,0.028263062238693237,-10.519920349121094
1.7275290293456947e+18,-0.01967611536383629,0.04072542488574982,-10.609359741210938
1.7275290293516948e+18,0.06562336534261703,0.046570517122745514,-10.550012588500977
1.727529029354695e+18,0.07790298759937286,-0.03887328505516052,-10.584741592407227
1.727529029360695e+18,-0.00855411496013403,0.04993567615747452,-10.649434089660645
1.7275290293666952e+18,-0.022099558264017105,-0.03461478650569916,-10.616171836853027
1.7275290293696952e+18,0.04587777704000473,-0.06365688890218735,-10.533323287963867
1.7275290293756954e+18,0.0439840704202652,-0.051220204681158066,-10.591151237487793
1.7275290293816955e+18,0.03701777756214142,0.010743828490376472,-10.630956649780273
1.7275290293876956e+18,-0.05221019685268402,0.14171750843524933,-10.622916221618652
1.7275290293936957e+18,-0.01622367464005947,0.007803917396813631,-10.575909614562988
1.727529029399696e+18,0.02192293293774128,0.05042457953095436,-10.656920433044434
1.727529029405696e+18,-0.030457831919193268,0.004544490948319435,-10.550466537475586
1.727529029408696e+18,-0.05120706930756569,0.011241128668189049,-10.634106636047363
1.7275290294146962e+18,0.02421363815665245,0.009442299604415894,-10.603419303894043
1.7275290294206963e+18,0.004726288840174675,-0.0601053424179554,-10.630241394042969
1.7275290294266964e+18,0.006189997307956219,0.0641925111413002,-10.616207122802734
1.7275290294296965e+18,0.03190293163061142,-0.010533925145864487,-10.623236656188965
1.7275290294356966e+18,0.012143273837864399,-0.019279005005955696,-10.6077299118042
1.7275290294416968e+18,0.06716389209032059,-0.030800212174654007,-10.592838287353516
1.7275290294446968e+18,0.04503145068883896,0.002038041828200221,-10.631638526916504
1.727529029450697e+18,-0.007401774637401104,0.018331414088606834,-10.619428634643555
1.727529029456697e+18,0.05347415804862976,-0.01195202674716711,-10.615226745605469
1.7275290294596972e+18,-0.03798842430114746,-0.01546113844960928,-10.69791030883789
1.7275290294656973e+18,0.01753387227654457,8.101535786408931e-05,-10.577274322509766
1.7275290294716974e+18,-0.00922328606247902,0.07693127542734146,-10.596251487731934
1.7275290294776975e+18,-0.03131192922592163,-0.07451586425304413,-10.636359214782715
1.7275290294806976e+18,0.031963419169187546,-0.01684301532804966,-10.667044639587402
1.7275290294866977e+18,0.004990539513528347,0.025085145607590675,-10.570770263671875
1.7275290294926979e+18,-0.005185018293559551,0.026935314759612083,-10.675687789916992
1.727529029498698e+18,-0.006596598774194717,-0.06058096885681152,-10.586993217468262
1.727529029501698e+18,-0.004857861436903477,0.023144036531448364,-10.615480422973633
1.7275290295076982e+18,-0.05742545798420906,-0.029459074139595032,-10.713071823120117
1.7275290295136983e+18,-0.010736698284745216,-0.04803721234202385,-10.684418678283691
1.7275290295196984e+18,0.001285372069105506,-0.01811821199953556,-10.59582233428955
1.7275290295226985e+18,0.07213575392961502,-0.11619318276643753,-10.6356201171875
1.7275290295286986e+18,0.04731070250272751,0.038923412561416626,-10.610684394836426
1.7275290295346988e+18,0.013051257468760014,-0.07447884976863861,-10.59460735321045
1.727529029540699e+18,0.0059164888225495815,-0.07549677044153214,-10.61523723602295
1.727529029543699e+18,0.01767551898956299,-0.017518647015094757,-10.635199546813965
1.727529029549699e+18,-0.03889293968677521,-0.016724631190299988,-10.630300521850586
1.7275290295556992e+18,0.029162373393774033,0.005995782557874918,-10.612518310546875
1.7275290295616993e+18,-0.06963171064853668,-0.1072387769818306,-10.657337188720703
1.7275290295646994e+18,-0.06449121236801147,0.04131033271551132,-10.638444900512695
1.7275290295706995e+18,-0.024920985102653503,-0.025232138112187386,-10.710139274597168
1.7275290295766996e+18,-0.03284361958503723,-0.06153929978609085,-10.595385551452637
1.7275290295796997e+18,-0.01856888271868229,-0.02908770553767681,-10.554298400878906
1.7275290295856998e+18,-0.00637390511110425,-0.0007656724192202091,-10.598974227905273
1.7275290295917e+18,0.06006535142660141,0.01567404717206955,-10.6671142578125
1.7275290295977e+18,0.025236185640096664,0.03851793706417084,-10.596364974975586
1.7275290296007002e+18,-0.05324774608016014,-0.020962703973054886,-10.593771934509277
1.7275290296067003e+18,0.061733428388834,0.0065836780704557896,-10.560342788696289
1.7275290296127004e+18,0.020275019109249115,-0.05961262062191963,-10.679691314697266
1.7275290296187005e+18,-0.008826196193695068,-0.037929076701402664,-10.624775886535645
1.7275290296217006e+18,-0.003150713164359331,-0.02608547732234001,-10.60452938079834
1.7275290296277007e+18,0.06946001946926117,-0.007370174862444401,-10.54572868347168
1.7275290296337009e+18,0.009180779568850994,-0.005558233242481947,-10.681831359863281
1.727529029639701e+18,-0.0177027378231287,-0.02658269554376602,-10.638673782348633
1.727529029642701e+18,0.07781282067298889,-0.08096051216125488,-10.664704322814941
1.7275290296487012e+18,0.018547646701335907,-0.032337386161088943,-10.635210990905762
1.7275290296547013e+18,0.019961491227149963,-0.002642545383423567,-10.591029167175293
1.7275290296607014e+18,-0.07657433301210403,-0.005674282554537058,-10.657764434814453
1.7275290296637015e+18,0.0033556343987584114,0.030592385679483414,-10.60615062713623
1.7275290296697016e+18,0.04203781113028526,-0.029410097748041153,-10.580225944519043
1.7275290296757018e+18,0.037895940244197845,-0.0056829205714166164,-10.677964210510254
1.7275290296787018e+18,0.002622776199132204,0.03010019101202488,-10.548171043395996
1.727529029684702e+18,0.003256378462538123,-0.04647291824221611,-10.674004554748535
1.727529029690702e+18,-0.0471009686589241,0.02099771983921528,-10.64915657043457
1.7275290296967022e+18,-0.017732350155711174,0.02452433481812477,-10.595253944396973
1.7275290296997023e+18,0.07881064713001251,-0.06314992159605026,-10.651410102844238
1.7275290297057024e+18,-0.022958332672715187,0.042647652328014374,-10.60442066192627
1.7275290297117025e+18,0.016502784565091133,0.05413675308227539,-10.637520790100098
1.7275290297177027e+18,-0.07858551293611526,-0.023261599242687225,-10.615262031555176
1.7275290297207027e+18,-0.07433757185935974,0.027255231514573097,-10.64269733428955
1.7275290297267028e+18,0.00855772104114294,0.033452704548835754,-10.629405975341797
1.727529029732703e+18,-0.013458292931318283,-0.052838440984487534,-10.618525505065918
1.727529029738703e+18,-0.049349233508110046,-0.00434620538726449,-10.571252822875977
1.7275290297417032e+18,-0.009108864702284336,0.0030700592324137688,-10.58287239074707
1.7275290297477033e+18,-0.03857370465993881,-0.04715855047106743,-10.709271430969238
1.7275290297537034e+18,0.004821553360670805,0.014809866435825825,-10.571751594543457
1.7275290297567035e+18,0.09313956648111343,-0.029200036078691483,-10.610342979431152
1.7275290297627036e+18,-0.044019781053066254,0.042546842247247696,-10.620019912719727
1.7275290297687037e+18,0.032373618334531784,-0.014519591815769672,-10.621886253356934
1.7275290297717038e+18,-0.018466906622052193,-0.056340210139751434,-10.653593063354492
1.727529029777704e+18,0.022566741332411766,0.04156085103750229,-10.58234977722168
1.727529029783704e+18,0.04567929357290268,-0.00402395986020565,-10.605698585510254
1.7275290297867041e+18,0.026727797463536263,0.0197914969176054,-10.540372848510742
1.7275290297927043e+18,-0.032221075147390366,0.016696982085704803,-10.575060844421387
1.7275290297987044e+18,0.022503577172756195,-0.01609089784324169,-10.667112350463867
1.7275290298017044e+18,-0.01665891893208027,0.030047841370105743,-10.51606559753418
1.7275290298077046e+18,-0.03535553440451622,0.0334891751408577,-10.646156311035156
1.7275290298137047e+18,-0.006582618225365877,-0.06158430501818657,-10.626154899597168
1.7275290298197048e+18,-0.01421720813959837,0.026541434228420258,-10.648755073547363
1.727529029825705e+18,-0.03360557183623314,-0.027729209512472153,-10.554474830627441
1.727529029828705e+18,-0.05345606058835983,-0.06337171792984009,-10.614006996154785
1.7275290298347052e+18,-0.023113630712032318,-0.006843718700110912,-10.6560640335083
1.7275290298407053e+18,-0.05303238332271576,-0.002650610404089093,-10.596479415893555
1.7275290298437053e+18,-0.0410228930413723,0.004156777169555426,-10.563331604003906
1.7275290298497055e+18,0.017230350524187088,0.017452074214816093,-10.61746883392334
1.7275290298557056e+18,0.02142912894487381,-0.008180723525583744,-10.589669227600098
1.7275290298617057e+18,-0.007642577402293682,0.04482341930270195,-10.574376106262207
1.7275290298647058e+18,-0.05357534810900688,-0.04945129528641701,-10.569278717041016
1.727529029870706e+18,-0.06701309978961945,-0.012134432792663574,-10.659749984741211
1.727529029876706e+18,0.027292484417557716,-0.030387483537197113,-10.711618423461914
1.727529029879706e+18,-0.060745321214199066,-0.060781415551900864,-10.530475616455078
1.7275290298857062e+18,-0.052427709102630615,-0.09656018763780594,-10.547394752502441
1.7275290298917064e+18,-0.05261414498090744,0.001910374267026782,-10.594334602355957
1.7275290298977065e+18,0.015283884480595589,0.029721543192863464,-10.59122371673584
1.7275290299007066e+18,0.03140106797218323,0.004783277399837971,-10.704719543457031
1.7275290299067067e+18,-0.007108342833817005,0.0002452229964546859,-10.700959205627441
1.7275290299127068e+18,-0.02056780271232128,-0.028859339654445648,-10.632232666015625
1.727529029918707e+18,-0.027672607451677322,0.025860311463475227,-10.60091781616211
1.727529029921707e+18,-0.04875563085079193,-0.08033538609743118,-10.591766357421875
1.7275290299277071e+18,-0.05401511490345001,0.04930404946208,-10.63576889038086
1.7275290299337073e+18,0.06301353126764297,0.011890310794115067,-10.737173080444336
1.7275290299397074e+18,-0.03749909996986389,0.03042357601225376,-10.638031959533691
1.7275290299427075e+18,0.002232052618637681,0.004571719095110893,-10.628244400024414
1.7275290299487076e+18,0.02542979083955288,0.005341719835996628,-10.571531295776367
1.7275290299547077e+18,0.06894013285636902,0.0056425356306135654,-10.614053726196289
1.7275290299607078e+18,-0.08782367408275604,0.021904628723859787,-10.658315658569336
1.727529029966708e+18,-0.015013473108410835,0.004823142662644386,-10.650036811828613
1.727529029969708e+18,-0.05644255504012108,-0.015695147216320038,-10.562793731689453
1.7275290299757082e+18,0.010723852552473545,0.0417201891541481,-10.624680519104004
1.7275290299817083e+18,0.028876004740595818,0.013500634580850601,-10.610943794250488
1.7275290299847084e+18,0.021978644654154778,-0.051028214395046234,-10.603837013244629
1.7275290299907085e+18,0.07967071980237961,-0.018429018557071686,-10.54814624786377
1.7275290299967086e+18,0.10708093643188477,-0.01676228642463684,-10.627107620239258
1.7275290300027087e+18,-0.005131973419338465,0.05052857846021652,-10.55698299407959
1.7275290300057088e+18,0.02785729244351387,0.0410895012319088,-10.641032218933105
1.727529030011709e+18,0.07096659392118454,-0.009086474776268005,-10.569543838500977
1.727529030017709e+18,-0.013207095675170422,0.054849423468112946,-10.595377922058105
1.7275290300237092e+18,-0.044285017997026443,0.025743698701262474,-10.606141090393066
1.7275290300267092e+18,-0.027386456727981567,-0.025825386866927147,-10.60439682006836
1.7275290300327094e+18,0.022815197706222534,-0.011828886345028877,-10.602927207946777
1.7275290300387095e+18,0.014567417092621326,-0.025308215990662575,-10.620644569396973
1.7275290300447096e+18,-0.0621243417263031,-0.059284429997205734,-10.625959396362305
1.7275290300507098e+18,-8.044499554671347e-05,-0.035605210810899734,-10.57618522644043
1.7275290300537098e+18,-0.021748943254351616,-0.0014922076370567083,-10.606847763061523
1.72752903005971e+18,0.020482555031776428,-0.044277630746364594,-10.594320297241211
1.72752903006571e+18,0.08216778188943863,0.05577167868614197,-10.554572105407715
1.7275290300687101e+18,0.03589735925197601,0.02184102311730385,-10.532821655273438
1.7275290300747103e+18,-0.051434535533189774,-0.007637337315827608,-10.64680290222168
1.7275290300807104e+18,-0.03230491280555725,-0.016840513795614243,-10.599820137023926
1.7275290300837105e+18,-0.04106655716896057,0.008717402815818787,-10.674727439880371
1.7275290300897106e+18,0.007753845304250717,0.03449902683496475,-10.591521263122559
1.7275290300957107e+18,0.038855813443660736,-0.03050093911588192,-10.545692443847656
1.7275290301017108e+18,0.08418729156255722,-0.08651820570230484,-10.596860885620117
1.727529030104711e+18,-0.07594241946935654,-0.032880861312150955,-10.580610275268555
1.727529030110711e+18,0.008737794123589993,-0.04399317502975464,-10.6189603805542
1.7275290301167112e+18,-0.006246680859476328,-0.03466549143195152,-10.582876205444336
1.7275290301197112e+18,0.042441338300704956,-0.014630298130214214,-10.60233211517334
1.7275290301257114e+18,-0.005110431462526321,0.018548408523201942,-10.610543251037598
1.7275290301317115e+18,-0.07473782449960709,0.010172713547945023,-10.560434341430664
1.7275290301377116e+18,-0.08268588781356812,-0.01375058013945818,-10.569129943847656
1.7275290301407117e+18,-0.002010167110711336,0.05279853567481041,-10.595564842224121
1.7275290301467118e+18,-0.0007207025191746652,-0.017267558723688126,-10.667716979980469
1.727529030152712e+18,0.048405446112155914,0.03726118057966232,-10.635056495666504
1.727529030158712e+18,-0.015486274845898151,-0.008725307881832123,-10.600549697875977
1.7275290301647122e+18,-0.0019970235880464315,-0.03734230250120163,-10.535853385925293
1.7275290301677123e+18,0.017250701785087585,-0.015060101635754108,-10.651565551757812
1.7275290301737124e+18,0.00623716227710247,-0.010370776988565922,-10.596813201904297
1.7275290301797125e+18,-0.05693156644701958,-0.06146617606282234,-10.588127136230469
1.7275290301857126e+18,0.001657333574257791,0.004064152482897043,-10.562399864196777
1.7275290301887127e+18,0.07209067791700363,-0.004777919035404921,-10.57736587524414
1.7275290301947128e+18,-0.06007147952914238,0.04398101568222046,-10.580465316772461
1.727529030200713e+18,0.012567468918859959,-0.014528002589941025,-10.523334503173828
1.727529030206713e+18,-0.030820630490779877,-0.03080994077026844,-10.591500282287598
1.7275290302127132e+18,-0.014220152981579304,-0.015795905143022537,-10.565227508544922
1.7275290302157133e+18,-0.036469053477048874,-0.07811012119054794,-10.542688369750977
1.7275290302217134e+18,0.03926427289843559,0.01680886186659336,-10.581146240234375
1.7275290302277135e+18,0.064764603972435,-0.011102604679763317,-10.504998207092285
1.7275290302337137e+18,0.015573783777654171,-0.08802306652069092,-10.582340240478516
1.7275290302367137e+18,0.007943023927509785,-0.01471020095050335,-10.619810104370117
1.7275290302427139e+18,-0.024761689826846123,0.006719839293509722,-10.498442649841309
1.727529030248714e+18,0.04622926190495491,-0.038658734411001205,-10.571971893310547
1.727529030254714e+18,-0.04202834516763687,-0.06366636604070663,-10.565740585327148
1.7275290302577142e+18,-0.0742485448718071,-0.06425134837627411,-10.567342758178711
1.7275290302637143e+18,-0.026909630745649338,0.011681272648274899,-10.644062995910645
1.7275290302697144e+18,-0.0658125951886177,-0.04344248026609421,-10.458952903747559
1.7275290302727145e+18,-0.049661241471767426,0.007686084136366844,-10.625223159790039
1.7275290302787146e+18,-0.016134198755025864,-0.016321105882525444,-10.509440422058105
1.7275290302847148e+18,-0.025364261120557785,-0.03954595699906349,-10.574048042297363
1.727529030290715e+18,-0.024074723944067955,-0.05141041427850723,-10.589755058288574
1.727529030293715e+18,0.05371059849858284,0.032776154577732086,-10.569056510925293
1.727529030299715e+18,-0.005530582740902901,0.05701972916722298,-10.544632911682129
1.7275290303057152e+18,0.0010154631454497576,-0.04369271546602249,-10.556465148925781
1.7275290303117153e+18,-0.01736483722925186,0.026352161541581154,-10.555392265319824
1.7275290303177155e+18,0.018120937049388885,0.09389619529247284,-10.53253173828125
1.7275290303207155e+18,-0.0378727987408638,0.0683465451002121,-10.530942916870117
1.7275290303267156e+18,0.006806943099945784,0.002455734880641103,-10.62651252746582
1.7275290303327158e+18,-0.03651118651032448,0.05359575152397156,-10.570637702941895
1.727529030338716e+18,0.00826371181756258,-0.023984184488654137,-10.505708694458008
1.727529030344716e+18,-0.001749872462823987,0.005605596117675304,-10.520241737365723
1.7275290303507162e+18,0.016251076012849808,0.018617069348692894,-10.54439640045166
1.7275290303537162e+18,0.036140501499176025,-0.031391166150569916,-10.539453506469727
1.7275290303597164e+18,-0.01571141555905342,0.07283169031143188,-10.642169952392578
1.7275290303657165e+18,-0.0628957748413086,-0.08744671195745468,-10.555489540100098
1.7275290303717166e+18,0.041545797139406204,-0.09660427272319794,-10.54601001739502
1.7275290303747167e+18,-0.01021028682589531,0.0394076444208622,-10.55240535736084
1.7275290303807168e+18,0.065933458507061,0.048079803586006165,-10.488691329956055
1.727529030386717e+18,-0.0012646059039980173,-0.014345858246088028,-10.480938911437988
1.727529030392717e+18,0.015047588385641575,0.0370856449007988,-10.589369773864746
1.7275290303987172e+18,0.040382206439971924,0.04859089478850365,-10.53693675994873
1.7275290304017172e+18,0.012492760084569454,0.004053548909723759,-10.50272274017334
1.7275290304077174e+18,-0.02974586933851242,0.020394377410411835,-10.49423885345459
1.7275290304137175e+18,0.020972760394215584,-0.06642498821020126,-10.537148475646973
1.7275290304167176e+18,0.027311652898788452,-0.061618756502866745,-10.561125755310059
1.7275290304227177e+18,0.03389708325266838,-0.025291889905929565,-10.481642723083496
1.7275290304287178e+18,-0.07717734575271606,0.05277911573648453,-10.557544708251953
1.727529030431718e+18,0.04536803439259529,-0.018761033192276955,-10.499403953552246
1.727529030437718e+18,0.019089873880147934,0.06273762881755829,-10.555009841918945
1.7275290304437181e+18,0.0705467090010643,0.0008517954265698791,-10.537463188171387
1.7275290304497183e+18,0.04530572518706322,-0.0028909556567668915,-10.465962409973145
1.7275290304557184e+18,-0.06806979328393936,-0.033474549651145935,-10.501717567443848
1.7275290304617185e+18,-0.07117008417844772,0.08339523524045944,-10.533699989318848
1.7275290304647186e+18,-0.014712397940456867,-0.09234465658664703,-10.554880142211914
1.7275290304707187e+18,-0.05124308913946152,0.07703538239002228,-10.48870849609375
1.7275290304767188e+18,0.0621538870036602,0.0003502970503177494,-10.551791191101074
1.727529030482719e+18,0.007458566688001156,-0.00029997763340361416,-10.54832649230957
1.727529030488719e+18,0.06543196737766266,-0.00027636997401714325,-10.539626121520996
1.7275290304917192e+18,-0.010881930589675903,0.03499222546815872,-10.57673454284668
1.7275290304977193e+18,-0.017875589430332184,0.0025603827089071274,-10.583571434020996
1.7275290305037194e+18,0.08680975437164307,0.031217241659760475,-10.641697883605957
1.7275290305097196e+18,0.018000157549977303,0.03237798810005188,-10.52188777923584
1.7275290305157197e+18,0.031024379655718803,-0.034893542528152466,-10.481668472290039
1.7275290305217198e+18,-0.07637515664100647,0.015224218368530273,-10.546041488647461
1.7275290305247199e+18,0.0011533264769241214,0.027035227045416832,-10.546058654785156
1.72752903053072e+18,-0.039348993450403214,0.024299969896674156,-10.548293113708496
1.7275290305367201e+18,0.006984710227698088,-0.011299512349069118,-10.446885108947754
1.7275290305427203e+18,0.019428573548793793,-0.08177442848682404,-10.52541446685791
1.7275290305457203e+18,-0.024227438494563103,-0.04385435953736305,-10.471559524536133
1.7275290305517204e+18,0.008638707920908928,-0.022082289680838585,-10.492936134338379
1.7275290305577206e+18,0.027830203995108604,-0.017175208777189255,-10.526093482971191
1.7275290305637207e+18,-0.03467481583356857,0.057111263275146484,-10.608163833618164
1.7275290305667208e+18,-0.027184007689356804,-0.03482398763298988,-10.542972564697266
1.727529030572721e+18,0.03915056213736534,-0.05272126570343971,-10.538161277770996
1.727529030578721e+18,-0.06337107717990875,-0.04590148851275444,-10.469815254211426
1.7275290305847212e+18,-0.0029319680761545897,-0.05913285166025162,-10.541341781616211
1.7275290305907213e+18,0.008864509873092175,-0.0782037153840065,-10.470484733581543
1.7275290305967214e+18,0.016300806775689125,-0.004724451340734959,-10.495037078857422
1.7275290305997215e+18,0.020678574219346046,-0.01880192756652832,-10.39747428894043
1.7275290306057216e+18,-0.012060235254466534,-0.04053599387407303,-10.416106224060059
1.7275290306117217e+18,-0.0587783008813858,-0.008966945111751556,-10.458744049072266
1.7275290306177219e+18,-0.029032042250037193,-0.048876963555812836,-10.429505348205566
1.727529030623722e+18,-0.024481426924467087,0.08594642579555511,-10.40881061553955
1.727529030629722e+18,0.022346196696162224,-0.00278277019970119,-10.288516998291016
1.7275290306357222e+18,-0.04086998477578163,-0.044258322566747665,-10.266576766967773
1.7275290306417224e+18,0.07243406027555466,-0.06994319707155228,-10.340295791625977
1.7275290306447224e+18,-0.016513697803020477,-0.0673203319311142,-10.382031440734863
1.7275290306507226e+18,0.05783947929739952,0.05402130261063576,-10.265119552612305
1.7275290306567227e+18,-0.08782712370157242,0.028155211359262466,-10.245037078857422
1.7275290306627228e+18,0.006236076354980469,-0.02578624151647091,-10.238126754760742
1.727529030668723e+18,-0.003260112600401044,-0.028995756059885025,-10.226698875427246
1.727529030674723e+18,0.05784852057695389,0.022918686270713806,-10.222558975219727
1.7275290306807232e+18,-0.04208802804350853,0.043731316924095154,-10.257925987243652
1.7275290306837233e+18,-0.057477403432130814,0.01617259718477726,-10.159541130065918
1.7275290306897234e+18,0.024964576587080956,-0.054959338158369064,-10.148743629455566
1.7275290306957235e+18,0.03290208429098129,-0.07324948161840439,-10.111648559570312
1.7275290307017236e+18,0.002060971688479185,-0.10906054079532623,-10.202340126037598
1.7275290307077238e+18,0.008993485942482948,0.053000662475824356,-10.142574310302734
1.7275290307107238e+18,-0.03602054715156555,-0.04725256934762001,-10.149121284484863
1.727529030716724e+18,-0.014993353746831417,0.02705807238817215,-10.170295715332031
1.727529030722724e+18,0.03510308265686035,-0.03388508781790733,-10.059366226196289
1.7275290307287242e+18,0.06561224907636642,-0.05143630877137184,-10.122076988220215
1.7275290307347244e+18,0.03914151340723038,0.016816657036542892,-9.987967491149902
1.7275290307377244e+18,0.03557662293314934,-0.004139116033911705,-10.004790306091309
1.7275290307437245e+18,0.037260573357343674,0.013756917789578438,-9.975814819335938
1.7275290307497247e+18,-0.01710199937224388,-0.01536851841956377,-9.94942855834961
1.7275290307557248e+18,0.02581840194761753,0.019782034680247307,-9.976849555969238
1.727529030761725e+18,-0.11146292835474014,0.02150062285363674,-9.99698543548584
1.727529030764725e+18,-0.041047271341085434,0.07157447189092636,-10.056436538696289
1.727529030770725e+18,-0.007939058355987072,0.00695948489010334,-9.929991722106934
1.7275290307767252e+18,-0.05593188852071762,-0.05941150337457657,-9.873929977416992
1.7275290307827254e+18,-0.03712933138012886,-0.033806148916482925,-9.94978141784668
1.7275290307887255e+18,0.0794973149895668,0.0230514258146286,-9.853920936584473
1.7275290307947256e+18,0.05016901716589928,0.023511400446295738,-9.827707290649414
1.7275290308007258e+18,-0.007945396937429905,-0.04666450247168541,-9.782227516174316
1.7275290308037258e+18,0.027949679642915726,0.03431644290685654,-9.734823226928711
1.727529030809726e+18,-0.005426430609077215,0.022889284417033195,-9.803328514099121
1.727529030815726e+18,0.017878888174891472,0.023984387516975403,-9.726404190063477
1.7275290308217262e+18,-0.033768851310014725,0.024990186095237732,-9.719128608703613
1.7275290308277263e+18,0.004862057510763407,0.012001723051071167,-9.773972511291504
1.7275290308337265e+18,0.058420415967702866,0.03223789110779762,-9.762213706970215
1.7275290308397266e+18,-0.008944615721702576,0.008696328848600388,-9.624166488647461
1.7275290308427267e+18,0.05053678900003433,0.009856290183961391,-9.683119773864746
1.7275290308487268e+18,-0.029592374339699745,-0.10265111923217773,-9.742517471313477
1.727529030854727e+18,-0.005943311378359795,-0.0032463513780385256,-9.658621788024902
1.727529030860727e+18,-0.039956990629434586,-0.014187533408403397,-9.58627700805664
1.7275290308667272e+18,0.0745786651968956,-0.03678295761346817,-9.646900177001953
1.7275290308727273e+18,0.06492790579795837,-0.00133123726118356,-9.67194652557373
1.7275290308757274e+18,-0.030861420556902885,-0.012353445403277874,-9.691549301147461
1.7275290308817275e+18,0.04474008455872536,0.034688014537096024,-9.665390968322754
1.7275290308877276e+18,0.018440723419189453,-0.06885409355163574,-9.694189071655273
1.7275290308937277e+18,-0.018034951761364937,0.008249366655945778,-9.693065643310547
1.727529030899728e+18,-0.020284028723835945,-0.004614070989191532,-9.645078659057617
1.727529030902728e+18,-0.02564346417784691,-0.03766743093729019,-9.622162818908691
1.727529030908728e+18,0.04387662187218666,-0.052409570664167404,-9.743050575256348
1.7275290309147282e+18,0.039660558104515076,0.019482780247926712,-9.659073829650879
1.7275290309207283e+18,-0.027628624811768532,0.059222910553216934,-9.724078178405762
1.7275290309267284e+18,0.019118672236800194,0.03229082375764847,-9.604194641113281
1.7275290309297285e+18,0.017122825607657433,-0.04013976827263832,-9.64448356628418
1.7275290309357286e+18,0.010486205108463764,0.0016885665245354176,-9.664969444274902
1.7275290309417288e+18,-0.004893710371106863,0.04284031316637993,-9.656126976013184
1.727529030947729e+18,0.008104870095849037,0.004768918268382549,-9.685338020324707
1.727529030950729e+18,-0.018457869067788124,-0.014796068891882896,-9.648468017578125
1.727529030956729e+18,-0.011613797396421432,0.026112737134099007,-9.672331809997559
1.7275290309627292e+18,0.03527176380157471,-0.11396615952253342,-9.607637405395508
1.7275290309687293e+18,0.023413537070155144,0.02327222377061844,-9.723169326782227
1.7275290309747295e+18,0.10779261589050293,-0.04385581240057945,-9.731504440307617
1.7275290309777295e+18,0.01781194843351841,0.08334068953990936,-9.636205673217773
1.7275290309837297e+18,-0.015059941448271275,0.036835670471191406,-9.667974472045898
1.7275290309897298e+18,-0.053249530494213104,-0.01746564731001854,-9.635315895080566
1.72752903099573e+18,0.056365326046943665,-0.08074571937322617,-9.661796569824219
1.72752903099873e+18,0.0323607437312603,-0.007178106345236301,-9.641328811645508
1.72752903100473e+18,-0.0009184987284243107,0.009630059823393822,-9.64354419708252
1.7275290310107302e+18,-0.005180390551686287,-0.04398727044463158,-9.587638854980469
1.7275290310167304e+18,0.0483228899538517,0.03908733278512955,-9.603631973266602
1.7275290310227305e+18,0.0018117487197741866,0.004186720587313175,-9.576668739318848
1.7275290310257306e+18,-0.004997277166694403,-0.04610223323106766,-9.631982803344727
1.7275290310317307e+18,-0.051565732806921005,0.06969588249921799,-9.590641021728516
1.7275290310377308e+18,0.03279925510287285,0.04086754471063614,-9.657047271728516
1.727529031040731e+18,-0.039876122027635574,0.023166712373495102,-9.720864295959473
1.727529031046731e+18,0.04666212201118469,0.021564871072769165,-9.630258560180664
1.7275290310527311e+18,0.024465233087539673,-0.03748074546456337,-9.704133033752441
1.7275290310587313e+18,0.0008720960468053818,0.005607279017567635,-9.612984657287598
1.7275290310647314e+18,-0.07422473281621933,-0.04186667501926422,-9.643701553344727
1.7275290310707315e+18,0.02160431630909443,-0.04400927200913429,-9.659294128417969
1.7275290310737316e+18,0.023220831528306007,-0.00551878334954381,-9.62839412689209
1.7275290310797317e+18,0.004012639634311199,0.003639986738562584,-9.693990707397461
1.7275290310857318e+18,0.0754835307598114,0.08039818704128265,-9.67067813873291
1.727529031088732e+18,0.010773347690701485,-0.052317503839731216,-9.671791076660156
1.727529031094732e+18,-0.05678428336977959,0.008461004123091698,-9.631709098815918
1.7275290311007322e+18,0.044774796813726425,0.035734500735998154,-9.567094802856445
1.7275290311067323e+18,0.07475467771291733,0.020749157294631004,-9.653674125671387
1.7275290311127324e+18,-0.019516747444868088,0.004888829775154591,-9.605208396911621
1.7275290311187325e+18,0.035545576363801956,-0.02619895152747631,-9.536458969116211
1.7275290311217326e+18,0.053256865590810776,-0.036444831639528275,-9.622209548950195
1.7275290311277327e+18,-0.003662015311419964,-0.009506207890808582,-9.619194984436035
1.7275290311337329e+18,-0.014366522431373596,-0.007197326049208641,-9.615435600280762
1.727529031139733e+18,0.0045709311962127686,0.023107033222913742,-9.648558616638184
1.727529031142733e+18,-0.10393323749303818,-0.10750941187143326,-9.57900619506836
1.7275290311487332e+18,-0.0822237879037857,0.028808796778321266,-9.762441635131836
1.7275290311547333e+18,0.06012240797281265,-0.01851746067404747,-9.6918363571167
1.7275290311577334e+18,-0.02052878402173519,-0.04189702123403549,-9.666891098022461
1.7275290311637335e+18,0.0029941205866634846,0.045987486839294434,-9.668778419494629
1.7275290311697336e+18,-0.026295838877558708,-0.007024961523711681,-9.591667175292969
1.7275290311757338e+18,-0.02959500253200531,-0.05848421901464462,-9.570556640625
1.727529031181734e+18,0.04352602735161781,-0.061336372047662735,-9.650778770446777
1.727529031184734e+18,-0.024754559621214867,0.006759770680218935,-9.616767883300781
1.727529031190734e+18,-0.0096830939874053,0.030529169365763664,-9.562154769897461
1.7275290311967342e+18,0.08010824024677277,-0.007369748316705227,-9.677008628845215
1.7275290312027343e+18,0.01917589269578457,-0.04272923991084099,-9.661418914794922
1.7275290312057344e+18,0.024251829832792282,0.001511222217231989,-9.608603477478027
1.7275290312117345e+18,-0.0017111430643126369,0.04434651881456375,-9.56580638885498
1.7275290312177347e+18,-0.03312157467007637,0.015310636721551418,-9.607396125793457
1.7275290312237348e+18,-0.007903855293989182,-0.026549337431788445,-9.606552124023438
1.7275290312267348e+18,-0.02035314030945301,0.06199828162789345,-9.720503807067871
1.727529031232735e+18,-0.06864045560359955,0.03814522922039032,-9.556264877319336
1.727529031238735e+18,0.0036317268386483192,0.06941577047109604,-9.575937271118164
1.7275290312447352e+18,-0.037314172834157944,-0.006205018609762192,-9.634878158569336
1.7275290312477353e+18,-0.03471720591187477,-0.03398586064577103,-9.582436561584473
1.7275290312537354e+18,0.01992308348417282,0.018854103982448578,-9.604814529418945
1.7275290312597356e+18,-0.0616622157394886,0.047116968780756,-9.63340950012207
1.7275290312627356e+18,-0.048514474183321,-0.05850929394364357,-9.628247261047363
1.7275290312687357e+18,-0.00928921066224575,-0.02699834108352661,-9.580968856811523
1.7275290312747359e+18,0.018804585561156273,0.03053019940853119,-9.657280921936035
1.727529031280736e+18,-0.08300860971212387,-0.043186116963624954,-9.710052490234375
1.7275290312867361e+18,0.03190843015909195,0.013851504772901535,-9.593892097473145
1.7275290312897362e+18,0.010921427980065346,0.012372594326734543,-9.705804824829102
1.7275290312957363e+18,0.031883012503385544,-0.05260474979877472,-9.6460599899292
1.7275290313017364e+18,0.009673014283180237,0.05017780512571335,-9.554244041442871
1.7275290313077366e+18,-0.023372188210487366,0.0034805801697075367,-9.574069023132324
1.7275290313107366e+18,0.02990049310028553,-0.021140988916158676,-9.567794799804688
1.7275290313167368e+18,-0.041872166097164154,0.010527917183935642,-9.552389144897461
1.727529031322737e+18,-0.05197235941886902,-0.12042879313230515,-9.645995140075684
1.727529031328737e+18,0.15574036538600922,0.06319001317024231,-9.569258689880371
1.727529031331737e+18,-0.008912093937397003,0.007646172307431698,-9.566695213317871
1.7275290313377372e+18,0.022182529792189598,0.007938492111861706,-9.63839340209961
1.7275290313437373e+18,-0.08550257235765457,0.03423142060637474,-9.561308860778809
1.7275290313467374e+18,0.008394819684326649,0.010988343507051468,-9.615643501281738
1.7275290313527375e+18,-0.017612269148230553,0.002545634750276804,-9.58686637878418
1.7275290313587377e+18,-0.04700712114572525,0.042956579476594925,-9.63185977935791
1.7275290313647378e+18,0.06227938085794449,0.035053327679634094,-9.536537170410156
1.727529031370738e+18,0.020031828433275223,-0.009046645835042,-9.57608413696289
1.727529031373738e+18,-0.02390897460281849,-0.018508881330490112,-9.601641654968262
1.727529031379738e+18,0.006996919866651297,-0.029348274692893028,-9.561493873596191
1.7275290313857382e+18,-0.023704566061496735,-0.031001567840576172,-9.570401191711426
1.7275290313917384e+18,-0.0014774169540032744,0.006035005673766136,-9.530077934265137
1.7275290313977385e+18,0.008662649430334568,-0.021330110728740692,-9.657906532287598
1.7275290314037386e+18,0.02732495218515396,-0.018990715965628624,-9.564718246459961
1.7275290314067387e+18,-0.02703799493610859,-0.053985845297575,-9.585139274597168
1.7275290314127388e+18,-0.03170105442404747,-0.05276092514395714,-9.571561813354492
1.727529031418739e+18,-0.08878672122955322,0.009951042011380196,-9.612536430358887
1.727529031424739e+18,0.016685353592038155,0.03360147401690483,-9.562997817993164
1.7275290314307392e+18,0.07339620590209961,0.014970350079238415,-9.552006721496582
1.7275290314337393e+18,0.018861277028918266,-0.02354452945291996,-9.555564880371094
1.7275290314397394e+18,0.048660095781087875,-0.004856250248849392,-9.51744270324707
1.7275290314457395e+18,0.044299837201833725,-0.02491210773587227,-9.562384605407715
1.7275290314517396e+18,-0.01926318369805813,-0.02967904508113861,-9.642903327941895
1.7275290314547397e+18,0.03786409646272659,-0.00841632578521967,-9.586570739746094
1.7275290314607398e+18,0.020663833245635033,0.009782364591956139,-9.565498352050781
1.72752903146674e+18,0.04318281635642052,-0.05035663768649101,-9.57911205291748
1.72752903146974e+18,-0.02667474001646042,-0.01788252405822277,-9.583517074584961
1.7275290314757402e+18,-0.11952625215053558,0.009977146983146667,-9.512239456176758
1.7275290314817403e+18,-0.052789151668548584,0.08962853252887726,-9.480626106262207
1.7275290314877404e+18,-0.030736137181520462,-0.003554303664714098,-9.562700271606445
1.7275290314907405e+18,0.008794892579317093,0.030801309272646904,-9.566633224487305
1.7275290314967406e+18,0.05391545593738556,-0.031800154596567154,-9.481182098388672
1.7275290315027407e+18,-0.02816016785800457,-0.018496107310056686,-9.576163291931152
1.7275290315087409e+18,-0.05455524101853371,-0.0003749542811419815,-9.581910133361816
1.727529031511741e+18,0.030634915456175804,-0.01751123182475567,-9.560413360595703
1.727529031517741e+18,0.014387935400009155,0.0013772583333775401,-9.57259750366211
1.7275290315237412e+18,-0.026165220886468887,0.06440263986587524,-9.498221397399902
1.7275290315297413e+18,-0.09415621310472488,-0.022724270820617676,-9.476554870605469
1.7275290315327414e+18,-0.053437490016222,0.04414160177111626,-9.517481803894043
1.7275290315387415e+18,0.09133663028478622,-0.08372904360294342,-9.563044548034668
1.7275290315447416e+18,-0.0015747153665870428,0.09487105160951614,-9.464807510375977
1.7275290315477417e+18,-0.05259402096271515,-0.02829873189330101,-9.500078201293945
1.7275290315537418e+18,-0.036747951060533524,0.08535327762365341,-9.531000137329102
1.727529031559742e+18,0.02829168364405632,-0.03363669663667679,-9.512614250183105
1.727529031565742e+18,-0.06506648659706116,0.004319427534937859,-9.558518409729004
1.7275290315687421e+18,0.053038038313388824,-0.024352896958589554,-9.540038108825684
1.7275290315747423e+18,0.000570479838643223,-0.019623056054115295,-9.475944519042969
1.7275290315807424e+18,-0.14072944223880768,-0.03356194496154785,-9.510830879211426
1.7275290315867425e+18,0.01165372971445322,-0.008913123980164528,-9.609540939331055
1.7275290315897426e+18,0.005275078117847443,-0.04323480278253555,-9.56285285949707
1.7275290315957427e+18,0.02646443247795105,-0.04254958778619766,-9.502531051635742
1.7275290316017428e+18,-0.015268677845597267,-0.014339135028421879,-9.451101303100586
1.727529031604743e+18,-0.0632033571600914,-0.020232584327459335,-9.439674377441406
1.727529031610743e+18,-0.04968070238828659,0.01649460941553116,-9.555062294006348
1.7275290316167432e+18,-0.004761791322380304,-0.04570562019944191,-9.41915512084961
1.7275290316227433e+18,0.01933932676911354,0.041892021894454956,-9.467355728149414
1.7275290316287434e+18,-0.03244834020733833,0.021283147856593132,-9.525693893432617
1.7275290316317435e+18,0.07505941390991211,0.019671786576509476,-9.5150146484375
1.7275290316377436e+18,-0.028572633862495422,0.049022506922483444,-9.512173652648926
1.7275290316407437e+18,0.01600787602365017,-0.02465517446398735,-9.532225608825684
1.7275290316467438e+18,0.060543209314346313,-0.005918169394135475,-9.557376861572266
1.727529031652744e+18,-0.06499423831701279,0.03758008033037186,-9.493520736694336
1.727529031658744e+18,-0.057755663990974426,0.047101497650146484,-9.484374046325684
1.727529031661744e+18,0.028646932914853096,-0.030445119366049767,-9.544986724853516
1.7275290316677443e+18,-0.019564112648367882,-0.012262819334864616,-9.496031761169434
1.7275290316737444e+18,-0.011638357304036617,-0.06793077290058136,-9.538117408752441
1.7275290316797445e+18,-0.06178174912929535,-0.05641550570726395,-9.538871765136719
1.7275290316857446e+18,0.03180334344506264,0.06256093084812164,-9.569064140319824
1.7275290316887447e+18,0.05034942552447319,0.005305557977408171,-9.493355751037598
1.7275290316947448e+18,0.030237535014748573,0.08480213582515717,-9.51243782043457
1.727529031700745e+18,0.036316849291324615,0.0948352962732315,-9.531676292419434
1.727529031706745e+18,0.050472695380449295,-0.02984178625047207,-9.542774200439453
1.7275290317097452e+18,0.014230801723897457,0.016482267528772354,-9.470070838928223
1.7275290317157453e+18,-0.0041697388514876366,-0.05987367033958435,-9.533702850341797
1.7275290317217454e+18,-0.0448199026286602,-0.029317855834960938,-9.503608703613281
1.7275290317277455e+18,-0.011098607443273067,-0.06263371556997299,-9.486287117004395
1.7275290317307456e+18,0.008981037884950638,0.062378644943237305,-9.527324676513672
1.7275290317367457e+18,0.05109862983226776,0.039547111839056015,-9.569199562072754
1.7275290317427459e+18,0.07246003299951553,-0.05882182717323303,-9.468008041381836
1.727529031748746e+18,-0.02335004135966301,-0.0087367482483387,-9.447794914245605
1.727529031751746e+18,0.04176493361592293,0.011200723238289356,-9.440265655517578
1.7275290317577462e+18,0.001560117001645267,0.014735065400600433,-9.47584056854248
1.7275290317637463e+18,0.0021873838268220425,0.06589387357234955,-9.47564697265625
1.7275290317697464e+18,0.08267246186733246,-0.07289183139801025,-9.546929359436035
1.7275290317727465e+18,0.04456532001495361,-0.1189049631357193,-9.437479019165039
1.7275290317787466e+18,-0.04324602335691452,0.04325634613633156,-9.538864135742188
1.7275290317847468e+18,-0.002532270736992359,-0.02120112255215645,-9.435107231140137
1.727529031790747e+18,-0.041760094463825226,0.039665207266807556,-9.477771759033203
1.727529031793747e+18,-0.018230296671390533,-0.06686249375343323,-9.493865013122559
1.727529031799747e+18,0.00948544591665268,0.02191147208213806,-9.42605209350586
1.7275290318057472e+18,-0.013911597430706024,0.00936447735875845,-9.490153312683105
1.7275290318087473e+18,0.01424851082265377,-0.016675792634487152,-9.488338470458984
1.7275290318147474e+18,-0.07196439057588577,-0.006380773149430752,-9.510824203491211
1.7275290318207475e+18,0.06115100905299187,0.08606521785259247,-9.451126098632812
1.7275290318267476e+18,0.062132272869348526,0.016318388283252716,-9.486947059631348
1.7275290318327478e+18,-0.0009081341559067369,-0.006345514208078384,-9.452216148376465
1.727529031838748e+18,-0.0475907064974308,-0.02630026265978813,-9.376991271972656
1.727529031841748e+18,0.03585595637559891,-0.006069081835448742,-9.543375968933105
1.727529031847748e+18,0.017568306997418404,-0.002390601672232151,-9.453802108764648
1.7275290318537482e+18,0.00586230494081974,-0.018383188173174858,-9.461997985839844
1.7275290318597484e+18,0.03350032493472099,0.027429822832345963,-9.4663667678833
1.7275290318627484e+18,0.0030835922807455063,-0.06705076992511749,-9.437786102294922
1.7275290318687485e+18,0.04897168651223183,0.010903919115662575,-9.41576862335205
1.7275290318747487e+18,-0.0021606874652206898,-0.07386535406112671,-9.442795753479004
1.7275290318777487e+18,-0.004957512952387333,0.02503833919763565,-9.441927909851074
1.7275290318837489e+18,0.034948159009218216,-0.06426282227039337,-9.485369682312012
1.727529031889749e+18,-0.03483011573553085,-0.10007824748754501,-9.536734580993652
1.727529031895749e+18,-0.0577516183257103,0.07928121834993362,-9.439118385314941
1.7275290319017492e+18,-0.028774019330739975,-0.00835738331079483,-9.508331298828125
1.7275290319077494e+18,-0.0044901869259774685,-0.0669526606798172,-9.441346168518066
1.7275290319137495e+18,0.009222559630870819,-0.026838868856430054,-9.374794006347656
1.7275290319167496e+18,0.08212921023368835,0.024407584220170975,-9.469775199890137
1.7275290319227497e+18,0.07287775725126266,0.03037906251847744,-9.418798446655273
1.7275290319287498e+18,0.001889294246211648,-0.051415130496025085,-9.481592178344727
1.72752903193175e+18,-0.028676871210336685,0.0017471867613494396,-9.4641695022583
1.72752903193775e+18,0.07457022368907928,-0.043323397636413574,-9.53130054473877
1.7275290319437501e+18,-0.01540064625442028,-0.0019324467284604907,-9.474056243896484
1.7275290319497503e+18,-0.02222607471048832,-0.06533658504486084,-9.532083511352539
1.7275290319557504e+18,0.021658843383193016,-0.020985156297683716,-9.410501480102539
1.7275290319587505e+18,0.07365170121192932,0.07137929648160934,-9.438939094543457
1.7275290319647506e+18,-0.029873404651880264,-0.027723586186766624,-9.512696266174316
1.7275290319707507e+18,0.012411458417773247,-0.058002348989248276,-9.445794105529785
1.7275290319767508e+18,-0.05210435017943382,0.054554469883441925,-9.44359302520752
1.727529031982751e+18,0.012229119427502155,0.003429441712796688,-9.443607330322266
1.727529031985751e+18,-0.07645115256309509,0.005222051404416561,-9.45358943939209
1.7275290319947512e+18,0.00755934976041317,-0.004341574385762215,-9.454358100891113
1.7275290320007514e+18,0.0610399954020977,0.002289592055603862,-9.344989776611328
1.7275290320037514e+18,-0.06361731141805649,-0.012287183664739132,-9.365585327148438
1.7275290320097516e+18,0.014769097790122032,-0.02612685039639473,-9.509284019470215
1.7275290320157517e+18,-0.02264135144650936,-0.03952939435839653,-9.422891616821289
1.7275290320217518e+18,-0.033386100083589554,0.07301071286201477,-9.442806243896484
1.727529032027752e+18,0.016720173880457878,-0.013509317301213741,-9.459566116333008
1.727529032030752e+18,0.048726700246334076,-0.04795019328594208,-9.398917198181152
1.7275290320367521e+18,-0.045153141021728516,-0.04174826294183731,-9.403592109680176
1.7275290320427523e+18,0.03869972378015518,-0.04344278201460838,-9.431781768798828
1.7275290320457523e+18,-0.023236555978655815,0.05505429953336716,-9.384248733520508
1.7275290320517524e+18,0.021588221192359924,-0.10189457982778549,-9.488295555114746
1.7275290320577526e+18,-0.040061358362436295,-0.06847652792930603,-9.425455093383789
1.7275290320637527e+18,-0.004879665095359087,-0.01731712371110916,-9.49540901184082
1.7275290320697528e+18,0.02788519486784935,0.005420701112598181,-9.385872840881348
1.727529032072753e+18,0.020025037229061127,-0.0039013344794511795,-9.46125316619873
1.727529032078753e+18,0.01812526397407055,-0.01911044493317604,-9.34088134765625
1.7275290320847532e+18,0.052584100514650345,0.0009339635143987834,-9.404394149780273
1.7275290320907533e+18,-0.04830051586031914,0.053150203078985214,-9.48270320892334
1.7275290320967534e+18,-0.048255544155836105,0.035474907606840134,-9.346694946289062
1.7275290320997535e+18,0.001138265710324049,-0.03920412436127663,-9.388278007507324
1.7275290321057536e+18,0.05286061018705368,-0.09587687253952026,-9.408804893493652
1.7275290321117537e+18,0.0336090587079525,-0.017828308045864105,-9.470120429992676
1.7275290321177539e+18,0.006866053212434053,0.058493442833423615,-9.490555763244629
1.727529032120754e+18,-0.03728614002466202,0.004464598838239908,-9.434090614318848
1.727529032126754e+18,0.026897428557276726,0.08273957669734955,-9.39301586151123
1.7275290321327542e+18,-0.04820741340517998,0.026194874197244644,-9.430758476257324
1.7275290321357542e+18,0.11621138453483582,-0.0042309933342039585,-9.40352725982666
1.7275290321417544e+18,0.04829862713813782,-0.010005652904510498,-9.385819435119629
1.7275290321477545e+18,0.026204852387309074,-0.09388856589794159,-9.433220863342285
1.7275290321537546e+18,0.009041646495461464,0.0801238864660263,-9.404092788696289
1.7275290321567547e+18,-0.04700419306755066,-0.00896545872092247,-9.367430686950684
1.7275290321627548e+18,-0.08215029537677765,0.0023807836696505547,-9.439065933227539
1.727529032168755e+18,-0.05621315538883209,0.014048337005078793,-9.408987998962402
1.727529032174755e+18,0.04305043816566467,0.032485075294971466,-9.335599899291992
1.7275290321777551e+18,-0.0013142813695594668,-0.019015289843082428,-9.362674713134766
1.7275290321837553e+18,0.040753670036792755,-0.05868113413453102,-9.39732837677002
1.7275290321897554e+18,0.06825856864452362,0.019912689924240112,-9.399226188659668
1.7275290321957555e+18,-0.02381276898086071,0.032876938581466675,-9.505221366882324
1.7275290322017556e+18,0.0376507043838501,-0.05687148869037628,-9.394179344177246
1.7275290322047557e+18,0.02024449035525322,-0.10404530167579651,-9.449995040893555
1.7275290322107558e+18,0.06858355551958084,0.03156832233071327,-9.498332023620605
1.727529032216756e+18,0.0147612439468503,0.05027938261628151,-9.459388732910156
1.727529032222756e+18,-0.03774166852235794,-0.02278151735663414,-9.383766174316406
1.7275290322257562e+18,-0.02743225172162056,-0.006074490025639534,-9.42733097076416
1.7275290322317563e+18,-0.010343683883547783,-0.0013949229614809155,-9.382515907287598
1.7275290322377564e+18,-0.01142388116568327,0.06817980110645294,-9.344355583190918
1.7275290322437565e+18,0.03510966897010803,-0.048567868769168854,-9.3723783493042
1.7275290322467566e+18,0.07654505968093872,0.02484787628054619,-9.287717819213867
1.7275290322527567e+18,0.04819578677415848,-0.01153540052473545,-9.3968505859375
1.7275290322587569e+18,-0.007330125663429499,0.003245704574510455,-9.40934944152832
1.727529032264757e+18,-0.004731211345642805,0.01316963229328394,-9.295238494873047
1.727529032267757e+18,0.017240647226572037,0.005374246276915073,-9.284740447998047
1.7275290322737572e+18,0.053282760083675385,0.041370101273059845,-9.260778427124023
1.7275290322797573e+18,-0.026087773963809013,0.025242062285542488,-9.268838882446289
1.7275290322857574e+18,0.010463675484061241,-0.005667092278599739,-9.22077465057373
1.7275290322887575e+18,0.043442294001579285,-0.023158667609095573,-9.239197731018066
1.7275290322947576e+18,0.029673993587493896,0.005823493003845215,-9.228543281555176
1.7275290323007578e+18,0.011142300441861153,-0.014363275840878487,-9.188521385192871
1.727529032306758e+18,0.004599224776029587,0.059813957661390305,-9.072985649108887
1.727529032309758e+18,-0.05612262338399887,-0.014292172156274319,-9.18735122680664
1.727529032315758e+18,0.024555690586566925,-0.052774738520383835,-9.1259183883667
1.7275290323217582e+18,-0.005684012547135353,0.11697675287723541,-9.109298706054688
1.7275290323247583e+18,-0.04468974471092224,0.02767002023756504,-9.11583137512207
1.7275290323307584e+18,-0.02748936414718628,0.000619326950982213,-9.068474769592285
1.7275290323367585e+18,0.013518234714865685,0.0953659862279892,-9.079201698303223
1.7275290323427587e+18,0.015277935191988945,0.006238492671400309,-8.991994857788086
1.7275290323457587e+18,0.07805810868740082,-0.09655279666185379,-9.062714576721191
1.7275290323517588e+18,0.005254738032817841,-0.06859201937913895,-9.024937629699707
1.727529032357759e+18,0.023547090590000153,-0.02876182086765766,-8.991477966308594
1.727529032363759e+18,0.010397764854133129,-0.02982768602669239,-9.061334609985352
1.7275290323667592e+18,0.018516575917601585,0.023526983335614204,-8.955681800842285
1.7275290323727593e+18,0.03646876662969589,0.03556239232420921,-8.891803741455078
1.7275290323787594e+18,0.018469393253326416,0.11410035192966461,-8.92940902709961
1.7275290323847596e+18,-0.0412951298058033,0.05253412202000618,-8.900622367858887
1.7275290323907597e+18,-0.08967309445142746,0.024440037086606026,-8.912481307983398
1.7275290323967598e+18,0.07493849098682404,-0.015970055013895035,-8.959877014160156
1.72752903239976e+18,0.036602284759283066,0.08167824149131775,-8.906259536743164
1.72752903240576e+18,0.0019624647684395313,-0.03608076646924019,-8.835135459899902
1.72752903241176e+18,0.030337821692228317,-0.027408964931964874,-8.853075981140137
1.7275290324177603e+18,0.005309706088155508,0.07196469604969025,-8.773975372314453
1.7275290324237604e+18,-0.04031089320778847,-0.004728707484900951,-8.72917652130127
1.7275290324267604e+18,-0.044960543513298035,0.026942063122987747,-8.763422966003418
1.7275290324327606e+18,-0.04092269390821457,-0.0904744490981102,-8.733566284179688
1.7275290324387607e+18,0.051432084292173386,-0.01735999807715416,-8.774658203125
1.7275290324447608e+18,0.007829091511666775,-0.05729246139526367,-8.599482536315918
1.727529032447761e+18,-0.019686955958604813,0.01832623779773712,-8.690135955810547
1.727529032453761e+18,-0.06918598711490631,0.00906277447938919,-8.63266372680664
1.7275290324597612e+18,-0.09188403189182281,-0.046888675540685654,-8.686182022094727
1.7275290324657613e+18,-0.055650465190410614,-0.00864039734005928,-8.6082124710083
1.7275290324717614e+18,0.005048460327088833,-0.042850811034440994,-8.644206047058105
1.7275290324747615e+18,0.024065492674708366,-0.052637796849012375,-8.61583137512207
1.7275290324807616e+18,0.027979478240013123,-0.11413982510566711,-8.579489707946777
1.7275290324867617e+18,0.03771961107850075,0.08839291334152222,-8.612432479858398
1.7275290324927619e+18,0.011765954084694386,0.06565658748149872,-8.618890762329102
1.727529032498762e+18,0.024077609181404114,-2.8747461328748614e-05,-8.586934089660645
1.727529032504762e+18,0.09141577780246735,0.006988914217799902,-8.614771842956543
1.7275290325107622e+18,-0.007727272342890501,0.04125099629163742,-8.623705863952637
1.7275290325137623e+18,-0.008431089110672474,-0.036331743001937866,-8.653773307800293
1.7275290325197624e+18,0.044764719903469086,0.04273174703121185,-8.589582443237305
1.7275290325257626e+18,-0.07550620287656784,0.0037674233317375183,-8.716628074645996
1.7275290325317627e+18,0.0016715535894036293,-0.02798531763255596,-8.631142616271973
1.7275290325347628e+18,0.06991714239120483,-0.022447336465120316,-8.71092700958252
1.727529032540763e+18,-0.07910934835672379,-0.04530227184295654,-8.682978630065918
1.727529032546763e+18,-0.004418045748025179,-0.0005001748213544488,-8.687721252441406
1.7275290325527631e+18,-0.047837208956480026,0.028833162039518356,-8.717730522155762
1.7275290325557632e+18,0.03904487192630768,-0.005708188749849796,-8.690037727355957
1.7275290325617633e+18,0.07016154378652573,-0.07582524418830872,-8.709672927856445
1.7275290325677635e+18,0.009628379717469215,0.05730355530977249,-8.682345390319824
1.7275290325737636e+18,0.03358516842126846,0.07337827980518341,-8.703181266784668
1.7275290325797637e+18,0.0023356934543699026,0.0525452122092247,-8.786218643188477
1.7275290325857638e+18,-0.044289588928222656,-0.02281481958925724,-8.765331268310547
1.727529032588764e+18,0.0507056824862957,0.023833179846405983,-8.643494606018066
1.727529032594764e+18,0.050637658685445786,-0.022734323516488075,-13.921281814575195
1.7275290326007642e+18,0.05399508774280548,-0.061569083482027054,-15.488020896911621
1.7275290326067643e+18,0.019602099433541298,-0.06530307978391647,-15.94511604309082
1.7275290326097644e+18,0.00541135435923934,0.009317687712609768,-16.081384658813477
1.7275290326157645e+18,0.039582401514053345,-0.025193525478243828,-16.161148071289062
1.7275290326217646e+18,0.031117359176278114,0.04473348334431648,-16.2026424407959
1.7275290326277647e+18,-0.045804254710674286,-0.03678962588310242,-16.230712890625
1.7275290326337649e+18,-0.010093280114233494,-0.008920101448893547,-16.091934204101562
1.727529032636765e+18,0.03232497349381447,0.018210958689451218,-16.152780532836914
1.727529032642765e+18,-0.026190858334302902,-0.027996927499771118,-16.042953491210938
1.7275290326487652e+18,-0.06505309045314789,-0.057883646339178085,-15.967493057250977
1.7275290326547653e+18,-0.037093665450811386,-0.031020637601614,-15.799304962158203
1.7275290326607654e+18,-0.004725388251245022,-0.06000741571187973,-15.70850944519043
1.7275290326667656e+18,-0.10870300978422165,0.01424984447658062,-15.696352005004883
1.7275290326697656e+18,0.009294850751757622,-0.03297810256481171,-15.572856903076172
1.7275290326757658e+18,-0.014674857258796692,0.10210786759853363,-15.562582015991211
1.727529032681766e+18,0.06163479760289192,0.016795018687844276,-15.460307121276855
1.727529032687766e+18,0.05455275624990463,-0.06093292310833931,-15.518239974975586
1.727529032690766e+18,-0.015426644124090672,-0.019466746598482132,-15.434341430664062
1.7275290326967662e+18,-0.11526653915643692,-0.011656009592115879,-15.301085472106934
1.7275290327027663e+18,-0.03989572823047638,-0.01417482178658247,-15.149332046508789
1.7275290327057664e+18,-0.07521188259124756,0.013526859693229198,-15.085262298583984
1.7275290327117665e+18,-0.08554469794034958,0.025626415386795998,-15.089384078979492
1.7275290327177667e+18,-0.05271894112229347,0.069733165204525,-14.937469482421875
1.7275290327237668e+18,-0.032446201890707016,0.07569867372512817,-14.974218368530273
1.7275290327267668e+18,-0.05100357532501221,-0.030779657885432243,-14.817489624023438
1.727529032732767e+18,-0.01706913486123085,0.07294026762247086,-14.727214813232422
1.727529032738767e+18,0.0030495007522404194,-0.019465988501906395,-14.703049659729004
1.7275290327447672e+18,-0.03194426745176315,-0.023506760597229004,-14.690604209899902
1.7275290327477673e+18,0.019066467881202698,-0.020259112119674683,-14.556057929992676
1.7275290327537674e+18,0.04216158762574196,0.023847617208957672,-14.527935981750488
1.7275290327597676e+18,0.03462841361761093,0.013366829603910446,-14.414484024047852
1.7275290327657677e+18,-0.02169381082057953,-0.0014445822453126311,-14.31967830657959
1.7275290327717678e+18,-0.05936140567064285,0.029422767460346222,-14.252837181091309
1.727529032777768e+18,0.004191683139652014,-0.033556099981069565,-14.1270170211792
1.727529032780768e+18,-0.04479917883872986,-0.014496345072984695,-14.078454971313477
1.7275290327867681e+18,0.0018038623966276646,-0.028482520952820778,-14.044759750366211
1.7275290327927683e+18,0.04056144878268242,-0.006542387418448925,-14.061738967895508
1.7275290327987684e+18,-0.0047914497554302216,0.008127533830702305,-13.929662704467773
1.7275290328017684e+18,-0.06540023535490036,0.021943747997283936,-13.904088020324707
1.7275290328077686e+18,0.016277378425002098,0.05042817071080208,-13.895866394042969
1.7275290328137687e+18,0.007884527556598186,-0.02225179597735405,-13.773662567138672
1.7275290328197688e+18,0.014667087234556675,-0.07555907219648361,-13.727954864501953
1.727529032822769e+18,-0.02359711192548275,-0.04319261759519577,-13.751378059387207
1.727529032828769e+18,0.011832115240395069,0.022434396669268608,-13.569408416748047
1.7275290328347692e+18,0.056302644312381744,0.0002230632962891832,-13.607922554016113
1.7275290328407693e+18,-0.05259247124195099,-0.04293840378522873,-13.540056228637695
1.7275290328467694e+18,-0.05481725558638573,0.00290772900916636,-13.540201187133789
1.7275290328497695e+18,0.04280491918325424,0.003985005430877209,-13.431427955627441
1.7275290328557696e+18,0.012529286555945873,-0.03024572879076004,-13.401514053344727
1.7275290328617697e+18,0.015610474161803722,0.005080271512269974,-13.260610580444336
1.7275290328677699e+18,-0.045573946088552475,0.10008265823125839,-13.249076843261719
1.72752903287077e+18,0.018466541543602943,-0.027386054396629333,-13.118956565856934
1.72752903287677e+18,-0.005335697438567877,-0.0014032887993380427,-13.254456520080566
1.7275290328827702e+18,-0.018161427229642868,0.023833710700273514,-13.143628120422363
1.7275290328887703e+18,0.01398866530507803,0.030618615448474884,-13.0508394241333
1.7275290328917704e+18,-0.03420168161392212,-0.009843990206718445,-12.999135971069336
1.7275290328977705e+18,0.026043659076094627,-0.03544621542096138,-12.923328399658203
1.7275290329037706e+18,-0.019895797595381737,-0.0074002305045723915,-12.978569030761719
1.7275290329097708e+18,-0.03511134535074234,0.013092841021716595,-12.887761116027832
1.727529032915771e+18,0.05640518292784691,0.029688363894820213,-12.818646430969238
1.727529032921771e+18,-0.009862466715276241,0.011529017239809036,-12.717628479003906
1.727529032924771e+18,-0.09394429624080658,0.06365843862295151,-12.762899398803711
1.7275290329307712e+18,0.016410818323493004,-0.10712922364473343,-12.764937400817871
1.7275290329367713e+18,-0.02932223491370678,0.0162862129509449,-12.72114372253418
1.7275290329427715e+18,0.012081966735422611,0.055682308971881866,-12.64617919921875
1.7275290329457715e+18,0.00521022267639637,-0.01493336446583271,-12.491776466369629
1.7275290329517716e+18,-0.014761406928300858,-0.038026127964258194,-12.55412769317627
1.7275290329577718e+18,-0.07501892745494843,0.049384500831365585,-12.46569538116455
1.7275290329607718e+18,-0.003387198317795992,0.009444856084883213,-12.439300537109375
1.727529032966772e+18,0.01905198208987713,0.05475342273712158,-12.471367835998535
1.727529032972772e+18,0.0008223940967582166,-0.013537951745092869,-12.475979804992676
1.7275290329787722e+18,0.04303771257400513,0.014014789834618568,-12.341456413269043
1.7275290329847724e+18,0.05041404068470001,0.040117423981428146,-12.364551544189453
1.7275290329877724e+18,-0.013777968473732471,0.018562421202659607,-12.334181785583496
1.7275290329937725e+18,0.013337763026356697,0.027069367468357086,-12.285361289978027
1.7275290329997727e+18,0.02793433703482151,0.025513004511594772,-12.291091918945312
1.7275290330057728e+18,0.06521495431661606,0.02039477974176407,-12.261279106140137
1.7275290330087729e+18,0.00951839517802,-0.008694985881447792,-12.209217071533203
1.727529033014773e+18,-0.032272785902023315,-0.06074058637022972,-12.145929336547852
1.727529033020773e+18,-0.013874505646526814,-0.03996197506785393,-12.17096996307373
1.7275290330237732e+18,-0.00466724019497633,-0.010210961103439331,-12.124946594238281
1.7275290330297733e+18,-0.0796600878238678,-0.04789818078279495,-12.01919174194336
1.7275290330357734e+18,-0.015597628429532051,0.021682117134332657,-12.1185302734375
1.7275290330417736e+18,0.059408146888017654,-0.018950171768665314,-11.950568199157715
1.7275290330477737e+18,0.053596027195453644,0.06895584613084793,-11.976330757141113
1.7275290330507738e+18,0.033943258225917816,0.00748351588845253,-11.910379409790039
1.727529033056774e+18,-0.0038732304237782955,-0.006850873120129108,-11.860013961791992
1.727529033062774e+18,0.08658802509307861,-0.013585216365754604,-11.915932655334473
1.7275290330687741e+18,0.026204217225313187,-0.02004377916455269,-11.903461456298828
1.7275290330747743e+18,-0.047888390719890594,0.0911894142627716,-11.821783065795898
1.7275290330777743e+18,-0.023886574432253838,-0.02016454190015793,-11.826400756835938
1.7275290330837745e+18,0.0034601232036948204,-0.04314524307847023,-11.704723358154297
1.7275290330897746e+18,0.043872375041246414,-0.04779025539755821,-11.669482231140137
1.7275290330957747e+18,0.08508195728063583,0.04686605557799339,-11.739067077636719
1.7275290331017748e+18,0.09274930506944656,-0.085922010242939,-11.623307228088379
1.727529033107775e+18,-0.041634511202573776,0.02238997258245945,-11.693899154663086
1.727529033110775e+18,0.046717092394828796,-0.06207619234919548,-11.63022232055664
1.7275290331167752e+18,0.05303144454956055,0.07471057772636414,-11.658702850341797
1.7275290331227753e+18,0.036566831171512604,0.040419790893793106,-11.696982383728027
1.7275290331287754e+18,-0.011376987211406231,-0.010097390040755272,-11.660921096801758
1.7275290331317755e+18,-0.033554572612047195,0.0018554928246885538,-11.59907054901123
1.7275290331377756e+18,-0.041030898690223694,0.019806576892733574,-11.582453727722168
1.7275290331437757e+18,0.05175992101430893,-0.06610957533121109,-11.45814323425293
1.7275290331467758e+18,-0.006005306262522936,-0.0860334113240242,-11.47540283203125
1.727529033152776e+18,-0.033143483102321625,-0.031051285564899445,-11.565610885620117
1.727529033158776e+18,-0.0026181174907833338,-0.04292827472090721,-11.430049896240234
1.7275290331647762e+18,-0.011163347400724888,0.038058098405599594,-11.438751220703125
1.7275290331707763e+18,0.013610864989459515,-0.015147248283028603,-11.44063663482666
1.7275290331737764e+18,0.07941079884767532,0.042874615639448166,-11.382224082946777
1.7275290331797765e+18,-0.0463368222117424,0.016870638355612755,-11.30312442779541
1.7275290331857766e+18,0.011967896483838558,-0.009126857854425907,-11.431722640991211
1.7275290331917768e+18,-0.0458599217236042,0.003408161923289299,-11.238191604614258
1.7275290331947768e+18,-0.0005801126244477928,0.04591958969831467,-11.25816822052002
1.727529033200777e+18,-0.1104070395231247,-0.02036706916987896,-11.346125602722168
1.727529033206777e+18,0.005946523509919643,0.03305377811193466,-11.286956787109375
1.7275290332097772e+18,-0.048091720789670944,-0.03332266956567764,-11.271678924560547
1.7275290332157773e+18,-0.05366602540016174,0.06719589233398438,-11.159839630126953
1.7275290332217774e+18,0.015464362688362598,0.08200186491012573,-11.234990119934082
1.7275290332277775e+18,0.06280862540006638,-0.0011376501061022282,-11.297904968261719
1.7275290332337777e+18,0.01810787431895733,-0.06727371364831924,-11.236467361450195
1.7275290332397778e+18,0.008400766178965569,-0.0021008988842368126,-11.204206466674805
1.7275290332427779e+18,0.05499810725450516,-0.026816248893737793,-11.148127555847168
1.727529033248778e+18,-0.03010024130344391,-0.001397337531670928,-11.133760452270508
1.727529033254778e+18,-0.051326997578144073,-0.02778208814561367,-11.207439422607422
1.7275290332577782e+18,-0.033560898154973984,0.012522799894213676,-11.190990447998047
1.7275290332637783e+18,0.01816452294588089,-0.04370865598320961,-11.125518798828125
1.7275290332697784e+18,-0.0004270393692422658,0.028073078021407127,-11.134897232055664
1.7275290332757786e+18,0.053614865988492966,0.013265727087855339,-11.059910774230957
1.7275290332787786e+18,0.051013700664043427,-0.05916614830493927,-11.0344877243042
1.7275290332847788e+18,0.051293060183525085,-0.08340433984994888,-11.067469596862793
1.727529033290779e+18,-0.06904971599578857,0.033741530030965805,-10.98873233795166
1.727529033296779e+18,0.050865355879068375,0.02158024162054062,-10.995725631713867
1.727529033299779e+18,0.008425671607255936,-0.052116166800260544,-10.9694242477417
1.7275290333057792e+18,0.07189621031284332,-0.06675968319177628,-11.061468124389648
1.7275290333117793e+18,0.009658543393015862,-0.09101635962724686,-10.97044563293457
1.7275290333177795e+18,0.01820283569395542,0.02638743259012699,-10.955163955688477
1.7275290333207795e+18,-0.019337967038154602,-0.0009728760924190283,-10.871747970581055
1.7275290333267796e+18,0.028535814955830574,0.007132832892239094,-10.942083358764648
1.7275290333327798e+18,0.004232202190905809,0.00927902851253748,-10.811094284057617
1.7275290333357798e+18,0.13858824968338013,-0.0921865776181221,-10.913344383239746
1.72752903334178e+18,0.09653270989656448,-0.03079933673143387,-10.887375831604004
1.72752903334778e+18,0.05119995400309563,0.04562956467270851,-10.770609855651855
1.7275290333537802e+18,0.004603725858032703,-0.0034384075552225113,-10.818385124206543
1.7275290333597804e+18,0.028552794829010963,-0.004924382548779249,-10.790112495422363
1.7275290333627804e+18,-0.0063507952727377415,-0.0025886863004416227,-10.780166625976562
1.7275290333687805e+18,-0.04132329672574997,0.0224615391343832,-10.807104110717773
1.7275290333747807e+18,-0.030814912170171738,-0.008008587174117565,-10.814934730529785
1.7275290333807808e+18,-0.028644446283578873,-0.03439795970916748,-10.76108455657959
1.7275290333837809e+18,-0.042145736515522,-0.020354850217700005,-10.786897659301758
1.727529033389781e+18,-0.06215003505349159,0.05256498232483864,-10.747254371643066
1.727529033395781e+18,0.02293272688984871,0.08584754914045334,-10.76968765258789
1.7275290334017812e+18,-0.04500136896967888,0.010930215008556843,-10.765050888061523
1.7275290334077814e+18,0.05788785219192505,-0.01900201290845871,-10.798741340637207
1.7275290334107814e+18,0.09361016005277634,-0.04086349904537201,-10.694360733032227
1.7275290334167816e+18,0.0035562675911933184,0.038019802421331406,-10.684282302856445
1.7275290334227817e+18,-0.030288971960544586,0.08286990225315094,-10.701504707336426
1.7275290334287818e+18,0.032603971660137177,-0.01719682477414608,-10.660554885864258
1.727529033431782e+18,0.11526604741811752,0.02608618326485157,-10.603715896606445
1.727529033437782e+18,0.045842282474040985,-0.020496878772974014,-10.586088180541992
1.7275290334437821e+18,0.009790594689548016,0.032179445028305054,-10.632071495056152
1.7275290334497823e+18,-0.028266092762351036,0.04179859533905983,-10.605101585388184
1.7275290334557824e+18,-0.007210706826299429,0.058058228343725204,-10.64648723602295
1.7275290334587825e+18,0.014911795035004616,-0.046304065734148026,-10.623650550842285
1.7275290334647826e+18,0.06269149482250214,-0.029579276219010353,-10.57466983795166
1.7275290334707827e+18,-0.006737379357218742,0.01104886457324028,-10.589803695678711
1.7275290334767828e+18,-0.027365613728761673,-0.022725801914930344,-10.47885513305664
1.727529033482783e+18,-0.007121609523892403,-0.015919795259833336,-10.535219192504883
1.727529033485783e+18,0.03675061836838722,0.08627306669950485,-10.509531021118164
1.7275290334917832e+18,-0.02499016560614109,0.008548053912818432,-10.570115089416504
1.7275290334977833e+18,-0.04519699513912201,-0.012226233258843422,-10.502524375915527
1.7275290335037834e+18,-0.013574604876339436,0.06008555740118027,-10.438332557678223
1.7275290335067835e+18,-0.01771077886223793,-0.014984439127147198,-10.464736938476562
1.7275290335127836e+18,0.04998496174812317,-8.878211519913748e-05,-10.452510833740234
1.7275290335187837e+18,0.06385280191898346,0.04813680052757263,-10.480353355407715
1.7275290335247839e+18,-0.01327662356197834,-0.00025214668130502105,-10.425535202026367
1.727529033530784e+18,0.021194102242588997,-0.04766646400094032,-10.466056823730469
1.727529033533784e+18,-0.012860885821282864,0.0321195013821125,-10.376235961914062
1.7275290335397842e+18,0.021058570593595505,-0.11091170459985733,-10.460134506225586
1.7275290335457843e+18,-0.005422413814812899,0.025672759860754013,-10.402226448059082
1.7275290335487844e+18,-0.061608485877513885,0.028623059391975403,-10.396142959594727
1.7275290335547845e+18,-0.007554076611995697,-0.0724429115653038,-10.497720718383789
1.7275290335607846e+18,-0.023651324212551117,-0.034135639667510986,-10.313164710998535
1.7275290335667848e+18,0.05426827818155289,-0.06970801949501038,-10.368531227111816
1.7275290335697848e+18,0.04137871786952019,-0.004080747254192829,-10.417839050292969
1.727529033575785e+18,-0.06029760092496872,-0.12686419486999512,-10.379838943481445
1.727529033581785e+18,0.028217697516083717,0.07734402269124985,-10.325970649719238
1.7275290335877852e+18,-0.0013756586704403162,-0.032791510224342346,-10.367435455322266
1.7275290335937853e+18,-0.007736338302493095,0.008845272473990917,-10.318548202514648
1.7275290335967854e+18,0.04858352243900299,0.028538450598716736,-10.341426849365234
1.7275290336027855e+18,-0.034657448530197144,-0.05924662947654724,-10.290543556213379
1.7275290336087857e+18,0.019471852108836174,-0.02297990396618843,-10.377001762390137
1.7275290336147858e+18,-0.03197383135557175,-0.04808636009693146,-10.328756332397461
1.727529033620786e+18,-0.007764433976262808,-0.0618063323199749,-10.312902450561523
1.727529033623786e+18,-0.06460822373628616,-0.024916745722293854,-10.312548637390137
1.727529033629786e+18,-0.0064612580463290215,0.04821254685521126,-10.428365707397461
1.7275290336327862e+18,-0.057784032076597214,-0.010555428452789783,-10.275821685791016
1.7275290336387863e+18,0.027385026216506958,-0.05496366322040558,-10.298234939575195
1.7275290336447864e+18,-0.04586530849337578,0.03758440166711807,-10.268610000610352
1.7275290336507866e+18,-0.06722711771726608,0.07739702612161636,-10.253963470458984
1.7275290336567867e+18,0.01815028116106987,0.09272570163011551,-10.339571952819824
1.7275290336597868e+18,0.01466792169958353,-0.03429302200675011,-10.202241897583008
1.727529033665787e+18,0.03613651171326637,-0.013415379449725151,-10.231256484985352
1.727529033671787e+18,-0.0182074923068285,0.006143564824014902,-10.1619234085083
1.727529033674787e+18,0.022901523858308792,0.0006841339636594057,-10.219320297241211
1.7275290336807872e+18,-0.025344491004943848,0.021921562030911446,-10.366785049438477
1.7275290336867873e+18,-0.0434691496193409,0.00043155395542271435,-10.339634895324707
1.7275290336927875e+18,0.040984928607940674,-0.008561321534216404,-10.249543190002441
1.7275290336957875e+18,-0.07734889537096024,0.010576688684523106,-10.217278480529785
1.7275290337017876e+18,-0.014579063281416893,0.0863347202539444,-10.227615356445312
1.7275290337077878e+18,0.018558155745267868,0.02852458320558071,-10.14365291595459
1.727529033713788e+18,-0.053812332451343536,-0.02721410244703293,-10.251867294311523
1.727529033719788e+18,-0.05149807780981064,-0.005491206422448158,-10.119208335876465
1.727529033722788e+18,0.04167484864592552,-0.10353215783834457,-10.215583801269531
1.7275290337287882e+18,0.017814213410019875,0.008030151017010212,-10.199454307556152
1.7275290337347884e+18,0.005566080566495657,0.002126152627170086,-10.114151954650879
1.7275290337407885e+18,-0.017863156273961067,0.002188402693718672,-10.172493934631348
1.7275290337437885e+18,-0.04673772677779198,0.042579878121614456,-10.090895652770996
1.7275290337527887e+18,0.030304981395602226,-0.05085095390677452,-10.121650695800781
1.7275290337557888e+18,-0.026841986924409866,0.019969599321484566,-10.183731079101562
1.727529033761789e+18,0.06518739461898804,0.013217403553426266,-10.130718231201172
1.727529033767789e+18,-0.03188054636120796,0.0621800422668457,-10.201739311218262
1.7275290337737892e+18,0.003489491529762745,-0.04100421443581581,-10.106574058532715
1.7275290337767892e+18,0.05565696954727173,-0.01983988843858242,-10.108904838562012
1.7275290337827894e+18,-0.03458092361688614,-0.020253626629710197,-10.124971389770508
1.7275290337887895e+18,-0.0008554025553166866,0.04067378491163254,-10.071310997009277
1.7275290337947896e+18,-0.027347715571522713,0.04124218970537186,-10.075257301330566
1.7275290338007898e+18,0.024015014991164207,0.02453801967203617,-10.084750175476074
1.7275290338037898e+18,0.012143836356699467,0.01470863912254572,-10.107481002807617
1.72752903380979e+18,0.06378306448459625,-0.11474069952964783,-10.04399585723877
1.72752903381579e+18,-0.022003907710313797,-0.04925455152988434,-10.077717781066895
1.7275290338217902e+18,-0.01942891627550125,0.02157067134976387,-10.102227210998535
1.7275290338247903e+18,0.028128210455179214,0.0412944070994854,-10.079358100891113
1.7275290338307904e+18,-0.014239007607102394,-0.04662071540951729,-10.02602481842041
1.7275290338367905e+18,0.009802723303437233,-0.051235612481832504,-10.116786003112793
1.7275290338397906e+18,-0.05073072016239166,-0.0447356216609478,-10.144680976867676
1.7275290338457907e+18,-0.03315991908311844,0.07247329503297806,-9.973443031311035
1.7275290338517908e+18,-0.045146096497774124,-0.04886333644390106,-10.065278053283691
1.727529033857791e+18,0.08796139061450958,-0.014252394437789917,-9.969779014587402
1.727529033860791e+18,0.04690270125865936,0.05344632267951965,-10.091196060180664
1.7275290338667912e+18,-0.0210728719830513,-0.019408974796533585,-9.98766040802002
1.7275290338727913e+18,0.004987205844372511,-0.08121133595705032,-10.0557279586792
1.7275290338787914e+18,0.019230730831623077,0.009089607745409012,-10.049208641052246
1.7275290338847916e+18,-0.006650977768003941,-0.052626777440309525,-10.039539337158203
1.7275290338877916e+18,-0.03259739279747009,0.008705363608896732,-9.989547729492188
1.7275290338937917e+18,-0.044569648802280426,-0.016878923401236534,-10.024970054626465
1.727529033899792e+18,0.02658788487315178,-0.04794418811798096,-10.086852073669434
1.727529033905792e+18,0.043070632964372635,-0.04526574909687042,-10.062704086303711
1.727529033911792e+18,0.02408895269036293,0.03283297270536423,-10.053061485290527
1.7275290339147922e+18,0.007152893580496311,0.0565895177423954,-9.968199729919434
1.7275290339207923e+18,0.0010002533672377467,-0.008671941235661507,-10.03739070892334
1.7275290339267924e+18,-0.049170151352882385,0.009150560945272446,-10.002202033996582
1.7275290339327926e+18,0.002727966057136655,0.06859812885522842,-10.006913185119629
1.7275290339357926e+18,-0.022014494985342026,-0.03989340364933014,-10.026117324829102
1.7275290339417928e+18,-0.04746221378445625,0.009357908740639687,-9.965194702148438
1.727529033947793e+18,0.03382771834731102,0.0034544903319329023,-10.00998592376709
1.727529033953793e+18,-0.005276101641356945,0.0010699194390326738,-9.907569885253906
1.727529033956793e+18,0.11083810031414032,0.005889852065593004,-10.006461143493652
1.7275290339627932e+18,0.026435034349560738,-0.04391533136367798,-10.027917861938477
1.7275290339687933e+18,-0.013704782351851463,-0.025733940303325653,-9.962600708007812
1.7275290339747935e+18,0.011879886500537395,-0.01810581423342228,-9.949034690856934
1.7275290339777935e+18,0.01847214624285698,0.05877077579498291,-9.898104667663574
1.7275290339837937e+18,-0.022263549268245697,0.0009320785757154226,-9.958470344543457
1.7275290339897938e+18,-0.10029403120279312,-0.012257413007318974,-9.909034729003906
1.727529033995794e+18,0.004011278040707111,-0.010367883369326591,-9.895037651062012
1.727529033998794e+18,0.08931919932365417,0.0043382481671869755,-9.975021362304688
1.727529034004794e+18,0.0033802352845668793,0.0033744198735803366,-9.904142379760742
1.7275290340107942e+18,-0.05413968488574028,-0.01967061683535576,-9.910900115966797
1.7275290340167944e+18,-0.0033412985503673553,-0.0011601202422752976,-9.977435111999512
1.7275290340227945e+18,0.08721158653497696,-0.011649882420897484,-9.9793062210083
1.7275290340257946e+18,-0.027115771546959877,0.00013354490511119366,-9.893278121948242
1.7275290340317947e+18,-0.000535961298737675,-0.059491660445928574,-9.960304260253906
1.7275290340377948e+18,-0.01808987557888031,-0.004365152679383755,-9.876152992248535
1.727529034043795e+18,-0.014660164713859558,-0.007956374436616898,-9.891304969787598
1.727529034049795e+18,0.028859402984380722,-0.02940465323626995,-9.887663841247559
1.7275290340557952e+18,0.04790930822491646,-0.04850863292813301,-9.832956314086914
1.7275290340617953e+18,-0.0002527486067265272,0.03339867293834686,-9.911928176879883
1.7275290340647954e+18,-0.016033364459872246,0.021148081868886948,-9.940600395202637
1.7275290340707955e+18,-0.06777133047580719,-0.012745904736220837,-9.900514602661133
1.7275290340767956e+18,-0.013288827612996101,0.016140379011631012,-9.807686805725098
1.7275290340827958e+18,-0.05149856209754944,-0.028790311887860298,-9.881756782531738
1.727529034088796e+18,0.04082455113530159,-0.08378084748983383,-9.859245300292969
1.727529034094796e+18,-0.056877125054597855,0.02842872589826584,-9.897640228271484
1.727529034097796e+18,-0.04274741932749748,-0.05661946162581444,-9.917312622070312
1.7275290341037962e+18,0.07524126768112183,-0.012039602734148502,-9.894222259521484
1.7275290341097964e+18,0.008441474288702011,-0.019574513658881187,-9.87528133392334
1.7275290341157965e+18,0.02996939606964588,0.039965759962797165,-9.835060119628906
1.7275290341187965e+18,-0.007521741557866335,0.06075696274638176,-9.881473541259766
1.7275290341247967e+18,-0.03105899877846241,0.07741741836071014,-9.942089080810547
1.7275290341307968e+18,0.04135221242904663,0.008007391355931759,-9.820347785949707
1.727529034136797e+18,0.04228423908352852,0.008542455732822418,-9.844412803649902
1.727529034142797e+18,0.012916936539113522,-0.012363777495920658,-9.818811416625977
1.727529034145797e+18,0.0633610412478447,0.03243669122457504,-9.803915023803711
1.7275290341517972e+18,-0.01768219843506813,0.0737362653017044,-9.825861930847168
1.7275290341577974e+18,-0.007326277904212475,0.03563505411148071,-9.807952880859375
1.7275290341637975e+18,0.08123916387557983,0.016258129850029945,-9.848189353942871
1.7275290341667976e+18,-0.08902128785848618,0.030419034883379936,-9.74866008758545
1.7275290341727977e+18,0.04580304026603699,-0.04170432686805725,-9.793844223022461
1.7275290341787978e+18,-0.02878560684621334,0.006731149274855852,-9.866676330566406
1.727529034184798e+18,-0.001157090300694108,0.0014088851166889071,-9.759909629821777
1.727529034190798e+18,-0.0012762289261445403,-0.03911854699254036,-9.858488082885742
1.7275290341967982e+18,0.0006004429887980223,0.05924352630972862,-9.820469856262207
1.7275290341997983e+18,-0.053662072867155075,-0.032890137284994125,-9.808178901672363
1.7275290342057984e+18,0.02176997996866703,-0.009831452742218971,-9.799241065979004
1.7275290342117985e+18,0.023824259638786316,0.09947467595338821,-9.81818962097168
1.7275290342177987e+18,-0.028948627412319183,0.026654226705431938,-9.890066146850586
1.7275290342207987e+18,0.016843924298882484,-0.00785169005393982,-9.92718505859375
1.7275290342267988e+18,0.01499975100159645,0.015206939540803432,-9.806912422180176
1.727529034232799e+18,0.010823559947311878,-0.0680723637342453,-9.776198387145996
1.727529034238799e+18,0.017370715737342834,-0.04732626676559448,-9.768227577209473
1.7275290342447992e+18,0.03731684386730194,-0.02547583356499672,-9.902615547180176
1.7275290342507994e+18,0.07603098452091217,0.0029442221857607365,-9.818678855895996
1.7275290342567995e+18,0.02093447931110859,-0.06020217388868332,-9.806872367858887
1.7275290342597996e+18,-0.014386529102921486,0.01938585564494133,-9.850662231445312
1.7275290342657997e+18,0.09213092178106308,0.07873521000146866,-9.802716255187988
1.7275290342717998e+18,0.020698916167020798,-0.05447007343173027,-9.757099151611328
1.7275290342778e+18,-0.013817193917930126,-0.09534180909395218,-9.798033714294434
1.7275290342838e+18,0.04890090227127075,0.012002273462712765,-9.7972993850708
1.7275290342898002e+18,-0.006892878096550703,-0.04071073979139328,-9.820273399353027
1.7275290342928003e+18,-0.018120773136615753,-0.09770247340202332,-9.843770027160645
1.7275290342988004e+18,0.07141020148992538,0.01792874000966549,-9.742177963256836
1.7275290343048005e+18,-0.04368487745523453,0.006407857872545719,-9.777355194091797
1.7275290343108006e+18,0.04681316018104553,0.0628170296549797,-9.840889930725098
1.7275290343138007e+18,-0.05347060784697533,0.05223218724131584,-9.804841041564941
