timestamp,gyro_x,gyro_y,gyro_z
1.7275290267746399e+18,-0.0003053777909372002,-0.0006332705379463732,-0.0021092789247632027
1.72752902678364e+18,-0.001932528568431735,0.000233995117014274,8.945126319304109e-05
1.7275290267896402e+18,0.00018844865553546697,0.0007353225373663008,0.0011272398987784982
1.7275290267956403e+18,0.0009240994113497436,0.0003221544611733407,-0.0017125139711424708
1.7275290268016404e+18,0.00255866558291018,0.0002781702787615359,-0.002669642446562648
1.7275290268046405e+18,-0.00035811314592137933,-0.0007703039445914328,-0.0001349681697320193
1.7275290268106406e+18,0.003000641241669655,-0.0018269375432282686,-0.0012174565345048904
1.7275290268166408e+18,-0.0008479365496896207,-0.0014860826777294278,-0.0005409945151768625
1.727529026822641e+18,0.00020911898172926158,0.0012911547673866153,0.00043023747275583446
1.727529026828641e+18,-0.001653527608141303,-0.003450790885835886,0.0018785825232043862
1.727529026831641e+18,-0.002592341508716345,-0.0010132743045687675,-0.0008574164239689708
1.7275290268376412e+18,-0.00254308944568038,0.0013726049801334739,-0.0021250855643302202
1.7275290268436413e+18,-0.0007337231654673815,-0.0032854352612048388,2.2077600078773685e-05
1.7275290268496415e+18,0.00064485939219594,-0.0002297969622304663,-0.0010637989034876227
1.7275290268556416e+18,-0.0022955741733312607,-0.0014202689053490758,0.0002773970190901309
1.7275290268616417e+18,-0.0005663227057084441,-0.0009271220187656581,0.00014145355089567602
1.7275290268646418e+18,-0.0024670723360031843,0.0024696895852684975,-0.0007728133932687342
1.727529026870642e+18,-0.0013907941756770015,0.000691426859702915,0.002034510485827923
1.727529026876642e+18,-0.0008187618805095553,0.001220538280904293,-0.0014994574012234807
1.7275290268826422e+18,0.0007758378051221371,8.982524741441011e-05,0.00259993108920753
1.7275290268856422e+18,-0.0019268294563516974,0.0007509186980314553,0.0013353027170524001
1.7275290268916424e+18,0.0018929443322122097,-0.0005696260486729443,0.0005820016958750784
1.7275290268976425e+18,-0.0008902410627342761,2.4849798137438484e-05,-0.0011692947009578347
1.7275290269036426e+18,0.00442967563867569,0.00012358554522506893,0.0015484432224184275
1.7275290269096428e+18,0.00033888971665874124,-0.0029781037010252476,0.0005583066958934069
1.727529026915643e+18,3.571092020138167e-05,0.0011804982786998153,-0.0010860518086701632
1.727529026921643e+18,0.0009303707629442215,0.0008529241313226521,0.000710688647814095
1.7275290269276431e+18,0.00010897754691541195,-0.0009529101080261171,0.002965257503092289
1.7275290269306432e+18,0.00311583885923028,-0.00036816534702666104,-0.002366013824939728
1.7275290269366433e+18,-0.000529887736774981,0.0016722354339435697,0.0029288555961102247
1.7275290269426435e+18,-0.0009767964947968721,0.0016797551652416587,0.0005967592587694526
1.7275290269486436e+18,-0.0003631753788795322,-0.0015495994593948126,0.00021802529226988554
1.7275290269546437e+18,0.0016539315693080425,0.00020680562010966241,-0.0012031190562993288
1.7275290269606438e+18,-9.089988452615216e-05,-0.0006670634029433131,-0.002856228034943342
1.727529026966644e+18,0.002706829458475113,0.0015271715819835663,-0.0017193700186908245
1.727529026969644e+18,0.0013856549048796296,0.0016971254954114556,-0.000589601811952889
1.7275290269756442e+18,0.0009301966056227684,0.0026592968497425318,7.466482929885387e-05
1.7275290269816443e+18,-0.0004413482383824885,0.004517200402915478,0.00179103366099298
1.7275290269876444e+18,-0.001226175227202475,0.0018730242736637592,0.0027124877087771893
1.7275290269906445e+18,-0.0023211727384477854,-0.0005778066697530448,-0.0005232391995377839
1.7275290269966446e+18,-0.0016460372135043144,-0.00041593541391193867,-0.0017533525824546814
1.7275290270026447e+18,-0.001447434420697391,-0.0001560476521262899,-0.0008719474426470697
1.7275290270086449e+18,-0.0005188846262171865,-0.0006276916828937829,-0.0007632850902155042
1.727529027014645e+18,0.000984680955298245,0.0021704761311411858,-0.0013667038874700665
1.727529027017645e+18,-0.0013455533189699054,0.002157840644940734,0.0011348341358825564
1.7275290270236452e+18,0.0006777053349651396,0.0007152086473070085,0.0014567329781129956
1.7275290270296453e+18,-0.0010444598738104105,0.0016354850959032774,0.000528050702996552
1.7275290270326454e+18,-0.0008013929473236203,0.0019486189121380448,-0.0009023007587529719
1.7275290270386455e+18,-0.0012267755810171366,0.0010754292597994208,-0.0018952536629512906
1.7275290270446456e+18,0.000833693309687078,-0.0004912286531180143,0.0020431445445865393
1.7275290270506458e+18,0.0035817997995764017,0.0006530076498165727,-0.001828279928304255
1.7275290270536458e+18,0.0007455607410520315,-0.0026345415972173214,-0.00041198928374797106
1.727529027059646e+18,0.0017160663846880198,0.0020368737168610096,-0.0007105598342604935
1.727529027065646e+18,0.0009183153742924333,0.0010441436897963285,0.002727075247094035
1.7275290270716462e+18,-0.00016371041419915855,-0.0013090792344883084,3.9451682823710144e-05
1.7275290270746463e+18,0.0006709503941237926,0.0018425931921228766,0.00127514882478863
1.7275290270806464e+18,-0.0013641172554343939,0.003010011278092861,-0.0003981832414865494
1.7275290270866465e+18,-0.0005567535990849137,0.0007120188092812896,0.0016000347677618265
1.7275290270896466e+18,-0.0007238472462631762,0.001215331838466227,0.00031329889316111803
1.7275290270956467e+18,-0.0016088656848296523,0.0014839948853477836,-0.000578747654799372
1.7275290271016468e+18,-0.0021620546467602253,0.0024009691551327705,-0.0017973826033994555
1.727529027107647e+18,-0.00010777739225886762,-0.0013581422390416265,-0.001120103755965829
1.727529027110647e+18,0.0003640360082499683,0.00015946212806738913,-0.0021021575666964054
1.7275290271166472e+18,-0.0006342867854982615,-0.0007053160225041211,0.00011008726869476959
1.7275290271226473e+18,0.00037976933526806533,0.0009845495223999023,0.001521653146483004
1.7275290271256474e+18,-0.00015177328896243125,0.0039147562347352505,-0.0008198715513572097
1.7275290271316475e+18,0.00046086451038718224,0.0006045480258762836,0.00017142431170213968
1.7275290271376476e+18,-0.002999462652951479,0.0013624742859974504,0.0006262842216528952
1.7275290271406477e+18,0.0006682053790427744,0.0007143532857298851,-0.0015536551363766193
1.7275290271466478e+18,0.0016824356280267239,0.0006456022965721786,0.001440582680515945
1.727529027152648e+18,-0.0008620648295618594,0.0035288152284920216,0.003733683843165636
1.727529027155648e+18,0.0008253708365373313,0.0005232520052231848,0.0022069260012358427
1.727529027161648e+18,0.00038059818325564265,-0.0007405998767353594,-0.000554898229893297
1.7275290271676483e+18,-0.0031306492164731026,0.0010200167307630181,-0.0004641411651391536
1.7275290271736484e+18,0.0013802736066281796,-0.0029572395142167807,0.0025846988428384066
1.7275290271766484e+18,0.0007343479664996266,0.0011004050029441714,0.001029987819492817
1.7275290271826486e+18,-0.0014935260405763984,-0.0013274714583531022,0.0004687612527050078
1.7275290271886487e+18,0.002587444381788373,-0.0011750765843316913,0.00045068407780490816
1.7275290271946488e+18,0.0007278529228642583,-0.00351366656832397,-0.0014139825943857431
1.727529027197649e+18,-0.0012524579651653767,0.0006864590104669333,7.557551725767553e-05
1.727529027203649e+18,-6.429417408071458e-05,0.0006447636405937374,-6.741227934980998e-06
1.7275290272096492e+18,-0.00039098490378819406,-0.0020815820898860693,-0.001704854192212224
1.7275290272126492e+18,0.0009847942274063826,0.00016842361947055906,-0.0006506154895760119
1.7275290272186493e+18,-0.0003388957411516458,0.0007793076219968498,-0.0010312764206901193
1.7275290272246495e+18,-0.0009954383131116629,0.000535473576746881,-0.00016606879944447428
1.7275290272306496e+18,-0.0010072678560391068,0.005937195383012295,0.0022531587164849043
1.7275290272336497e+18,-9.360597323393449e-05,-0.0013771092053502798,-0.0025562820956110954
1.7275290272396498e+18,0.002585374051705003,0.002439351286739111,0.0018585305660963058
1.72752902724565e+18,0.0016273637302219868,-0.00014487473526969552,0.0007153231417760253
1.72752902725165e+18,-0.0034660359378904104,0.0006222435040399432,0.00156946771312505
1.72752902725465e+18,0.0008841407252475619,-0.002841413486748934,0.0010361472377553582
1.7275290272606502e+18,-0.001378905144520104,-0.002171839587390423,-0.002147199586033821
1.7275290272666504e+18,-0.0011791314464062452,-0.0010056820465251803,-0.00474302563816309
1.7275290272726505e+18,-0.0017077934462577105,0.0017546373419463634,-0.0017652589594945312
1.7275290272756506e+18,-0.0021243360824882984,0.001988116418942809,-0.0013160943053662777
1.7275290272816507e+18,0.002962815808132291,0.002789932070299983,-0.0018276311457157135
1.7275290272876508e+18,0.0010777160059660673,-0.0007974856998771429,-0.0006046303897164762
1.727529027290651e+18,0.0006319346139207482,-0.0017295958241447806,-0.0025987974368035793
1.727529027296651e+18,-0.00039925859891809523,-0.0008483461569994688,-0.0009710491867735982
1.7275290273026511e+18,-0.002271027769893408,-0.00271221692673862,-0.003443062072619796
1.7275290273056512e+18,0.002061998937278986,0.0006616258178837597,0.0011303287465125322
1.7275290273116513e+18,0.0013572686584666371,7.705906318733469e-05,-0.0010311100631952286
1.7275290273176515e+18,0.0019297347171232104,-0.0006792187923565507,-0.0005749441916123033
1.7275290273236516e+18,-0.0008676595753058791,-0.00022814229305367917,-0.001115479739382863
1.7275290273266516e+18,0.0017127086175605655,0.0006768251187168062,-0.0010957607300952077
1.7275290273326518e+18,-0.0009450216311961412,0.0010304112220183015,0.002546277828514576
1.727529027338652e+18,-0.0025291668716818094,-0.0002649547823239118,0.0013241699198260903
1.727529027344652e+18,0.0013564975233748555,0.0006243684911169112,0.0012508503859862685
1.727529027347652e+18,0.0019384596962481737,0.0008000991656444967,-0.0017232224345207214
1.7275290273536522e+18,-0.0032957764342427254,0.0012531655374914408,-0.0034929648973047733
1.7275290273596524e+18,0.0024291647132486105,-0.003250631270930171,-0.0003952243132516742
1.7275290273656525e+18,-0.001740871462970972,-0.001117894658818841,0.0005533925723284483
1.7275290273686525e+18,-0.0008499609539285302,-0.0007254037191160023,-0.0005467475857585669
1.7275290273746527e+18,0.0006091782706789672,-0.0027696939650923014,0.0027553616091609
1.7275290273806528e+18,0.0003349621838424355,0.0008041185210458934,0.0024759278167039156
1.7275290273836529e+18,-0.0016937223263084888,-0.00017387268599122763,0.0014496250078082085
1.727529027389653e+18,0.0017759825568646193,4.422931669978425e-05,-0.0019098103512078524
1.727529027395653e+18,0.00026624902966432273,0.00030074050300754607,-0.00041110606980510056
1.7275290274016532e+18,-0.001234350143931806,0.0012447440531104803,-0.0003589443222153932
1.7275290274076534e+18,0.0018479462014511228,-0.000983140547759831,0.003663621610030532
1.7275290274106534e+18,-0.0011293197749182582,0.0017908571753650904,-0.0004585573624353856
1.7275290274166536e+18,0.00044041965156793594,0.0009644062956795096,-4.139159500482492e-05
1.7275290274226537e+18,-0.0023836400359869003,0.0028289221227169037,-0.0008932248456403613
1.7275290274286538e+18,0.0003655047621577978,-0.00025304354494437575,0.0013571865856647491
1.727529027431654e+18,-0.0013161638053134084,-0.0019691900815814734,-0.0004887481336481869
1.727529027437654e+18,0.0005288202664814889,-0.0008904578862711787,0.0025834066327661276
1.7275290274436541e+18,-0.0031651018653064966,-0.0006015005637891591,-0.000617007608525455
1.7275290274466542e+18,0.0025651617906987667,0.0017612498486414552,0.001138127874583006
1.7275290274526543e+18,-0.0023342568892985582,0.0012945039197802544,0.0021335871424525976
1.7275290274586545e+18,3.454101533861831e-05,-0.0011109824990853667,0.0007858733297325671
1.7275290274646546e+18,0.0007412211271002889,-0.0013307156041264534,0.0019331047078594565
1.7275290274676547e+18,-0.0013095407048240304,-0.0006204537930898368,0.0028454295825213194
1.7275290274736548e+18,0.0003412560618016869,0.0023479328956454992,-0.0008654565899632871
1.727529027479655e+18,-0.001828297390602529,0.0001444184745196253,-0.0022390016820281744
1.727529027482655e+18,0.0024820503313094378,-0.00011409612488932908,-0.0019008939852938056
1.727529027488655e+18,-0.0011053947964683175,-0.0005947670433670282,-0.0005065124714747071
1.7275290274946552e+18,-0.00014295586152002215,0.0008105289307422936,-0.0011988150654360652
1.7275290274976553e+18,0.0013090226566419005,0.00022006870131008327,0.0017303040949627757
1.7275290275036554e+18,-0.0022321194410324097,0.003491888055577874,0.0003838528355117887
1.7275290275096556e+18,-0.0023711423855274916,0.00048444251297041774,-0.00214288174174726
1.7275290275126556e+18,-0.0028853374533355236,0.0027912594377994537,0.000836816499941051
1.7275290275186557e+18,-0.0017833624733611941,-5.431337558547966e-05,4.292731682653539e-05
1.7275290275246559e+18,-0.0011647914070636034,-0.0041556102223694324,0.001520666410215199
1.727529027530656e+18,-0.00016511358262505382,0.00010754880349850282,0.002465425059199333
1.727529027533656e+18,0.00015808599709998816,0.001632796018384397,-6.110696995165199e-05
1.7275290275396562e+18,-0.0021005128510296345,0.0018532321555539966,0.00023148063337430358
1.7275290275456563e+18,0.0031559651251882315,0.00118556700181216,-0.0008582855225540698
1.7275290275486564e+18,-0.0019906412344425917,0.0009813186479732394,0.0017550131306052208
1.7275290275546565e+18,-0.00041674418025650084,-0.0029368733521550894,0.001792756374925375
1.7275290275606566e+18,0.003043689299374819,-0.0008375027682632208,-0.0005276409792713821
1.7275290275636567e+18,-0.0015440727584064007,0.0005478246603161097,-0.0004880736814811826
1.7275290275696568e+18,-0.0005610969383269548,-0.0026331457775086164,-0.0007114410400390625
1.727529027575657e+18,0.0025016244035214186,0.000984275364317,-0.002405533567070961
1.727529027581657e+18,-0.0007159308879636228,0.0017889301525428891,-0.0034872626420110464
1.7275290275846572e+18,0.0008436821517534554,-0.000841770030092448,-0.0024922394659370184
1.7275290275906573e+18,-0.00038400889025069773,0.00045605411287397146,0.002686919877305627
1.7275290275966574e+18,0.0005779540515504777,-0.0027553339023143053,0.00032030532020144165
1.7275290276026575e+18,0.0037935131695121527,0.0031257697846740484,0.0020481995306909084
1.7275290276086577e+18,-0.0007840319303795695,-0.0010038318578153849,-0.0018989789532497525
1.7275290276116577e+18,0.0010440601035952568,0.0003928538935724646,0.0014411314623430371
1.7275290276176579e+18,0.0007621312979608774,0.0002608220383990556,-0.002353579504415393
1.727529027623658e+18,0.0004991716705262661,2.914685865107458e-05,0.0017077429220080376
1.727529027626658e+18,0.0007857487653382123,-0.0027868342585861683,-0.0002508566540200263
1.7275290276326582e+18,-0.002313107019290328,-0.0008031390607357025,0.0019171030726283789
1.7275290276386583e+18,-3.0514954687532736e-06,-0.0016599129885435104,-0.003241614205762744
1.7275290276446584e+18,-0.0020103061106055975,-0.0013882460771128535,0.000976829556748271
1.7275290276476585e+18,0.001823285361751914,-3.49907495547086e-05,-0.0004155374481342733
1.7275290276536586e+18,-0.0023085055872797966,-0.0038739782758057117,-0.0015614454168826342
1.7275290276596588e+18,0.00012781991972588003,0.0012189773842692375,0.0015244571259245276
1.727529027665659e+18,0.002494569169357419,0.0013480803463608027,0.00016183292609639466
1.727529027671659e+18,0.0006394904921762645,-0.0007240219856612384,-0.0006607297109439969
1.727529027674659e+18,0.002385190222412348,0.0010090197902172804,0.004377532284706831
1.7275290276806592e+18,0.0016853214474394917,0.00247307401150465,0.00018076496780849993
1.7275290276866593e+18,0.000561620807275176,-0.00016496631724294275,-0.0013576000928878784
1.7275290276896594e+18,0.0026252998504787683,0.002784700132906437,0.0011057016672566533
1.7275290276956595e+18,0.0022543782833963633,-0.0010656918166205287,0.0013446498196572065
1.7275290277016596e+18,-0.0003344514116179198,0.0003465019108261913,-0.0029139702674001455
1.7275290277076598e+18,0.002904097083956003,0.002380332676693797,-0.000677162897773087
1.7275290277106598e+18,0.0021388307213783264,-0.0006241355440579355,-0.00020607335318345577
1.72752902771666e+18,-0.0020916934590786695,0.0010063373483717442,0.0006792131462134421
1.72752902772266e+18,-0.001836333773098886,-0.002143986290320754,0.0015560064930468798
1.7275290277286602e+18,-0.0007249569753184915,0.0028404032345861197,0.0011613437673076987
1.7275290277316603e+18,-0.0014494751812890172,0.0001873924775281921,0.0013357774587348104
1.7275290277376604e+18,-0.0007396122673526406,0.00048415540368296206,0.0031064075883477926
1.7275290277436605e+18,-0.0014027443248778582,-0.0021575752180069685,-0.0006546969525516033
1.7275290277496607e+18,-0.0005698041059076786,0.000872182019520551,-0.0023370906710624695
1.7275290277556608e+18,0.0011996431276202202,-0.0032840741332620382,-0.000289553077891469
1.7275290277586609e+18,0.001755129429511726,-0.0011838737409561872,0.0014597844565287232
1.727529027764661e+18,0.0019955651368945837,-0.0011171418009325862,0.00016854371642693877
1.727529027770661e+18,-0.00084795051952824,0.0026358570903539658,-0.00025892682606354356
1.7275290277736612e+18,0.00021956565615255386,-0.002837791573256254,-0.0013423433993011713
1.7275290277796613e+18,0.0015089818043634295,0.0006722598918713629,-0.0030877322424203157
1.7275290277856614e+18,0.0017574008088558912,-0.000770020589698106,0.0009532414842396975
1.7275290277916616e+18,-0.002493284409865737,-6.982988998061046e-05,-0.0005551979993470013
1.7275290277976617e+18,0.0019811822567135096,0.00067347870208323,0.0015176275046542287
1.7275290278036618e+18,0.001571472268551588,-0.0012493139365687966,-0.0025890928227454424
1.727529027806662e+18,9.45826614042744e-05,0.0004028916300740093,0.0003589277039282024
1.727529027812662e+18,-0.0007555116899311543,0.0029351699631661177,0.0004350897506810725
1.7275290278186621e+18,-0.0023360918276011944,0.0015403616707772017,-0.0015840795822441578
1.7275290278216622e+18,0.0017584409797564149,-0.00035368913086131215,-0.0013538862112909555
1.7275290278276623e+18,-0.0016071588033810258,0.0008324815426021814,-0.0002998125273734331
1.7275290278336625e+18,0.0022857626900076866,-0.000314374512527138,-2.9025082767475396e-05
1.7275290278366625e+18,0.0019709549378603697,0.0018707928247749805,-0.0018848227337002754
1.7275290278426627e+18,0.0016622841358184814,-0.0026523610576987267,0.00128276611212641
1.7275290278486628e+18,0.00041722707101143897,0.0008517905953340232,0.0029109788592904806
1.7275290278516628e+18,0.002359777921810746,-0.0011043658014386892,0.001122169429436326
1.727529027857663e+18,-0.0009479910950176418,0.0013422851916402578,0.0011045202845707536
1.727529027863663e+18,0.0012417514808475971,-0.001537696341983974,-0.0006009545759297907
1.7275290278666632e+18,-0.0003507494111545384,-0.003250430803745985,0.0019230801844969392
1.7275290278726633e+18,0.0015030269278213382,-0.0003560039622243494,-0.0017543681897222996
1.7275290278786634e+18,0.0001644701842451468,-0.0008731085108593106,-0.00018477393314242363
1.7275290278846636e+18,-0.0014506200095638633,-0.0010196379153057933,0.0004830034158658236
1.7275290278876636e+18,0.0009453234379179776,0.0032013417221605778,0.0007717456901445985
1.7275290278936637e+18,-0.004327766131609678,-0.0010770631488412619,0.00275616068392992
1.727529027899664e+18,0.0020388513803482056,-0.0013121467782184482,0.0002384296531090513
1.727529027905664e+18,0.0012896982952952385,-0.00011637053830781952,-5.188931754673831e-05
1.727529027911664e+18,-0.002107101958245039,0.0007636105292476714,0.00010838118032552302
1.7275290279176643e+18,-0.0015293911565095186,-9.544626664137468e-05,0.001744346576742828
1.7275290279206643e+18,0.0031790039502084255,0.0016664203722029924,0.0029589396435767412
1.7275290279266644e+18,0.0020580722484737635,0.0009563124040141702,-0.000519818568136543
1.7275290279326646e+18,-0.0021255684550851583,0.001348534831777215,0.002799064852297306
1.7275290279386647e+18,0.0013123153476044536,0.003207244211807847,0.0005931677878834307
1.7275290279416648e+18,0.00019219784007873386,-0.001479024882428348,-0.0003932863473892212
1.727529027947665e+18,0.004412715323269367,-0.0020498803351074457,-0.0018721355590969324
1.727529027953665e+18,0.002637200290337205,-0.0007950224680826068,0.001482552383095026
1.7275290279596652e+18,0.0005791237344965339,0.001986932707950473,0.0015369784086942673
1.7275290279626652e+18,-0.00245299912057817,-0.001633796957321465,0.001310194144025445
1.7275290279686653e+18,-0.002020020969212055,-0.002666644286364317,-0.0003445610636845231
1.7275290279746655e+18,0.000821986235678196,-9.45185893215239e-05,0.0023874961771070957
1.7275290279776655e+18,-0.00021651588031090796,0.001194338663481176,0.0008668649243190885
1.7275290279836657e+18,0.00025614400510676205,0.0016366800991818309,-4.211421401123516e-05
1.7275290279896658e+18,0.000883894506841898,-0.0012645230162888765,-0.0007719480781815946
1.727529027995666e+18,-0.0005317209870554507,0.001194907701574266,-0.001884567434899509
1.727529027998666e+18,-0.0018573957495391369,0.0005557407857850194,-0.0010953897144645452
1.727529028004666e+18,0.002778941998258233,-0.0029348719399422407,0.001395513187162578
1.7275290280106662e+18,0.0010400045430287719,-0.0027359325904399157,0.0015294236363843083
1.7275290280136663e+18,-0.0010320615256205201,0.0012770507019013166,0.000164850105647929
1.7275290280196664e+18,-0.00012024136958643794,-0.0006881816079840064,-0.0009022965678013861
1.7275290280256666e+18,0.0014990632189437747,0.0024065938778221607,-0.003663315437734127
1.7275290280316667e+18,6.260237569222227e-05,-0.0002094451483571902,-0.0020462400279939175
1.7275290280376668e+18,0.001168048125691712,0.0010594535851851106,0.001085774041712284
1.727529028040667e+18,0.0003631189465522766,-0.003134331898763776,-0.0021923643071204424
1.727529028046667e+18,-0.0019164334516972303,-0.0028669461607933044,-0.002262929454445839
1.7275290280526671e+18,-0.0013480946654453874,-0.0014472904149442911,-0.001737245125696063
1.7275290280556672e+18,0.0013184193521738052,-0.0002475757210049778,-0.0006008342606946826
1.7275290280616673e+18,-0.0005495757795870304,5.7742818171391264e-05,0.0007098039495758712
1.7275290280676675e+18,0.003285757964476943,0.0005601136363111436,-0.0009286332060582936
1.7275290280736676e+18,-0.0012317380169406533,-0.0011903952108696103,0.002024914836511016
1.7275290280766676e+18,0.00032607026514597237,0.0027215576265007257,-0.0005718611064366996
1.7275290280826678e+18,-0.00037727641756646335,0.001727054244838655,-0.0011722669005393982
1.727529028088668e+18,0.00027715147007256746,-0.00019657312077470124,-0.0020955188665539026
1.727529028091668e+18,0.0025707148015499115,-0.0014804392121732235,-0.0013751357328146696
1.727529028097668e+18,0.0021123848855495453,0.0010257958201691508,-0.0004327816131990403
1.7275290281036682e+18,-0.0011952229542657733,0.0010129355359822512,0.0017783204093575478
1.7275290281096684e+18,0.00048736354801803827,-0.001259952550753951,0.002993668895214796
1.7275290281126684e+18,1.796648393792566e-05,0.0010005676886066794,-0.0024420451372861862
1.7275290281186685e+18,0.000140477524837479,0.004366348031908274,0.0038115503266453743
1.7275290281246687e+18,6.976428994676098e-05,-0.0011872290633618832,-0.002872948069125414
1.7275290281306688e+18,-0.002318727783858776,0.0026830979622900486,-0.0024679037742316723
1.7275290281336689e+18,-0.0008651312673464417,-0.0017881531966850162,-0.0009103216580115259
1.727529028139669e+18,0.002843652619048953,0.0014219420263543725,-0.0001014315930660814
1.727529028145669e+18,-0.0014370226999744773,0.002253442071378231,0.0006659808568656445
1.7275290281486692e+18,-0.00043310009641572833,-0.0004796322318725288,0.0021225225646048784
1.7275290281546693e+18,-0.0015430764760822058,0.001555324299260974,0.001637934590689838
1.7275290281606694e+18,0.0002026258152909577,-0.0011956848902627826,0.0022111351136118174
1.7275290281636695e+18,-0.00027226575184613466,-0.00030289762071333826,0.0014271610416471958
1.7275290281696696e+18,-0.00103058444801718,0.000432516448199749,-0.0002407829015282914
1.7275290281756698e+18,0.001680979272350669,0.0010175067000091076,-0.00048125869943760335
1.72752902818167e+18,-0.00398382730782032,-0.0011003089603036642,-0.0008494551293551922
1.72752902818467e+18,0.0008754366426728666,0.0009750305907800794,0.0010974426986649632
1.72752902819067e+18,-0.0004289394128136337,-8.288231583719607e-06,0.0013388691004365683
1.7275290281966702e+18,-0.0011399246286600828,0.0008341229986399412,-0.0010558124631643295
1.7275290282026703e+18,0.0021345308050513268,-0.0016553571913391352,0.0002852466714102775
1.7275290282056704e+18,-0.00040291022742167115,0.0010656254598870873,-0.0029563053976744413
1.7275290282116705e+18,0.000848116644192487,0.000631183385848999,-0.0005900002433918417
1.7275290282176707e+18,0.0023881448432803154,0.0014898688532412052,-6.439697608584538e-05
1.7275290282236708e+18,0.0005287658423185349,0.0008295320440083742,-9.33859046199359e-05
1.7275290282266708e+18,-0.0016053671715781093,-0.0010777238057926297,-0.0020079428795725107
1.727529028232671e+18,-0.0017850970616564155,-0.0030449044425040483,-0.0023736157454550266
1.727529028238671e+18,-0.0013282399158924818,-0.0001297600829275325,0.002113942988216877
1.7275290282416712e+18,-0.0006769726169295609,0.0007366016507148743,-0.00013701031275559217
1.7275290282476713e+18,-0.0014035188360139728,-0.0011714950669556856,0.0005651605315506458
1.7275290282536714e+18,-0.0027753429021686316,-0.000265717098955065,-0.0023861401714384556
1.7275290282596716e+18,0.0019338473211973906,-0.0003997288877144456,0.0025931999552994967
1.7275290282626716e+18,-0.0006254101754166186,0.0002712660934776068,0.0005396075430326164
1.7275290282686717e+18,0.0002310826675966382,0.002152833389118314,-0.002061678795143962
1.7275290282746719e+18,-0.0015049008652567863,0.0006987361703068018,-4.595379868987948e-05
1.727529028277672e+18,0.0010650674812495708,-0.0010447227396070957,0.0018616997404024005
1.727529028283672e+18,-0.0014160998398438096,7.281215221155435e-05,0.001633671810850501
1.7275290282896722e+18,-0.005794686730951071,0.0012121244799345732,-0.0010247945319861174
1.7275290282956723e+18,-0.0014292704872786999,0.0025278006214648485,-0.0014221288729459047
1.7275290282986724e+18,-0.00015804175927769393,-0.0022151030134409666,-0.004188556224107742
1.7275290283046725e+18,-0.001141511369496584,-0.0021030516363680363,-0.0003190542629454285
1.7275290283106726e+18,0.0004598083905875683,0.0011737041641026735,0.0008069428731687367
1.7275290283166728e+18,-0.000990597764030099,-0.0002838929940480739,0.002526167081668973
1.7275290283196728e+18,-0.0020026820711791515,-0.0007633446948602796,0.001340739312581718
1.727529028328673e+18,0.0008234450942836702,-0.0003425219329074025,0.0006525716744363308
1.727529028331673e+18,0.00023748453531879932,0.000560456479433924,0.0007742632878944278
1.7275290283376732e+18,-0.0004681528953369707,0.0004944438696838915,-0.0021688188426196575
1.7275290283436733e+18,-0.0005788575508631766,0.0008375897887162864,-0.000685711856931448
1.7275290283466734e+18,-0.0004213643551338464,0.0011030007153749466,0.001342162024229765
1.7275290283526735e+18,-0.0011591383954510093,-0.0020655393600463867,-0.0009271272574551404
1.7275290283586737e+18,-0.0008785951649770141,-0.0013676411472260952,-0.001320775249041617
1.7275290283616737e+18,0.0012233983725309372,-0.0008278150926344097,-0.0004793916887138039
1.7275290283676739e+18,-0.0014324082294479012,0.0005373647436499596,0.0015774465864524245
1.727529028373674e+18,-0.0009330218890681863,-0.0008786146063357592,-4.302052911953069e-05
1.727529028379674e+18,0.0007360588642768562,-0.002555305138230324,-4.4985990825807676e-06
1.7275290283826742e+18,0.001853428315371275,0.00011211062519578263,0.0007815968128852546
1.7275290283886743e+18,-0.001987395342439413,9.09095469978638e-05,0.0017181996954604983
1.7275290283946744e+18,-0.0003924173943232745,0.002814660081639886,-0.0014493365306407213
1.7275290284006746e+18,-0.0016277349786832929,-1.0467300853633787e-05,0.0030609758105129004
1.7275290284066747e+18,-0.0007762144086882472,-0.00406859302893281,-0.0035200680140405893
1.7275290284096748e+18,-0.0028600634541362524,0.0010998344514518976,-0.0005503182183019817
1.727529028415675e+18,-0.00011344071390340105,0.0002486353914719075,-0.0009621094213798642
1.727529028421675e+18,0.0015755875501781702,0.0030537587590515614,-0.00028840312734246254
1.7275290284276751e+18,0.002801700262352824,0.0034662350080907345,0.0008897610241547227
1.7275290284306752e+18,0.0007024805527180433,-0.0017230092780664563,0.0004474395827855915
1.7275290284366753e+18,-0.0002943980216514319,0.0007134024635888636,-0.00019716568931471556
1.7275290284426755e+18,0.0006254930049180984,0.0011358940973877907,0.0019995667971670628
1.7275290284486756e+18,0.0005864029517397285,0.001115017686970532,0.0007134315092116594
1.7275290284516756e+18,-0.0005752259748987854,-0.0010113243479281664,-0.0027400897815823555
1.7275290284576758e+18,0.0003664276737254113,-5.985813186271116e-05,0.00022224731219466776
1.727529028463676e+18,-0.001284282305277884,-0.0012422730214893818,0.0005373625899665058
1.727529028466676e+18,-0.0019966913387179375,-0.0012741510290652514,0.0006562123307958245
1.727529028472676e+18,-0.0003780709230341017,0.0006979274330660701,0.002210506470873952
1.7275290284786762e+18,0.0016590626910328865,0.00024813643540255725,0.001560251577757299
1.7275290284846764e+18,0.0004925534012727439,-0.0018384968861937523,0.0015608908142894506
1.7275290284876764e+18,0.0016787855420261621,0.002142376033589244,-0.0007958756759762764
1.7275290284936765e+18,0.002161024371162057,0.0018965972121804953,-0.002400845754891634
1.7275290284996767e+18,-0.0009379924740642309,-0.0023595814127475023,-0.00012809608597308397
1.7275290285056768e+18,-0.0006229424616321921,0.00036097702104598284,0.0010751477675512433
1.7275290285086769e+18,0.0004996996722184122,0.0028136030305176973,0.0009637603652663529
1.727529028514677e+18,0.0003673708124551922,0.0013073524460196495,0.0025669813621789217
1.727529028520677e+18,-0.0017233737744390965,-0.002238065470010042,0.0011028368026018143
1.7275290285266772e+18,0.0024891020730137825,-0.002233587671071291,-0.0035528314765542746
1.7275290285296773e+18,-0.00039490859489887953,0.0003326687146909535,0.0004893251461908221
1.7275290285356774e+18,-0.001499805017374456,0.0019233565544709563,-0.00034571706783026457
1.7275290285416776e+18,0.0018548150546848774,-0.0014390436699613929,0.00030944839818403125
1.7275290285446776e+18,-0.0002445974387228489,-0.002059037098661065,-0.00017970908083952963
1.7275290285506778e+18,0.0015188975958153605,0.0014083142159506679,0.0016045985976234078
1.727529028556678e+18,0.0004252266953699291,-0.0010264567099511623,0.0006124044302850962
1.727529028559678e+18,0.003371630096808076,0.0021195299923419952,-0.0006737117073498666
1.727529028565678e+18,0.0015553080011159182,0.00199690624140203,0.0008639232255518436
1.7275290285716782e+18,-0.002282831585034728,-0.001036542234942317,-0.00029128388268873096
1.7275290285776783e+18,0.0016232330817729235,0.0003631534636951983,8.196749695343897e-05
1.7275290285836785e+18,0.001207853085361421,-0.0015814070357009768,0.002350456779822707
1.7275290285866785e+18,0.0022923729848116636,0.0010879553155973554,0.0015068843495100737
1.7275290285926787e+18,-0.0008998662233352661,-0.0016817020950838923,-0.0006837191758677363
1.7275290285986788e+18,0.0009903620230033994,-0.003157832659780979,-0.0011561556020751595
1.7275290286016788e+18,-0.0010070310672745109,0.001075133797712624,0.00019850741955451667
1.727529028607679e+18,-0.0009286472923122346,0.0007171477773226798,-0.00017057555669452995
1.727529028613679e+18,-0.0021319908555597067,0.0012283341493457556,-0.0003112517879344523
1.7275290286196792e+18,0.0005945577868260443,-0.0019293506629765034,0.001890617422759533
1.7275290286226793e+18,-0.0024213173892349005,0.0020709966775029898,3.660982838482596e-05
1.7275290286286794e+18,0.0004258815315552056,-0.0021894043311476707,-0.0010674208169803023
1.7275290286346796e+18,-0.0006920562009327114,-0.0013214439386501908,0.003982685972005129
1.7275290286406797e+18,-0.001958513632416725,0.0004868887772317976,0.0008710920810699463
1.7275290286436797e+18,0.0001572449691593647,0.0016811089590191841,0.0009407727629877627
1.72752902864968e+18,-0.001353873172774911,0.0028073997236788273,0.0005252397386357188
1.72752902865568e+18,9.060880256583914e-05,-0.0028129518032073975,-0.00015002148575149477
1.72752902866168e+18,0.0003355116641614586,-0.0016117659397423267,0.0009151798440143466
1.7275290286646802e+18,0.00020889064762741327,0.0022034503053873777,0.0031261336989700794
1.7275290286706803e+18,0.0023609052877873182,0.0004676694225054234,0.0009360122494399548
1.7275290286766804e+18,-0.0021943009924143553,-0.0011616821866482496,-0.0008292460115626454
1.7275290286826806e+18,0.0007457427564077079,0.004715126007795334,-0.0021143811754882336
1.7275290286856806e+18,0.0016140987863764167,-0.00035247448249720037,-0.000579450570512563
1.7275290286916808e+18,-0.0002298834006069228,-0.002946418710052967,0.0005268955137580633
1.727529028697681e+18,0.00311265978962183,0.0010585637064650655,0.0006775236106477678
1.727529028700681e+18,-0.00027572058024816215,0.00170494569465518,-0.00015311213792301714
1.727529028706681e+18,0.0009626263054087758,-0.0004706493637058884,0.0004066519031766802
1.7275290287126812e+18,0.0022114829625934362,-0.000514271087013185,0.0009625286911614239
1.7275290287186813e+18,-0.002571545308455825,-0.0013206212315708399,0.0010023403447121382
1.7275290287216814e+18,0.001018473063595593,-0.002088746055960655,0.0015879595885053277
1.7275290287276815e+18,-0.0006003571324981749,-0.003085159230977297,0.0010929402196779847
1.7275290287336817e+18,0.00021848955657333136,0.002465516794472933,0.0003714266058523208
1.7275290287396818e+18,0.0011403507087379694,-0.0016469323309138417,0.001601058291271329
1.7275290287426819e+18,-0.0008114709053188562,0.0017045006388798356,-0.0012431503273546696
1.727529028748682e+18,0.0011906272266060114,-0.0006501925527118146,0.0008137812837958336
1.727529028754682e+18,0.002358608180657029,-0.0017873516771942377,-0.00026578555116429925
1.7275290287606822e+18,0.0023203170858323574,0.00021208927500993013,0.0022426589857786894
1.7275290287666824e+18,-0.0009228426497429609,-0.0008738761534914374,-0.0004407177329994738
1.7275290287696824e+18,0.002161922864615917,-0.002018328756093979,-0.0016844588099047542
1.7275290287756826e+18,0.0005561795551329851,0.0034263089764863253,0.000304207467706874
1.7275290287816827e+18,-6.824501178925857e-05,0.0004279795102775097,-2.8954063964192756e-05
1.7275290287846828e+18,0.002466666279360652,-0.00027834076900035143,0.002472719643265009
1.727529028790683e+18,0.0006601156783290207,0.001175570534542203,-0.0008538799593225121
1.727529028796683e+18,0.0004763193428516388,-0.0007068115519359708,-0.0006131522241048515
1.7275290288026831e+18,0.0013379091396927834,0.0015124984784051776,0.0003378078399691731
1.7275290288086833e+18,-0.002666858723387122,0.001167947892099619,0.001964206574484706
1.7275290288116833e+18,0.001646953634917736,-6.868925993330777e-05,0.0013030169066041708
1.7275290288176835e+18,-0.0012688501738011837,-0.0011508703464642167,0.0006137656164355576
1.7275290288236836e+18,-0.00207506213337183,0.000364752602763474,0.0009608931723050773
1.7275290288296837e+18,0.0004718464915640652,-0.0009051794768311083,-0.0022619764786213636
1.7275290288326838e+18,-0.0022221689578145742,-0.0021151755936443806,0.0001322339230682701
1.727529028838684e+18,-0.002408409956842661,-0.0022340298164635897,-0.0016134298639371991
1.727529028844684e+18,0.0002766842080745846,0.0004065195098519325,-0.00038929496076889336
1.7275290288506842e+18,-0.0012556606670841575,-0.0015238429186865687,0.00016127277922350913
1.7275290288566843e+18,0.0022214767523109913,0.0011116694658994675,0.001334897824563086
1.7275290288596844e+18,0.0025146191474050283,0.0003253472095821053,-0.0010337053099647164
1.7275290288656845e+18,0.0021282178349792957,0.0008028793381527066,0.0012121531181037426
1.7275290288716846e+18,0.0016350385267287493,0.0019347196212038398,-0.0007994340267032385
1.7275290288776847e+18,-0.0020731021650135517,-0.002012783894315362,-0.00029089211602695286
1.7275290288806848e+18,-0.0009624393424019217,4.2817344365175813e-05,0.001206428511068225
1.727529028886685e+18,-0.0016218473901972175,-0.0004179071984253824,0.0005115848034620285
1.727529028892685e+18,-0.0006186330574564636,-0.0011809442657977343,-0.0014094524085521698
1.7275290288986852e+18,0.003662326605990529,-0.001811739057302475,-0.0016589356819167733
1.7275290289016852e+18,0.0003328458114992827,0.0009515347774140537,-0.0017845003167167306
1.7275290289076854e+18,-3.624135933932848e-05,-0.0020106236916035414,0.0024834773503243923
1.7275290289136855e+18,-0.0017473468324169517,9.349993342766538e-05,-0.004722770769149065
1.7275290289166856e+18,-0.001013409812003374,-0.001136038568802178,-0.0002466109290253371
1.7275290289226857e+18,0.0014989727642387152,0.0024110577069222927,-0.0008203345350921154
1.7275290289286858e+18,0.0005316127790138125,-0.00015685378457419574,0.0008949916809797287
1.727529028931686e+18,-0.0006475603440776467,-0.0012667854316532612,0.00026415163301862776
1.727529028937686e+18,-0.001586182857863605,0.0027151915710419416,0.0007310252403840423
1.7275290289436861e+18,-0.0009977532317861915,-0.0005979185807518661,-0.0017844537505879998
1.7275290289466862e+18,-0.0030460802372545004,0.0031722665298730135,-0.00024448943440802395
1.7275290289526863e+18,0.0036420789547264576,-0.0018036284018307924,0.0012680577347055078
1.7275290289586865e+18,0.003092112485319376,-0.0005896142101846635,0.0025347836781293154
1.7275290289616865e+18,-0.0011231553507968783,0.0005019643576815724,-0.00294502847827971
1.7275290289676867e+18,-0.0012833023210987449,-0.002876438433304429,0.0013224254362285137
1.7275290289736868e+18,-0.0017178152920678258,0.002140781609341502,-0.000414784241002053
1.727529028979687e+18,0.0032965494319796562,0.0005906783044338226,0.001102635869756341
1.727529028982687e+18,0.0013707560719922185,0.0008862820686772466,0.0014156008837744594
1.727529028988687e+18,-0.0013902424834668636,-0.0008551620412617922,-0.0007844574865885079
1.7275290289946872e+18,0.001299745519645512,0.004203959833830595,-0.0027729026041924953
1.7275290290006874e+18,9.435394167667255e-05,-0.001685430994257331,-0.0006435810355469584
1.7275290290036874e+18,0.0004794916312675923,0.0007315289112739265,0.0011403084499761462
1.7275290290096876e+18,-8.713020361028612e-05,0.0011512089986354113,-0.0026905625127255917
1.7275290290156877e+18,0.0010998286306858063,0.0017504405695945024,0.0010329734068363905
1.7275290290186877e+18,0.0005943291471339762,0.001002355944365263,-0.0003406498290132731
1.7275290290246879e+18,0.0017614371608942747,0.0007398822926916182,-0.0005568315973505378
1.727529029030688e+18,-0.00020586476603057235,-0.0022306411992758512,0.00425840774551034
1.7275290290366881e+18,0.00023023593530524522,0.0006883465684950352,0.00026665357290767133
1.7275290290396882e+18,-0.00045627381769008934,-7.214132347144186e-05,0.0014272116823121905
1.7275290290456883e+18,1.651283491810318e-05,-0.003697590436786413,0.000893539865501225
1.7275290290516884e+18,0.0008124863379634917,-0.0010291947983205318,0.0002859236265067011
1.7275290290546885e+18,0.0024850706104189157,-0.0021565172355622053,0.0025517912581562996
1.7275290290606886e+18,0.0009807306341826916,-0.0001997317303903401,0.00023319042520597577
1.7275290290666888e+18,-0.0024228845722973347,-0.00024142125039361417,0.0019237211672589183
1.727529029072689e+18,0.0007617144146934152,-0.00031170964939519763,-0.0017238471191376448
1.727529029075689e+18,-0.00047386562800966203,-0.002376781776547432,0.0005776738980785012
1.727529029081689e+18,-0.0013884485233575106,-0.0014153090305626392,0.00043576149619184434
1.7275290290876892e+18,-0.0017130323685705662,0.0038606259040534496,0.0008018952794373035
1.7275290290906893e+18,-0.006165754981338978,0.0025193491019308567,0.0010993002215400338
1.7275290290966894e+18,-0.006106340792030096,0.004238597583025694,-0.001966901123523712
1.7275290291026895e+18,-0.007005455903708935,0.006013407371938229,0.0006562266498804092
1.7275290291056896e+18,-0.006260181777179241,0.005429279059171677,-0.001221359008923173
1.7275290291116897e+18,-0.006928586401045322,0.0073147364892065525,0.002458407776430249
1.7275290291176899e+18,-0.0032617864198982716,0.005639309994876385,-0.00038579865940846503
1.72752902912369e+18,-0.005696956999599934,0.008008277043700218,0.0010292255319654942
1.72752902912669e+18,-0.004046367947012186,0.007227582391351461,-0.0014075670624151826
1.7275290291326902e+18,-0.0023748744279146194,0.0051371194422245026,0.00013948275591246784
1.7275290291386903e+18,-0.0023398438934236765,0.00621654000133276,0.001262076897546649
1.7275290291446904e+18,-0.0033137279096990824,0.00899106077849865,-0.0009578216122463346
1.7275290291476905e+18,-0.0015113148838281631,0.008394060656428337,-0.002248905599117279
1.7275290291536906e+18,-0.001483497442677617,0.010879621841013432,0.0008988254703581333
1.7275290291596908e+18,-0.0025862117763608694,0.012021861970424652,0.0020794146694242954
1.727529029165691e+18,-0.0014338026521727443,0.009099193848669529,-0.0004240451962687075
1.727529029168691e+18,-0.003023473545908928,0.00810738280415535,-0.0016131503507494926
1.727529029174691e+18,-0.0018754348857328296,0.010685143992304802,0.0005790080758742988
1.7275290291806912e+18,-0.003598988987505436,0.009004425257444382,-0.0015136621659621596
1.7275290291836913e+18,-0.004753317683935165,0.010939497500658035,6.825099990237504e-05
1.7275290291896914e+18,-0.0035312629770487547,0.008132084272801876,-0.00037354478263296187
1.7275290291956915e+18,-0.002749135484918952,0.004548079799860716,0.0011316441232338548
1.7275290292016916e+18,-0.0036421255208551884,0.0072469040751457214,-0.001080102170817554
1.7275290292076918e+18,-0.002374662086367607,0.004154488444328308,-0.0025105082895606756
1.727529029213692e+18,-0.0016189946327358484,0.00532305333763361,0.0017983763245865703
1.727529029216692e+18,-0.003658176166936755,0.0025647315196692944,0.0013184272684156895
1.727529029222692e+18,-0.00010627985466271639,0.006825169548392296,-0.001648877514526248
1.7275290292286922e+18,0.001623482909053564,0.004789946135133505,-0.0011856833007186651
1.7275290292316923e+18,-0.0014010282466188073,0.006701644044369459,-0.0024928508792072535
1.7275290292376924e+18,0.002268807264044881,0.00594702735543251,-0.000105393206467852
1.7275290292436925e+18,-1.77167821675539e-05,0.008228454738855362,0.0011552469804883003
1.7275290292496927e+18,-0.0020574117079377174,0.006098413839936256,-0.00027252675499767065
1.7275290292526927e+18,0.00039613363333046436,0.005515486467629671,0.0015244986861944199
1.7275290292586929e+18,-0.0022086775861680508,0.005487570073455572,-0.00012440023419912905
1.727529029264693e+18,-0.00481784250587225,0.0080264238640666,-6.0981561546213925e-05
1.727529029270693e+18,-0.004347106441855431,0.0015674314927309752,-0.00110211584251374
1.7275290292736932e+18,-0.0061127422377467155,0.0011392448795959353,0.0013239477993920445
1.7275290292796933e+18,-0.004595349542796612,0.0035983361303806305,0.0013350211083889008
1.7275290292856934e+18,-0.004650508984923363,0.000789258221630007,0.0005969409830868244
1.7275290292916936e+18,-0.00521134864538908,-0.00024742225650697947,-0.0005999638233333826
1.7275290292946936e+18,-0.0016603244002908468,0.0008609229698777199,-0.0004840274923481047
1.7275290293006938e+18,-0.0009570952388457954,0.0018442117143422365,0.0015290407463908195
1.727529029306694e+18,-0.001317559857852757,0.00374919013120234,-0.003715998027473688
1.727529029312694e+18,-0.0013944384409114718,6.957072764635086e-05,0.0005353266606107354
1.7275290293186941e+18,-0.0011681346222758293,0.0024144165217876434,-0.00031160947401076555
1.7275290293246943e+18,-0.0025281403213739395,0.00015935272676870227,-0.0009119999594986439
1.7275290293276943e+18,-0.0020243506878614426,0.0013776053674519062,0.00018079765141010284
1.7275290293336945e+18,-0.0034831881057471037,-0.001227890606969595,-0.0009706341661512852
1.7275290293396946e+18,-0.0074249389581382275,-0.0008673432748764753,0.0007099553477019072
1.7275290293456947e+18,-0.006002427544444799,-0.0036071387585252523,-0.004495025612413883
1.7275290293516948e+18,-0.007274646777659655,-0.003991574980318546,-5.118906847201288e-05
1.727529029354695e+18,-0.0029576418455690145,-0.0020610180217772722,-0.0007735186954960227
1.727529029360695e+18,-0.006482480559498072,-0.002431225497275591,-0.0015492162201553583
1.7275290293666952e+18,-0.0038806276861578226,-0.0048765698447823524,-0.0004412266716826707
1.7275290293696952e+18,-0.004987259395420551,-0.0029245642945170403,-0.0007192397606559098
1.7275290293756954e+18,-0.00305508216843009,-0.001704854192212224,0.0008522975258529186
1.7275290293816955e+18,-0.002117524156346917,-0.0010931896977126598,-0.000766493147239089
1.7275290293876956e+18,-0.0031221858225762844,0.0037358542904257774,0.0014334300067275763
1.7275290293936957e+18,-0.0021226066164672375,0.0001305502955801785,0.0016589469742029905
1.727529029399696e+18,-0.006328475661575794,0.001379957189783454,-0.0014921842375770211
1.727529029405696e+18,-0.00446703564375639,-0.0008667242946103215,0.00024329945154022425
1.727529029408696e+18,-0.0014201048761606216,-0.001377839595079422,-3.5686432966031134e-05
1.7275290294146962e+18,-0.0030535985715687275,0.0008777959737926722,0.0008459350792691112
1.7275290294206963e+18,-0.0002905820729210973,-0.0024107913486659527,0.0005909979809075594
1.7275290294266964e+18,0.0007581274257972836,-0.0019006782677024603,-0.0016330447979271412
1.7275290294296965e+18,-0.0005279260221868753,-0.0018186487723141909,-0.0014297132147476077
1.7275290294356966e+18,0.0016866056248545647,-0.002147536026313901,0.0005283267237246037
1.7275290294416968e+18,-0.0011523450957611203,-0.00038043258246034384,-0.0006546716904267669
1.7275290294446968e+18,0.0009847262408584356,-0.0010064899688586593,0.0009194022277370095
1.727529029450697e+18,-0.00048052624333649874,-0.0017181418370455503,0.002919087652117014
1.727529029456697e+18,0.0036568325012922287,-0.002810710109770298,4.3025065679103136e-05
1.7275290294596972e+18,0.000519623514264822,-0.0012709135189652443,-0.0001157717197202146
1.7275290294656973e+18,0.005211386829614639,-0.0005078332033008337,-8.64654648466967e-05
1.7275290294716974e+18,0.0004513959283940494,-0.0004841254558414221,-0.00010144113912247121
1.7275290294776975e+18,-9.08819492906332e-06,-0.004080623853951693,-0.0029501214157789946
1.7275290294806976e+18,0.0024352625478059053,-0.003360944567248225,-0.0003353201027493924
1.7275290294866977e+18,-0.00039132789243012667,-0.0010508482810109854,0.002344096777960658
1.7275290294926979e+18,0.0006014257669448853,-0.0029963531997054815,0.0005305008380673826
1.727529029498698e+18,0.0025722170248627663,-0.003480432089418173,-6.30314607406035e-05
1.727529029501698e+18,0.0036713588051497936,-0.0025027189403772354,0.001728606759570539
1.7275290295076982e+18,0.003914072178304195,-0.0007133919280022383,0.0010291114449501038
1.7275290295136983e+18,0.0029886895790696144,-0.0030388846062123775,-0.0029003755189478397
1.7275290295196984e+18,0.0030153931584209204,-0.0002161877928301692,0.0003686085401568562
1.7275290295226985e+18,0.0028352427762001753,-0.0015643811784684658,0.0024803183041512966
1.7275290295286986e+18,5.0381291657686234e-05,-0.0036721322685480118,-0.0011859707301482558
1.7275290295346988e+18,0.0012818342074751854,-0.004292343743145466,0.0022305650636553764
1.727529029540699e+18,0.003529854118824005,-0.003674242878332734,0.0030040994752198458
1.727529029543699e+18,0.0003928787773475051,-0.0038332631811499596,-0.003695168998092413
1.727529029549699e+18,0.0037042973563075066,-0.0033932651858776808,-0.0001832043781178072
1.7275290295556992e+18,0.007682643830776215,-0.0016052755527198315,9.659738861955702e-05
1.7275290295616993e+18,0.005111095495522022,-0.0016722346190363169,7.504657696699724e-05
1.7275290295646994e+18,0.00689474493265152,-0.0031590505968779325,0.0014103628927841783
1.7275290295706995e+18,0.00488772289827466,-0.0013199077220633626,-0.00021080199803691357
1.7275290295766996e+18,0.00587060209363699,-0.0019671227782964706,-0.001391953555867076
1.7275290295796997e+18,0.005735963582992554,-0.0016243945574387908,0.001078963279724121
1.7275290295856998e+18,0.005414300598204136,-0.004242848604917526,0.0006815317319706082
1.7275290295917e+18,0.003906725440174341,-0.0028298627585172653,-0.000229969882639125
1.7275290295977e+18,0.0036979676224291325,-0.0024520857259631157,0.0005705731455236673
1.7275290296007002e+18,0.0053621442057192326,-0.00758749432861805,-0.0011622183956205845
1.7275290296067003e+18,0.0032678483985364437,-0.0021096873097121716,-6.409507477656007e-05
1.7275290296127004e+18,0.007151301484555006,-0.0030727023258805275,-0.0006505486089736223
1.7275290296187005e+18,0.0050977435894310474,-0.004684814717620611,0.0007640611147508025
1.7275290296217006e+18,0.008137021213769913,-0.006434192880988121,-0.0013153995387256145
1.7275290296277007e+18,0.005826740060001612,-0.00539823342114687,0.0007643135613761842
1.7275290296337009e+18,0.0056808325462043285,-0.00407016696408391,-0.0003409651981201023
1.727529029639701e+18,0.0025748733896762133,-0.0017831111326813698,0.00036626914516091347
1.727529029642701e+18,0.0038590964395552874,-0.006325731985270977,0.0025203521363437176
1.7275290296487012e+18,0.004418358206748962,-0.003109320532530546,-0.0035205241292715073
1.7275290296547013e+18,0.005441572982817888,-0.0010664525907486677,-0.0001641672570258379
1.7275290296607014e+18,0.0008986613247543573,-0.00036746892146766186,0.0001724546600598842
1.7275290296637015e+18,0.0049969772808253765,-0.0033812362235039473,-0.00017847376875579357
1.7275290296697016e+18,0.0034890996757894754,-0.0026583923026919365,0.001830807770602405
1.7275290296757018e+18,-0.00017989310435950756,-0.0029751006513834,-0.0008883518166840076
1.7275290296787018e+18,0.0028711333870887756,-0.0033752156887203455,0.0013264589942991734
1.727529029684702e+18,0.0004134075716137886,-0.003754034638404846,0.002226503100246191
1.727529029690702e+18,0.0007090573199093342,-0.0036952518858015537,0.002181404735893011
1.7275290296967022e+18,0.002669417532160878,-0.003505730303004384,-0.00035960605600848794
1.7275290296997023e+18,0.0028945994563400745,-0.002952300477772951,0.002056652680039406
1.7275290297057024e+18,0.004895292222499847,-0.003008788451552391,0.0004887862596660852
1.7275290297117025e+18,0.005665790755301714,-0.001835338305681944,7.859893958084285e-05
1.7275290297177027e+18,0.005446110852062702,-0.0009319622768089175,0.0017345636151731014
1.7275290297207027e+18,0.0027587253134697676,-0.004073642194271088,0.001619719434529543
1.7275290297267028e+18,0.0050213877111673355,-0.00431013060733676,-8.161988807842135e-05
1.727529029732703e+18,0.0031158379279077053,-0.002137207193300128,0.0004963157698512077
1.727529029738703e+18,0.0026351299602538347,-0.0030123251490294933,0.0006697016069665551
1.7275290297417032e+18,0.002249072538688779,-0.0017924681305885315,-0.0005608380888588727
1.7275290297477033e+18,0.0017311620758846402,-0.004069356247782707,0.001314723864197731
1.7275290297537034e+18,0.0028898154851049185,-0.0006605822127312422,0.003805730491876602
1.7275290297567035e+18,-0.0015127871884033084,-0.0029551449697464705,-0.00015233538579195738
1.7275290297627036e+18,0.0021042830776423216,-0.0022450091782957315,0.0012078064028173685
1.7275290297687037e+18,0.0035186409950256348,-7.480080239474773e-05,-0.002559375949203968
1.7275290297717038e+18,0.004886278882622719,-0.0013494258746504784,0.0003485105698928237
1.727529029777704e+18,0.0035804882645606995,-0.000826788367703557,0.002150178886950016
1.727529029783704e+18,0.004035551100969315,-0.003978726454079151,0.002482660347595811
1.7275290297867041e+18,0.0026374906301498413,-0.004376003053039312,-0.00038673431845381856
1.7275290297927043e+18,0.0013630982721224427,-0.006128507666289806,0.0026424799580127
1.7275290297987044e+18,-0.0015343445120379329,-0.007803436368703842,-0.00022437312873080373
1.7275290298017044e+18,-0.0004910618881694973,-0.004773625172674656,0.0022477549500763416
1.7275290298077046e+18,-0.0005062939017079771,-0.0034965008962899446,-0.0005365802207961679
1.7275290298137047e+18,-0.001109899953007698,-0.0037157521583139896,-0.002104779239743948
1.7275290298197048e+18,0.0019846700597554445,-0.0017665824852883816,0.001145632821135223
1.727529029825705e+18,0.004415272735059261,-0.0012839696137234569,0.0017402141820639372
1.727529029828705e+18,0.0012706003617495298,-0.0016585293924435973,-0.0005434865597635508
1.7275290298347052e+18,0.002558114705607295,-0.001433161087334156,0.0033766846172511578
1.7275290298407053e+18,0.005206563975661993,-0.0011090062325820327,-0.001566247083246708
1.7275290298437053e+18,0.0025076111778616905,-0.0008914809441193938,0.001708031864836812
1.7275290298497055e+18,0.002782808616757393,-0.004193909000605345,0.002264610258862376
1.7275290298557056e+18,0.003436802886426449,-0.0021783714182674885,0.000990214291960001
1.7275290298617057e+18,0.001758346683345735,-0.00652033556252718,-7.488136179745197e-05
1.7275290298647058e+18,-0.0014896930661052465,-0.0023612522054463625,0.0011026763822883368
1.727529029870706e+18,-0.0018320151139050722,-0.0029930067248642445,0.0015926486812531948
1.727529029876706e+18,0.0014562561409547925,-0.0005154049722477794,0.002249991986900568
1.727529029879706e+18,0.001129255979321897,8.604209870100021e-05,0.0006873878301121294
1.7275290298857062e+18,-0.00020292180124670267,-0.0016472407151013613,0.0007105544791556895
1.7275290298917064e+18,-0.0016908455872908235,-0.0008047355804592371,0.0008027913863770664
1.7275290298977065e+18,-0.0015347092412412167,-0.0022490350529551506,-0.0013638932723551989
1.7275290299007066e+18,-0.0017521062400192022,-0.000475014909170568,0.0007983405375853181
1.7275290299067067e+18,0.00042388594010844827,-0.004639395512640476,0.0021658441983163357
1.7275290299127068e+18,-9.41384641919285e-05,-0.0010187654988840222,0.0022194571793079376
1.727529029918707e+18,-0.000669554341584444,-0.0031420530285686255,0.001131128054112196
1.727529029921707e+18,-0.0023138585966080427,-0.00314970756880939,-0.0013498029438778758
1.7275290299277071e+18,0.0017078310484066606,-0.0066582923755049706,-0.0019521642243489623
1.7275290299337073e+18,0.004180111922323704,-0.0012844700831919909,-2.0127918105572462e-05
1.7275290299397074e+18,0.003164074383676052,-0.004050776828080416,0.0016589781735092402
1.7275290299427075e+18,0.0033249082043766975,-0.004977092146873474,0.0025129225105047226
1.7275290299487076e+18,0.00021302280947566032,-0.0035952937323600054,-0.0025982947554439306
1.7275290299547077e+18,0.0031147021800279617,0.002018606523051858,-0.0008410613518208265
1.7275290299607078e+18,0.0028329258784651756,0.0006940158782526851,0.000219176581595093
1.727529029966708e+18,0.0022324868477880955,0.0002027901355177164,-0.0004559221270028502
1.727529029969708e+18,-7.10271269781515e-05,-0.0012096106074750423,-0.0006817306857556105
1.7275290299757082e+18,0.00021545511845033616,0.00038961018435657024,0.00014257332077249885
1.7275290299817083e+18,0.0019039822509512305,-0.0037250928580760956,-2.2375956177711487e-05
1.7275290299847084e+18,-0.00018051956431008875,-0.0025551209691911936,-0.0010267860488966107
1.7275290299907085e+18,-0.00039077328983694315,-0.0024924820754677057,0.0033656300511211157
1.7275290299967086e+18,0.002707325853407383,0.00024113699328154325,0.001352141727693379
1.7275290300027087e+18,4.566764982882887e-05,-0.002002352848649025,0.0015565998619422317
1.7275290300057088e+18,-0.0018768731970340014,-0.005501123145222664,0.0011045257560908794
1.727529030011709e+18,-0.00039529241621494293,-0.0026277336291968822,-0.0017160845454782248
1.727529030017709e+18,-0.0037915341090410948,-0.0016884475480765104,-0.00016726626199670136
1.7275290300237092e+18,-0.0009049773216247559,0.0007604434504173696,0.0017123832367360592
1.7275290300267092e+18,0.0014103641733527184,-0.0010280320420861244,0.00038055508048273623
1.7275290300327094e+18,-0.002713666530326009,-0.0018915857654064894,-0.001676185172982514
1.7275290300387095e+18,-0.0015332384500652552,-0.0001638858811929822,0.001099015586078167
1.7275290300447096e+18,-0.0009639947093091905,-0.0007666239980608225,-0.00017421045049559325
1.7275290300507098e+18,-0.0015613549621775746,0.002167040016502142,0.003264712169766426
1.7275290300537098e+18,0.000553437857888639,0.003207965986803174,-0.0011334846494719386
1.72752903005971e+18,-0.0023192816879600286,0.0018225921085104346,0.0008440066012553871
1.72752903006571e+18,-0.0010724718449637294,0.00165667780674994,0.001214256277307868
1.7275290300687101e+18,8.596619591116905e-05,0.005187358241528273,0.0015348652377724648
1.7275290300747103e+18,-0.003348074620589614,0.004358015023171902,0.0021910008508712053
1.7275290300807104e+18,-0.005476893857121468,0.005232109688222408,-0.002773700747638941
1.7275290300837105e+18,-0.0034708164166659117,0.002555122133344412,-0.0002587656199466437
1.7275290300897106e+18,-0.0031580606009811163,0.0052665406838059425,-0.002270333468914032
1.7275290300957107e+18,8.930405601859093e-05,0.002189554739743471,-0.0006337389349937439
1.7275290301017108e+18,-0.0018760778475552797,0.002876067068427801,-0.001292336150072515
1.727529030104711e+18,-0.0011638537980616093,0.004074607510119677,0.0014390845317393541
1.727529030110711e+18,-0.000571579672396183,0.0025608823634684086,0.0010690453927963972
1.7275290301167112e+18,0.0014186962507665157,0.0012899364810436964,-0.0018366349395364523
1.7275290301197112e+18,0.0014299466274678707,0.0025432491675019264,0.00030580596649087965
1.7275290301257114e+18,0.0032722409814596176,0.004134513903409243,9.138256427831948e-05
1.7275290301317115e+18,0.0015808312455192208,0.0055598109029233456,-0.0016336389817297459
1.7275290301377116e+18,-5.988636985421181e-05,0.0035125587601214647,-0.0014464500127360225
1.7275290301407117e+18,-0.0016470241826027632,0.006497213151305914,0.00028669153107330203
1.7275290301467118e+18,-0.0004895184538327157,0.003133695339784026,0.001442933571524918
1.727529030152712e+18,-0.0014280907344073057,0.0027119889855384827,-0.002144923899322748
1.727529030158712e+18,-0.000871664029546082,0.003342089708894491,0.0015812304336577654
1.7275290301647122e+18,-0.0015236553736031055,0.002158029703423381,-0.002880617743358016
1.7275290301677123e+18,0.002102001802995801,0.004529761150479317,-0.0034563152585178614
1.7275290301737124e+18,0.004781811498105526,0.0009412921499460936,0.00178358587436378
1.7275290301797125e+18,0.0035419175401329994,2.656655851751566e-06,-0.00020375664462335408
1.7275290301857126e+18,0.0047612437047064304,-0.0015551241813227534,0.0014778394252061844
1.7275290301887127e+18,0.006648357957601547,0.0019659248646348715,0.0011005490086972713
1.7275290301947128e+18,-2.5637447834014893e-05,-0.0016323612071573734,-0.003971884958446026
1.727529030200713e+18,0.0019477219320833683,0.0010040064807981253,-0.0014951247721910477
1.727529030206713e+18,0.00021973834373056889,0.001486165332607925,0.0003913937835022807
1.7275290302127132e+18,0.003667880780994892,-0.00130322459153831,0.0032874620519578457
1.7275290302157133e+18,-0.0010915127350017428,0.0011872397735714912,-0.0023599520791321993
1.7275290302217134e+18,0.0013071948196738958,0.000283867004327476,-0.003212982090190053
1.7275290302277135e+18,0.0010088859125971794,7.103598909452558e-05,-0.0015050655929371715
1.7275290302337137e+18,0.004942850675433874,-0.0020429883152246475,-0.0022660037502646446
1.7275290302367137e+18,0.0030424115248024464,0.0013638553209602833,-0.0004752643872052431
1.7275290302427139e+18,0.004537342116236687,-0.0005892615881748497,0.00017317256424576044
1.727529030248714e+18,0.002050242619588971,-0.0012930614175274968,-0.0013357277493923903
1.727529030254714e+18,0.005534853786230087,-0.001996389590203762,-0.0010344978654757142
1.7275290302577142e+18,-0.0003576623275876045,-0.0033765891566872597,-0.003469750750809908
1.7275290302637143e+18,-0.00028372742235660553,-0.004301955923438072,0.0020271283574402332
1.7275290302697144e+18,0.0026833699084818363,-0.0011897911317646503,-0.0033840867690742016
1.7275290302727145e+18,-0.001205385779030621,-0.002184156095609069,-0.0022741775028407574
1.7275290302787146e+18,0.0004263789742253721,-0.0021383101120591164,-0.002023559296503663
1.7275290302847148e+18,0.0030094098765403032,-0.002464164048433304,-0.0014167496701702476
1.727529030290715e+18,0.0017821966903284192,-0.000299969658954069,-0.001157442107796669
1.727529030293715e+18,0.003548698266968131,-0.002569385804235935,-0.003144259098917246
1.727529030299715e+18,0.007136060856282711,-0.0012489194050431252,-0.0026809736154973507
1.7275290303057152e+18,0.006118989549577236,0.0010574031621217728,-0.0019186653662472963
1.7275290303117153e+18,0.004580043721944094,-0.001458312850445509,-0.0011553647927939892
1.7275290303177155e+18,0.005868793465197086,-0.004495467524975538,-0.0019738872069865465
1.7275290303207155e+18,0.00780403520911932,-0.0018487893976271152,4.178821109235287e-05
1.7275290303267156e+18,0.007147577125579119,-0.004076901823282242,-0.0025151369627565145
1.7275290303327158e+18,0.0035482151433825493,-0.0013635032810270786,-0.003151827724650502
1.727529030338716e+18,0.004555514547973871,-0.0030642549972981215,-0.0010610424214974046
1.727529030344716e+18,0.0016549144638702273,-0.004521884024143219,0.0011566824978217483
1.7275290303507162e+18,-0.0024037796538323164,0.0009666008409112692,-0.0014114808291196823
1.7275290303537162e+18,0.0018133486155420542,0.0012269692961126566,-0.0018548598745837808
1.7275290303597164e+18,0.0009266339475288987,-0.0001330221421085298,-0.0023500958923250437
1.7275290303657165e+18,-0.0029864346142858267,-0.0015238262712955475,0.00035472610034048557
1.7275290303717166e+18,-0.0020963838323950768,0.0004508733982220292,-0.001541390549391508
1.7275290303747167e+18,-0.005227280780673027,0.0037660147063434124,-0.002338321413844824
1.7275290303807168e+18,-0.0035300899762660265,-0.0016456865705549717,-0.0003456847043707967
1.727529030386717e+18,-0.0038022559601813555,-0.0019615080673247576,-0.0009178096661344171
1.727529030392717e+18,-0.006021867506206036,0.0006339286919683218,-0.00475606694817543
1.7275290303987172e+18,-0.0028232296463102102,-0.002410651184618473,-0.001341682393103838
1.7275290304017172e+18,-0.0035908110439777374,-0.0016952755395323038,-0.0032605533488094807
1.7275290304077174e+18,-6.803323049098253e-05,-0.0029582814313471317,-0.002584989182651043
1.7275290304137175e+18,-0.0029332598205655813,-0.00476954085752368,-0.0006887034978717566
1.7275290304167176e+18,2.2542080841958523e-05,-0.0039039188995957375,-0.0024779746308922768
1.7275290304227177e+18,0.00047544692642986774,-0.002893788041546941,0.0001661684364080429
1.7275290304287178e+18,-0.0022453300189226866,-0.001960531109943986,-0.0028404006734490395
1.727529030431718e+18,-0.0023535462096333504,-0.001413027523085475,-0.005469445139169693
1.727529030437718e+18,-0.0034721121191978455,-0.0014728454407304525,-0.0027513739187270403
1.7275290304437181e+18,-0.006581572815775871,-0.0010423619532957673,-0.003279216354712844
1.7275290304497183e+18,-0.007688446436077356,-0.00022016954608261585,-0.004299403168261051
1.7275290304557184e+18,-0.0025823749601840973,3.0441908165812492e-05,-0.004428524058312178
1.7275290304617185e+18,-0.004566595423966646,0.0010205765720456839,-0.0009515826823189855
1.7275290304647186e+18,-0.005443209782242775,0.0009471394587308168,-0.0010377337457612157
1.7275290304707187e+18,-0.0016056111780926585,-0.0033936970867216587,-0.002414063550531864
1.7275290304767188e+18,0.0012869732454419136,-0.0008622209425084293,-0.0012574907159432769
1.727529030482719e+18,0.003400071058422327,-0.003227764740586281,-0.005353795364499092
1.727529030488719e+18,-0.0002079515252262354,-0.0005098190740682185,-0.001500729937106371
1.7275290304917192e+18,0.0017285586800426245,0.001197395846247673,-0.003675617976114154
1.7275290304977193e+18,-0.000435180525528267,-0.0005030945176258683,-0.002390677109360695
1.7275290305037194e+18,-0.0001601683907210827,0.0016290468629449606,-0.004787098150700331
1.7275290305097196e+18,-0.0025704267900437117,-0.0018866490572690964,-0.0034784104209393263
1.7275290305157197e+18,-0.0043304539285600185,0.00040427315980196,-0.0006315922364592552
1.7275290305217198e+18,-0.0058582681231200695,6.778520764783025e-05,-0.003626870224252343
1.7275290305247199e+18,-0.003168791765347123,-0.001014106092043221,-0.004105777014046907
1.72752903053072e+18,-0.007552486378699541,-0.0007045769016258419,-0.0012110046809539199
1.7275290305367201e+18,-0.005016339011490345,-0.001178475795313716,-0.003706261981278658
1.7275290305427203e+18,-0.0057539017871022224,0.0006372787756845355,-0.0029386633541435003
1.7275290305457203e+18,-0.004264659248292446,-0.0014425342669710517,-0.0023694378323853016
1.7275290305517204e+18,-0.003126325085759163,-0.0011614784598350525,-0.007893713191151619
1.7275290305577206e+18,-0.0025670938193798065,0.00033261359203606844,-0.002271093428134918
1.7275290305637207e+18,-0.002681716112419963,0.0025483679492026567,-0.00469038262963295
1.7275290305667208e+18,-0.004464337602257729,0.002031429670751095,-0.00461025582626462
1.727529030572721e+18,0.0019435945432633162,0.0035894038155674934,-0.0036466573365032673
1.727529030578721e+18,-0.000718585797585547,0.002630435861647129,-0.004801884759217501
1.7275290305847212e+18,-0.002254131017252803,0.004249616991728544,-0.00503634475171566
1.7275290305907213e+18,-0.0028188559226691723,0.002115660347044468,-0.005066359881311655
1.7275290305967214e+18,0.0009115200955420732,0.002891130279749632,-0.0076268017292022705
1.7275290305997215e+18,-0.0040932707488536835,0.00043046416249126196,-0.0036828378215432167
1.7275290306057216e+18,-0.004251081962138414,-0.000619538826867938,-0.0005320848431438208
1.7275290306117217e+18,-0.004958723671734333,-0.0035781182814389467,-0.0037183985114097595
1.7275290306177219e+18,-0.004830893129110336,0.000637908058706671,-0.004167455248534679
1.727529030623722e+18,-0.0014514767099171877,-0.00038851203862577677,-0.0031234570778906345
1.727529030629722e+18,-0.0015173486899584532,0.0016659628599882126,-0.0018443536246195436
1.7275290306357222e+18,-0.0013741960283368826,0.0003084943164139986,-0.002491643186658621
1.7275290306417224e+18,0.003026884514838457,0.0014799333875998855,-0.002807905897498131
1.7275290306447224e+18,0.0017339951591566205,0.004934137221425772,-0.0037329643964767456
1.7275290306507226e+18,0.002386855660006404,0.004935035482048988,-0.004657891113311052
1.7275290306567227e+18,0.003706315066665411,-0.0012446846812963486,-0.0027314075268805027
1.7275290306627228e+18,0.004561246372759342,-0.0002327527035959065,-0.00408799247816205
1.727529030668723e+18,0.0035244468599557877,-0.0024868082255125046,-0.003098791465163231
1.727529030674723e+18,0.0038030745927244425,-0.0028348711784929037,-0.0008733132854104042
1.7275290306807232e+18,0.003101231064647436,-0.001118335174396634,-0.0014919531531631947
1.7275290306837233e+18,0.0019539156928658485,-0.0003844826715067029,-0.0052308132871985435
1.7275290306897234e+18,0.0070325471460819244,-0.0011006994172930717,-0.003575756214559078
1.7275290306957235e+18,0.002834413666278124,-0.00238998350687325,-0.007014344446361065
1.7275290307017236e+18,0.004598228260874748,5.3786905482411385e-05,-0.0020986259914934635
1.7275290307077238e+18,0.003885369747877121,0.0019783941097557545,-0.0026190318167209625
1.7275290307107238e+18,0.0010720731224864721,0.001323782023973763,-0.004198706708848476
1.727529030716724e+18,0.0006048011127859354,-0.0012748552253469825,-0.0036705024540424347
1.727529030722724e+18,0.004648232366889715,0.0022207326255738735,-0.0018249772256240249
1.7275290307287242e+18,0.0026055052876472473,-0.0012984249042347074,-0.0011014702031388879
1.7275290307347244e+18,0.0031373074743896723,-0.005873950198292732,-0.004305331036448479
1.7275290307377244e+18,0.0011265948414802551,-0.002009868621826172,-0.0013075944734737277
1.7275290307437245e+18,0.0007451442070305347,-0.0043165716342628,-0.0018719792133197188
1.7275290307497247e+18,0.0008373486343771219,-0.003779096994549036,-0.0023671993985772133
1.7275290307557248e+18,0.001968313939869404,-0.006683397106826305,-0.0013930591521784663
1.727529030761725e+18,0.0028014150448143482,-0.004325644113123417,-0.004975484684109688
1.727529030764725e+18,0.0036394798662513494,-0.0016782134771347046,-0.003760314080864191
1.727529030770725e+18,0.007939239963889122,-0.002338688587769866,-0.007081118877977133
1.7275290307767252e+18,0.00533274607732892,0.0008819702197797596,-0.005336977541446686
1.7275290307827254e+18,0.001461672829464078,0.0016388652147725224,-0.005148020107299089
1.7275290307887255e+18,0.00311360415071249,0.001477252459153533,-0.004889270756393671
1.7275290307947256e+18,0.0005825230618938804,-0.0005742429057136178,-0.0006412107031792402
1.7275290308007258e+18,-0.0005400254740379751,-0.000632869778200984,-0.0020849599968641996
1.7275290308037258e+18,-0.0013495736056938767,-0.0013887532986700535,-0.004002665635198355
1.727529030809726e+18,-0.0009465696639381349,-0.00363622372969985,-0.0006468906067311764
1.727529030815726e+18,-0.0015541892498731613,-0.0023299199528992176,-0.0027039526030421257
1.7275290308217262e+18,0.00130361202172935,-6.285868585109711e-05,-0.0011736571323126554
1.7275290308277263e+18,0.0012357716914266348,-0.0006749270251020789,-0.0031195799820125103
1.7275290308337265e+18,0.0010190267348662019,-0.0013536631595343351,-0.0037271296605467796
1.7275290308397266e+18,0.0009349553729407489,0.0006747617153450847,-0.0023984143044799566
1.7275290308427267e+18,0.0004130855668336153,-0.0023498234804719687,-0.0027173180133104324
1.7275290308487268e+18,0.0016075297025963664,-0.002910774201154709,-0.003284502075985074
1.727529030854727e+18,-0.0005257929442450404,-0.0002580028376542032,-0.003501206636428833
1.727529030860727e+18,-0.0005874673370271921,-0.002520550973713398,-5.906750448048115e-05
1.7275290308667272e+18,-0.0009061986347660422,1.8671067664399743e-05,-0.0045471349731087685
1.7275290308727273e+18,-0.0016487729735672474,-0.0006041931919753551,-0.001748751848936081
1.7275290308757274e+18,-0.00703277625143528,0.0004542917595244944,0.0002608464565128088
1.7275290308817275e+18,-0.0011276414152234793,-0.0009522147011011839,0.0007835314609110355
1.7275290308877276e+18,-0.00508490763604641,0.0027975700795650482,-0.0007164530688896775
1.7275290308937277e+18,-0.004190976731479168,0.0008197034476324916,-0.0013678288087248802
1.727529030899728e+18,-0.003697966691106558,-0.00020519213285297155,-0.0023815971799194813
1.727529030902728e+18,-0.003050332423299551,0.0011234183330088854,-0.00015180441550910473
1.727529030908728e+18,-0.0003895243862643838,0.001990044955164194,-0.002291023498401046
1.7275290309147282e+18,-1.132683246396482e-05,0.0037730757612735033,-0.0014014390762895346
1.7275290309207283e+18,-0.0015663671074435115,0.001472214236855507,-0.0013675392838194966
1.7275290309267284e+18,0.0008099928963929415,0.0008034300408326089,-0.0022459528408944607
1.7275290309297285e+18,0.0014191556256264448,0.004330664873123169,-0.004224010743200779
1.7275290309357286e+18,-0.0005133107188157737,-0.000316049437969923,-0.004952576011419296
1.7275290309417288e+18,-0.004626015666872263,0.0003645288816187531,-0.002269298769533634
1.727529030947729e+18,-0.0032099448144435883,-0.002980903722345829,-0.0012073502875864506
1.727529030950729e+18,-0.0032758591696619987,0.000757048896048218,0.00032091978937387466
1.727529030956729e+18,-0.001686201780103147,-0.0012956998543813825,-0.0032700523734092712
1.7275290309627292e+18,0.0006068799993954599,-0.003377542831003666,-0.0012759448727592826
1.7275290309687293e+18,0.002237594686448574,0.000827126088552177,-0.0036895310040563345
1.7275290309747295e+18,0.0016469958936795592,0.0007261650171130896,0.00035645777825266123
1.7275290309777295e+18,0.0020553506910800934,0.005206339992582798,-0.0025737229734659195
1.7275290309837297e+18,0.002812293590977788,0.0024008385371416807,-0.004236207809299231
1.7275290309897298e+18,0.0005503915599547327,0.0027450155466794968,-0.0034733591601252556
1.72752903099573e+18,-0.0007517833728343248,0.0020797725301235914,-0.0022995956242084503
1.72752903099873e+18,-0.0013374901609495282,0.00388600816950202,-0.00151919387280941
1.72752903100473e+18,-0.0024502964224666357,0.0005377130582928658,-0.0016124775866046548
1.7275290310107302e+18,-0.0024345777928829193,0.0016103549860417843,-0.0027014813385903835
1.7275290310167304e+18,-0.0007394840358756483,0.0042699649930000305,-0.0021942295134067535
1.7275290310227305e+18,0.0005432741018012166,-0.0008183479076251388,0.0005941147683188319
1.7275290310257306e+18,-0.0008203332545235753,0.0015473287785425782,-0.0009823133004829288
1.7275290310317307e+18,0.001987035386264324,0.0012606352102011442,-0.0009689569706097245
1.7275290310377308e+18,0.0029006206896156073,0.0019790991209447384,0.00023101206170395017
1.727529031040731e+18,0.002575707621872425,0.000823994807433337,-0.0009782566921785474
1.727529031046731e+18,0.0023336296435445547,0.0012661060318350792,-0.0007290204521268606
1.7275290310527311e+18,0.0014373461017385125,0.0016517320182174444,-0.0006609769770875573
1.7275290310587313e+18,0.0019136609043926,0.0015986808575689793,-0.00035664744791574776
1.7275290310647314e+18,0.000896974524948746,0.003463153261691332,0.0012529577361419797
1.7275290310707315e+18,-0.0008533740183338523,0.0036058402620255947,-0.00019740697462111712
1.7275290310737316e+18,-0.0009269290021620691,0.005042870994657278,0.0006368088652379811
1.7275290310797317e+18,-0.002647518878802657,0.0016427559312433004,-0.0002930457121692598
1.7275290310857318e+18,-0.0015475344844162464,0.0015923928003758192,0.0017747905803844333
1.727529031088732e+18,0.0004074551397934556,0.0023563222493976355,0.00048386072739958763
1.727529031094732e+18,-0.004475731402635574,0.005309175234287977,0.00021376748918555677
1.7275290311007322e+18,0.0007407075027003884,-0.0009508886141702533,0.001391637371852994
1.7275290311067323e+18,0.00041651801439002156,0.0016297026304528117,0.0015390273183584213
1.7275290311127324e+18,0.0012426022440195084,-0.0023492868058383465,0.0024090141523629427
1.7275290311187325e+18,0.00165820331312716,-0.0001206474844366312,0.004349218215793371
1.7275290311217326e+18,0.0011379458010196686,-0.0012767431326210499,0.0002946113236248493
1.7275290311277327e+18,0.0015379390679299831,0.00010688032489269972,-0.0012197038158774376
1.7275290311337329e+18,-0.00027094013057649136,0.0006735357455909252,-0.00023353331198450178
1.727529031139733e+18,-0.0010951237054541707,0.0008929328760132194,-0.0013847301015630364
1.727529031142733e+18,-0.002673616399988532,0.0029479931108653545,-0.0027273723389953375
1.7275290311487332e+18,0.0008854188490658998,0.0033424238208681345,-0.0030376126524060965
1.7275290311547333e+18,-0.004028712399303913,0.002745717531070113,0.0046060108579695225
1.7275290311577334e+18,-0.0034292517229914665,0.004819238558411598,-0.0023055910132825375
1.7275290311637335e+18,-0.0017804980743676424,0.004135715309530497,-0.0014501698315143585
1.7275290311697336e+18,-0.0015845580492168665,0.0009858531411737204,0.0011199864093214273
1.7275290311757338e+18,0.00010155764175578952,0.003995457664132118,-0.0033970053773373365
1.727529031181734e+18,0.0022168681025505066,0.0009741183021105826,-0.0011469912715256214
1.727529031184734e+18,0.0018806252628564835,0.0038211464416235685,-0.0017806908581405878
1.727529031190734e+18,0.005864765495061874,0.001350364531390369,0.0011803050292655826
1.7275290311967342e+18,0.0026114024221897125,0.001934015192091465,0.0021726894192397594
1.7275290312027343e+18,0.004537082277238369,-0.0006504347547888756,0.001215727417729795
1.7275290312057344e+18,0.002558724954724312,-5.702994531020522e-05,0.0027424949221313
1.7275290312117345e+18,0.0015153209678828716,-0.0006788264727219939,0.0008795901667326689
1.7275290312177347e+18,0.0005494636716321111,-0.0003574845613911748,0.0022106273099780083
1.7275290312237348e+18,0.0018987234216183424,-0.002043995540589094,0.0026459700893610716
1.7275290312267348e+18,-0.0025772922672331333,-0.0004577137005981058,0.001467954134568572
1.727529031232735e+18,0.0009263299289159477,0.002272567246109247,0.00013174989726394415
1.727529031238735e+18,-0.002948927693068981,0.002074317540973425,0.0005909809842705727
1.7275290312447352e+18,0.00346666993573308,0.000848508148919791,0.0002023085835389793
1.7275290312477353e+18,0.0014593000523746014,0.0017330418340861797,-0.002083251718431711
1.7275290312537354e+18,0.006609705276787281,0.0021064637694507837,-0.0015652510337531567
1.7275290312597356e+18,0.005709545686841011,-0.0018937638960778713,0.0020241360180079937
1.7275290312627356e+18,0.004620809108018875,0.0016617723740637302,0.0015801721019670367
1.7275290312687357e+18,0.0025614388287067413,-0.000462918309494853,-0.001720719737932086
1.7275290312747359e+18,0.001525571453385055,-0.002028259914368391,0.0013080083299428225
1.727529031280736e+18,-0.0007015910814516246,-8.310540579259396e-06,0.002085452899336815
1.7275290312867361e+18,-0.0020769312977790833,-0.0003628912381827831,0.004518942441791296
1.7275290312897362e+18,-0.0054117669351398945,-0.0034099025651812553,-0.0007644023280590773
1.7275290312957363e+18,-0.0036794363986700773,-0.006223634816706181,0.0012669817078858614
1.7275290313017364e+18,-0.003704363014549017,-0.0048273783177137375,0.0051050372421741486
1.7275290313077366e+18,-0.00023264344781637192,-0.007101655472069979,0.0008085411391220987
1.7275290313107366e+18,0.0006340849213302135,-0.0055367108434438705,0.00047543016262352467
1.7275290313167368e+18,0.00016767819761298597,-0.005168434698134661,0.0005998713313601911
1.727529031322737e+18,0.0010625002905726433,-0.001143868314102292,0.001514845178462565
1.727529031328737e+18,0.004952398128807545,-0.00239513604901731,-0.0008754262235015631
1.727529031331737e+18,0.004460325464606285,-0.0025594723410904408,-0.0004239937989041209
1.7275290313377372e+18,0.0020002261735498905,-0.0023035595659166574,-0.0005134888924658298
1.7275290313437373e+18,-0.0009887097403407097,-0.0010597845539450645,0.002211820101365447
1.7275290313467374e+18,0.0025192617904394865,-0.002035711891949177,0.0021147804800421
1.7275290313527375e+18,0.0010501295328140259,-0.0038074455223977566,0.0010150480084121227
1.7275290313587377e+18,-0.00375707121565938,-0.0018055866239592433,0.003538656048476696
1.7275290313647378e+18,-0.0011536068050190806,-0.003964141011238098,-0.0015640472993254662
1.727529031370738e+18,-0.0003594347508624196,-0.004582183435559273,0.002510043326765299
1.727529031373738e+18,-0.0008010337478481233,-0.005452865269035101,0.0003704491537064314
1.727529031379738e+18,0.0016940219793468714,-0.003805470885708928,0.002266951836645603
1.7275290313857382e+18,-0.0005275855073705316,-0.009170332923531532,0.0022560495417565107
1.7275290313917384e+18,0.0038367626257240772,-0.0030503112357109785,0.004395948722958565
1.7275290313977385e+18,-0.00024796754587441683,-0.005093145649880171,-0.00033133733086287975
1.7275290314037386e+18,0.0011502703418955207,0.0007477300241589546,0.0014217717107385397
1.7275290314067387e+18,-0.00044399441685527563,-0.0033738871570676565,0.004169497638940811
1.7275290314127388e+18,0.0020779988262802362,0.0009826567256823182,0.0006863559829071164
1.727529031418739e+18,0.0025893691927194595,0.0005092083010822535,0.0010008978424593806
1.727529031424739e+18,0.0027731037698686123,-0.0005988158518448472,0.0018501586746424437
1.7275290314307392e+18,0.00030492711812257767,-0.00018935976549983025,0.005039075389504433
1.7275290314337393e+18,0.0008118831319734454,-0.0017905350541695952,0.002481904812157154
1.7275290314397394e+18,0.0040410286746919155,-0.003551251022145152,0.005506918765604496
1.7275290314457395e+18,0.0016556214541196823,-0.004064023029059172,0.00143900653347373
1.7275290314517396e+18,-0.0010631568729877472,-0.0031904103234410286,0.0011706989025697112
1.7275290314547397e+18,-0.0023991758935153484,-0.00530686741694808,0.0037519996985793114
1.7275290314607398e+18,3.486243076622486e-05,-0.002629829803481698,0.0011008433066308498
1.72752903146674e+18,-0.0008363795350305736,-0.0033220325130969286,0.0011188939679414034
1.72752903146974e+18,0.0016803006874397397,-0.004480901639908552,-0.0013231770135462284
1.7275290314757402e+18,-0.0016595376655459404,-0.0009992719860747457,-0.0004789505619555712
1.7275290314817403e+18,0.0025460184551775455,-0.0017308895476162434,0.001985657261684537
1.7275290314877404e+18,0.00026868353597819805,-6.05668465141207e-05,0.005591666791588068
1.7275290314907405e+18,0.004533812869340181,-0.0018082880415022373,0.0024809136521071196
1.7275290314967406e+18,0.0025006835348904133,0.00023725745268166065,0.0017385220853611827
1.7275290315027407e+18,0.004250715021044016,0.0029654032550752163,0.0013443233910948038
1.7275290315087409e+18,0.0039042173884809017,0.0035997568629682064,0.0013997628120705485
1.727529031511741e+18,0.002231443300843239,0.0013957553310319781,0.003311555366963148
1.727529031517741e+18,-0.0006420350982807577,0.0024004383012652397,0.006405936088413
1.7275290315237412e+18,-3.618001937866211e-05,0.003282980527728796,0.016273275017738342
1.7275290315297413e+18,-0.0010305802570655942,0.0008545183809474111,0.025793729349970818
1.7275290315327414e+18,-0.004059220664203167,0.0007935392204672098,0.02961544506251812
1.7275290315387415e+18,-0.002662996295839548,-0.0025480131153017282,0.04361259564757347
1.7275290315447416e+18,-0.003429521108046174,-0.0010543391108512878,0.056323833763599396
1.7275290315477417e+18,-0.00382993440143764,-0.003077704692259431,0.06419683992862701
1.7275290315537418e+18,0.00021380791440606117,0.0006209705607034266,0.06995515525341034
1.727529031559742e+18,-0.0005932966596446931,0.001481085317209363,0.07138941437005997
1.727529031565742e+18,-0.0021440351847559214,0.0009478182764723897,0.071090929210186
1.7275290315687421e+18,0.00011818402708740905,0.001670575700700283,0.0730920135974884
1.7275290315747423e+18,0.00034138906630687416,0.002039237879216671,0.07505457103252411
1.7275290315807424e+18,-0.002120948163792491,0.00041324133053421974,0.06941297650337219
1.7275290315867425e+18,-0.0007093325257301331,0.0018516912823542953,0.06812122464179993
1.7275290315897426e+18,-0.0036248276010155678,0.0015377092640846968,0.07089442014694214
1.7275290315957427e+18,-0.0026103933341801167,-0.0012955269776284695,0.06811921298503876
1.7275290316017428e+18,-0.005309621803462505,-0.0011485163122415543,0.06643983721733093
1.727529031604743e+18,-0.0018108554650098085,0.001714316662400961,0.06775292009115219
1.727529031610743e+18,-0.0002544068265706301,0.0011824837420135736,0.06645771861076355
1.7275290316167432e+18,-0.001979467924684286,-0.003232114017009735,0.06389126926660538
1.7275290316227433e+18,0.00131612631957978,0.0004914599703624845,0.06497900187969208
1.7275290316287434e+18,-0.0008826313423924148,-0.004738739691674709,0.06734602153301239
1.7275290316317435e+18,0.0024311437737196684,-0.002497877925634384,0.06342514604330063
1.7275290316377436e+18,-0.000560902466531843,-0.003668084740638733,0.06323253363370895
1.7275290316407437e+18,-0.00046642060624435544,0.0022560637444257736,0.06247451528906822
1.7275290316467438e+18,-0.001971430843695998,0.0008398016216233373,0.06038450077176094
1.727529031652744e+18,-0.0035242591984570026,-0.0001085485564544797,0.06252723932266235
1.727529031658744e+18,-0.0012376147788017988,0.0014445965643972158,0.06171252951025963
1.727529031661744e+18,-0.004643733613193035,-0.0017327249515801668,0.061152923852205276
1.7275290316677443e+18,-0.0025275053922086954,-0.0016905511729419231,0.05567830428481102
1.7275290316737444e+18,-0.0009133560233749449,-0.0037359739653766155,0.05779679864645004
1.7275290316797445e+18,-0.0009052235400304198,-0.002927160821855068,0.0553373284637928
1.7275290316857446e+18,0.0033357925713062286,-0.006299840752035379,0.05496818944811821
1.7275290316887447e+18,0.0011557855177670717,-0.0015649546403437853,0.0560128279030323
1.7275290316947448e+18,0.0014822384109720588,-0.0027916927356272936,0.050103750079870224
1.727529031700745e+18,-0.0008570520440116525,-0.0017871950985863805,0.05108584836125374
1.727529031706745e+18,0.00021959817968308926,0.0006955736316740513,0.0507684089243412
1.7275290317097452e+18,-0.004432664252817631,-0.0032237512059509754,0.051435358822345734
1.7275290317157453e+18,-0.0013212035410106182,0.0009865004103630781,0.052511412650346756
1.7275290317217454e+18,-0.002041272120550275,-0.002034638077020645,0.045180030167102814
1.7275290317277455e+18,-0.0036598914302885532,-0.0019998301286250353,0.048148222267627716
1.7275290317307456e+18,-0.0020477455109357834,-0.0036801244132220745,0.045119959861040115
1.7275290317367457e+18,-0.002535588573664427,-0.00454636849462986,0.04677974805235863
1.7275290317427459e+18,-0.0037709479220211506,-0.0033390913158655167,0.04608555883169174
1.727529031748746e+18,-0.00029146671295166016,-0.002472270280122757,0.043074700981378555
1.727529031751746e+18,-0.0022155223414301872,-0.001994929974898696,0.04355950653553009
1.7275290317577462e+18,-0.0018191481940448284,0.0002530416240915656,0.04243084788322449
1.7275290317637463e+18,0.0016773445531725883,-0.0003700187080539763,0.04069918021559715
1.7275290317697464e+18,0.0038390401750802994,0.001674019149504602,0.04063532128930092
1.7275290317727465e+18,0.0032215025275945663,0.002597029320895672,0.03897490352392197
1.7275290317787466e+18,0.0005487017333507538,0.0032082879915833473,0.042041320353746414
1.7275290317847468e+18,0.0020493234042078257,0.0014874667394906282,0.04122279956936836
1.727529031790747e+18,0.002964500105008483,-0.0003490889212116599,0.04025721549987793
1.727529031793747e+18,-0.001240745303221047,0.0022261375561356544,0.03860832005739212
1.727529031799747e+18,0.0010696400422602892,0.00010646487498888746,0.039546940475702286
1.7275290318057472e+18,2.7499023417476565e-05,-0.0007864937069825828,0.03666933625936508
1.7275290318087473e+18,0.0004628602764569223,-0.0005872939364053309,0.042310863733291626
1.7275290318147474e+18,0.001186876674182713,-0.0028253861237317324,0.038351379334926605
1.7275290318207475e+18,0.0014452746836468577,0.0018238392658531666,0.03947063162922859
1.7275290318267476e+18,0.0009511025855317712,0.004241170361638069,0.036912739276885986
1.7275290318327478e+18,0.002730110427364707,0.0021715573966503143,0.03668771684169769
1.727529031838748e+18,0.0034701807890087366,0.002384074032306671,0.03841348737478256
1.727529031841748e+18,0.0021153585985302925,0.0034860640298575163,0.03823947533965111
1.727529031847748e+18,0.0034006887581199408,0.003411743324249983,0.03681362047791481
1.7275290318537482e+18,0.002843659371137619,0.003038786817342043,0.038043562322854996
1.7275290318597484e+18,0.00046299101086333394,0.004930425435304642,0.03775051608681679
1.7275290318627484e+18,-0.0020446490962058306,0.002410314977169037,0.03949186950922012
1.7275290318687485e+18,-0.00024882692378014326,0.0039668455719947815,0.03692980110645294
1.7275290318747487e+18,0.0009770928882062435,0.002638724399730563,0.0403544120490551
1.7275290318777487e+18,-0.00016075139865279198,0.004908560775220394,0.03806905820965767
1.7275290318837489e+18,-0.005535572301596403,0.003140705404803157,0.041526198387145996
1.727529031889749e+18,-0.004318363033235073,0.0025251046754419804,0.040148064494132996
1.727529031895749e+18,-0.005858607590198517,0.004125196486711502,0.039941638708114624
1.7275290319017492e+18,-0.004826201591640711,0.0031632273457944393,0.04144462198019028
1.7275290319077494e+18,0.00029816327150911093,0.0024791727773845196,0.03875335678458214
1.7275290319137495e+18,0.0022187153808772564,0.0036974067334085703,0.04148288443684578
1.7275290319167496e+18,0.0014264126075431705,0.0010728114284574986,0.04279685765504837
1.7275290319227497e+18,0.004611914977431297,0.006757070310413837,0.04267776012420654
1.7275290319287498e+18,0.0012803624849766493,0.004852058365941048,0.041490498930215836
1.72752903193175e+18,-6.087590008974075e-06,0.0023386001121252775,0.04391755536198616
1.72752903193775e+18,0.0022630663588643074,0.004119847435504198,0.04604025185108185
1.7275290319437501e+18,-0.0006965762004256248,-0.0004268554039299488,0.04376891627907753
1.7275290319497503e+18,-0.0018272122833877802,0.0033050214406102896,0.0434243343770504
1.7275290319557504e+18,-0.00027178239542990923,0.0026396140456199646,0.045467447489500046
1.7275290319587505e+18,-0.0021075415425002575,0.003649348858743906,0.04462888464331627
1.7275290319647506e+18,-0.00055289501324296,0.0033763456158339977,0.046524811536073685
1.7275290319707507e+18,0.0005848722066730261,0.0022619501687586308,0.047800373286008835
1.7275290319767508e+18,-0.000887423288077116,0.0026054242625832558,0.050986506044864655
1.727529031982751e+18,-0.0009115823195315897,0.003100520931184292,0.051529038697481155
1.727529031985751e+18,0.0019462858326733112,0.0006986344233155251,0.049676042050123215
1.7275290319947512e+18,0.0024690432474017143,0.001639191061258316,0.04992794618010521
1.7275290320007514e+18,0.0024622203782200813,0.003109494224190712,0.053365934640169144
1.7275290320037514e+18,0.001889202045276761,0.004173974506556988,0.05281833931803703
1.7275290320097516e+18,-0.0003942457842640579,0.002218261593952775,0.052631478756666183
1.7275290320157517e+18,-0.003081691451370716,0.006580037530511618,0.053298454731702805
1.7275290320217518e+18,-0.0024788088630884886,0.005620426498353481,0.05385261029005051
1.727529032027752e+18,-0.0022525908425450325,0.0028668055310845375,0.054450806230306625
1.727529032030752e+18,-0.0022151493467390537,0.002339442726224661,0.052582286298274994
1.7275290320367521e+18,-8.726061787456274e-05,0.001738519873470068,0.05441655218601227
1.7275290320427523e+18,0.00361402565613389,0.0006936129066161811,0.056058283895254135
1.7275290320457523e+18,-0.003967138007283211,0.001938696252182126,0.05783220753073692
1.7275290320517524e+18,5.9399986639618874e-05,0.001195026794448495,0.055176056921482086
1.7275290320577526e+18,0.0038789662066847086,-0.0009203639347106218,0.056538648903369904
1.7275290320637527e+18,0.0029366605449467897,-0.00110057950951159,0.05801115185022354
1.7275290320697528e+18,0.0014859508955851197,0.0022543431259691715,0.059091828763484955
1.727529032072753e+18,0.0027837157249450684,-0.0010093441233038902,0.05886960029602051
1.727529032078753e+18,-0.0001899853814393282,-0.0011321062920615077,0.05780589208006859
1.7275290320847532e+18,-0.0016238043317571282,0.002881979802623391,0.05981461703777313
1.7275290320907533e+18,-0.001744501874782145,0.0036215498112142086,0.06244760379195213
1.7275290320967534e+18,0.0004872149438597262,0.0035583018325269222,0.06194346025586128
1.7275290320997535e+18,0.00011532660573720932,0.003188059665262699,0.06198400631546974
1.7275290321057536e+18,0.002260503824800253,0.0032857712358236313,0.06277044117450714
1.7275290321117537e+18,0.003214404918253422,0.0021170240361243486,0.06590855866670609
1.7275290321177539e+18,0.004689082037657499,-0.00011983001604676247,0.06343971192836761
1.727529032120754e+18,0.006352538242936134,-0.003125388640910387,0.0629386156797409
1.727529032126754e+18,0.003930466249585152,-0.00032326584914699197,0.06360742449760437
1.7275290321327542e+18,0.0028312441427260637,0.00047179742250591516,0.0641419067978859
1.7275290321357542e+18,0.0010017157765105367,-0.0017331982962787151,0.06361876428127289
1.7275290321417544e+18,0.0005674095009453595,-0.00048365152906626463,0.06185687705874443
1.7275290321477545e+18,-0.0026117325760424137,-6.998225580900908e-05,0.06418726593255997
1.7275290321537546e+18,-0.003358276095241308,0.00042236968874931335,0.06271005421876907
1.7275290321567547e+18,-0.0026536930818110704,0.00462491437792778,0.06303783506155014
1.7275290321627548e+18,0.0005888781743124127,0.0005778257036581635,0.06251700967550278
1.727529032168755e+18,0.0001801828620955348,-0.0012938767904415727,0.06541305780410767
1.727529032174755e+18,0.0012634817976504564,0.000683192047290504,0.06388437747955322
1.7275290321777551e+18,-0.00040277966763824224,-0.0016904789954423904,0.06308416277170181
1.7275290321837553e+18,0.0020094860810786486,0.0015906360931694508,0.0653226301074028
1.7275290321897554e+18,0.0036263810470700264,-0.0018526080530136824,0.06317224353551865
1.7275290321957555e+18,0.0010055573657155037,-0.0026266116183251143,0.06246505305171013
1.7275290322017556e+18,-9.217852493748069e-05,-9.269628208130598e-05,0.06184026971459389
1.7275290322047557e+18,1.553678885102272e-06,-0.0012957218568772078,0.06202039122581482
1.7275290322107558e+18,7.28098675608635e-05,-0.001081362715922296,0.06183595582842827
1.727529032216756e+18,-0.0038984522689133883,-0.0014381451765075326,0.06314385682344437
1.727529032222756e+18,-0.006264133378863335,-0.001136934501118958,0.06762600690126419
1.7275290322257562e+18,-0.004508082289248705,0.00045296025928109884,0.06397851556539536
1.7275290322317563e+18,-0.004819728434085846,0.0002911122574005276,0.06339345127344131
1.7275290322377564e+18,-0.0034691705368459225,3.3129588700830936e-05,0.063108429312706
1.7275290322437565e+18,-0.0010438725585117936,0.0009021620498970151,0.06436388939619064
1.7275290322467566e+18,-0.0005697014275938272,0.0005569386994466186,0.062123529613018036
1.7275290322527567e+18,-0.0002808102290146053,0.0006747428560629487,0.06397318840026855
1.7275290322587569e+18,-0.002356717362999916,0.0018748564179986715,0.06316366046667099
1.727529032264757e+18,-0.002916035009548068,-0.0012197457253932953,0.05976744741201401
1.727529032267757e+18,-0.0006345608271658421,0.0005438373191282153,0.06100437417626381
1.7275290322737572e+18,-0.00257376441732049,-0.0005696449661627412,0.06014953553676605
1.7275290322797573e+18,-0.004880972672253847,-0.00021888385526835918,0.059170566499233246
1.7275290322857574e+18,-0.0035792009439319372,-0.0011149082565680146,0.062182750552892685
1.7275290322887575e+18,-0.004467390943318605,-0.0006104336935095489,0.06292659789323807
1.7275290322947576e+18,-0.0055848038755357265,-0.0014912002952769399,0.061991795897483826
1.7275290323007578e+18,-0.00366605119779706,0.001024714671075344,0.06097844988107681
1.727529032306758e+18,-0.00357102882117033,0.0024502258747816086,0.05904579162597656
1.727529032309758e+18,-7.934938184916973e-05,-0.0009123699855990708,0.05838772654533386
1.727529032315758e+18,-2.193066757172346e-05,-0.0031907670199871063,0.05857434868812561
1.7275290323217582e+18,-0.0023614936508238316,-0.0009031484369188547,0.05902031436562538
1.7275290323247583e+18,-0.0010500127682462335,-0.001853019231930375,0.06120259314775467
1.7275290323307584e+18,-0.00028977170586586,-0.0009915977716445923,0.05934886634349823
1.7275290323367585e+18,-0.0022972067818045616,-0.0030126874335110188,0.0553777776658535
1.7275290323427587e+18,-0.00394172640517354,0.0015008613700047135,0.060042813420295715
1.7275290323457587e+18,-0.004998052027076483,0.0010699735721573234,0.0559358075261116
1.7275290323517588e+18,-0.004534308798611164,0.0003740066313184798,0.05579392611980438
1.727529032357759e+18,-0.00393042853102088,0.0013884026557207108,0.05510696396231651
1.727529032363759e+18,-0.0009977621957659721,-0.00025021855253726244,0.0544104240834713
1.7275290323667592e+18,-0.0026284391060471535,0.0009882323211058974,0.05603749677538872
1.7275290323727593e+18,-0.0028227807488292456,-0.0012393055949360132,0.056407149881124496
1.7275290323787594e+18,-0.002370143309235573,-0.001497055171057582,0.057655561715364456
1.7275290323847596e+18,0.00019776305998675525,-0.003027957398444414,0.05304830148816109
1.7275290323907597e+18,0.00036720471689477563,-0.00017198431305587292,0.05384138971567154
1.7275290323967598e+18,0.0011975015513598919,-0.00017954324721358716,0.056177347898483276
1.72752903239976e+18,0.004109686706215143,-4.111661110073328e-05,0.05151458457112312
1.72752903240576e+18,0.0008590982761234045,0.00220824615098536,0.05230147764086723
1.72752903241176e+18,-0.0029094864148646593,-0.0008988199406303465,0.0541955903172493
1.7275290324177603e+18,-0.0030677614267915487,0.00014799613563809544,0.05195710435509682
1.7275290324237604e+18,-0.0011295315343886614,-0.0013545898254960775,0.04867265745997429
1.7275290324267604e+18,-0.0004286806797608733,-0.0015271090669557452,0.0484963096678257
1.7275290324327606e+18,-0.0004359279992058873,0.001741275773383677,0.04753672331571579
1.7275290324387607e+18,-0.0024808261077851057,-0.0011361223878338933,0.046414490789175034
1.7275290324447608e+18,0.001773062045685947,-0.0017251158133149147,0.04490887373685837
1.727529032447761e+18,-0.0003408837947063148,0.0013857998419553041,0.04373615235090256
1.727529032453761e+18,0.0009425065945833921,-0.0026827314868569374,0.04272841662168503
1.7275290324597612e+18,-0.002725515980273485,-0.0005268979584798217,0.04445986822247505
1.7275290324657613e+18,-0.002223367802798748,-0.0010620602406561375,0.042367301881313324
1.7275290324717614e+18,-0.005006894469261169,-0.0028119191993027925,0.04385602846741676
1.7275290324747615e+18,-0.002312729600816965,-0.0022996917832642794,0.04012829810380936
1.7275290324807616e+18,-0.0019540227949619293,-0.003707394003868103,0.04327144846320152
1.7275290324867617e+18,-0.0023842707742005587,-0.0027787864673882723,0.03887195512652397
1.7275290324927619e+18,-0.0007394707063212991,0.0003497353754937649,0.03608819842338562
1.727529032498762e+18,0.0030543706379830837,-0.0028945549856871367,0.039795294404029846
1.727529032504762e+18,0.0032502361573278904,-0.0015146515797823668,0.03799851983785629
1.7275290325107622e+18,0.001927065197378397,-0.004609228577464819,0.03501930832862854
1.7275290325137623e+18,0.0007336603011935949,-0.004475287161767483,0.03474710136651993
1.7275290325197624e+18,0.004839163273572922,-0.004571883473545313,0.03436114639043808
1.7275290325257626e+18,0.002569863572716713,-0.00400590430945158,0.03278942033648491
1.7275290325317627e+18,-0.002404381986707449,-0.005274955648928881,0.029870755970478058
1.7275290325347628e+18,0.0006587880779989064,-0.0071974024176597595,0.03012663684785366
1.727529032540763e+18,0.0008135485113598406,-0.001499229110777378,0.0276506207883358
1.727529032546763e+18,0.0020664329640567303,-0.0021487167105078697,0.02490594983100891
1.7275290325527631e+18,0.004235322121530771,-0.0032766994554549456,0.026876360177993774
1.7275290325557632e+18,0.0033479321282356977,-0.003937027417123318,0.0264169629663229
1.7275290325617633e+18,0.00011049536988139153,-0.003443359397351742,0.024236928671598434
1.7275290325677635e+18,0.002247862983494997,-0.0063737607561051846,0.022863313555717468
1.7275290325737636e+18,0.003281785175204277,-0.0022121421061456203,0.02049584873020649
1.7275290325797637e+18,0.0009358935058116913,-0.0015870651695877314,0.019068995490670204
1.7275290325857638e+18,0.0031626278068870306,-0.000981001416221261,0.016189564019441605
1.727529032588764e+18,0.001878876006230712,-0.00804926361888647,0.017781484872102737
1.727529032594764e+18,-0.000582040986046195,-0.0034732145722955465,0.017859984189271927
1.7275290326007642e+18,-0.0006583621725440025,-0.0034204996190965176,0.014137834310531616
1.7275290326067643e+18,0.0035418919287621975,-0.0011032444890588522,0.01559564471244812
1.7275290326097644e+18,-0.0013536090264096856,-0.004073214717209339,0.013073166832327843
1.7275290326157645e+18,-0.0027203653007745743,0.000956933363340795,0.015269463881850243
1.7275290326217646e+18,-0.0019891001284122467,0.0035785320214927197,0.01618516445159912
1.7275290326277647e+18,-0.0008261169423349202,0.0023171859793365,0.0133991539478302
1.7275290326337649e+18,-0.005233499221503735,0.004591545555740595,0.011250942945480347
1.727529032636765e+18,-0.002036988502368331,0.004014379344880581,0.01542131882160902
1.727529032642765e+18,-0.0077423290349543095,0.002429769141599536,0.014586935751140118
1.7275290326487652e+18,-0.0034122674260288477,0.005073854234069586,0.012441156432032585
1.7275290326547653e+18,-0.0016538234194740653,0.0029581128619611263,0.012834220193326473
1.7275290326607654e+18,0.0013282857835292816,0.003857320174574852,0.013243538327515125
1.7275290326667656e+18,-0.0018698314670473337,0.003127569332718849,0.01236631441861391
1.7275290326697656e+18,-0.0010075842728838325,0.005436442792415619,0.01317968312650919
1.7275290326757658e+18,-0.0037253352347761393,0.005946560297161341,0.009824639186263084
1.727529032681766e+18,-0.0031420851591974497,0.005288158543407917,0.00970751978456974
1.727529032687766e+18,-0.002819501329213381,0.006067868322134018,0.009099569171667099
1.727529032690766e+18,0.0008768406696617603,0.006571012083441019,0.010142550803720951
1.7275290326967662e+18,-0.0037853498943150043,0.005452241748571396,0.007228143513202667
1.7275290327027663e+18,-0.005592350848019123,0.009421456605196,0.011240025982260704
1.7275290327057664e+18,-0.0023182514123618603,0.004676304291933775,0.010423233732581139
1.7275290327117665e+18,0.0001212958013638854,0.007888511754572392,0.01084991730749607
1.7275290327177667e+18,-0.0007612183690071106,0.006639547646045685,0.011490348726511002
1.7275290327237668e+18,0.0009336060611531138,0.004842143505811691,0.009080798365175724
1.7275290327267668e+18,-0.00013242493150755763,0.0039175162091851234,0.007849887013435364
1.727529032732767e+18,-0.001584949204698205,0.0036075469106435776,0.009260198101401329
1.727529032738767e+18,-0.002402303507551551,0.004889513365924358,0.00899909995496273
1.7275290327447672e+18,-0.002469033235684037,0.006556694395840168,0.008948219008743763
1.7275290327477673e+18,-0.0022488052491098642,0.002053213305771351,0.008285610936582088
1.7275290327537674e+18,-0.002295801881700754,0.0007410646649077535,0.005902217235416174
1.7275290327597676e+18,-0.00748074147850275,-1.3021926861256361e-05,0.010363554581999779
1.7275290327657677e+18,-0.006461487617343664,-0.0013992316089570522,0.009360665455460548
1.7275290327717678e+18,-0.005756666883826256,0.0012142218183726072,0.007006930653005838
1.727529032777768e+18,-0.005001762881875038,0.00020194909302517772,0.0066804783418774605
1.727529032780768e+18,-0.006228024140000343,-0.00016120739746838808,0.006788393948227167
1.7275290327867681e+18,-0.0051041035912930965,0.001552823930978775,0.008917748928070068
1.7275290327927683e+18,-0.005392681807279587,-0.0037183896638453007,0.007575091905891895
1.7275290327987684e+18,-0.004708329681307077,-0.0010962277883663774,0.0028979815542697906
1.7275290328017684e+18,-0.006186977960169315,-0.003553106915205717,0.007190631702542305
1.7275290328077686e+18,-0.003306993516162038,-0.002709882566705346,0.005596770904958248
1.7275290328137687e+18,-0.003686807118356228,-0.0014244907069951296,0.006933541968464851
1.7275290328197688e+18,-0.005430324003100395,-0.002909527625888586,0.009235000237822533
1.727529032822769e+18,-0.0028316755779087543,-0.0029444084502756596,0.007508763112127781
1.727529032828769e+18,-0.00442848214879632,-0.00241823960095644,0.004833092913031578
1.7275290328347692e+18,-0.003770255483686924,-0.0031125196255743504,0.007785431109368801
1.7275290328407693e+18,-0.003637606743723154,-0.00127113563939929,0.004453378729522228
1.7275290328467694e+18,-0.004560375586152077,0.00032358733005821705,0.00552845373749733
1.7275290328497695e+18,-0.0005147198680788279,-5.249911919236183e-05,0.006699373014271259
1.7275290328557696e+18,-0.0074830083176493645,-0.0006358519895002246,0.005334789864718914
1.7275290328617697e+18,-0.0027854035142809153,-0.0031070695258677006,0.004522897303104401
1.7275290328677699e+18,-0.0002394022885710001,-0.001521043828688562,0.003607475198805332
1.72752903287077e+18,-0.0019259107066318393,0.002899839775636792,0.0037390210200101137
1.72752903287677e+18,0.0010925151873379946,-0.003937372472137213,0.005334510933607817
1.7275290328827702e+18,0.0009784041903913021,-0.0010197774972766638,0.004984813742339611
1.7275290328887703e+18,-0.0010982176754623652,-0.0026050012093037367,0.0054727173410356045
1.7275290328917704e+18,-0.002272407989948988,-0.0025592371821403503,0.003996549639850855
1.7275290328977705e+18,0.0008563631563447416,-0.0013321352889761329,0.0037819668650627136
1.7275290329037706e+18,-0.002207040786743164,-0.004524878691881895,0.004714290611445904
1.7275290329097708e+18,-0.0035378974862396717,-0.003932393621653318,0.005310447886586189
1.727529032915771e+18,-0.0022128974087536335,-0.0023728404194116592,0.003111351979896426
1.727529032921771e+18,-0.00369386188685894,-0.00234343484044075,0.00452960841357708
1.727529032924771e+18,-0.0018543472979217768,-0.00299681699834764,0.0015663490630686283
1.7275290329307712e+18,-0.003847927786409855,-0.003095033811405301,0.004629579838365316
1.7275290329367713e+18,-0.002521282061934471,-0.00197269837372005,0.004044846631586552
1.7275290329427715e+18,-0.0017750069964677095,-0.003920497372746468,0.0009839758276939392
1.7275290329457715e+18,-0.001678841537795961,-0.0023495922796428204,0.0018788788001984358
1.7275290329517716e+18,0.0015617194585502148,-0.0024627281818538904,0.002965741092339158
1.7275290329577718e+18,0.000251002493314445,-0.0011896248906850815,0.0029866513796150684
1.7275290329607718e+18,0.0005251932889223099,-0.001123765716329217,-0.0012537012808024883
1.727529032966772e+18,0.0009597255848348141,-0.0013192398473620415,0.0021323091350495815
1.727529032972772e+18,-0.0013971274020150304,-0.00101068418007344,0.00045397866051644087
1.7275290329787722e+18,0.00024787691654637456,-0.0023826262913644314,0.0037861643359065056
1.7275290329847724e+18,-0.0001782123581506312,-0.001569690415635705,0.003878944553434849
1.7275290329877724e+18,-0.0006004153983667493,-0.0044915094040334225,0.0028591437730938196
1.7275290329937725e+18,0.0013941620709374547,-0.0018154815770685673,0.0015490669757127762
1.7275290329997727e+18,0.00033794628689065576,-0.00653738621622324,0.002440796233713627
1.7275290330057728e+18,0.003150711767375469,0.0013583071995526552,0.0002677628071978688
1.7275290330087729e+18,-0.0016487885732203722,-0.000844955095089972,0.0034449424128979445
1.727529033014773e+18,0.001425008988007903,-0.0021289037540555,0.0013996389461681247
1.727529033020773e+18,-0.00010910537093877792,-0.0023484681732952595,0.0044498867355287075
1.7275290330237732e+18,0.003100508125498891,-0.0029932260513305664,0.0006402668659575284
1.7275290330297733e+18,0.0008114767842926085,-0.0031313642393797636,-3.539375029504299e-05
1.7275290330357734e+18,-0.00010098650818690658,-0.0016177704092115164,-0.0019425747450441122
1.7275290330417736e+18,-0.0014285175129771233,-0.00387503276579082,0.001050915801897645
1.7275290330477737e+18,0.0005719801411032677,-0.0003949464298784733,0.00011956971138715744
1.7275290330507738e+18,0.0007617032970301807,0.0009392574429512024,0.0022101260256022215
1.727529033056774e+18,0.0010162622202187777,-0.003824782557785511,7.395120337605476e-05
1.727529033062774e+18,-0.0005517156096175313,-0.0004982457030564547,0.0029819970950484276
1.7275290330687741e+18,0.0011738211615011096,-0.0016877520829439163,-0.0003719627275131643
1.7275290330747743e+18,0.0017769028199836612,-0.0011423788964748383,-0.0031588058918714523
1.7275290330777743e+18,0.00043296569492667913,-0.002221179660409689,-0.0020183813758194447
1.7275290330837745e+18,0.00017789739649742842,-0.0005479981191456318,0.0008982489816844463
1.7275290330897746e+18,-0.0001201569102704525,-0.0028418127913028,0.0030110334046185017
1.7275290330957747e+18,0.0026133956853300333,0.0019134825561195612,0.0020458856597542763
1.7275290331017748e+18,0.0023615669924765825,-0.0017990402411669493,0.0006770166801288724
1.727529033107775e+18,0.0011822242522612214,0.000997300841845572,0.0019702049903571606
1.727529033110775e+18,0.005026082508265972,-0.0012321451213210821,0.0019742439035326242
1.7275290331167752e+18,-0.000690181739628315,-0.0003524029743857682,-0.002050282433629036
1.7275290331227753e+18,-0.0020967666059732437,-0.00223963288590312,-0.0009373350767418742
1.7275290331287754e+18,0.001871228450909257,0.0002965224557556212,-0.00048162013990804553
1.7275290331317755e+18,0.00014457199722528458,0.0008448552107438445,-4.047759284731001e-05
1.7275290331377756e+18,0.0023124022409319878,-0.0010141512611880898,-0.0017797708278521895
1.7275290331437757e+18,0.001975469524040818,0.004151857923716307,0.000938929442781955
1.7275290331467758e+18,0.0035624525044113398,0.0019760574214160442,0.0009170525590889156
1.727529033152776e+18,0.003923924174159765,0.00033308379352092743,-0.0035526819992810488
1.727529033158776e+18,0.0033392556942999363,0.0019535240717232227,0.0005066734738647938
1.7275290331647762e+18,0.0018774501513689756,0.003668540855869651,-0.002023013075813651
1.7275290331707763e+18,0.0014591219369322062,-0.00013631395995616913,0.001038618735037744
1.7275290331737764e+18,0.0013780485605821013,-0.0013938061892986298,-0.0005374892498366535
1.7275290331797765e+18,0.0018436722457408905,-0.0004324123729020357,-0.002672115806490183
1.7275290331857766e+18,0.0031994194723665714,0.0015559557359665632,-9.082764154300094e-05
1.7275290331917768e+18,0.0010936327744275331,0.0020717927254736423,0.0016416729195043445
1.7275290331947768e+18,0.004422152880579233,0.00019965111277997494,-0.0032105417922139168
1.727529033200777e+18,0.0002748086117208004,0.0011319257318973541,-0.0018248199485242367
1.727529033206777e+18,0.0037810159847140312,0.003016323782503605,-0.0020399829372763634
1.7275290332097772e+18,0.006179275456815958,0.0008309467229992151,-0.004550273064523935
1.7275290332157773e+18,0.00391443632543087,-4.266761243343353e-05,-0.002377553842961788
1.7275290332217774e+18,0.004460213705897331,0.0019193976186215878,0.00305117666721344
1.7275290332277775e+18,0.00638899439945817,0.0020800065249204636,-0.004148580599576235
1.7275290332337777e+18,0.004450100474059582,0.00277320365421474,-0.0010502315126359463
1.7275290332397778e+18,0.0031294538639485836,0.00442121084779501,-0.002301105996593833
1.7275290332427779e+18,0.005808725021779537,0.0007159262895584106,-0.0036312532611191273
1.727529033248778e+18,0.002481744159013033,0.0009375761728733778,-0.00042702106293290854
1.727529033254778e+18,-0.000985483406111598,0.003597730305045843,-0.00013854692224413157
1.7275290332577782e+18,-0.00033730006543919444,0.00039708707481622696,-0.003461939748376608
1.7275290332637783e+18,0.002313540782779455,-0.0009653643937781453,-0.0037715034559369087
1.7275290332697784e+18,0.0006226677796803415,-0.0028924315702170134,-0.001170584699138999
1.7275290332757786e+18,-4.7248959162971005e-05,-0.0016898680478334427,-0.0006166385719552636
1.7275290332787786e+18,-0.00019987297127954662,-0.0030760634690523148,-0.0007881881901994348
1.7275290332847788e+18,0.0047906385734677315,-0.00015657581388950348,-0.0028461122419685125
1.727529033290779e+18,-0.000649862689897418,-0.0011544283479452133,-0.0015784845454618335
1.727529033296779e+18,0.0016381260938942432,-0.00010850850958377123,-0.0002746810205280781
1.727529033299779e+18,-0.0010110405273735523,-5.2140792831778526e-05,-0.0011827244888991117
1.7275290333057792e+18,0.003513660980388522,-0.00014159607235342264,-0.0034926515072584152
1.7275290333117793e+18,-4.0246915887109935e-05,0.000601074832957238,-0.00501020485535264
1.7275290333177795e+18,-0.003351958468556404,0.0008298940374515951,-0.0019090271089226007
1.7275290333207795e+18,-0.0012708082795143127,0.00022327186889015138,0.00022345082834362984
1.7275290333267796e+18,0.0002274365833727643,0.0015747291035950184,-0.003930580802261829
1.7275290333327798e+18,-0.0011852891184389591,0.0022160091903060675,-0.0038704415783286095
1.7275290333357798e+18,0.0027616119477897882,0.0012986146612092853,-0.001436169259250164
1.72752903334178e+18,0.0014677670551463962,-0.0012887788470834494,-0.0023887630086392164
1.72752903334778e+18,0.0021427921019494534,-0.0025072272401303053,-0.00489123584702611
1.7275290333537802e+18,0.0033555426634848118,-0.00029688916401937604,-0.0004916141042485833
1.7275290333597804e+18,0.00531509704887867,0.0018831873312592506,-0.0007535552140325308
1.7275290333627804e+18,0.004473410081118345,-0.0011493040947243571,-0.001593235181644559
1.7275290333687805e+18,0.003586964216083288,0.00034198176581412554,-0.0025790929794311523
1.7275290333747807e+18,0.004074134398251772,0.0021952232345938683,-0.003795113880187273
1.7275290333807808e+18,0.0037526236847043037,0.004410643596202135,-0.00446474552154541
1.7275290333837809e+18,0.00252184784039855,0.004590206313878298,-0.003761919215321541
1.727529033389781e+18,-0.0005371745210140944,0.0036945499014109373,-0.0001585774589329958
1.727529033395781e+18,0.0031748865731060505,0.003508116351440549,-0.0032664714381098747
1.7275290334017812e+18,-0.00024253875017166138,-0.0007928432896733284,-0.0008205190533772111
1.7275290334077814e+18,0.003979328088462353,0.0012422603322193027,-0.0026824709493666887
1.7275290334107814e+18,0.0027395905926823616,-0.000825942144729197,-0.00044422270730137825
1.7275290334167816e+18,0.0018970852252095938,0.0015964374179020524,-0.006649020127952099
1.7275290334227817e+18,0.004982781130820513,-0.0019548602867871523,-0.0018525703344494104
1.7275290334287818e+18,0.0020052888430655003,-0.000317755009746179,-0.0036880685947835445
1.727529033431782e+18,0.0008320899214595556,-0.000670193403493613,-0.0017017448553815484
1.727529033437782e+18,0.0057054245844483376,-0.0023721549659967422,-0.003197691636160016
1.7275290334437821e+18,0.0033143414184451103,0.0007835411233827472,-0.0028597423806786537
1.7275290334497823e+18,0.004076856188476086,0.00027232698630541563,-0.0020026974380016327
1.7275290334557824e+18,0.0004177922965027392,0.0009797108359634876,-0.0014960108092054725
1.7275290334587825e+18,-0.0008835354819893837,0.00042374173062853515,-0.003041521878913045
1.7275290334647826e+18,-0.001229933463037014,0.0015894987154752016,-9.64086502790451e-05
1.7275290334707827e+18,-0.0030248211696743965,0.0011841116938740015,-0.0027321551460772753
1.7275290334767828e+18,-0.002691967412829399,0.0001487770350649953,-0.0028339510317891836
1.727529033482783e+18,-0.0018135401187464595,0.0009262600215151906,-0.002603353699669242
1.727529033485783e+18,-0.0028321053832769394,-0.002112135523930192,-0.0029489384032785892
1.7275290334917832e+18,-0.0026779179461300373,-0.0020932296756654978,-0.0006349671166390181
1.7275290334977833e+18,-0.0004227524623274803,0.002170454477891326,-0.003313956782221794
1.7275290335037834e+18,0.002283622743561864,-0.0024171858094632626,-0.0033081998117268085
1.7275290335067835e+18,-0.00031240019598044455,0.0005306001985445619,-0.005114239174872637
1.7275290335127836e+18,-0.00039339083014056087,0.0006203097873367369,-0.0025419199373573065
1.7275290335187837e+18,0.0014591931831091642,0.0017859430518001318,-0.0020483462139964104
1.7275290335247839e+18,0.003950831480324268,0.0002814935287460685,-0.004409422166645527
1.727529033530784e+18,-0.001422499306499958,0.000643155537545681,-0.002585659036412835
1.727529033533784e+18,-0.004263983108103275,0.003242120612412691,-0.005240375176072121
1.7275290335397842e+18,-0.004125555045902729,-0.0023038270883262157,-0.0017627814086154103
1.7275290335457843e+18,-0.0006833970546722412,0.002423076657578349,-0.0033586244098842144
1.7275290335487844e+18,-0.004147098399698734,-0.0004807046498171985,-0.0027870009653270245
1.7275290335547845e+18,-0.0017662834143266082,0.0018648707773536444,-0.0036408831365406513
1.7275290335607846e+18,-0.00043963617645204067,0.0019457258749753237,-0.0017028218135237694
1.7275290335667848e+18,-0.0008235253626480699,0.0004527535056695342,-0.0016664047725498676
1.7275290335697848e+18,0.0024516736157238483,-0.0016515844035893679,-0.004588428419083357
1.727529033575785e+18,-0.001869390718638897,-0.0011876794742420316,-0.0032685650512576103
1.727529033581785e+18,0.003156346036121249,-0.000996571034193039,-0.0037441339809447527
1.7275290335877852e+18,0.0008608908392488956,-0.0009105188073590398,-0.003166081616654992
1.7275290335937853e+18,0.0013828098308295012,-0.001561403856612742,-0.004438556265085936
1.7275290335967854e+18,0.0010529496939852834,-0.00029686573543585837,-0.0027235690504312515
1.7275290336027855e+18,0.002634763717651367,0.001313655637204647,-0.0050585451535880566
1.7275290336087857e+18,0.00165586790535599,0.0016615856438875198,-0.001139054074883461
1.7275290336147858e+18,-0.0021246536634862423,-0.00026033970061689615,-0.004284903407096863
1.727529033620786e+18,-0.0010619412641972303,-0.0005449393065646291,-0.00631128903478384
1.727529033623786e+18,-0.0007027770625427365,0.0008007885771803558,-0.0027595958672463894
1.727529033629786e+18,-0.0010791199747473001,0.0025551756843924522,-0.002165068406611681
1.7275290336327862e+18,0.0005919609684497118,-0.0008355238824151456,-0.0036641093902289867
1.7275290336387863e+18,-0.0021999224554747343,0.0032743853516876698,-0.0041159228421747684
1.7275290336447864e+18,-0.0013582996325567365,0.0006464230827987194,-0.005739246029406786
1.7275290336507866e+18,0.0021210869308561087,-0.0007286696345545352,-0.0037670950405299664
1.7275290336567867e+18,0.006180062890052795,0.001248249551281333,-0.002718814415857196
1.7275290336597868e+18,0.0010911462595686316,0.0024690390564501286,-0.006056464277207851
1.727529033665787e+18,0.0009422411676496267,-0.0003789858892560005,-0.002696671523153782
1.727529033671787e+18,0.005629376508295536,-0.003370885271579027,-0.0032484866678714752
1.727529033674787e+18,0.0011108615435659885,-0.003203763160854578,-0.0045577650889754295
1.7275290336807872e+18,0.00123685656581074,-0.004810933023691177,-0.003357513574883342
1.7275290336867873e+18,-0.00014491131878457963,-0.004224782809615135,-0.004525098018348217
1.7275290336927875e+18,-0.0009027404012158513,-0.0015657625626772642,-0.004484508186578751
1.7275290336957875e+18,0.003594376612454653,-0.0021689196582883596,-0.004250222817063332
1.7275290337017876e+18,-0.0008502131677232683,-0.001753952819854021,-0.0011464315466582775
1.7275290337077878e+18,0.0005297434399835765,-0.002274933038279414,-0.004971503280103207
1.727529033713788e+18,0.00039010855834931135,-0.0031957565806806087,-0.00289655989035964
1.727529033719788e+18,-0.0009012953960336745,-0.00014979869592934847,-0.0015163077041506767
1.727529033722788e+18,-0.004352269694209099,-0.004612795077264309,-0.001852580113336444
1.7275290337287882e+18,0.0012870783684775233,-0.0032622225116938353,-0.0014485374558717012
1.7275290337347884e+18,-0.00013616151409223676,-0.0028308036271482706,-0.004889431409537792
1.7275290337407885e+18,0.00017974182264879346,-0.00386813934892416,-0.004828851204365492
1.7275290337437885e+18,-0.0002591228112578392,-0.006216695066541433,-0.0011404724791646004
1.7275290337527887e+18,0.0017240892630070448,-0.006949159316718578,-0.004268139135092497
1.7275290337557888e+18,-0.0011140877613797784,-0.005611833184957504,-0.003564239712432027
1.727529033761789e+18,-0.004340111277997494,-0.0027615847066044807,-0.0028481725603342056
1.727529033767789e+18,-0.003236091695725918,-0.006508343853056431,-0.005875582806766033
1.7275290337737892e+18,-0.001953354338183999,-0.0066086649894714355,-0.001003042794764042
1.7275290337767892e+18,-0.004122292622923851,-0.004537714179605246,-0.0038963817059993744
1.7275290337827894e+18,-0.0006742564728483558,-0.007284044288098812,-0.005330922547727823
1.7275290337887895e+18,-0.00034685025457292795,-0.005786372814327478,-0.004241082351654768
1.7275290337947896e+18,0.0011710154358297586,-0.004285529255867004,-0.0036990211810916662
1.7275290338007898e+18,-0.00011752895079553127,-0.004270052537322044,-0.0006727122236043215
1.7275290338037898e+18,0.0011453840415924788,-0.003437040839344263,-0.0019880759064108133
1.72752903380979e+18,-0.0043793111108243465,-0.000985880964435637,-0.005984748713672161
1.72752903381579e+18,-0.003347581485286355,-0.0020974231883883476,-0.0044763097539544106
1.7275290338217902e+18,-0.006711978930979967,-0.001481759361922741,-0.004862068220973015
1.7275290338247903e+18,-0.005890734493732452,-0.004200518596917391,-0.0050147417932748795
1.7275290338307904e+18,-0.007358494680374861,-0.002533556427806616,-0.00288133742287755
1.7275290338367905e+18,-0.004692675080150366,-0.0011235580313950777,-0.002937545534223318
1.7275290338397906e+18,-0.004854784347116947,-0.0006320404354482889,-0.0032330676913261414
1.7275290338457907e+18,-0.005531403701752424,-0.0029285363852977753,-0.0035206356551498175
1.7275290338517908e+18,-0.00481219869107008,0.0004830376710742712,-0.002371254377067089
1.727529033857791e+18,0.0011770341079682112,-0.0012259427458047867,-0.005340698175132275
1.727529033860791e+18,-0.001027179416269064,-0.0006623812951147556,-0.0023002545349299908
1.7275290338667912e+18,0.002699611010029912,-0.002109814202412963,-0.0037303545977920294
