timestamp,accel_x,accel_y,accel_z
1.729492923773621e+18,-0.07251130044460297,0.08457353711128235,-9.804612159729004
1.729492923779621e+18,-0.12246979773044586,0.031162027269601822,-9.810868263244629
1.7294929237886213e+18,-0.03254834935069084,-0.043675992637872696,-9.756688117980957
1.7294929237976215e+18,-0.052606020122766495,-0.078450508415699,-9.900896072387695
1.7294929238066217e+18,0.0641162171959877,-0.0036440871190279722,-9.78735637664795
1.7294929238126218e+18,0.03986188396811485,0.04674084484577179,-9.785384178161621
1.729492923821622e+18,0.02065093256533146,-0.03551327809691429,-9.719085693359375
1.7294929238306222e+18,-0.02189585193991661,-0.05497695878148079,-9.808158874511719
1.7294929238396224e+18,0.04104257747530937,-0.03997429460287094,-9.796483993530273
1.7294929238456225e+18,0.038146089762449265,0.009125118143856525,-9.81933307647705
1.7294929238546227e+18,0.09555456042289734,0.0345778688788414,-9.811429023742676
1.7294929238606228e+18,0.05454537272453308,0.06658843159675598,-9.787964820861816
1.729492923869623e+18,0.05115068331360817,0.02622154727578163,-9.84825325012207
1.7294929238786232e+18,0.09185649454593658,0.010741607286036015,-9.778966903686523
1.7294929238846234e+18,-0.05003836005926132,-0.03783295303583145,-9.855147361755371
1.7294929238936236e+18,-0.02427496202290058,-0.018290285021066666,-9.76684284210205
1.7294929238996237e+18,-0.03759351372718811,0.12778611481189728,-9.835712432861328
1.729492923908624e+18,0.07385337352752686,-0.05945385992527008,-9.692493438720703
1.729492923917624e+18,-0.02982833795249462,0.05165809020400047,-9.811201095581055
1.7294929239236242e+18,0.01650107465684414,-0.07553031295537949,-9.790125846862793
1.7294929239326244e+18,-0.03336828947067261,-0.05774968862533569,-9.734271049499512
1.7294929239386245e+18,0.010758918710052967,-0.010301835834980011,-9.796154022216797
1.7294929239476247e+18,0.05242094397544861,0.015464462339878082,-9.834196090698242
1.729492923956625e+18,0.008483088575303555,-0.03256741538643837,-9.776617050170898
1.729492923962625e+18,-0.040204353630542755,0.011479714885354042,-9.756077766418457
1.7294929239716252e+18,-0.04967386648058891,-0.0023587823379784822,-9.839828491210938
1.7294929239776253e+18,-0.03650899976491928,0.03883743658661842,-9.85807991027832
1.7294929239866255e+18,-0.006952257361263037,0.027752526104450226,-9.85265827178955
1.7294929239956257e+18,0.02845812402665615,-0.027872970327734947,-9.832978248596191
1.729492924004626e+18,-0.04616182669997215,-0.050092801451683044,-9.80717945098877
1.729492924010626e+18,0.00828890223056078,-0.03305867686867714,-9.741217613220215
1.7294929240196262e+18,-0.019035080447793007,0.06187658756971359,-9.82083511352539
1.7294929240286264e+18,-0.016148773953318596,-0.006999168079346418,-9.827634811401367
1.7294929240346266e+18,-0.05306798964738846,-0.026604095473885536,-9.762575149536133
1.7294929240436268e+18,0.017119325697422028,0.013754618354141712,-9.803102493286133
1.729492924052627e+18,-0.01796056516468525,-0.061276186257600784,-9.875185012817383
1.729492924058627e+18,-0.00840726401656866,0.05843524634838104,-9.870640754699707
1.7294929240676273e+18,-0.012915768660604954,0.003361319424584508,-9.789237976074219
1.7294929240736274e+18,0.0182575024664402,0.008553741499781609,-9.75458812713623
1.7294929240826276e+18,-0.000292318407446146,-0.012592942453920841,-9.77794075012207
1.7294929240886277e+18,0.03882819786667824,0.04082341119647026,-9.76115894317627
1.729492924097628e+18,-0.0657636821269989,-0.02278924733400345,-9.812227249145508
1.729492924103628e+18,0.01860143058001995,0.04170491546392441,-9.742902755737305
1.7294929241126282e+18,0.012768663465976715,-0.019102826714515686,-9.885991096496582
1.7294929241186284e+18,-0.06633064150810242,-0.05986279249191284,-9.86523723602295
1.7294929241276285e+18,0.011691912077367306,-0.031377047300338745,-9.830522537231445
1.7294929241366287e+18,-0.03478069603443146,-0.007882483303546906,-9.899499893188477
1.7294929241426289e+18,-0.008918693289160728,0.0622934065759182,-9.854329109191895
1.729492924151629e+18,-0.04034631326794624,0.07407797873020172,-9.787948608398438
1.7294929241576292e+18,-0.012235384434461594,0.03844819962978363,-9.84926986694336
1.7294929241666294e+18,-0.04154793918132782,-0.01322141569107771,-9.747650146484375
1.7294929241756296e+18,0.04399890825152397,0.011280369944870472,-9.819031715393066
1.7294929241816297e+18,0.030441652983427048,-0.05548188462853432,-9.756091117858887
1.72949292419063e+18,-0.06400422751903534,0.10251274704933167,-9.835944175720215
1.72949292419663e+18,-0.027923084795475006,-0.02973809652030468,-9.724533081054688
1.7294929242056302e+18,0.073433518409729,0.07097618281841278,-9.808395385742188
1.7294929242116303e+18,-0.06239035353064537,0.0117604099214077,-9.816378593444824
1.7294929242206305e+18,0.058139193803071976,0.0460207499563694,-9.825359344482422
1.7294929242296307e+18,0.014549914747476578,-0.0459374375641346,-9.823718070983887
1.7294929242356308e+18,0.023888714611530304,-0.055966027081012726,-9.749171257019043
1.729492924244631e+18,-0.0227656289935112,0.010659374296665192,-9.757241249084473
1.7294929242536312e+18,-0.015309124253690243,0.016736505553126335,-9.73206901550293
1.7294929242626314e+18,-0.04259255900979042,0.03722755238413811,-9.805204391479492
1.7294929242716316e+18,0.035785943269729614,0.0046061319299042225,-9.707235336303711
1.7294929242806318e+18,-0.018649127334356308,-0.0013376312563195825,-9.820749282836914
1.729492924286632e+18,0.008544703014194965,-0.08006627857685089,-9.738481521606445
1.7294929242956321e+18,-0.006637371610850096,0.014259147457778454,-9.808130264282227
1.7294929243046323e+18,-0.05384311452507973,-0.03620261326432228,-9.862030982971191
1.7294929243136325e+18,0.008354377932846546,0.0021208827383816242,-9.769155502319336
1.7294929243196326e+18,-0.002739274874329567,0.003700579283758998,-9.814679145812988
1.7294929243286328e+18,-0.003558963304385543,-0.014718670397996902,-9.864852905273438
1.729492924337633e+18,0.00037282370612956583,0.028438661247491837,-9.782037734985352
1.7294929243436332e+18,-0.014628905802965164,-0.04566612467169762,-9.738199234008789
1.7294929243526333e+18,-0.06251700967550278,-0.032881960272789,-9.806865692138672
1.7294929243616335e+18,0.031430866569280624,0.04386883229017258,-9.839539527893066
1.7294929243676337e+18,-0.0024103585164994,0.07963231205940247,-9.809682846069336
1.7294929243766339e+18,-0.008116992190480232,0.05147252604365349,-9.827261924743652
1.729492924385634e+18,-0.0016510260757058859,-0.028836481273174286,-9.871302604675293
1.7294929243946342e+18,-0.049784716218709946,0.02578768879175186,-9.71052360534668
1.7294929244036344e+18,-0.01718408241868019,0.027255043387413025,-9.814474105834961
1.7294929244096346e+18,0.038297250866889954,-0.05235442519187927,-9.838457107543945
1.7294929244186348e+18,0.010670402087271214,-0.06174396723508835,-9.709911346435547
1.729492924427635e+18,-0.012825255282223225,-0.016860511153936386,-9.809369087219238
1.7294929244366351e+18,-0.0020823117811232805,0.02063627541065216,-9.784777641296387
1.7294929244426353e+18,-0.04931454360485077,0.04474581032991409,-9.796246528625488
1.7294929244516355e+18,-0.05417860299348831,0.03314945474267006,-9.84987735748291
1.7294929244606356e+18,0.006655247416347265,0.006746563129127026,-9.828749656677246
1.7294929244666358e+18,-0.03247029334306717,0.05008383095264435,-9.837973594665527
1.729492924475636e+18,0.014006092213094234,-0.0875638797879219,-9.882890701293945
1.7294929244846362e+18,-0.0052552600391209126,-0.0469307005405426,-9.82659912109375
1.7294929244906363e+18,0.031896866858005524,0.0029845992103219032,-9.83958625793457
1.7294929244996365e+18,0.027149802073836327,-0.04446486383676529,-9.87386703491211
1.7294929245056366e+18,-0.0005992667865939438,-0.005096249282360077,-9.791251182556152
1.7294929245146368e+18,0.06147715076804161,-0.033198993653059006,-9.791744232177734
1.729492924520637e+18,0.08899115771055222,0.019514132291078568,-9.759331703186035
1.729492924529637e+18,0.10409971326589584,-0.053140781819820404,-9.835066795349121
1.7294929245356372e+18,0.06201889365911484,0.0013243764406070113,-9.801480293273926
1.7294929245446374e+18,-0.05913152918219566,-0.016304103657603264,-9.804849624633789
1.7294929245536376e+18,-0.051168907433748245,0.07495216280221939,-9.837386131286621
1.7294929245596378e+18,-0.10003222525119781,-0.003952688537538052,-9.727564811706543
1.729492924568638e+18,-0.007784510962665081,0.009310802444815636,-9.695662498474121
1.7294929245776381e+18,-0.0022145938128232956,0.005552484188228846,-9.791461944580078
1.7294929245836383e+18,0.004325435031205416,0.04094915837049484,-9.828292846679688
1.7294929245926385e+18,0.03837095573544502,0.05271030217409134,-9.806450843811035
1.7294929246016387e+18,-0.06305447965860367,-0.0015129110543057323,-9.795079231262207
1.7294929246076388e+18,0.03135846555233002,-0.06579549610614777,-9.855722427368164
1.729492924616639e+18,-0.0446450412273407,0.05581190064549446,-9.777897834777832
1.7294929246256392e+18,0.016422724351286888,0.013837493024766445,-9.821636199951172
1.7294929246346394e+18,0.02874816209077835,-0.03880545496940613,-9.810107231140137
1.7294929246406395e+18,-0.00860885251313448,-0.10102209448814392,-9.838624954223633
1.7294929246496397e+18,0.04162886366248131,0.03369484096765518,-9.7675199508667
1.72949292465864e+18,0.029242362827062607,0.09398787468671799,-9.884157180786133
1.72949292466764e+18,0.06118743494153023,-0.05170685052871704,-9.800077438354492
1.7294929246766403e+18,-0.023282449692487717,-0.08490148186683655,-9.833407402038574
1.7294929246826404e+18,-0.002711524022743106,-0.05018198862671852,-9.794368743896484
1.7294929246916406e+18,-0.016833731904625893,-0.019895454868674278,-9.765244483947754
1.7294929246976407e+18,-0.010707886889576912,-0.06556402146816254,-9.769485473632812
1.729492924706641e+18,-0.0524955689907074,0.017333459109067917,-9.750205993652344
1.729492924715641e+18,-0.0794767215847969,-0.033002208918333054,-9.821515083312988
1.7294929247216412e+18,0.06702901422977448,-0.044164028018713,-9.778189659118652
1.7294929247306414e+18,0.06075922027230263,-0.019859226420521736,-9.891730308532715
1.7294929247366415e+18,-0.02208782359957695,-0.05066578835248947,-9.785067558288574
1.7294929247456417e+18,0.04316503554582596,-0.004821536596864462,-9.79695987701416
1.729492924754642e+18,0.05526438355445862,0.06255865842103958,-9.728906631469727
1.729492924760642e+18,0.0018049312056973577,-0.021755492314696312,-9.803458213806152
1.7294929247696422e+18,0.03490038216114044,-0.008296821266412735,-9.798356056213379
1.7294929247786424e+18,0.0402643159031868,-0.010258679278194904,-9.823863983154297
1.7294929247846426e+18,0.0014254183042794466,0.0832367092370987,-9.784588813781738
1.7294929247936428e+18,0.03307957202196121,-0.013242569752037525,-9.778040885925293
1.729492924802643e+18,0.0026695160195231438,0.041781578212976456,-9.840662956237793
1.7294929248116431e+18,-0.02624276466667652,0.06945424526929855,-9.835866928100586
1.7294929248176433e+18,-0.01039168145507574,-0.01861531101167202,-9.768460273742676
1.7294929248266435e+18,-0.024580148980021477,0.11288302391767502,-9.896008491516113
1.7294929248356436e+18,0.006819605827331543,-0.04465106502175331,-9.770838737487793
1.7294929248416438e+18,-0.018496287986636162,-0.02198098972439766,-9.7906494140625
1.729492924850644e+18,-0.06797710806131363,-0.04523162171244621,-9.752228736877441
1.7294929248596442e+18,0.05220630392432213,0.02296895906329155,-9.816701889038086
1.7294929248656443e+18,-0.0776563510298729,0.05671072006225586,-9.6983060836792
1.7294929248746445e+18,0.03778323158621788,-0.14204168319702148,-9.777193069458008
1.7294929248836447e+18,0.037909504026174545,0.07767726480960846,-9.787679672241211
1.7294929248896448e+18,0.0323728583753109,0.0662602111697197,-9.721116065979004
1.729492924898645e+18,0.015304968692362309,-0.07973725348711014,-9.81581974029541
1.7294929249076452e+18,0.016742603853344917,-0.05190957337617874,-9.76793098449707
1.7294929249166454e+18,-0.04840439558029175,0.012033036909997463,-9.786624908447266
1.7294929249256456e+18,-0.04781252145767212,-0.008035633713006973,-9.768786430358887
1.7294929249316457e+18,-0.07166700065135956,0.06161301210522652,-9.821938514709473
1.729492924940646e+18,0.03830422833561897,0.06136022135615349,-9.817561149597168
1.729492924949646e+18,0.02144523896276951,-0.060718782246112823,-9.845563888549805
1.7294929249586463e+18,-0.029444409534335136,-0.015517720952630043,-9.799988746643066
1.7294929249646464e+18,-0.0710325762629509,-0.010594815015792847,-9.898158073425293
1.7294929249736466e+18,0.005495901219546795,0.019761884585022926,-9.824098587036133
1.7294929249796467e+18,0.014652411453425884,-0.02212122455239296,-9.764784812927246
1.729492924988647e+18,0.005020165350288153,-0.024036427959799767,-9.846961975097656
1.729492924997647e+18,0.023053837940096855,0.07570760697126389,-9.888837814331055
1.7294929250036472e+18,-0.0592910461127758,-0.04154035076498985,-9.862263679504395
1.7294929250126474e+18,0.006494529079645872,-0.0034735850058496,-9.822945594787598
1.7294929250216476e+18,-0.0379241518676281,-0.04356532543897629,-9.80897045135498
1.7294929250306478e+18,-0.06427313387393951,-0.0724041610956192,-9.784248352050781
1.729492925039648e+18,-0.00022695200459565967,-0.05831623822450638,-9.84009075164795
1.7294929250456481e+18,0.054032206535339355,-0.04122184216976166,-9.743293762207031
1.7294929250546483e+18,-0.025339026004076004,-0.015375794842839241,-9.84008502960205
1.7294929250636485e+18,0.016163235530257225,0.06281353533267975,-9.829573631286621
1.7294929250696486e+18,-0.015346656553447247,0.04716707020998001,-9.863462448120117
1.7294929250786488e+18,-0.019016718491911888,-0.03788907080888748,-9.785688400268555
1.729492925084649e+18,-0.04720603674650192,-0.06984436511993408,-9.794618606567383
1.7294929250936492e+18,-0.06825142353773117,-0.028034500777721405,-9.808799743652344
1.7294929250996493e+18,-0.025874484330415726,-0.014989719726145267,-9.704188346862793
1.7294929251086495e+18,0.008395004086196423,-0.034781523048877716,-9.833789825439453
1.7294929251146496e+18,0.053056515753269196,0.0487961545586586,-9.818927764892578
1.7294929251236498e+18,0.01765352487564087,-0.02016032114624977,-9.794257164001465
1.72949292513265e+18,0.06329160928726196,0.12494878470897675,-9.884286880493164
1.72949292513865e+18,0.029776092618703842,0.035912882536649704,-9.816916465759277
1.7294929251476503e+18,0.04000510647892952,0.003190054325386882,-9.816851615905762
1.7294929251536504e+18,-0.03923496603965759,0.019498581066727638,-9.772286415100098
1.7294929251626506e+18,0.034364718943834305,0.013735859654843807,-9.794642448425293
1.7294929251716508e+18,0.012955178506672382,0.038418710231781006,-9.821310043334961
1.729492925177651e+18,0.01943025179207325,-0.010141659528017044,-9.751823425292969
1.7294929251866511e+18,-0.0030409034807235003,0.07220882177352905,-9.701236724853516
1.7294929251956513e+18,0.00010241031850455329,-0.07184504717588425,-9.807642936706543
1.7294929252016515e+18,0.004814485087990761,0.06503874808549881,-9.768527030944824
1.7294929252106516e+18,0.04117994382977486,0.07787685096263885,-9.760759353637695
1.7294929252166518e+18,-0.09121205657720566,-0.0849972814321518,-9.769851684570312
1.729492925225652e+18,-0.012113264761865139,0.0392647311091423,-9.811495780944824
1.729492925231652e+18,-0.03735148161649704,-0.008993735536932945,-9.85421371459961
1.7294929252406523e+18,-0.017877383157610893,-0.021854814141988754,-9.811899185180664
1.7294929252526525e+18,-0.0101472157984972,0.013134273700416088,-9.703019142150879
1.7294929252616527e+18,0.020812762901186943,-0.02051585353910923,-9.800562858581543
1.7294929252676529e+18,0.014938535168766975,0.049240633845329285,-9.823617935180664
1.729492925276653e+18,0.0248704981058836,-0.08137521892786026,-9.803914070129395
1.7294929252856532e+18,0.048673879355192184,-0.013546413742005825,-9.844005584716797
1.7294929252916534e+18,-0.023920657113194466,0.049008265137672424,-9.734871864318848
1.7294929253006536e+18,0.019758377224206924,0.03650667890906334,-9.820490837097168
1.7294929253096538e+18,0.0602257139980793,0.030674314126372337,-9.804976463317871
1.729492925315654e+18,-0.014214440248906612,-0.029418624937534332,-9.811333656311035
1.729492925324654e+18,0.017441609874367714,0.05681928992271423,-9.739418029785156
1.7294929253306542e+18,0.03861343488097191,-0.016869917511940002,-9.857771873474121
1.7294929253396544e+18,-0.014705652371048927,0.014394070953130722,-9.807759284973145
1.7294929253456545e+18,0.0030663334764540195,-0.036919090896844864,-9.810737609863281
1.7294929253546547e+18,-0.016018850728869438,-0.012420143000781536,-9.855093002319336
1.729492925363655e+18,-0.026004048064351082,-0.029457487165927887,-9.788698196411133
1.729492925369655e+18,0.033361729234457016,0.0191922876983881,-9.838601112365723
1.7294929253786552e+18,-0.06957454234361649,-0.013820314779877663,-9.779454231262207
1.7294929253846554e+18,-0.026817619800567627,-0.037685949355363846,-9.778738021850586
1.7294929253936556e+18,0.08421976864337921,-0.07326135784387589,-9.81648063659668
1.7294929254026557e+18,-0.01927346922457218,-0.03704191744327545,-9.816018104553223
1.729492925411656e+18,-0.05919530987739563,0.028678711503744125,-9.79600715637207
1.729492925417656e+18,-0.04316793009638786,0.006574440281838179,-9.752087593078613
1.7294929254266563e+18,-0.024361349642276764,0.007639819756150246,-9.764966011047363
1.7294929254356564e+18,-0.08861438930034637,-0.026826204732060432,-9.821782112121582
1.7294929254416566e+18,0.05691196769475937,0.004604937043040991,-9.822458267211914
1.7294929254506568e+18,-0.04995108023285866,0.02668692357838154,-9.818903923034668
1.729492925456657e+18,0.02478150464594364,0.024262147024273872,-9.72297477722168
1.729492925465657e+18,0.01741635799407959,-0.02562306635081768,-9.841482162475586
1.7294929254716572e+18,0.023194514214992523,0.01552981324493885,-9.789953231811523
1.7294929254806574e+18,0.022500457242131233,-0.0633421465754509,-9.84384822845459
1.7294929254896576e+18,-0.002554835518822074,0.07414251565933228,-9.890518188476562
1.7294929254956577e+18,-0.03533180058002472,0.022474180907011032,-9.888157844543457
1.729492925504658e+18,0.008852820843458176,0.03744639828801155,-9.784125328063965
1.729492925513658e+18,0.04237309470772743,0.06531617045402527,-9.761812210083008
1.7294929255196582e+18,0.024726251140236855,0.07243825495243073,-9.804522514343262
1.7294929255286584e+18,0.04209508001804352,-0.03803074732422829,-9.759968757629395
1.7294929255376586e+18,0.060292888432741165,-0.01687893085181713,-9.769598960876465
1.7294929255466588e+18,-0.006140293553471565,0.0002632529940456152,-9.840357780456543
1.729492925552659e+18,-0.05234047770500183,-0.06257399171590805,-9.765380859375
1.7294929255616591e+18,0.06897129118442535,-0.03584355115890503,-9.869682312011719
1.7294929255736594e+18,0.010683005675673485,-0.09591847658157349,-9.851855278015137
1.7294929255826596e+18,-0.0016378394793719053,-0.05148407816886902,-9.792210578918457
1.7294929255916598e+18,-0.023256592452526093,0.01478049997240305,-9.844086647033691
1.72949292559766e+18,0.005571114830672741,0.0007091090083122253,-9.77730655670166
1.72949292560666e+18,0.025164777413010597,-0.0007433941937051713,-9.777083396911621
1.7294929256156603e+18,0.05544278770685196,-0.03061489388346672,-9.780027389526367
1.7294929256246605e+18,0.0539642833173275,-0.0036708444822579622,-9.831120491027832
1.7294929256336607e+18,-0.044992562383413315,-0.006565572693943977,-9.811653137207031
1.7294929256396608e+18,-0.030710486695170403,-0.05089543014764786,-9.766828536987305
1.729492925648661e+18,0.027713293209671974,0.010219390504062176,-9.80837631225586
1.729492925654661e+18,-0.03411329165101051,-0.03305646404623985,-9.897134780883789
1.7294929256636613e+18,-0.04445340856909752,-0.025856943801045418,-9.885220527648926
1.7294929256696614e+18,-0.08792325854301453,0.005140791181474924,-9.839529991149902
1.7294929256786616e+18,-0.025547318160533905,0.004505586344748735,-9.812105178833008
1.7294929256846618e+18,-0.03086884692311287,-0.038181450217962265,-9.801340103149414
1.729492925693662e+18,-0.03212888911366463,-0.011190272867679596,-9.891761779785156
1.7294929257026621e+18,0.02548222243785858,0.030895115807652473,-9.895147323608398
1.7294929257086623e+18,0.013530613854527473,0.07168617844581604,-10.002223014831543
1.7294929257176625e+18,0.05315700173377991,-0.003010118380188942,-9.922450065612793
1.7294929257266627e+18,0.053145162761211395,0.010801495984196663,-9.979706764221191
1.7294929257326628e+18,0.02725536748766899,0.01537693664431572,-10.01109790802002
1.729492925741663e+18,0.02427767403423786,0.07347293943166733,-10.00251579284668
1.729492925747663e+18,-0.04183737561106682,-0.009783588349819183,-9.995012283325195
1.7294929257566633e+18,0.0020218482241034508,-0.02223668247461319,-10.094070434570312
1.7294929257656635e+18,-0.03105580061674118,0.04557119309902191,-10.105740547180176
1.7294929257716636e+18,0.02594595029950142,-0.006902261171489954,-10.029379844665527
1.7294929257806638e+18,-0.0059022922068834305,0.03675338625907898,-10.052398681640625
1.729492925786664e+18,-0.008479008451104164,-0.01194459106773138,-10.056502342224121
1.7294929257956641e+18,0.028724495321512222,-0.006881088949739933,-10.055891990661621
1.7294929258046643e+18,-0.004392367787659168,-0.026379652321338654,-10.07856273651123
1.7294929258106644e+18,0.014907145872712135,0.005349641665816307,-10.075416564941406
1.7294929258196646e+18,-0.024288233369588852,-0.024324491620063782,-10.349140167236328
1.7294929258256648e+18,0.04393676668405533,-0.032056357711553574,-10.482898712158203
1.729492925834665e+18,0.025964798405766487,0.04607817903161049,-10.499164581298828
1.729492925840665e+18,0.03992192819714546,0.03618084266781807,-10.459723472595215
1.7294929258496653e+18,-0.029922254383563995,0.007701486349105835,-10.535006523132324
1.7294929258556654e+18,-0.01337882038205862,0.035829413682222366,-10.489034652709961
1.7294929258646656e+18,-0.02256540209054947,-0.004237773362547159,-10.541138648986816
1.7294929258706657e+18,-0.006136558949947357,-0.03125526383519173,-10.480914115905762
1.729492925879666e+18,-0.014120514504611492,0.04997818171977997,-10.564006805419922
1.729492925885666e+18,0.02639850787818432,-0.015533829107880592,-10.5309419631958
1.7294929258946662e+18,0.012054395861923695,0.0861717164516449,-10.522055625915527
1.7294929259006664e+18,-0.013146494515240192,-0.004204882308840752,-10.614982604980469
1.7294929259096666e+18,-0.025646187365055084,0.01761767268180847,-10.551340103149414
1.7294929259156667e+18,0.011221606284379959,0.01774786040186882,-10.564163208007812
1.729492925924667e+18,-0.0004495671018958092,0.05827944353222847,-10.634170532226562
1.729492925930667e+18,0.07119693607091904,-0.010128804482519627,-10.529845237731934
1.7294929259396672e+18,0.06046999245882034,0.008447963744401932,-10.620552062988281
1.7294929259486674e+18,-0.002985419239848852,-0.027547694742679596,-10.539644241333008
1.7294929259546675e+18,-0.06275177747011185,-0.005185702815651894,-10.582428932189941
1.7294929259636677e+18,-0.0024989978410303593,-0.019653214141726494,-10.548934936523438
1.7294929259696678e+18,-0.00310424598865211,-0.07218994945287704,-10.509934425354004
1.729492925978668e+18,-0.018379375338554382,0.04049209877848625,-10.514662742614746
1.7294929259876682e+18,-0.02855604700744152,0.00015054340474307537,-10.556425094604492
1.7294929259936684e+18,0.05086830258369446,0.005814624018967152,-10.526195526123047
1.7294929260026685e+18,0.03163812309503555,0.06087147071957588,-10.574997901916504
1.7294929260116687e+18,-0.07716632634401321,0.036286670714616776,-10.570919036865234
1.7294929260176689e+18,-0.03982016444206238,-0.05128423869609833,-10.536578178405762
1.729492926026669e+18,-0.026755956932902336,0.022809423506259918,-10.614607810974121
1.7294929260326692e+18,-0.028562601655721664,-0.002463719341903925,-10.596297264099121
1.7294929260416694e+18,0.02947072684764862,-0.06090255454182625,-10.527576446533203
1.7294929260506696e+18,0.0023560188710689545,0.009752103127539158,-10.601524353027344
1.7294929260566697e+18,-0.023492293432354927,-0.08496716618537903,-10.562288284301758
1.72949292606567e+18,-0.09629303216934204,0.03338339179754257,-10.550246238708496
1.72949292607467e+18,0.09206347167491913,-0.00337103265337646,-10.611024856567383
1.7294929260866703e+18,-0.044995345175266266,0.014184498228132725,-10.587652206420898
1.7294929260956705e+18,0.01841062121093273,-0.004122358746826649,-10.643830299377441
1.7294929261046707e+18,-0.10159333795309067,-0.017898229882121086,-10.620591163635254
1.7294929261106708e+18,-0.027112623676657677,0.010658755898475647,-10.556726455688477
1.729492926119671e+18,-0.035894088447093964,-0.017056124284863472,-10.618584632873535
1.7294929261256712e+18,0.053460799157619476,0.04117056727409363,-10.597541809082031
1.7294929261346714e+18,0.08464321494102478,-0.0004022906068712473,-10.661646842956543
1.7294929261436716e+18,-0.031251661479473114,-0.04144081845879555,-10.621378898620605
1.7294929261526717e+18,0.01444970816373825,-0.005692640319466591,-10.589481353759766
1.729492926158672e+18,-0.009590468369424343,0.02020648680627346,-10.57332992553711
1.729492926167672e+18,-0.04713445529341698,-0.09931793808937073,-10.571595191955566
1.7294929261766723e+18,-0.015239614062011242,0.062192317098379135,-10.56003475189209
1.7294929261826724e+18,0.08468953520059586,0.04105519503355026,-10.622272491455078
1.7294929261916726e+18,-0.003769058035686612,0.026262011379003525,-10.616455078125
1.7294929262036728e+18,0.057521723210811615,-0.03385351598262787,-10.577839851379395
1.729492926212673e+18,-0.041161369532346725,-0.008144357241690159,-10.615358352661133
1.7294929262186732e+18,-0.047261182218790054,-0.07923655956983566,-10.584954261779785
1.7294929262276733e+18,0.013780382461845875,0.02333652973175049,-10.575363159179688
1.7294929262366735e+18,0.02793077379465103,-0.0013685262529179454,-10.601445198059082
1.7294929262426737e+18,-0.12626905739307404,0.0004033246077597141,-10.622798919677734
1.7294929262516739e+18,-0.03339970484375954,0.06706924736499786,-10.623395919799805
1.729492926260674e+18,-0.017588671296834946,-0.03510378301143646,-10.641436576843262
1.7294929262696742e+18,-0.004381982609629631,0.015173771418631077,-10.601883888244629
1.7294929262756744e+18,0.05022728443145752,0.027166245505213737,-10.625164031982422
1.7294929262846746e+18,-0.06424285471439362,-0.07586674392223358,-10.71164608001709
1.7294929262936748e+18,-0.09075989574193954,0.0013959008501842618,-10.645753860473633
1.729492926299675e+18,0.01916542276740074,-0.017877299338579178,-10.62827205657959
1.729492926308675e+18,-0.014388279058039188,-0.05145520344376564,-10.630264282226562
1.7294929263176753e+18,-0.0024083242751657963,-0.009833315387368202,-10.622526168823242
1.7294929263236754e+18,-0.057043738663196564,0.0263845082372427,-10.551764488220215
1.7294929263326756e+18,0.10538648068904877,-0.020137177780270576,-10.671072006225586
1.7294929263416758e+18,-0.03963996842503548,0.07133390754461288,-10.570056915283203
1.729492926350676e+18,-0.018827227875590324,0.020116589963436127,-10.581344604492188
1.729492926356676e+18,-0.00681387260556221,0.012225748971104622,-10.528068542480469
1.7294929263656763e+18,0.07075881212949753,0.09753863513469696,-10.62784194946289
1.7294929263746765e+18,0.057965897023677826,0.010897322557866573,-10.616138458251953
1.7294929263806766e+18,-0.03522014245390892,0.019228648394346237,-10.54883098602295
1.7294929263896768e+18,-0.07348620146512985,0.015069985762238503,-10.567328453063965
1.729492926398677e+18,-0.014039930887520313,0.03879760205745697,-10.56307601928711
1.729492926404677e+18,-0.07095115631818771,0.004574606195092201,-10.705488204956055
1.7294929264136773e+18,0.040701597929000854,-0.002440699376165867,-10.642544746398926
1.7294929264226775e+18,0.037704065442085266,0.04865284636616707,-10.560937881469727
1.7294929264286776e+18,0.005899840034544468,0.018185093998908997,-10.561501502990723
1.7294929264376778e+18,-0.018041113391518593,0.018605753779411316,-10.642123222351074
1.729492926446678e+18,-0.037863217294216156,0.06557763367891312,-10.646647453308105
1.7294929264556782e+18,0.044479675590991974,-0.14401456713676453,-10.500835418701172
1.7294929264646784e+18,-0.05913768708705902,-0.07221350818872452,-10.573636054992676
1.7294929264706785e+18,0.05712055042386055,-0.05229577794671059,-10.614758491516113
1.7294929264796787e+18,0.036753274500370026,0.028110945597290993,-10.608175277709961
1.729492926488679e+18,0.007410499732941389,0.01605295203626156,-10.6798734664917
1.729492926494679e+18,-0.04939457029104233,-0.013410945422947407,-10.641257286071777
1.7294929265036792e+18,-0.08777622878551483,-0.059927355498075485,-10.641892433166504
1.7294929265126794e+18,0.06893514096736908,-0.047170355916023254,-10.66364574432373
1.7294929265216796e+18,0.08378088474273682,-0.02849452570080757,-10.631538391113281
1.7294929265336799e+18,0.009038008749485016,0.0311992596834898,-10.561407089233398
1.72949292654268e+18,-0.08222678303718567,0.11858698725700378,-10.652680397033691
1.7294929265516803e+18,-0.06455232203006744,0.0365239717066288,-10.672318458557129
1.7294929265606804e+18,-0.00893242098391056,0.012912968173623085,-10.62617015838623
1.7294929265696806e+18,-0.051219046115875244,0.028510645031929016,-10.594419479370117
1.7294929265756808e+18,0.048444848507642746,0.0019070588750764728,-10.543513298034668
1.729492926584681e+18,0.011292538605630398,0.039680954068899155,-10.597504615783691
1.7294929265936812e+18,0.05849199742078781,-0.020336618646979332,-10.596009254455566
1.7294929266026813e+18,0.000301235297229141,-0.0030182157643139362,-10.47966194152832
1.7294929266086815e+18,0.0158284530043602,0.03234081715345383,-10.665928840637207
1.7294929266176817e+18,0.03536657616496086,0.0049162209033966064,-10.59310531616211
1.7294929266266819e+18,0.02645811252295971,0.006681427359580994,-10.57174301147461
1.729492926632682e+18,0.023746147751808167,-0.013464707881212234,-10.62504768371582
1.7294929266416822e+18,0.004080183804035187,0.03943676874041557,-10.548048973083496
1.7294929266476823e+18,-0.01864173635840416,0.033990755677223206,-10.489399909973145
1.7294929266566825e+18,-0.039173297584056854,-0.041404031217098236,-10.511959075927734
1.7294929266656827e+18,-0.009870967827737331,-0.011838939040899277,-10.557236671447754
1.729492926680683e+18,-0.014202582649886608,0.01023704744875431,-10.495060920715332
1.7294929266896832e+18,-0.04600958898663521,-0.05736174061894417,-10.525350570678711
1.7294929266986834e+18,-0.023405583575367928,-0.01954847015440464,-10.540861129760742
1.7294929267046835e+18,-0.012904051691293716,-0.08290824294090271,-10.636469841003418
1.7294929267136837e+18,0.004650970455259085,-0.031387221068143845,-10.620195388793945
1.7294929267196838e+18,-0.01870672032237053,0.04506988078355789,-10.503819465637207
1.729492926728684e+18,-0.04177543893456459,0.029749413952231407,-10.479578018188477
1.7294929267376842e+18,0.05110541731119156,0.041158076375722885,-10.56277847290039
1.7294929267436844e+18,-0.03009195625782013,0.01254221424460411,-10.53152847290039
1.7294929267526845e+18,-0.03266504034399986,-0.05582777410745621,-10.615821838378906
1.7294929267586847e+18,0.05686255171895027,0.041121724992990494,-10.608987808227539
1.7294929267676849e+18,0.03087601624429226,-4.002390778623521e-05,-10.536895751953125
1.729492926776685e+18,0.051809728145599365,0.004266868345439434,-10.590442657470703
1.7294929267826852e+18,0.05637671798467636,0.013484244234859943,-10.56010913848877
1.7294929267916854e+18,0.0759575366973877,-0.10033699125051498,-10.543989181518555
1.7294929268006856e+18,0.0581832155585289,-0.029057219624519348,-10.552665710449219
1.7294929268066857e+18,0.06727449595928192,0.04353201016783714,-10.53624153137207
1.729492926818686e+18,-0.018069902434945107,-0.004910874180495739,-10.547689437866211
1.7294929268276861e+18,-0.006479180883616209,-0.0071797543205320835,-10.4984769821167
1.7294929268336863e+18,-0.029749780893325806,-0.0316835455596447,-10.554899215698242
1.7294929268426865e+18,0.008198380470275879,-0.016148952767252922,-10.543699264526367
1.7294929268516867e+18,0.02432967722415924,0.024221163243055344,-10.547798156738281
1.7294929268576868e+18,-0.029219476506114006,-0.01675308309495449,-10.567931175231934
1.729492926866687e+18,-0.03600919619202614,0.003790083108469844,-10.554351806640625
1.7294929268756872e+18,-0.04772888496518135,0.0031743112485855818,-10.53641414642334
1.7294929268816873e+18,0.05016475170850754,-0.014708363451063633,-10.606328964233398
1.7294929268906875e+18,-0.02794584073126316,-0.003403801703825593,-10.646669387817383
1.7294929268966876e+18,-0.005737376399338245,0.028840072453022003,-10.590782165527344
1.7294929269056878e+18,-0.00789187103509903,-0.021049564704298973,-10.571227073669434
1.729492926914688e+18,-0.010568639263510704,-0.07855547964572906,-10.59078311920166
1.729492926920688e+18,0.0352313257753849,-0.041766442358493805,-10.573502540588379
1.7294929269296883e+18,-0.04453360289335251,0.08055806905031204,-10.549345970153809
1.7294929269356884e+18,-0.013188526965677738,-0.024058088660240173,-10.471960067749023
1.7294929269446886e+18,0.01707731932401657,-0.0049785440787673,-10.589083671569824
1.7294929269506888e+18,-0.01931259036064148,-0.052991654723882675,-10.5258207321167
1.729492926959689e+18,-0.02281796559691429,0.006061980966478586,-10.448762893676758
1.7294929269746893e+18,-0.03503052145242691,-0.014967474155128002,-10.45995807647705
1.7294929269806894e+18,0.043814584612846375,0.008822568692266941,-10.4783296585083
1.7294929269926897e+18,-0.07468446344137192,0.014226671308279037,-10.563948631286621
1.7294929269986898e+18,0.030309924855828285,-0.038852643221616745,-10.491342544555664
1.72949292700769e+18,0.10107548534870148,0.023554107174277306,-10.54183578491211
1.7294929270166902e+18,-0.0343044139444828,-0.0016925048548728228,-10.5960111618042
1.7294929270256904e+18,-0.01936889998614788,-0.01376305054873228,-10.53760814666748
1.7294929270316905e+18,-0.04940708726644516,0.05692277476191521,-10.5176420211792
1.7294929270406907e+18,-0.06255681812763214,0.00026891406741924584,-10.534066200256348
1.729492927049691e+18,0.02018505334854126,0.015701305121183395,-10.425366401672363
1.729492927058691e+18,-0.004752169828861952,0.053209125995635986,-10.48384952545166
1.7294929270646912e+18,-0.07594672590494156,-0.07334675639867783,-10.499638557434082
1.7294929270736914e+18,0.09907573461532593,-0.011331159621477127,-10.549729347229004
1.7294929270826916e+18,-0.028762198984622955,0.04715558513998985,-10.47822380065918
1.7294929270916918e+18,0.10664736479520798,-0.016914432868361473,-10.462055206298828
1.729492927100692e+18,-0.07536763697862625,-0.014926408417522907,-10.490083694458008
1.729492927106692e+18,-0.014210633933544159,-0.025830643251538277,-10.450139045715332
1.7294929271156923e+18,-0.0018859116826206446,0.03747362270951271,-10.56059741973877
1.7294929271246925e+18,0.0624433308839798,0.020531877875328064,-10.445838928222656
1.7294929271306926e+18,0.053955260664224625,-0.03826277703046799,-10.50430679321289
1.7294929271396928e+18,0.0024728886783123016,0.06420935690402985,-10.484131813049316
1.729492927148693e+18,0.03456771373748779,0.010749957524240017,-10.508594512939453
1.729492927154693e+18,0.03823342174291611,0.0643215924501419,-10.442708969116211
1.7294929271636933e+18,0.07064104825258255,0.07600513100624084,-10.50141716003418
1.7294929271726935e+18,-0.021283406764268875,-0.11920266598463058,-10.361915588378906
1.7294929271786936e+18,-0.0014137683901935816,-0.027522331103682518,-10.340412139892578
1.7294929271876938e+18,0.02217509225010872,0.015651581808924675,-10.316483497619629
1.729492927196694e+18,0.028099756687879562,-0.04355483129620552,-10.432979583740234
1.7294929272056942e+18,-0.00594313582405448,-0.006829604506492615,-10.412592887878418
1.7294929272116943e+18,-0.07885194569826126,-0.06509073823690414,-10.353221893310547
1.7294929272206945e+18,0.041725702583789825,-0.04747825488448143,-10.389557838439941
1.7294929272296947e+18,0.08313199877738953,0.0024524179752916098,-10.19044017791748
1.729492927238695e+18,0.07897264510393143,-0.013612711802124977,-10.199419975280762
1.729492927244695e+18,0.016276203095912933,-0.038107410073280334,-10.160651206970215
1.7294929272536952e+18,0.05444483831524849,0.0022086557000875473,-10.191263198852539
1.7294929272596954e+18,-0.012336734682321548,-0.09280312806367874,-10.120162963867188
1.7294929272686956e+18,0.045662134885787964,0.04950129985809326,-10.166132926940918
1.7294929272746957e+18,0.04777008667588234,0.014532922767102718,-10.01663589477539
1.7294929272836959e+18,0.06646334379911423,-0.019005704671144485,-10.026636123657227
1.729492927292696e+18,0.017732486128807068,-0.0405108705163002,-9.978541374206543
1.7294929272986962e+18,0.06893300265073776,0.06928957253694534,-10.046296119689941
1.7294929273076964e+18,0.02155514433979988,-0.04615886136889458,-9.943349838256836
1.7294929273166966e+18,0.05192526429891586,-0.022253738716244698,-10.008070945739746
1.7294929273226967e+18,-0.07031198590993881,-0.040341321378946304,-10.051176071166992
1.729492927331697e+18,0.013404862023890018,-0.03873303905129433,-9.944079399108887
1.729492927337697e+18,0.03456604480743408,0.042500123381614685,-9.972416877746582
1.7294929273466972e+18,0.026778124272823334,-0.027908941730856895,-9.96933650970459
1.7294929273526973e+18,-0.029042543843388557,-0.0010066330432891846,-9.923320770263672
1.7294929273616975e+18,0.15001681447029114,-0.007898966781795025,-9.839387893676758
1.7294929273706977e+18,-0.07420142740011215,-0.03428182378411293,-9.828276634216309
1.729492927379698e+18,-0.03078649379312992,0.08855525404214859,-9.82970905303955
1.729492927385698e+18,0.03728781268000603,-0.023405611515045166,-9.887972831726074
1.7294929273946982e+18,0.016299722716212273,-0.0495837964117527,-9.722522735595703
1.7294929274036984e+18,0.042453743517398834,0.047179557383060455,-9.807110786437988
1.7294929274126986e+18,0.020452668890357018,-0.07063594460487366,-9.653557777404785
1.7294929274186988e+18,-0.02405562251806259,-0.02234334498643875,-9.733785629272461
1.729492927427699e+18,0.009488464333117008,0.011639042757451534,-9.698741912841797
1.7294929274366991e+18,0.02990439161658287,-0.0016695710364729166,-9.731476783752441
1.7294929274426993e+18,0.011006859131157398,0.008146881125867367,-9.635168075561523
1.7294929274516995e+18,0.0069887530989944935,0.05106388404965401,-9.769305229187012
1.7294929274606996e+18,-0.010275307111442089,0.00615251949056983,-9.6129732131958
1.7294929274666998e+18,-0.023166485130786896,-0.013264520093798637,-9.690452575683594
1.7294929274757e+18,0.0181302297860384,-0.051742326468229294,-9.689579010009766
1.7294929274847002e+18,-0.0588187500834465,0.0559384822845459,-9.68342113494873
1.7294929274937004e+18,0.03785582631826401,-0.02304817922413349,-9.659025192260742
1.7294929274997005e+18,0.026177460327744484,-0.030482865869998932,-9.631099700927734
1.7294929275087007e+18,0.015877489000558853,0.011072246357798576,-9.702607154846191
1.7294929275177009e+18,0.006427551619708538,0.04302933067083359,-9.673081398010254
1.729492927526701e+18,-0.03628586605191231,-0.028674371540546417,-9.694774627685547
1.7294929275327012e+18,-0.0637609213590622,0.025154385715723038,-9.748102188110352
1.7294929275417014e+18,0.008680896833539009,0.02587214484810829,-9.652159690856934
1.7294929275507016e+18,0.02039214037358761,0.005675950553268194,-9.697152137756348
1.7294929275567017e+18,0.04639951139688492,0.04439049959182739,-9.658154487609863
1.729492927565702e+18,-0.05250585824251175,0.014612935483455658,-9.568586349487305
1.729492927574702e+18,0.0339655801653862,0.07530168443918228,-9.658075332641602
1.7294929275807022e+18,0.018999610096216202,0.08396551012992859,-9.600857734680176
1.7294929275897024e+18,-0.0023163631558418274,-0.08872910588979721,-9.616418838500977
1.7294929275987026e+18,-0.01197850238531828,-0.02695050835609436,-9.611083984375
1.7294929276047027e+18,0.031248634681105614,0.030633073300123215,-9.61187744140625
1.729492927613703e+18,0.00428555253893137,0.06917668879032135,-9.605999946594238
1.729492927622703e+18,0.0651700422167778,0.05187854543328285,-9.567761421203613
1.7294929276317033e+18,0.08175420761108398,-0.06181485205888748,-9.594892501831055
1.7294929276377034e+18,0.017619820311665535,-0.05191439390182495,-9.660547256469727
1.7294929276467036e+18,0.02364521473646164,0.07128801941871643,-9.577146530151367
1.7294929276527037e+18,0.0015887162880972028,-0.013526887632906437,-9.56401252746582
1.729492927661704e+18,-0.000732176995370537,-0.013242477551102638,-9.600530624389648
1.729492927670704e+18,-0.0819324180483818,0.0034846975468099117,-9.596351623535156
1.7294929276767043e+18,0.006440244149416685,0.04613702744245529,-9.539665222167969
1.7294929276857044e+18,-0.08191151171922684,0.03933686763048172,-9.636731147766113
1.7294929276917046e+18,0.026379015296697617,-0.019764743745326996,-9.563541412353516
1.7294929277007048e+18,0.036608193069696426,0.007694480940699577,-9.537092208862305
1.729492927706705e+18,0.00037630656152032316,-0.023728564381599426,-9.610435485839844
1.729492927715705e+18,0.028464050963521004,-0.04695816710591316,-9.55577278137207
1.7294929277247053e+18,-0.004541072063148022,0.02362671121954918,-9.563684463500977
1.7294929277307054e+18,0.07127927243709564,-0.035952065140008926,-9.61718463897705
1.7294929277397056e+18,0.00019909458933398128,-0.015432510524988174,-9.567984580993652
1.7294929277487058e+18,-0.013781222514808178,-0.000594035373069346,-9.58899974822998
1.729492927754706e+18,0.055264636874198914,-0.009514948353171349,-9.592264175415039
1.729492927763706e+18,0.036206550896167755,-0.021741630509495735,-9.466358184814453
1.7294929277697062e+18,-0.0003568536485545337,0.03977043181657791,-9.49564266204834
1.7294929277787064e+18,-0.05702050030231476,-0.053102947771549225,-9.58053970336914
1.7294929277877066e+18,-0.010241428390145302,0.044125624001026154,-9.51419448852539
1.7294929277937068e+18,-0.00946781039237976,-0.04599170386791229,-9.530607223510742
1.729492927802707e+18,-0.049824297428131104,-0.01490567997097969,-9.608030319213867
1.7294929278117071e+18,0.03430445119738579,0.02526339888572693,-9.60616397857666
1.7294929278207073e+18,-0.04447087273001671,-0.03519675135612488,-9.546216011047363
1.7294929278267075e+18,0.02896140329539776,0.047431476414203644,-9.595701217651367
1.7294929278357076e+18,0.02714327536523342,0.015502057038247585,-9.514253616333008
1.7294929278417078e+18,0.013923908583819866,0.007608408574014902,-9.481307983398438
1.729492927850708e+18,0.020272865891456604,0.021349122747778893,-9.548521041870117
1.7294929278597082e+18,-0.04934799298644066,0.013740137219429016,-9.593589782714844
1.7294929278657083e+18,0.0005674168351106346,0.022251581773161888,-9.585481643676758
1.7294929278747085e+18,0.0027028778567910194,-0.023629607632756233,-9.603525161743164
1.7294929278837087e+18,0.03257443755865097,0.06098971888422966,-9.585219383239746
1.7294929278897088e+18,0.05086544156074524,0.02579578012228012,-9.561946868896484
1.729492927898709e+18,0.04986288771033287,-0.03700156882405281,-9.542096138000488
1.7294929279077092e+18,-0.060204409062862396,0.022477561607956886,-9.647964477539062
1.7294929279137093e+18,-0.05592946708202362,0.010912989266216755,-9.547784805297852
1.7294929279227095e+18,0.03993075340986252,-0.04670018330216408,-9.558412551879883
1.7294929279287096e+18,-0.018491538241505623,-0.04927085340023041,-9.595108985900879
1.7294929279377098e+18,0.01783052645623684,0.10020370036363602,-9.492118835449219
1.72949292794371e+18,0.0439809113740921,-0.006200043018907309,-9.490608215332031
1.7294929279527101e+18,0.02032000757753849,-0.010527212172746658,-9.635149955749512
1.7294929279587103e+18,-0.10801617056131363,-0.01710096187889576,-9.582812309265137
1.7294929279677105e+18,-0.07828892767429352,-0.01753990910947323,-9.574064254760742
1.7294929279737106e+18,0.049826815724372864,0.008437306620180607,-9.53991413116455
1.7294929279827108e+18,-0.036481644958257675,-0.0036595200654119253,-9.546066284179688
1.729492927988711e+18,0.08327154070138931,0.007661378942430019,-9.586931228637695
1.729492927997711e+18,0.033076245337724686,-0.040995772927999496,-9.54566478729248
1.7294929280067113e+18,-0.014743116684257984,0.034511860460042953,-9.560696601867676
1.7294929280127114e+18,-0.02184169739484787,0.05326933413743973,-9.58811092376709
1.7294929280217116e+18,-0.03234357014298439,0.018352704122662544,-9.512521743774414
1.7294929280307118e+18,-0.0666227713227272,0.011907755397260189,-9.569093704223633
1.729492928036712e+18,-0.08393373340368271,-0.03651018813252449,-9.584863662719727
1.7294929280457121e+18,0.045705508440732956,0.1035599410533905,-9.590127944946289
1.7294929280547123e+18,-0.02244088612496853,0.02760603092610836,-9.610177040100098
1.7294929280607124e+18,0.04895954579114914,-4.9273367039859295e-05,-9.511810302734375
1.7294929280697126e+18,0.015539261512458324,-0.007652934640645981,-9.535771369934082
1.7294929280787128e+18,0.022992169484496117,-0.028785232454538345,-9.546721458435059
1.729492928084713e+18,-0.03379756957292557,0.07341370731592178,-9.525813102722168
1.7294929280937132e+18,-0.06670020520687103,0.02936037816107273,-9.545953750610352
1.7294929280997133e+18,-0.03758428618311882,-0.013027017936110497,-9.508959770202637
1.7294929281087135e+18,-0.008110381662845612,-0.047343164682388306,-9.521714210510254
1.7294929281147136e+18,-0.008855834603309631,-0.06603837758302689,-9.523104667663574
1.7294929281237138e+18,0.061513256281614304,0.0021715525072067976,-9.626216888427734
1.729492928132714e+18,0.017406346276402473,0.03245621547102928,-9.554723739624023
1.729492928138714e+18,0.01635860651731491,-0.009930427186191082,-9.521214485168457
1.7294929281477143e+18,0.015993686392903328,0.011820132844150066,-9.560708045959473
1.7294929281537144e+18,0.045574672520160675,0.03249571844935417,-9.495635986328125
1.7294929281627146e+18,-0.0976373627781868,0.013008919544517994,-9.467077255249023
1.7294929281687148e+18,0.044443849474191666,0.035736627876758575,-9.51465892791748
1.729492928177715e+18,0.030415378510951996,0.04259905964136124,-9.576628684997559
1.729492928183715e+18,-0.00848008506000042,0.051837727427482605,-9.59701156616211
1.7294929281927153e+18,-9.17878351174295e-05,0.0785355269908905,-9.550244331359863
1.7294929282017155e+18,-0.06793693453073502,0.03746902197599411,-9.521299362182617
1.7294929282077156e+18,-0.055734068155288696,0.008169335313141346,-9.462499618530273
1.7294929282167158e+18,-0.05697604641318321,-0.019636010751128197,-9.474296569824219
1.729492928225716e+18,0.012124446220695972,0.040272098034620285,-9.499907493591309
1.729492928231716e+18,-0.0273561030626297,-0.05020247772336006,-9.44016170501709
1.7294929282407163e+18,-0.014612535014748573,0.019623076543211937,-9.536476135253906
1.7294929282467164e+18,0.022864874452352524,0.017161820083856583,-9.542630195617676
1.7294929282557166e+18,0.04056888818740845,0.03694608062505722,-9.48084831237793
1.7294929282647168e+18,0.004801137372851372,0.0334199033677578,-9.477044105529785
1.729492928270717e+18,0.03555286303162575,-0.012958361767232418,-9.525517463684082
1.729492928279717e+18,-0.022760115563869476,0.003244044492021203,-9.495706558227539
1.7294929282887173e+18,-0.009656170383095741,-0.001554364338517189,-9.51457405090332
1.7294929282977175e+18,0.08785707503557205,0.030918478965759277,-9.533493041992188
1.7294929283037176e+18,-0.0453663244843483,0.014650648459792137,-9.542710304260254
1.7294929283127178e+18,-0.021069727838039398,0.006048262119293213,-9.55180835723877
1.729492928321718e+18,0.08140242099761963,-0.04799962788820267,-9.429330825805664
1.7294929283277181e+18,-0.03372889384627342,-0.07792242616415024,-9.501191139221191
1.7294929283367183e+18,0.0072160265408456326,0.07007210701704025,-9.514344215393066
1.7294929283427185e+18,0.061940666288137436,0.005747430957853794,-9.603937149047852
1.7294929283517187e+18,0.008365248329937458,0.0701647624373436,-9.497335433959961
1.7294929283607188e+18,0.0062941573560237885,0.056895770132541656,-9.468194961547852
1.729492928366719e+18,-0.07925054430961609,-0.04383092373609543,-9.474344253540039
1.7294929283757192e+18,-0.03277741000056267,0.04915468394756317,-9.492304801940918
1.7294929283847194e+18,-0.09202946722507477,-0.01137369405478239,-9.455415725708008
1.7294929283937196e+18,-0.005597629118710756,0.01380847580730915,-9.425677299499512
1.7294929283997197e+18,-0.025350768119096756,0.043975792825222015,-9.463569641113281
1.72949292840872e+18,-0.024094469845294952,0.06747189909219742,-9.47800064086914
1.72949292841772e+18,0.05617442727088928,-0.03892688825726509,-9.425925254821777
1.7294929284237202e+18,0.05954403802752495,0.03140649572014809,-9.442867279052734
1.7294929284327204e+18,0.01065867580473423,0.03391226381063461,-9.4323091506958
1.7294929284417206e+18,-0.02911076508462429,0.02450854703783989,-9.514376640319824
1.7294929284477207e+18,0.11513130366802216,-0.03928858041763306,-9.535950660705566
1.729492928456721e+18,-0.0036279752384871244,-0.02343311905860901,-9.464273452758789
1.729492928465721e+18,0.05846342444419861,0.10276148468255997,-9.468400955200195
1.7294929284717212e+18,0.045437417924404144,0.09660222381353378,-9.49339485168457
1.7294929284807214e+18,0.014704732224345207,-0.048745047301054,-9.520723342895508
1.7294929284867215e+18,0.03856801614165306,0.014189672656357288,-9.416444778442383
1.7294929284957217e+18,0.037227414548397064,-0.022888675332069397,-9.503331184387207
1.7294929285017219e+18,0.04390760138630867,0.006229347083717585,-9.434330940246582
1.729492928510722e+18,-0.009830569848418236,-0.027725322172045708,-9.52430534362793
1.7294929285167222e+18,-0.05828801169991493,0.009788192808628082,-9.426763534545898
1.7294929285257224e+18,-0.06392437219619751,-0.059283800423145294,-9.499470710754395
1.7294929285317225e+18,0.03924202173948288,-0.08487209677696228,-9.358838081359863
1.7294929285407227e+18,0.054147109389305115,0.016210023313760757,-9.48747444152832
1.729492928549723e+18,0.014614836312830448,0.09077581763267517,-9.45167064666748
1.729492928555723e+18,-0.01229074690490961,0.0013836193829774857,-9.397599220275879
1.7294929285647232e+18,-0.020171910524368286,0.10258329659700394,-9.455894470214844
1.7294929285737234e+18,-0.0010756743140518665,0.02796974778175354,-9.454583168029785
1.7294929285797235e+18,0.035857345908880234,0.032107822597026825,-9.479389190673828
1.7294929285887237e+18,0.04350908473134041,-0.10588055104017258,-9.427229881286621
1.729492928597724e+18,0.019155770540237427,0.04503956064581871,-9.426297187805176
1.729492928603724e+18,-0.10955063253641129,0.007127332501113415,-9.413898468017578
1.7294929286127242e+18,0.0014317994937300682,-0.05310608074069023,-9.39799690246582
1.7294929286187244e+18,-0.028671173378825188,-0.01086138654500246,-9.414029121398926
1.7294929286277245e+18,0.13645422458648682,-0.00037770072231069207,-9.487510681152344
1.7294929286367247e+18,-0.03310510516166687,0.007360134273767471,-9.430407524108887
1.7294929286427249e+18,-0.07659363746643066,-0.012149334885179996,-9.518131256103516
1.729492928651725e+18,-0.031139085069298744,-0.05943518877029419,-9.441418647766113
1.7294929286577252e+18,0.024894917383790016,-0.03654308617115021,-9.501239776611328
1.7294929286697254e+18,-0.14407885074615479,0.003016420640051365,-9.498368263244629
1.7294929286757256e+18,-0.12502920627593994,0.029376564547419548,-9.439085960388184
1.7294929286847258e+18,0.03544492647051811,0.08577875047922134,-9.435237884521484
1.729492928693726e+18,-0.07701653242111206,-0.022288933396339417,-9.513236045837402
1.729492928699726e+18,0.04779590293765068,-0.037942107766866684,-9.423930168151855
1.7294929287087263e+18,0.024777695536613464,-0.033109989017248154,-9.418696403503418
1.7294929287177265e+18,-0.02761385217308998,-0.025060666725039482,-9.44515323638916
1.7294929287237266e+18,-0.060488373041152954,0.0539836585521698,-9.492484092712402
1.7294929287327268e+18,-0.006327775772660971,-0.0246804840862751,-9.403549194335938
1.729492928738727e+18,-0.03288506343960762,-0.005902348086237907,-9.441225051879883
1.729492928747727e+18,-0.05518976226449013,-0.024045418947935104,-9.413524627685547
1.7294929287597274e+18,0.013123848475515842,0.014036963693797588,-9.461538314819336
1.7294929287717276e+18,-0.03270259127020836,-0.0700518861413002,-9.458778381347656
1.7294929287837279e+18,0.055642399936914444,-0.010081018321216106,-9.415474891662598
1.729492928789728e+18,-0.001038998831063509,-0.01324782520532608,-9.404722213745117
1.7294929287987282e+18,0.05255890265107155,-0.0534212626516819,-9.417637825012207
1.7294929288047283e+18,-0.029882945120334625,-0.0023241506423801184,-9.338309288024902
1.7294929288137285e+18,0.001342671806924045,-0.03316805511713028,-9.397059440612793
1.7294929288227287e+18,-0.02228311263024807,-0.05398694425821304,-9.230019569396973
1.7294929288287288e+18,-0.04252785071730614,0.000795939820818603,-9.2439603805542
1.729492928837729e+18,0.055733371526002884,-0.07111098617315292,-9.28459358215332
1.7294929288437292e+18,0.07283680140972137,0.05462842062115669,-9.315206527709961
1.7294929288527293e+18,-0.034728266298770905,0.041538286954164505,-9.210890769958496
1.7294929288617295e+18,-0.0061362795531749725,0.037360068410634995,-9.175248146057129
1.7294929288677297e+18,0.03717426955699921,-0.03643973171710968,-9.155876159667969
1.7294929288767299e+18,-0.09501182287931442,0.07175394147634506,-9.123230934143066
1.72949292888573e+18,0.054205749183893204,0.028601445257663727,-9.113371849060059
1.7294929288917302e+18,-0.005681398790329695,-0.03124633990228176,-9.045090675354004
1.7294929289007304e+18,-0.06610462814569473,0.005896476097404957,-9.097513198852539
1.7294929289067305e+18,-0.08216245472431183,-0.03808094933629036,-9.077969551086426
1.7294929289157307e+18,0.007669469341635704,-0.016767246648669243,-8.996082305908203
1.7294929289217308e+18,0.07834023237228394,0.020495882257819176,-9.031471252441406
1.729492928930731e+18,0.014721190556883812,-0.00890552718192339,-9.059921264648438
1.7294929289367311e+18,0.03089725412428379,-0.061221130192279816,-8.972023010253906
1.7294929289457313e+18,-0.030810648575425148,-0.02835705876350403,-8.904972076416016
1.7294929289547315e+18,-0.05059070140123367,0.03358384221792221,-8.942113876342773
1.7294929289607316e+18,-0.06612903624773026,0.06725292652845383,-8.92924690246582
1.7294929289697318e+18,0.048319607973098755,0.0175345316529274,-8.796954154968262
1.729492928975732e+18,-0.014283750206232071,0.00837593525648117,-8.850698471069336
1.7294929289847322e+18,-0.035401660948991776,-0.03361881151795387,-8.741168975830078
1.7294929289907323e+18,-0.09329471737146378,0.028647206723690033,-8.802742958068848
1.7294929289997325e+18,-0.026930930092930794,0.05548223480582237,-8.809782981872559
1.7294929290057326e+18,0.04697225242853165,-0.07609257102012634,-8.69388198852539
1.7294929290147328e+18,0.013972219079732895,0.058803990483284,-8.757156372070312
1.729492929023733e+18,-0.01588769629597664,-0.03161000832915306,-8.696832656860352
1.7294929290327332e+18,-0.012900164350867271,0.04287812113761902,-8.561955451965332
1.7294929290387333e+18,0.022664401680231094,-0.04672706872224808,-8.659937858581543
1.7294929290477335e+18,-0.063234843313694,0.08879173547029495,-8.636556625366211
1.7294929290567337e+18,-0.013872524723410606,-0.005786257795989513,-8.622635841369629
1.7294929290627338e+18,0.08283749222755432,0.08828543871641159,-8.60607624053955
1.729492929071734e+18,0.046066928654909134,0.025960417464375496,-8.604790687561035
1.7294929290807342e+18,-0.009107481688261032,-0.01986270770430565,-8.69804859161377
1.7294929290867343e+18,0.005551463924348354,0.011759039014577866,-8.670570373535156
1.7294929290957345e+18,0.036738574504852295,0.00978635624051094,-8.697484970092773
1.7294929291047347e+18,0.047953810542821884,-0.006404069252312183,-8.734577178955078
1.7294929291107348e+18,-0.02783907949924469,-0.020228106528520584,-8.728203773498535
1.729492929119735e+18,-0.0480460487306118,0.02561470866203308,-8.711272239685059
1.7294929291257352e+18,0.03878980875015259,0.03263863921165466,-8.733574867248535
1.7294929291347354e+18,0.013189053162932396,-0.017096295952796936,-8.784833908081055
1.7294929291437356e+18,-0.032332636415958405,0.007359222508966923,-8.854127883911133
1.7294929291497357e+18,-0.01713479310274124,-0.029926374554634094,-8.731542587280273
1.729492929158736e+18,0.05025648698210716,-0.01865547150373459,-8.795153617858887
1.729492929167736e+18,-0.02158929407596588,-0.03999613970518112,-8.84389591217041
1.7294929291737362e+18,-0.007726733572781086,0.08548302948474884,-8.803059577941895
1.7294929291827364e+18,0.0004278280248399824,-0.03412653133273125,-8.912708282470703
1.7294929291917366e+18,-0.004933114163577557,0.0025070675183087587,-8.800769805908203
1.7294929292007368e+18,-0.01406647078692913,-0.052179280668497086,-8.872663497924805
1.729492929206737e+18,0.019208401441574097,0.04993667080998421,-8.864089012145996
1.7294929292187372e+18,0.060154370963573456,-0.02251673862338066,-8.914928436279297
1.7294929292277373e+18,0.031341128051280975,-0.030490243807435036,-8.898555755615234
1.7294929292367375e+18,-0.04426994547247887,-0.016353219747543335,-8.902812957763672
1.7294929292487378e+18,0.01290687546133995,-0.02650352567434311,-15.470441818237305
1.729492929254738e+18,-0.08491465449333191,-0.0305158831179142,-15.895278930664062
1.729492929263738e+18,-0.030200248584151268,-0.049527883529663086,-16.080263137817383
1.7294929292727383e+18,-0.0691746324300766,0.05122930929064751,-16.265323638916016
1.7294929292817385e+18,-0.08539918065071106,-0.11300686001777649,-16.266870498657227
1.7294929292877386e+18,-0.018344394862651825,-0.05909780412912369,-16.165725708007812
1.7294929292967388e+18,-0.06741667538881302,0.024300608783960342,-16.184959411621094
1.729492929302739e+18,0.05758805200457573,0.010126021690666676,-16.109018325805664
1.7294929293117391e+18,0.01993390917778015,-0.005548002198338509,-16.09212303161621
1.7294929293207393e+18,0.007894766516983509,0.02442064881324768,-15.863998413085938
1.7294929293267395e+18,0.043210819363594055,0.002353077055886388,-15.83592414855957
1.7294929293357396e+18,-0.029814843088388443,0.031143486499786377,-15.626172065734863
1.7294929293417398e+18,0.09604790061712265,0.09799715876579285,-15.54517936706543
1.72949292935074e+18,-0.017239175736904144,0.046461183577775955,-15.341253280639648
1.7294929293597402e+18,0.041717275977134705,-0.009001357480883598,-15.20854663848877
1.7294929293657403e+18,-0.032349810004234314,0.014768445864319801,-15.164769172668457
1.7294929293747405e+18,-0.01662515103816986,0.0017706877551972866,-15.033133506774902
1.7294929293837407e+18,0.016971372067928314,0.02139456570148468,-14.873909950256348
1.7294929293927409e+18,0.01771755889058113,-0.011256514117121696,-14.86913013458252
1.729492929398741e+18,-0.019314177334308624,-0.016419555991888046,-14.689529418945312
1.7294929294077412e+18,-0.06417537480592728,-0.10637491941452026,-14.629803657531738
1.7294929294137413e+18,-0.021011248230934143,0.018224846571683884,-14.572833061218262
1.7294929294227415e+18,-0.032165415585041046,0.011995968408882618,-14.457254409790039
1.7294929294317417e+18,0.03907003253698349,0.009711245074868202,-14.44734001159668
1.7294929294377418e+18,-0.03567644581198692,-0.010016048327088356,-14.204659461975098
1.729492929446742e+18,-0.08370082825422287,0.05374504253268242,-14.200570106506348
1.7294929294557422e+18,-0.007778866682201624,-0.06235969811677933,-14.042167663574219
1.7294929294617423e+18,-0.01159488596022129,-0.04316768795251846,-13.962787628173828
1.7294929294707425e+18,0.025271251797676086,0.008917443454265594,-13.795592308044434
1.7294929294797427e+18,0.007003386504948139,0.010271413251757622,-13.738428115844727
1.7294929294857428e+18,-0.011002419516444206,0.033600687980651855,-13.702796936035156
1.729492929494743e+18,0.017965001985430717,-0.019032305106520653,-13.550621032714844
1.7294929295037432e+18,-0.0849187895655632,0.03850556164979935,-13.627509117126465
1.7294929295097434e+18,0.05438554659485817,0.06472499668598175,-13.478521347045898
1.7294929295187436e+18,0.03827555850148201,0.00978640466928482,-13.325956344604492
1.7294929295247437e+18,0.04560226947069168,0.014472813345491886,-13.339719772338867
1.729492929536744e+18,-0.029838044196367264,0.021726449951529503,-13.26679515838623
1.729492929542744e+18,0.010233012959361076,-0.009222698397934437,-13.118356704711914
1.7294929295517443e+18,0.015705615282058716,0.026756666600704193,-13.035700798034668
1.7294929295607444e+18,0.009476904757320881,-0.009693602100014687,-12.994124412536621
1.7294929295667446e+18,-0.019352683797478676,0.0012122711632400751,-12.918163299560547
1.7294929295757448e+18,0.020945830270648003,-0.018513616174459457,-12.907838821411133
1.729492929584745e+18,0.026781868189573288,0.12010467797517776,-12.835460662841797
1.729492929590745e+18,0.06865216791629791,0.035313088446855545,-12.836127281188965
1.7294929295997453e+18,-0.06054956465959549,0.010280422866344452,-12.688141822814941
1.7294929296057454e+18,0.074033722281456,-0.014429681934416294,-12.626474380493164
1.7294929296147456e+18,-0.018497871235013008,0.017668092623353004,-12.552560806274414
1.7294929296207457e+18,0.05495884269475937,0.04396720230579376,-12.453601837158203
1.729492929629746e+18,-0.0007941711228340864,0.03706293925642967,-12.449763298034668
1.729492929638746e+18,-0.050125982612371445,-0.055402226746082306,-12.422412872314453
1.7294929296447462e+18,-0.007559717632830143,0.0007235838565975428,-12.383943557739258
1.7294929296537464e+18,-0.03822490572929382,0.014787469059228897,-12.380453109741211
1.7294929296627466e+18,-0.10760742425918579,0.00897798128426075,-12.19737434387207
1.7294929296717468e+18,-0.02312767505645752,0.014367223717272282,-12.106003761291504
1.729492929683747e+18,-0.03832843899726868,-0.03164134919643402,-12.243886947631836
1.7294929296927473e+18,-0.022704852744936943,0.02095917798578739,-12.092906951904297
1.7294929297017475e+18,0.05772416666150093,0.0014051728649064898,-11.955554008483887
1.7294929297077476e+18,-0.01388736255466938,-0.023984646424651146,-12.03097152709961
1.7294929297167478e+18,-0.04507553204894066,0.07133636623620987,-12.015260696411133
1.729492929725748e+18,-0.018394935876131058,-0.06899844855070114,-11.916172981262207
1.729492929731748e+18,-0.01153545267879963,0.03565578907728195,-11.90326976776123
1.7294929297407483e+18,-0.02107488363981247,0.008366508409380913,-11.855653762817383
1.7294929297497485e+18,-0.056784737855196,-0.04928970709443092,-11.71275806427002
1.7294929297557486e+18,0.0654967650771141,0.04352496936917305,-11.705122947692871
1.7294929297647488e+18,-0.007168459706008434,-0.011036276817321777,-11.701251983642578
1.729492929773749e+18,0.010739216580986977,-0.0757002979516983,-11.653152465820312
1.729492929779749e+18,-0.042769018560647964,0.05440247058868408,-11.619091033935547
1.7294929297917494e+18,-0.06783858686685562,-0.029276296496391296,-11.649781227111816
1.7294929298007496e+18,-0.025170736014842987,0.014155523851513863,-11.55012035369873
1.7294929298097498e+18,0.003984557930380106,0.01786866784095764,-11.454804420471191
1.72949292981575e+18,0.022307071834802628,-0.004324606154114008,-11.598203659057617
1.72949292982475e+18,-0.013425297103822231,0.05163209140300751,-11.406015396118164
1.7294929298337503e+18,0.03276951611042023,-0.019692806527018547,-11.379267692565918
1.7294929298397504e+18,-0.02315228432416916,0.03792250156402588,-11.347675323486328
1.7294929298487506e+18,0.03835834935307503,-0.01886182464659214,-11.486538887023926
1.7294929298577508e+18,0.04287536442279816,-0.024218831211328506,-11.372045516967773
1.729492929863751e+18,0.029880525544285774,-0.02988123893737793,-11.343979835510254
1.729492929872751e+18,0.03017028048634529,0.08251174539327621,-11.260562896728516
1.7294929298817513e+18,-0.04341910779476166,-0.06269630789756775,-11.233152389526367
1.7294929298877514e+18,-0.012616565451025963,-0.06636396795511246,-11.20482063293457
1.7294929298967516e+18,0.053689755499362946,-0.013912137597799301,-11.164813041687012
1.7294929299057518e+18,0.01578083261847496,-0.046555619686841965,-11.232125282287598
1.729492929911752e+18,0.02279687486588955,-0.05073876306414604,-11.144350051879883
1.729492929920752e+18,0.006347563583403826,-0.07849270105361938,-11.13818359375
1.7294929299297523e+18,0.03470556065440178,-0.043726373463869095,-11.158905982971191
1.7294929299357524e+18,-0.017662953585386276,-0.04929204285144806,-11.047067642211914
1.7294929299447526e+18,-0.02028816007077694,0.03038608282804489,-11.03745174407959
1.7294929299537528e+18,0.03538374602794647,0.11479531228542328,-11.090852737426758
1.729492929959753e+18,-0.003997657913714647,0.029492080211639404,-10.906538963317871
1.7294929299687532e+18,0.06110040098428726,0.04841658100485802,-10.996143341064453
1.7294929299777533e+18,0.0595671683549881,0.05141216516494751,-10.990772247314453
1.7294929299837535e+18,-0.044508177787065506,0.01776948571205139,-10.958621978759766
1.7294929299927537e+18,-0.04428739473223686,-0.06010141223669052,-10.849872589111328
1.7294929300017539e+18,0.013468642719089985,-0.025438252836465836,-10.923998832702637
1.729492930007754e+18,0.026319313794374466,-0.03597693145275116,-10.87316608428955
1.7294929300167542e+18,-0.0037343157455325127,-0.05131719633936882,-10.95755672454834
1.7294929300257544e+18,-0.00967786367982626,-0.061205849051475525,-10.848838806152344
1.7294929300317545e+18,0.0008421676466241479,-0.06632627546787262,-10.840333938598633
1.7294929300407547e+18,0.0035101647954434156,0.011843211948871613,-10.66690731048584
1.729492930049755e+18,-0.025643613189458847,-0.02564615197479725,-10.837565422058105
1.729492930058755e+18,0.11490993946790695,-0.04425462335348129,-10.86655044555664
1.7294929300647552e+18,-0.04128032550215721,-0.016244083642959595,-10.726736068725586
1.7294929300737554e+18,-0.025268234312534332,-0.040480419993400574,-10.71926498413086
1.7294929300827556e+18,-0.034956194460392,-0.0017831196309998631,-10.70062255859375
1.7294929300887557e+18,-0.042633406817913055,-0.024226833134889603,-10.68592643737793
1.729492930097756e+18,0.02754141017794609,-0.008778381161391735,-10.581024169921875
1.729492930103756e+18,-0.012117628008127213,0.0073513370007276535,-10.632594108581543
1.7294929301127562e+18,0.04293890297412872,0.03071601316332817,-10.551351547241211
1.7294929301217564e+18,0.008723754435777664,0.053175996989011765,-10.608745574951172
1.7294929301277565e+18,0.004810607060790062,0.05909932404756546,-10.566758155822754
1.7294929301367567e+18,0.025374270975589752,-0.03558671474456787,-10.597553253173828
1.729492930145757e+18,-0.018014099448919296,-0.055986519902944565,-10.631460189819336
1.729492930151757e+18,0.034379929304122925,0.003064289689064026,-10.535676956176758
1.7294929301607572e+18,-0.002084758598357439,0.010841921903192997,-10.547051429748535
1.7294929301667574e+18,0.048772089183330536,0.06933698803186417,-10.57929515838623
1.7294929301757576e+18,-0.0250575989484787,-0.043277110904455185,-10.423745155334473
1.7294929301847578e+18,0.058467164635658264,-0.02908017672598362,-10.496270179748535
1.729492930193758e+18,0.0926082581281662,-0.008939291350543499,-10.450566291809082
1.729492930199758e+18,-0.027969354763627052,0.00927638914436102,-10.469481468200684
1.7294929302087583e+18,0.029561292380094528,-0.06095876544713974,-10.426814079284668
1.7294929302147584e+18,-0.04636000096797943,0.003239705692976713,-10.438178062438965
1.7294929302237586e+18,-0.013863546773791313,-0.048646096140146255,-10.446632385253906
1.7294929302327588e+18,-0.002746719866991043,-0.07437772303819656,-10.416227340698242
1.729492930238759e+18,0.023953385651111603,-0.04841142147779465,-10.333266258239746
1.729492930247759e+18,0.05743284896016121,-0.0026529415044933558,-10.487432479858398
1.7294929302567593e+18,0.03240227326750755,0.0018471402581781149,-10.306661605834961
1.7294929302657595e+18,-0.0396605059504509,-0.03649979084730148,-10.348793029785156
1.7294929302747597e+18,0.018857529386878014,-0.018216315656900406,-10.38732624053955
1.7294929302837599e+18,0.006271388381719589,0.04588843137025833,-10.351572036743164
1.72949293029276e+18,-0.0008090035989880562,0.0727413147687912,-10.238736152648926
1.7294929302987602e+18,-0.028300141915678978,-0.07948881387710571,-10.267220497131348
1.7294929303077604e+18,-0.020357215777039528,0.013114850968122482,-10.242451667785645
1.7294929303137605e+18,0.014320360496640205,-0.003594358451664448,-10.307807922363281
1.7294929303227607e+18,-0.051248516887426376,0.03463909402489662,-10.260071754455566
1.7294929303287608e+18,0.04286029189825058,-0.027277711778879166,-10.237823486328125
1.729492930337761e+18,0.05829614773392677,0.052043184638023376,-10.194878578186035
1.7294929303467612e+18,-0.05311304330825806,0.009662674739956856,-10.311511993408203
1.7294929303527613e+18,-0.0012268146965652704,-0.024816766381263733,-10.202052116394043
1.7294929303617615e+18,0.03528048098087311,-0.03730330243706703,-10.161572456359863
1.7294929303677617e+18,-0.0186118446290493,0.025436313822865486,-10.18570613861084
1.7294929303767619e+18,0.03829360753297806,0.012784985825419426,-10.183554649353027
1.729492930385762e+18,0.023152707144618034,0.04113234579563141,-10.14831829071045
1.7294929303947622e+18,0.011921829544007778,0.016614653170108795,-10.133369445800781
1.7294929304007624e+18,0.031988419592380524,7.23924022167921e-05,-10.077615737915039
1.7294929304097626e+18,0.007099684327840805,-0.05824869126081467,-10.107357025146484
1.7294929304157627e+18,-0.03766898065805435,-0.007827757857739925,-10.132046699523926
1.729492930424763e+18,0.029600391164422035,-0.0036503346636891365,-10.212677001953125
1.729492930433763e+18,0.007956983521580696,0.08061136305332184,-10.162091255187988
1.7294929304397632e+18,0.08238755166530609,-0.014586573466658592,-10.123082160949707
1.7294929304487634e+18,-0.03925900161266327,-0.028936922550201416,-10.138175964355469
1.7294929304577636e+18,-0.013409940525889397,-0.015393296256661415,-10.031853675842285
1.7294929304637637e+18,-0.006987455300986767,0.02495403215289116,-10.16923999786377
1.729492930472764e+18,0.003724518697708845,-0.10548071563243866,-10.038914680480957
1.729492930481764e+18,-0.0959385558962822,-0.013058377429842949,-10.053881645202637
1.7294929304877642e+18,-0.024736154824495316,0.020551461726427078,-10.053699493408203
1.7294929304967644e+18,0.059796735644340515,0.03228113055229187,-10.113447189331055
1.7294929305057646e+18,0.008092638105154037,-0.05288907513022423,-10.023921966552734
1.7294929305117647e+18,-0.03682132810354233,0.03331412747502327,-10.049971580505371
1.729492930520765e+18,0.010717594064772129,0.06949568539857864,-10.063701629638672
1.729492930526765e+18,-0.01293672900646925,-0.015124156139791012,-10.066871643066406
1.7294929305357652e+18,-0.010764019563794136,0.00035479082725942135,-10.0079984664917
1.7294929305447654e+18,0.0314033180475235,0.04320400208234787,-10.066104888916016
1.7294929305537656e+18,0.03373423218727112,-0.04438139498233795,-10.088289260864258
1.7294929305597658e+18,0.007139711640775204,0.03586433082818985,-10.03575325012207
1.729492930568766e+18,-0.08513634651899338,0.03406114503741264,-9.98931884765625
1.7294929305777661e+18,0.01749412901699543,-0.01072777435183525,-9.974336624145508
1.7294929305867663e+18,0.002763917902484536,0.026112478226423264,-9.970454216003418
1.7294929305927665e+18,0.039680350571870804,-0.07193899154663086,-9.97354793548584
1.7294929306017667e+18,0.02519175037741661,-0.017264749854803085,-9.904037475585938
1.7294929306107668e+18,-0.02772514894604683,-0.015693701803684235,-9.982184410095215
1.729492930616767e+18,0.02171909809112549,0.07107701897621155,-9.897025108337402
1.7294929306257672e+18,0.03234842047095299,0.01869940757751465,-9.933992385864258
1.7294929306317673e+18,0.046325985342264175,0.03982675448060036,-9.93094253540039
1.7294929306407675e+18,0.019893834367394447,-0.06115049868822098,-9.893900871276855
1.7294929306497677e+18,0.12002906203269958,0.008994057774543762,-9.982282638549805
1.7294929306557678e+18,0.09977831691503525,0.036946892738342285,-9.849542617797852
1.729492930664768e+18,-0.07470531016588211,-0.03443477675318718,-10.007081985473633
1.7294929306737682e+18,0.06468183547258377,-0.017255490645766258,-10.01157283782959
1.7294929306797683e+18,0.05470290035009384,-0.0055042109452188015,-10.002663612365723
1.7294929306887685e+18,0.01889616996049881,0.07930529862642288,-9.93933391571045
1.7294929306977687e+18,-0.007513193413615227,0.005585800390690565,-9.921114921569824
1.7294929307037688e+18,0.061855245381593704,0.03206561505794525,-9.866046905517578
1.729492930712769e+18,-0.031447649002075195,-0.05186913162469864,-9.91476058959961
1.7294929307187692e+18,-0.0030689581762999296,-0.04768732190132141,-9.889854431152344
1.7294929307277693e+18,-0.08106647431850433,0.10874032974243164,-9.930179595947266
1.7294929307367695e+18,-0.05195284262299538,-0.010867251083254814,-9.847809791564941
1.7294929307487698e+18,-0.0034251646138727665,-0.0006849111523479223,-9.821097373962402
1.72949293076077e+18,-0.019965000450611115,0.027387531474232674,-9.896242141723633
1.7294929307667702e+18,-0.007955814711749554,-0.005355621222406626,-9.922140121459961
1.7294929307757704e+18,-0.031597793102264404,0.058268673717975616,-9.81660270690918
1.7294929307847706e+18,0.06589721143245697,-0.03321075439453125,-9.8371000289917
1.7294929307937708e+18,-0.04043181240558624,-0.032499074935913086,-9.859766960144043
1.729492930802771e+18,-0.04112543165683746,-0.028676742687821388,-9.902505874633789
1.7294929308147712e+18,-0.03666652739048004,0.020106256008148193,-9.858768463134766
1.7294929308207713e+18,0.017710713669657707,-0.004301832057535648,-9.87163257598877
1.7294929308327716e+18,-0.004225593060255051,-0.052685558795928955,-9.797440528869629
1.7294929308417718e+18,-0.010542051866650581,0.04239610582590103,-9.846677780151367
1.729492930850772e+18,0.06820621341466904,0.04225320369005203,-9.860655784606934
1.729492930856772e+18,0.024931665509939194,-0.06679560989141464,-9.841008186340332
1.7294929308657723e+18,0.01010669581592083,-0.05105910450220108,-9.77100944519043
1.7294929308747725e+18,0.008669285103678703,-0.0540439672768116,-9.82247257232666
1.7294929308807726e+18,0.009519457817077637,0.07022945582866669,-9.902668952941895
1.7294929308927729e+18,-0.003444855334237218,0.04812411218881607,-9.88733959197998
1.729492930898773e+18,0.06606286764144897,-0.015184292569756508,-9.807195663452148
1.7294929309077732e+18,0.020722031593322754,-0.014076506718993187,-9.766502380371094
1.7294929309137733e+18,-0.04022224247455597,-0.015803562477231026,-9.825901985168457
1.7294929309227735e+18,0.0704827681183815,0.030336812138557434,-9.857702255249023
1.7294929309317737e+18,-0.032158564776182175,0.05188998579978943,-9.820874214172363
1.7294929309377738e+18,-0.07122472673654556,0.04746720567345619,-9.824271202087402
1.729492930946774e+18,-0.025985032320022583,-0.04405863210558891,-9.81671142578125
1.7294929309557742e+18,-0.04235829412937164,0.009331606328487396,-9.806912422180176
1.7294929309617743e+18,-0.07405918091535568,0.01266816258430481,-9.842126846313477
1.7294929309707745e+18,0.0389922559261322,0.08062180131673813,-9.786727905273438
1.7294929309797747e+18,0.02517319656908512,-0.054842013865709305,-9.806695938110352
1.729492930988775e+18,-0.06745543330907822,-0.007066372781991959,-9.832967758178711
1.729492930994775e+18,-0.013434535823762417,0.09759578108787537,-9.753898620605469
1.7294929310037752e+18,0.054228831082582474,-0.00589332589879632,-9.705948829650879
1.7294929310127754e+18,-0.026940882205963135,-0.03250754997134209,-9.836881637573242
1.7294929310217756e+18,0.040510144084692,-0.027481596916913986,-9.757198333740234
1.7294929310277757e+18,-0.023919977247714996,-0.03438191115856171,-9.737215995788574
1.729492931036776e+18,-0.04097803682088852,-0.03831661865115166,-9.8114013671875
1.729492931042776e+18,0.0010459538316354156,0.022530920803546906,-9.808418273925781
1.7294929310517763e+18,0.012359478510916233,-0.02847020886838436,-9.78261661529541
1.7294929310607764e+18,-0.024999013170599937,0.010204548016190529,-9.718266487121582
1.7294929310667766e+18,0.006241543218493462,0.024528149515390396,-9.756813049316406
1.7294929310757768e+18,0.012559603899717331,-0.08494648337364197,-9.742541313171387
1.729492931084777e+18,0.04464944452047348,0.03690096363425255,-9.766902923583984
1.7294929310937772e+18,0.006036902777850628,-0.0901099294424057,-9.766517639160156
1.7294929311027773e+18,0.02553132176399231,0.061767205595970154,-9.813658714294434
1.7294929311087775e+18,-0.029461536556482315,0.11044792830944061,-9.771147727966309
1.7294929311177777e+18,0.013903104700148106,0.027086060494184494,-9.757022857666016
1.7294929311267779e+18,-0.050580598413944244,-0.017133064568042755,-9.802380561828613
1.729492931135778e+18,0.026370711624622345,-0.03336597979068756,-9.714734077453613
1.7294929311447782e+18,-0.004205616656690836,-0.04286636784672737,-9.723769187927246
1.7294929311507784e+18,0.014216362498700619,0.0316716730594635,-9.736516952514648
1.7294929311597786e+18,-0.0651792585849762,0.019837506115436554,-9.768611907958984
1.7294929311687788e+18,-0.01957346312701702,0.013903697952628136,-9.740236282348633
1.729492931177779e+18,0.03777068108320236,0.011694504879415035,-9.750149726867676
1.7294929311867791e+18,0.017394443973898888,0.02628476731479168,-9.779031753540039
1.7294929311957793e+18,0.09933915734291077,-0.0068764290772378445,-9.777433395385742
1.7294929312017795e+18,-0.035543836653232574,-0.015180709771811962,-9.750553131103516
1.7294929312107796e+18,-0.0771554633975029,-0.003019442781805992,-9.696573257446289
1.7294929312197798e+18,0.09559980034828186,-0.1026131808757782,-9.77324104309082
1.72949293122578e+18,-0.020910492166876793,0.043064966797828674,-9.815513610839844
1.7294929312347802e+18,-0.03173234313726425,-0.03361109271645546,-9.667559623718262
1.7294929312437804e+18,0.021195638924837112,0.08666431903839111,-9.827472686767578
1.7294929312527805e+18,-0.029019081965088844,-0.020200248807668686,-9.790629386901855
1.7294929312587807e+18,-0.06710947304964066,0.009368767030537128,-9.770288467407227
1.7294929312677809e+18,0.014412474818527699,-0.06555403769016266,-9.681755065917969
1.729492931276781e+18,-0.08045746386051178,0.04037833958864212,-9.767578125
1.7294929312857812e+18,-0.019707433879375458,0.016671568155288696,-9.833125114440918
1.7294929312917814e+18,0.02080446481704712,-0.07661085575819016,-9.840611457824707
1.7294929313007816e+18,-0.0946364551782608,-0.01718786172568798,-9.789005279541016
1.7294929313097818e+18,-0.023367516696453094,-0.04747360199689865,-9.779012680053711
1.729492931318782e+18,-0.023000288754701614,-0.016042254865169525,-9.888854026794434
1.729492931324782e+18,-0.0957743227481842,-0.08736177533864975,-9.919236183166504
1.7294929313337823e+18,-0.0818372368812561,0.06543408334255219,-9.851513862609863
1.7294929313427825e+18,0.02300574630498886,0.06503724306821823,-9.756034851074219
1.7294929313517827e+18,0.025595229119062424,-0.019657272845506668,-9.785245895385742
1.7294929313607828e+18,0.04809156805276871,-0.036802101880311966,-9.792567253112793
1.729492931369783e+18,0.050686657428741455,0.0042479210533201694,-9.766938209533691
1.7294929313757832e+18,-0.002069148002192378,-0.054579004645347595,-9.795472145080566
1.7294929313847834e+18,0.0033104519825428724,0.013320269994437695,-9.78497314453125
1.7294929313937836e+18,0.10511501133441925,0.031263213604688644,-9.728425025939941
1.7294929314027837e+18,0.009164039045572281,-0.008268045261502266,-9.78900146484375
1.729492931411784e+18,-0.056722480803728104,0.0038522230461239815,-9.770403861999512
1.729492931417784e+18,-0.006668523419648409,-0.12328938394784927,-9.746294021606445
1.7294929314267843e+18,-0.04511326551437378,-0.0014330699341371655,-9.847113609313965
1.7294929314357844e+18,0.02316955476999283,-0.019304731860756874,-9.778374671936035
1.7294929314447846e+18,0.029894152656197548,0.023447439074516296,-9.729140281677246
1.7294929314507848e+18,0.04672473669052124,-0.026916764676570892,-9.744665145874023
1.729492931459785e+18,0.04262171685695648,-0.06720052659511566,-9.725008010864258
1.7294929314687852e+18,0.014569556340575218,0.058975785970687866,-9.839184761047363
1.7294929314777853e+18,-0.06754346936941147,-0.05156458914279938,-9.674034118652344
1.7294929314837855e+18,0.075627900660038,0.0842810645699501,-9.764525413513184
1.7294929314927857e+18,-0.004229320213198662,-0.008567633107304573,-9.74341106414795
1.7294929315017859e+18,-0.006447748746722937,0.048635415732860565,-9.84563159942627
1.729492931507786e+18,0.03682749718427658,-0.00850575789809227,-9.668246269226074
1.7294929315167862e+18,0.05173700302839279,0.048609811812639236,-9.776435852050781
1.7294929315257864e+18,0.07167913764715195,0.017034195363521576,-9.794129371643066
1.7294929315317865e+18,-0.04948051646351814,-0.04781221225857735,-9.739026069641113
1.7294929315407867e+18,0.005946028511971235,-0.03753858804702759,-9.74677562713623
1.729492931549787e+18,-0.0712108165025711,-0.012381060048937798,-9.798453330993652
1.729492931555787e+18,0.04784122109413147,-0.050601184368133545,-9.81589412689209
1.7294929315647872e+18,0.006287513766437769,-0.026811353862285614,-9.621562004089355
1.7294929315737874e+18,0.02223450131714344,-0.013896314427256584,-9.677005767822266
1.7294929315797875e+18,-0.003913900349289179,0.027546122670173645,-9.732075691223145
1.7294929315887877e+18,-0.03617139905691147,0.031672749668359756,-9.720928192138672
1.729492931597788e+18,-0.038661807775497437,0.06723292917013168,-9.7846040725708
1.729492931603788e+18,0.0020855707116425037,-0.05897391960024834,-9.82535171508789
1.7294929316127882e+18,0.037287913262844086,-0.024926476180553436,-9.72922420501709
1.7294929316187884e+18,-0.000659898214507848,-0.043735042214393616,-9.711874961853027
1.7294929316277885e+18,0.03315940126776695,0.04651118442416191,-9.764832496643066
1.7294929316367887e+18,-0.011149059049785137,-0.015833541750907898,-9.78339672088623
1.7294929316427889e+18,-0.014586731791496277,0.035007745027542114,-9.695926666259766
1.729492931651789e+18,0.050914838910102844,-0.035481877624988556,-9.730079650878906
1.7294929316577892e+18,0.028719190508127213,-0.03817291557788849,-9.770235061645508
1.7294929316667894e+18,-0.003233356401324272,0.061579637229442596,-9.654519081115723
1.7294929316727895e+18,0.019374515861272812,-0.03042631223797798,-9.71939468383789
1.7294929316817897e+18,0.031934794038534164,-0.043352287262678146,-9.709577560424805
1.72949293169079e+18,-0.09313961863517761,-0.02690243348479271,-9.75070571899414
1.72949293169679e+18,-0.11378058046102524,-0.00793113000690937,-9.695571899414062
1.7294929317057902e+18,0.002707770559936762,0.058497242629528046,-9.71781063079834
1.7294929317147904e+18,-0.023109320551156998,0.02115916833281517,-9.78821086883545
1.7294929317237906e+18,-0.016720488667488098,0.01738869771361351,-9.676045417785645
1.7294929317297907e+18,-0.022981315851211548,-0.011090302839875221,-9.753827095031738
1.729492931738791e+18,-0.02733607217669487,-0.04407067596912384,-9.729586601257324
1.729492931747791e+18,-0.002844970440492034,-0.046859413385391235,-9.69818115234375
1.7294929317537912e+18,0.012031261809170246,-0.0026153279468417168,-9.733743667602539
1.7294929317627914e+18,0.033890821039676666,0.037842508405447006,-9.704806327819824
1.7294929317717916e+18,0.0068092746660113335,-0.07040397822856903,-9.684036254882812
1.7294929317807918e+18,0.03641032427549362,0.005196359008550644,-9.700678825378418
1.729492931786792e+18,0.009986075572669506,0.03128767013549805,-9.74950885772705
1.7294929317957921e+18,-0.02109494060277939,0.034968964755535126,-9.607149124145508
1.7294929318047923e+18,-0.0429617315530777,0.04194317013025284,-9.680391311645508
1.7294929318137925e+18,-0.014212905429303646,0.08098641037940979,-9.744885444641113
1.7294929318227927e+18,0.07732361555099487,-0.03274672478437424,-9.72461223602295
1.729492931831793e+18,0.027508389204740524,-0.1259235292673111,-9.793109893798828
1.729492931840793e+18,-0.05598241835832596,0.05076209455728531,-9.699931144714355
1.7294929318467932e+18,-0.02498359978199005,0.016647571697831154,-9.741355895996094
1.7294929318557934e+18,-0.09252692759037018,0.020394217222929,-9.723637580871582
1.7294929318647936e+18,-0.02974606677889824,0.004054996185004711,-9.701874732971191
1.7294929318707937e+18,-0.032612066715955734,-0.003957347013056278,-9.77581787109375
1.729492931879794e+18,0.040465667843818665,0.059393640607595444,-9.760411262512207
1.729492931888794e+18,0.004323879722505808,-0.028940383344888687,-9.761510848999023
1.7294929318977943e+18,0.020645009353756905,-0.002064319560304284,-9.702845573425293
1.7294929319037944e+18,0.0353802852332592,0.056276872754096985,-9.768474578857422
1.7294929319127946e+18,-0.0231937263160944,-0.04170791059732437,-9.65555191040039
1.7294929319187948e+18,0.014389712363481522,0.0038757778238505125,-9.727542877197266
1.729492931927795e+18,0.07805472612380981,-0.00782068632543087,-9.673943519592285
1.7294929319367951e+18,-0.027271095663309097,0.02979181334376335,-9.731765747070312
1.7294929319427953e+18,0.026384279131889343,0.04052175581455231,-9.796231269836426
1.7294929319517955e+18,-0.04413701593875885,-0.022879159078001976,-9.741876602172852
1.7294929319607956e+18,-0.09060174226760864,-0.0482349619269371,-9.70508861541748
1.7294929319667958e+18,0.05283494293689728,-0.025519337505102158,-9.71681022644043
1.729492931975796e+18,-0.04250793531537056,0.007383767049759626,-9.78042984008789
1.729492931981796e+18,-0.030816901475191116,-0.07606817036867142,-9.663653373718262
1.7294929319907963e+18,-0.008340299129486084,0.04713539779186249,-9.734597206115723
1.7294929319997965e+18,-0.020741060376167297,0.04564907029271126,-9.694914817810059
1.7294929320057966e+18,-0.024841148406267166,-0.057076722383499146,-9.811383247375488
1.7294929320147968e+18,0.036535464227199554,0.01582532934844494,-9.793621063232422
1.729492932020797e+18,-0.0034097961615771055,0.056923311203718185,-9.722200393676758
1.729492932029797e+18,-0.02245146967470646,0.04809349402785301,-9.782337188720703
1.7294929320387973e+18,-0.04433472827076912,-0.05180712789297104,-9.741093635559082
1.7294929320447974e+18,-0.03638856112957001,-0.08732248842716217,-9.727563858032227
1.7294929320537976e+18,0.012172959744930267,0.05821800231933594,-9.69719123840332
1.7294929320597978e+18,0.05106700211763382,0.08224909752607346,-9.768706321716309
1.729492932068798e+18,-0.11268763989210129,-0.0006352736381813884,-9.745524406433105
1.729492932074798e+18,0.056778524070978165,0.04255048558115959,-9.683027267456055
1.7294929320837983e+18,0.00845697894692421,-0.053708963096141815,-9.688212394714355
1.7294929320897984e+18,-0.09117287397384644,-0.018876736983656883,-9.747777938842773
1.7294929320987986e+18,0.01592697948217392,-0.005592117551714182,-9.696178436279297
1.7294929321077988e+18,-0.007877904921770096,0.03214605897665024,-9.718616485595703
1.729492932113799e+18,0.02673467993736267,0.01026881579309702,-9.770092964172363
1.729492932122799e+18,-0.03634247928857803,-0.004864078480750322,-9.698159217834473
1.7294929321287992e+18,-0.06465905159711838,0.10390148311853409,-9.713326454162598
1.7294929321377994e+18,0.020872458815574646,-0.035050053149461746,-9.733529090881348
1.7294929321467996e+18,0.04069945588707924,0.041112374514341354,-9.700105667114258
1.7294929321557998e+18,8.68689821800217e-05,-0.007654025685042143,-9.751051902770996
1.7294929321648e+18,0.01402254868298769,-0.013171656057238579,-9.769125938415527
1.7294929321738002e+18,-0.06716684997081757,-0.035019561648368835,-9.768712997436523
1.7294929321828004e+18,0.014987301081418991,0.013815367594361305,-9.777698516845703
1.7294929321888005e+18,-0.0035254869144409895,0.04306922107934952,-9.768918991088867
1.7294929321978007e+18,-0.018229860812425613,-0.029935838654637337,-9.70888614654541
1.729492932206801e+18,-0.04515085369348526,-0.08222265541553497,-9.756195068359375
1.729492932212801e+18,0.019839897751808167,0.014594323933124542,-9.758142471313477
1.7294929322218012e+18,-0.036191634833812714,0.013734627515077591,-9.748542785644531
1.7294929322308014e+18,-0.031499139964580536,-0.01367446593940258,-9.697421073913574
1.7294929322398016e+18,-0.03648998588323593,0.036320071667432785,-9.682101249694824
1.7294929322458017e+18,-0.017149366438388824,0.027626026421785355,-9.719804763793945
1.729492932254802e+18,0.027128763496875763,0.03323739022016525,-9.804641723632812
1.729492932263802e+18,-0.035252057015895844,-0.012204591184854507,-9.801946640014648
1.7294929322728023e+18,0.011145176365971565,-0.040682122111320496,-9.732148170471191
1.7294929322818025e+18,-0.019181936979293823,0.04888039827346802,-9.702483177185059
1.7294929322908027e+18,-0.03728323057293892,0.06280472129583359,-9.80676555633545
1.729492932299803e+18,0.0027836442459374666,-0.024531254544854164,-9.776988983154297
1.729492932308803e+18,0.07930319011211395,-0.06709133833646774,-9.709151268005371
1.7294929323178033e+18,-0.05102122947573662,0.07070783525705338,-9.626386642456055
1.7294929323268035e+18,-0.07763950526714325,0.06724434345960617,-9.739839553833008
1.7294929323358036e+18,-0.015059621073305607,-0.0030900202691555023,-9.68680191040039
1.7294929323448038e+18,0.03530319780111313,0.020445695146918297,-9.72341537475586
1.729492932353804e+18,0.020850770175457,0.05181498825550079,-9.695767402648926
1.7294929323628042e+18,-0.05024159699678421,-0.031521741300821304,-9.670299530029297
1.7294929323748045e+18,0.003931748680770397,0.04273240640759468,-9.752850532531738
1.7294929323838047e+18,0.010771085508167744,0.03250918537378311,-9.772822380065918
1.7294929323928049e+18,0.01480114832520485,0.042407624423503876,-9.693363189697266
1.729492932398805e+18,0.00777044240385294,-0.03820158541202545,-9.732466697692871
1.7294929324078052e+18,-0.058546289801597595,-0.022189980372786522,-9.734879493713379
1.7294929324198054e+18,-0.028546471148729324,-0.0438988171517849,-9.744471549987793
1.7294929324288056e+18,0.0649886429309845,0.048703841865062714,-9.758878707885742
1.7294929324378058e+18,-0.04067874699831009,0.012799515388906002,-9.734257698059082
1.729492932446806e+18,-0.034927498549222946,-0.014202386140823364,-9.705887794494629
1.7294929324558062e+18,0.010411461815237999,0.058664631098508835,-9.743861198425293
1.7294929324648064e+18,0.04865133762359619,0.014224539510905743,-9.828269958496094
1.7294929324738066e+18,-0.04195383936166763,0.008898524567484856,-9.75209903717041
1.7294929324828068e+18,0.02311222441494465,0.024444621056318283,-9.763830184936523
1.729492932491807e+18,0.04072336480021477,0.012219889089465141,-9.714774131774902
1.7294929325008072e+18,0.060532066971063614,0.09106874465942383,-9.788725852966309
1.7294929325098074e+18,0.01583518274128437,0.021649932488799095,-9.760881423950195
1.7294929325188076e+18,-0.09079008549451828,-0.0007345824269577861,-9.744180679321289
1.7294929325278077e+18,0.02406401000916958,0.048379965126514435,-9.715466499328613
1.7294929325338079e+18,0.07534971833229065,0.024134010076522827,-9.726405143737793
1.729492932542808e+18,0.0018797111697494984,0.005310014821588993,-9.790393829345703
1.7294929325548083e+18,-0.021883832290768623,0.019191551953554153,-9.731704711914062
1.7294929325638085e+18,-0.0021423392463475466,-0.019268997013568878,-9.749129295349121
1.7294929325698086e+18,0.02826487459242344,-0.01162775233387947,-9.762726783752441
1.7294929325788088e+18,-0.013592828065156937,0.024739552289247513,-9.714241981506348
1.729492932587809e+18,-0.0043556722812354565,-0.02442140132188797,-9.779440879821777
1.7294929325968092e+18,0.022916512563824654,-0.004551958292722702,-9.745665550231934
1.7294929326058094e+18,-0.047653473913669586,0.026571696624159813,-9.68862247467041
1.7294929326148096e+18,-0.015105514787137508,0.04168415069580078,-9.731417655944824
1.7294929326208097e+18,0.03328808397054672,0.006693156436085701,-9.710522651672363
1.72949293262981e+18,0.004283232614398003,0.016696806997060776,-9.718987464904785
1.72949293263881e+18,0.02161138877272606,-0.02617209404706955,-9.77177619934082
1.7294929326508104e+18,0.0036117355339229107,0.0004139430238865316,-9.752591133117676
1.7294929326568105e+18,0.043915316462516785,0.02871847152709961,-9.819856643676758
1.7294929326658107e+18,0.023957954719662666,-0.04312557727098465,-9.781305313110352
1.729492932674811e+18,-0.07079512625932693,0.0560108907520771,-9.761075973510742
1.729492932683811e+18,-0.02093956246972084,-0.030144719406962395,-9.772540092468262
1.7294929326928113e+18,-0.06963584572076797,0.08266803622245789,-9.731396675109863
1.7294929327018115e+18,0.03884965553879738,-0.0271258857101202,-9.789087295532227
1.7294929327078116e+18,-0.01983565464615822,-0.027124518528580666,-9.775345802307129
1.7294929327168118e+18,-0.07224103808403015,0.005903620272874832,-9.719894409179688
1.729492932725812e+18,-0.035563014447689056,-0.01921338587999344,-9.751082420349121
1.7294929327348122e+18,0.019239481538534164,0.03638097643852234,-9.71352767944336
1.7294929327438124e+18,-0.003978759981691837,0.015388187021017075,-9.777048110961914
1.7294929327528125e+18,-0.10303580015897751,0.08770175278186798,-9.741745948791504
1.7294929327588127e+18,-0.07726782560348511,0.0393371619284153,-9.78918743133545
1.7294929327678129e+18,0.010415691882371902,-0.005319538526237011,-9.757702827453613
1.729492932776813e+18,0.006985878571867943,0.011998810805380344,-9.81754207611084
1.7294929327828132e+18,0.06540734320878983,0.040618203580379486,-9.724335670471191
1.7294929327918134e+18,-0.051795702427625656,-0.03570782393217087,-9.837421417236328
1.7294929328008136e+18,-0.01626492291688919,0.002095472067594528,-9.78084945678711
1.7294929328068137e+18,-0.011477691121399403,0.029515095055103302,-9.714319229125977
1.729492932815814e+18,-0.04857797175645828,-0.02016497403383255,-9.752134323120117
1.729492932824814e+18,-0.0005931014311499894,0.0485747754573822,-9.746172904968262
1.7294929328338143e+18,0.04531140998005867,0.014414138160645962,-9.823580741882324
1.7294929328398144e+18,-0.021430037915706635,-0.015074161812663078,-9.780463218688965
1.7294929328488146e+18,0.006477120332419872,-0.0015984787605702877,-9.794100761413574
1.7294929328578148e+18,-0.0007137892534956336,-0.01595168560743332,-9.821307182312012
1.729492932863815e+18,-0.02203206531703472,-0.011463144794106483,-9.813614845275879
1.729492932872815e+18,-0.0021902250591665506,-0.047756899148225784,-9.853072166442871
1.7294929328788152e+18,0.019917020574212074,-0.0016850689426064491,-9.728983879089355
1.7294929328878154e+18,-0.05259796231985092,0.007790280971676111,-9.749267578125
1.7294929328968156e+18,0.01155977975577116,-0.028084231540560722,-9.789926528930664
1.7294929329058158e+18,0.028713179752230644,0.02413913980126381,-9.699784278869629
1.729492932911816e+18,0.030533332377672195,0.008965358138084412,-9.723721504211426
1.729492932920816e+18,0.022292179986834526,0.010294659063220024,-9.77357006072998
1.7294929329268163e+18,0.031308189034461975,-0.02896713837981224,-9.791049003601074
1.7294929329358164e+18,0.028827406466007233,0.011507251299917698,-9.828779220581055
1.7294929329448166e+18,-0.04712517932057381,0.020821914076805115,-9.79580307006836
1.7294929329508168e+18,-0.038250699639320374,-0.017187073826789856,-9.713479995727539
1.729492932959817e+18,-0.0232146754860878,-0.01203853078186512,-9.809981346130371
1.729492932965817e+18,-0.0018936024280264974,0.044920697808265686,-9.761683464050293
1.7294929329748173e+18,-0.020288269966840744,-0.024843676015734673,-9.791385650634766
1.7294929329808174e+18,-0.07076011598110199,0.014914607629179955,-9.762713432312012
1.7294929329898176e+18,0.07158438116312027,0.018670452758669853,-9.76305866241455
1.7294929329988178e+18,0.05474446713924408,-0.0020642743911594152,-9.72534465789795
1.729492933004818e+18,0.028084199875593185,0.037481606006622314,-9.759148597717285
1.729492933013818e+18,-0.019228097051382065,-0.026199331507086754,-9.832058906555176
1.7294929330198182e+18,-0.01955195516347885,0.05124461650848389,-9.773843765258789
1.7294929330288184e+18,-0.011560739949345589,-0.04924372583627701,-9.829120635986328
1.7294929330378186e+18,-0.016157396137714386,-0.001367411226965487,-9.688520431518555
1.7294929330438188e+18,-0.04448125883936882,0.019542556256055832,-9.793096542358398
1.729492933052819e+18,-0.07517974078655243,-0.052139002829790115,-9.806532859802246
1.7294929330618191e+18,-0.028741154819726944,0.0050546252168715,-9.766576766967773
1.7294929330678193e+18,0.019409624859690666,0.053151242434978485,-9.691742897033691
1.7294929330768195e+18,-0.03783001750707626,0.014391984790563583,-9.799151420593262
1.7294929330858196e+18,0.06191479042172432,0.07347694039344788,-9.809347152709961
1.7294929330948198e+18,0.010477804578840733,-0.029744915664196014,-9.806978225708008
1.72949293310082e+18,0.015161050483584404,-0.034422263503074646,-9.726157188415527
1.7294929331098202e+18,0.017791859805583954,-0.019919447600841522,-9.760159492492676
1.7294929331188204e+18,0.0042421710677444935,-0.012729915790259838,-9.738349914550781
1.7294929331278205e+18,-0.09900104999542236,-0.0007721116417087615,-9.83226203918457
1.7294929331368207e+18,-0.057436712086200714,0.027447925880551338,-9.792227745056152
1.7294929331428209e+18,0.022675855085253716,-0.003653286723420024,-9.74571418762207
1.729492933151821e+18,-0.040072496980428696,0.03253481537103653,-9.819236755371094
1.7294929331608212e+18,-0.016948558390140533,-0.0012282131938263774,-9.762260437011719
1.7294929331668214e+18,-0.08945316076278687,0.03688076138496399,-9.75739860534668
1.7294929331758216e+18,0.07681204378604889,0.05311083793640137,-9.778992652893066
1.7294929331848218e+18,-0.015588697046041489,-0.040257133543491364,-9.817922592163086
1.729492933193822e+18,-0.025463441386818886,-0.00022319707204587758,-9.711688041687012
1.7294929332028221e+18,-0.06184132397174835,-0.012668952345848083,-9.78232192993164
1.7294929332088223e+18,0.004052664153277874,-0.003867301857098937,-9.764029502868652
1.7294929332178225e+18,-0.015692437067627907,0.07342243194580078,-9.773094177246094
1.7294929332268227e+18,-0.032248642295598984,-0.03810019791126251,-9.776656150817871
1.7294929332328228e+18,-0.05388183891773224,-0.06302624940872192,-9.74215316772461
1.729492933241823e+18,-0.008352542296051979,0.00508497329428792,-9.790826797485352
1.729492933247823e+18,-0.022197064012289047,-0.01396140269935131,-9.757308959960938
1.7294929332568233e+18,0.045499853789806366,-0.013914303854107857,-9.763360977172852
1.7294929332658235e+18,-0.04062371701002121,-0.04723632335662842,-9.736441612243652
1.7294929332718236e+18,-0.04804651811718941,0.023831471800804138,-9.73564338684082
1.7294929332808238e+18,0.02956089749932289,-0.014451099559664726,-9.789623260498047
1.729492933286824e+18,-0.08337198942899704,-0.0011347131803631783,-9.783268928527832
1.7294929332958241e+18,0.051027536392211914,-0.03122086077928543,-9.750968933105469
1.7294929333018243e+18,-0.06006386876106262,0.05565928667783737,-9.748384475708008
1.7294929333108244e+18,0.06454852968454361,-0.0459834523499012,-9.816784858703613
1.7294929333198246e+18,-0.04432489722967148,-0.06477698683738708,-9.722683906555176
1.7294929333258248e+18,0.007436108775436878,-0.010648752562701702,-9.809282302856445
1.729492933334825e+18,-0.003166431561112404,0.06170492246747017,-9.756381034851074
1.7294929333438252e+18,-0.04307734593749046,0.016925668343901634,-9.818679809570312
1.7294929333498253e+18,-0.015322179533541203,0.00644363509491086,-9.794896125793457
1.7294929333588255e+18,0.012598574161529541,-0.04462523013353348,-9.808138847351074
1.7294929333678257e+18,0.019364167004823685,0.004306486342102289,-9.784732818603516
1.7294929333738258e+18,0.01949775218963623,0.04885018244385719,-9.796398162841797
1.729492933382826e+18,-0.009981755167245865,0.02476849965751171,-9.709427833557129
1.7294929333918262e+18,0.04968889802694321,0.00011238406295888126,-9.835503578186035
1.7294929333978263e+18,0.10143433511257172,-0.015089578926563263,-9.7996244430542
1.7294929334068265e+18,-0.07118335366249084,0.05722542479634285,-9.798420906066895
1.7294929334158267e+18,-0.02094360627233982,0.06227704510092735,-9.772597312927246
1.7294929334218268e+18,-0.014908579178154469,-0.0225988682359457,-9.744418144226074
1.729492933430827e+18,-0.0316876582801342,0.0563875213265419,-9.817198753356934
1.7294929334368271e+18,0.05289886146783829,0.02186317928135395,-9.773597717285156
1.7294929334458273e+18,0.024459823966026306,0.03832006826996803,-9.819896697998047
1.7294929334548275e+18,-0.017849663272500038,0.027097923681139946,-9.855262756347656
1.7294929334638277e+18,-0.013703931123018265,0.05410139635205269,-9.781216621398926
1.729492933472828e+18,0.013373756781220436,-0.007939345203340054,-9.771551132202148
1.729492933478828e+18,0.018447276204824448,0.045327529311180115,-9.762813568115234
1.7294929334878282e+18,0.0016430086689069867,0.010896138846874237,-9.811442375183105
1.7294929334938284e+18,0.033688969910144806,-0.03344414755702019,-9.867971420288086
1.7294929335028285e+18,-0.01412704773247242,-0.10552380234003067,-9.759429931640625
1.7294929335088287e+18,-0.011924950405955315,-0.05475352331995964,-9.82916259765625
1.7294929335178289e+18,0.04251046106219292,-0.01801043190062046,-9.861144065856934
1.729492933526829e+18,0.05773654580116272,-0.02151549607515335,-9.76230525970459
1.7294929335358292e+18,-0.048044685274362564,-0.0019212942570447922,-9.855240821838379
1.7294929335448294e+18,0.03287661075592041,0.02960045076906681,-9.724853515625
1.7294929335538296e+18,-0.018406657502055168,0.0759577676653862,-9.820859909057617
1.7294929335598298e+18,0.019011516124010086,-0.08398674428462982,-9.753165245056152
1.72949293356883e+18,0.033941030502319336,0.039021287113428116,-9.76424503326416
1.7294929335778301e+18,-0.016482580453157425,-0.02409031055867672,-9.75350570678711
1.7294929335868303e+18,-0.012127846479415894,0.013516906648874283,-9.788880348205566
1.7294929335958305e+18,-0.016232021152973175,-0.044876620173454285,-9.693618774414062
1.7294929336048307e+18,-0.006678073201328516,-0.046017300337553024,-9.756093978881836
1.7294929336108308e+18,0.06188894063234329,-0.04635846987366676,-9.859050750732422
1.729492933619831e+18,-0.03661958873271942,-0.057419635355472565,-9.7662353515625
1.7294929336288312e+18,-0.004013265483081341,0.0366816446185112,-9.81314754486084
1.7294929336348314e+18,-0.021985970437526703,-0.004020853899419308,-9.816784858703613
1.7294929336438316e+18,0.0692904144525528,0.046668536961078644,-9.826229095458984
1.7294929336528317e+18,-0.024861447513103485,0.006999495439231396,-9.736313819885254
1.729492933661832e+18,0.05193108692765236,0.029956156387925148,-9.795428276062012
1.729492933670832e+18,-0.0333956703543663,0.018940769135951996,-9.770971298217773
1.7294929336798323e+18,-0.004813703708350658,-0.06277699768543243,-9.855240821838379
1.7294929336858324e+18,-0.010265415534377098,0.0049817245453596115,-9.876496315002441
1.7294929336948326e+18,-0.052625011652708054,-0.007324095815420151,-9.827820777893066
1.7294929337038328e+18,0.02786904387176037,0.020410839468240738,-9.809487342834473
1.729492933712833e+18,-0.032267410308122635,0.0022407674696296453,-9.774330139160156
1.7294929337218332e+18,0.002096509328112006,0.03580453246831894,-9.762904167175293
1.7294929337278333e+18,-0.0025151874870061874,-0.04701307788491249,-9.768604278564453
1.7294929337368335e+18,0.006276200525462627,0.0754300057888031,-9.850011825561523
1.7294929337458337e+18,-0.09003129601478577,-0.12946899235248566,-9.848710060119629
1.729492933754834e+18,-0.04529841989278793,-0.06705635040998459,-9.721596717834473
1.729492933763834e+18,0.03753214329481125,0.028456073254346848,-9.882367134094238
1.7294929337698342e+18,-0.04547228664159775,-0.04451386630535126,-9.701144218444824
1.7294929337788344e+18,0.02569711208343506,0.015709003433585167,-9.772579193115234
1.7294929337848346e+18,-0.017258163541555405,0.039190053939819336,-9.754700660705566
1.7294929337938348e+18,-0.026274878531694412,-0.020438380539417267,-9.859099388122559
1.729492933802835e+18,-0.07363656908273697,-0.07756859064102173,-9.786606788635254
1.7294929338118351e+18,-0.0160943865776062,-0.040602345019578934,-9.71180248260498
1.7294929338208353e+18,-0.07515318691730499,0.014298675581812859,-9.818456649780273
1.7294929338298355e+18,-0.014421198517084122,-0.007686409167945385,-9.78724193572998
1.7294929338388357e+18,0.0015708586433902383,-0.09828019887208939,-9.789457321166992
1.729492933847836e+18,0.026680709794163704,-0.002851417986676097,-9.860137939453125
1.729492933853836e+18,0.010831668972969055,0.006678854115307331,-9.809234619140625
1.7294929338628362e+18,0.06013154238462448,0.006899884901940823,-9.814492225646973
1.7294929338718364e+18,-0.020322011783719063,-0.012394332326948643,-9.742502212524414
1.7294929338808366e+18,-0.007893572561442852,-0.029934996739029884,-9.842939376831055
1.7294929338868367e+18,0.03128175437450409,-0.009598314762115479,-9.857782363891602
1.729492933895837e+18,0.03033308871090412,-0.061853792518377304,-9.744794845581055
1.729492933904837e+18,0.024473100900650024,0.09274058789014816,-9.811126708984375
1.7294929339108372e+18,0.024434678256511688,0.0003057978465221822,-9.790865898132324
1.7294929339198374e+18,0.020160574465990067,-0.05417711287736893,-9.769658088684082
1.7294929339288376e+18,-0.025184426456689835,-0.020637918263673782,-9.80656623840332
1.7294929339348378e+18,0.038432683795690536,0.019622409716248512,-9.777292251586914
1.729492933943838e+18,0.011170691810548306,-0.003871401073411107,-9.82384967803955
1.729492933949838e+18,-0.009544463828206062,-0.02862577699124813,-9.822250366210938
1.7294929339588383e+18,0.06528939306735992,-0.01405637152493,-9.900851249694824
1.7294929339648384e+18,-0.007094007916748524,-0.03427616134285927,-9.816971778869629
1.7294929339738386e+18,0.021195851266384125,-0.03972717747092247,-9.868738174438477
1.7294929339798387e+18,0.007110704202204943,0.0238623209297657,-9.839851379394531
1.729492933988839e+18,-0.0037218944635242224,0.0017838405910879374,-9.831528663635254
1.729492933997839e+18,0.044034194201231,-0.03181605413556099,-9.830141067504883
1.7294929340038392e+18,-0.08745504915714264,-0.004245412535965443,-9.725495338439941
1.7294929340128394e+18,-0.06460380554199219,0.05846989527344704,-9.775924682617188
1.7294929340188396e+18,-0.023922104388475418,0.049336809664964676,-9.809269905090332
1.7294929340278397e+18,-0.015354416333138943,0.004527606535702944,-9.750575065612793
1.72949293403684e+18,-0.014940024353563786,0.04024909809231758,-9.813981056213379
1.72949293404284e+18,0.053174152970314026,0.015729516744613647,-9.852975845336914
1.7294929340518403e+18,-0.055027324706315994,0.04198869317770004,-9.79230785369873
1.7294929340578404e+18,-0.0834297463297844,0.04600630700588226,-9.7738618850708
1.7294929340668406e+18,0.004067813511937857,0.019311141222715378,-9.765299797058105
1.7294929340758408e+18,0.004125342704355717,-0.015850579366087914,-9.805132865905762
1.729492934081841e+18,0.03106454573571682,-0.03253677487373352,-9.83658504486084
1.729492934090841e+18,-0.02117297425866127,-0.07574447244405746,-9.810571670532227
1.7294929340998413e+18,0.030945099890232086,0.021906476467847824,-9.785261154174805
1.7294929341058414e+18,-0.03999313712120056,0.10529596358537674,-9.770498275756836
1.7294929341148416e+18,0.0012468616478145123,-0.04956191033124924,-9.828246116638184
1.7294929341208417e+18,-0.11296198517084122,0.018402349203824997,-9.78649616241455
1.729492934129842e+18,-0.007921947166323662,-0.048011865466833115,-9.743412971496582
1.729492934138842e+18,0.05850280448794365,-0.021027838811278343,-9.799517631530762
1.7294929341448422e+18,-0.009763432666659355,-0.055075570940971375,-9.746673583984375
1.7294929341538424e+18,-0.1129230260848999,-0.0665457546710968,-9.802994728088379
1.7294929341598426e+18,0.0279405415058136,0.05881056189537048,-9.796943664550781
1.7294929341688428e+18,-0.023683015257120132,-0.07029219716787338,-9.797205924987793
1.729492934174843e+18,-0.05219992250204086,-0.01043786108493805,-9.835448265075684
1.729492934183843e+18,0.028378132730722427,-0.04247494041919708,-9.847424507141113
1.7294929341928433e+18,-0.061534326523542404,0.02771896682679653,-9.823288917541504
1.7294929341988434e+18,0.04798679053783417,0.015179488807916641,-9.79095458984375
1.7294929342078436e+18,-0.021017782390117645,-0.07020197808742523,-9.890594482421875
1.7294929342138437e+18,-0.07715122401714325,0.11481593549251556,-9.795099258422852
1.729492934222844e+18,-0.06196042150259018,0.0427982360124588,-9.775333404541016
1.729492934228844e+18,-0.013192849233746529,-0.04818420484662056,-9.850312232971191
1.7294929342378442e+18,0.0027144537307322025,-0.03303078934550285,-9.847454071044922
1.7294929342468444e+18,-0.025790348649024963,0.03413469344377518,-9.8048677444458
1.7294929342558446e+18,0.05038125067949295,-0.04721919819712639,-9.81569766998291
1.7294929342618447e+18,0.048555728048086166,-0.03224622830748558,-9.819562911987305
1.729492934270845e+18,0.04718005284667015,0.07032988220453262,-9.813115119934082
1.729492934279845e+18,0.0073989387601614,0.04848511517047882,-9.747718811035156
1.7294929342858452e+18,0.031105196103453636,-0.003069872036576271,-9.792173385620117
1.7294929342948454e+18,-0.11989480257034302,0.013017452321946621,-9.7652006149292
1.7294929343038456e+18,-0.06069507449865341,-0.08962853997945786,-9.867878913879395
1.7294929343128458e+18,0.03654923662543297,-0.02906341291964054,-9.79883098602295
1.729492934321846e+18,-0.002861518645659089,-0.004363349638879299,-9.812603950500488
1.7294929343308462e+18,-0.04812544211745262,0.011039836332201958,-9.814491271972656
1.7294929343368463e+18,0.05684462934732437,0.02421506866812706,-9.817595481872559
1.7294929343458465e+18,0.0577462837100029,-0.02790241315960884,-9.836170196533203
1.7294929343548467e+18,-0.004697215277701616,-0.005339633673429489,-9.799418449401855
1.7294929343608468e+18,0.04185907542705536,-0.04475097358226776,-9.832992553710938
1.729492934369847e+18,0.007573120296001434,0.0054587735794484615,-9.843711853027344
1.7294929343758472e+18,0.024130553007125854,0.00978839211165905,-8.590590476989746
1.7294929343848474e+18,-0.01590052619576454,-0.0413612425327301,-7.253884792327881
1.7294929343938476e+18,-0.0362093485891819,0.0040102507919073105,-6.680500030517578
1.7294929343998477e+18,0.08787102997303009,-0.016875293105840683,-6.6624298095703125
1.729492934408848e+18,0.044532425701618195,-0.07416839897632599,-6.611758708953857
1.729492934417848e+18,0.06021314859390259,-0.042753126472234726,-6.191455841064453
1.7294929344238482e+18,-0.011957045644521713,-0.1313793957233429,-6.157416343688965
1.7294929344328484e+18,0.022219637408852577,-0.027829749509692192,-6.300564289093018
1.7294929344388485e+18,-0.02860460989177227,-0.018122326582670212,-6.314966201782227
1.7294929344478487e+18,0.023655345663428307,-0.05243193358182907,-6.41864013671875
1.729492934456849e+18,0.01658410206437111,-0.007547207176685333,-6.4797444343566895
1.729492934462849e+18,-0.01726386696100235,-0.0480831041932106,-6.143805027008057
1.7294929344718492e+18,0.06853722035884857,-0.07928735017776489,-6.124159336090088
1.7294929344808494e+18,-0.009189292788505554,-0.05385654792189598,-5.726039886474609
1.7294929344868495e+18,0.021414706483483315,-0.04712800681591034,-5.802953243255615
1.7294929344958497e+18,0.050761882215738297,-0.0794181153178215,-5.9439496994018555
1.72949293450485e+18,0.06411422789096832,-0.03279468044638634,-6.033471584320068
1.72949293451085e+18,-0.0036103520542383194,-0.0713968425989151,-6.052340984344482
1.7294929345198502e+18,0.03008943423628807,-0.04094040393829346,-6.1068644523620605
1.7294929345288504e+18,0.03706394135951996,-0.08291718363761902,-5.953273296356201
1.7294929345378506e+18,-0.012004919350147247,-0.038352373987436295,-5.998834609985352
1.7294929345438508e+18,0.06612861901521683,0.018814541399478912,-6.152449131011963
1.729492934552851e+18,-0.057144299149513245,-0.03604009747505188,-6.230624198913574
1.7294929345618511e+18,-0.0423959381878376,-0.011755593121051788,-6.33742094039917
1.7294929345708513e+18,0.007848434150218964,-0.005974996834993362,-6.250092029571533
1.7294929345768515e+18,0.019275294616818428,-0.016211193054914474,-6.231045246124268
1.7294929345858516e+18,-0.05704516917467117,0.004847584292292595,-4.718769550323486
1.7294929345948518e+18,0.026118487119674683,-0.1056937426328659,-4.468979358673096
1.729492934603852e+18,-0.013708392158150673,-0.04607994481921196,-4.468651294708252
1.7294929346098522e+18,0.018502991646528244,-0.04083080217242241,-4.4169511795043945
1.7294929346188524e+18,0.03247332200407982,-0.07633629441261292,-4.432908535003662
1.7294929346278525e+18,0.049459926784038544,0.01884663663804531,-4.405658721923828
1.7294929346368527e+18,0.03301602602005005,-0.03336001932621002,-4.7274909019470215
1.7294929346428529e+18,0.08967393636703491,-0.05637780576944351,-5.0117363929748535
1.729492934651853e+18,-0.0008587269112467766,-0.0524350106716156,-5.105259895324707
1.7294929346608532e+18,0.036415085196495056,0.023201126605272293,-5.23882532119751
1.7294929346668534e+18,0.024958515539765358,0.027369167655706406,-5.398468017578125
1.7294929346758536e+18,0.026816051453351974,0.04178021475672722,-5.6330742835998535
1.7294929346818537e+18,0.014757880941033363,0.0018797032535076141,-5.6515607833862305
1.729492934690854e+18,0.037821218371391296,0.025081759318709373,-5.782095432281494
1.729492934696854e+18,0.012369713746011257,-0.0067936270497739315,-5.7393364906311035
1.7294929347058542e+18,0.06418758630752563,0.08050430566072464,-5.946598052978516
1.7294929347148544e+18,-0.04706435650587082,0.07547934353351593,-6.186110019683838
1.7294929347208545e+18,-0.05024315044283867,0.09530994296073914,-6.266335487365723
1.7294929347298547e+18,0.057086504995822906,-0.04209071025252342,-6.402398586273193
1.729492934738855e+18,-0.009049469605088234,0.046312376856803894,-6.567698955535889
1.729492934744855e+18,-0.02675594761967659,0.01620575785636902,-6.647035121917725
1.7294929347538552e+18,0.005891731008887291,0.003936348482966423,-6.6211018562316895
1.7294929347598554e+18,-0.07098474353551865,-0.06911157816648483,-6.801351547241211
1.7294929347688556e+18,0.044829171150922775,-0.013962766155600548,-6.883886337280273
1.7294929347778557e+18,-0.0887649729847908,0.016396889463067055,-7.0410566329956055
1.7294929347838559e+18,-0.01694021373987198,0.02665671333670616,-7.044530391693115
1.729492934792856e+18,0.012239700183272362,0.02315615862607956,-7.080632209777832
1.7294929348018563e+18,-0.029921678826212883,0.07243303209543228,-7.17278528213501
1.7294929348078564e+18,0.039278969168663025,-0.018621990457177162,-7.340583324432373
1.7294929348168566e+18,0.029577314853668213,-0.03199636936187744,-7.392110824584961
1.7294929348258568e+18,-0.02881757728755474,0.04479822516441345,-7.502844333648682
1.729492934831857e+18,0.07142007350921631,-0.001723984256386757,-7.555978775024414
1.729492934840857e+18,-0.06844384968280792,0.014238527044653893,-7.612042427062988
1.7294929348498573e+18,-0.0002499725669622421,0.016613438725471497,-7.717040061950684
1.7294929348558574e+18,-0.005353504791855812,0.09802313148975372,-7.776614665985107
1.7294929348678577e+18,0.022821297869086266,0.02470632828772068,-7.933069229125977
1.7294929348738578e+18,0.02698049694299698,0.08009345829486847,-7.910214424133301
1.729492934882858e+18,-0.0033830043394118547,-0.02296309731900692,-7.941437721252441
1.7294929348918582e+18,-0.008841555565595627,0.01687123067677021,-8.058785438537598
1.7294929349008584e+18,0.035780169069767,0.010751025751233101,-8.141688346862793
1.7294929349068585e+18,-0.00303057162091136,-0.07159542292356491,-8.200643539428711
1.7294929349158587e+18,0.030533824115991592,0.009799594059586525,-8.233856201171875
1.729492934924859e+18,-0.0496671088039875,0.04126515984535217,-8.267801284790039
1.729492934930859e+18,-0.04660267382860184,0.003027848433703184,-8.484414100646973
1.7294929349398592e+18,0.050622422248125076,-0.03903904929757118,-8.432355880737305
1.7294929349458593e+18,0.013760779052972794,0.059805624186992645,-8.425806999206543
1.7294929349548595e+18,0.00532687921077013,-0.01817028410732746,-8.504048347473145
1.7294929349638597e+18,-0.0006704777479171753,-0.0404033437371254,-8.456048011779785
1.7294929349698598e+18,0.027844972908496857,-0.022039160132408142,-8.523139953613281
1.72949293497886e+18,0.010808282531797886,0.008124194107949734,-8.611994743347168
1.7294929349878602e+18,-0.06417567282915115,5.9668440371751785e-05,-8.588277816772461
1.7294929349938604e+18,0.00858154147863388,0.05417991802096367,-8.71140193939209
1.7294929350028605e+18,-0.015582388266921043,-0.011640173383057117,-8.746723175048828
1.7294929350118607e+18,-0.040911052376031876,0.020582132041454315,-8.725268363952637
1.7294929350178609e+18,0.01383277215063572,0.06162647530436516,-8.816420555114746
1.729492935026861e+18,0.03224552422761917,0.000689256121404469,-8.851106643676758
1.7294929350358612e+18,-0.04001482203602791,-0.006269940175116062,-8.9197416305542
1.7294929350418614e+18,0.021568328142166138,-0.02430497109889984,-8.913915634155273
1.7294929350508616e+18,-0.0552411824464798,0.040693748742341995,-9.011177062988281
1.7294929350598618e+18,-0.00017472114996053278,0.028269438073039055,-8.86893367767334
1.729492935065862e+18,0.004813170060515404,-0.022392693907022476,-9.037735939025879
1.729492935074862e+18,0.06823437660932541,0.03571463003754616,-8.981017112731934
1.7294929350838623e+18,0.03830093890428543,-0.03516174107789993,-9.099645614624023
1.7294929350928625e+18,0.04897008836269379,0.00485546700656414,-9.127734184265137
1.7294929350988626e+18,0.06691111624240875,0.009270605631172657,-9.15517807006836
1.7294929351078628e+18,-0.0060577597469091415,0.07406633347272873,-9.160269737243652
1.729492935116863e+18,-0.05855974555015564,-0.017215751111507416,-9.225820541381836
1.7294929351258632e+18,0.03629761189222336,-0.07397426664829254,-9.259307861328125
1.7294929351348634e+18,0.01868429034948349,0.0508604496717453,-9.264880180358887
1.7294929351438636e+18,0.023566918447613716,0.024008583277463913,-9.222637176513672
1.7294929351528637e+18,-0.0692494586110115,-0.010622172616422176,-9.352248191833496
1.729492935161864e+18,0.009005633182823658,-0.05918445810675621,-9.319607734680176
1.729492935170864e+18,-0.027151674032211304,-0.04496666043996811,-9.313773155212402
1.7294929351798643e+18,0.004321287851780653,-0.035002700984478,-9.391819953918457
1.7294929351918646e+18,0.06949757039546967,-0.0503242090344429,-9.379638671875
1.7294929352008648e+18,-0.04299581050872803,-0.014451416209340096,-9.406977653503418
1.729492935206865e+18,0.04007923975586891,0.0040805041790008545,-9.387556076049805
1.729492935215865e+18,0.04812360927462578,-0.06378424912691116,-9.55009937286377
1.7294929352248653e+18,0.11987146735191345,0.033643387258052826,-9.500503540039062
1.7294929352338655e+18,-0.035067617893218994,-0.012973739765584469,-9.509368896484375
1.7294929352398656e+18,-0.07043346017599106,0.007919451221823692,-9.556474685668945
1.7294929352488658e+18,0.057216815650463104,0.03296983614563942,-9.543883323669434
1.729492935257866e+18,-0.05271145701408386,-0.03559066727757454,-9.605062484741211
1.7294929352668662e+18,-0.036414843052625656,-0.08872495591640472,-9.545361518859863
1.7294929352758664e+18,0.00518430769443512,-0.020215408876538277,-9.496475219726562
1.7294929352818665e+18,0.07495184987783432,0.028517846018075943,-9.619197845458984
1.7294929352908667e+18,0.009903494268655777,0.05041126161813736,-9.589547157287598
1.729492935299867e+18,0.06366871297359467,0.017613299190998077,-9.603201866149902
1.729492935305867e+18,0.010336121544241905,-0.02818768471479416,-9.593255043029785
1.7294929353148672e+18,0.01225538831204176,-0.002491869032382965,-9.701918601989746
1.7294929353238674e+18,0.025461431592702866,-0.029982635751366615,-9.63400650024414
1.7294929353298675e+18,0.041524894535541534,0.025207161903381348,-9.676477432250977
1.7294929353388677e+18,0.08509930968284607,0.012814514338970184,-9.625762939453125
1.729492935347868e+18,0.020883549004793167,-0.08865319937467575,-9.737361907958984
1.729492935356868e+18,-0.01806046813726425,0.01719382032752037,-9.668907165527344
1.7294929353628682e+18,-0.016723480075597763,-0.10158942639827728,-9.67587661743164
