timestamp,gyro_x,gyro_y,gyro_z
1.729492923773621e+18,0.0003899951698258519,0.0024445457383990288,0.0023345809895545244
1.729492923779621e+18,0.0010983576066792011,-0.0017508086748421192,7.627403101650998e-05
1.7294929237886213e+18,0.0013858213787898421,-0.001065912190824747,0.0015826787566766143
1.7294929237976215e+18,-0.0008810355793684721,0.0010602822294458747,-0.002326337154954672
1.7294929238066217e+18,0.0005676910514011979,-0.00121632672380656,0.0009080813033506274
1.7294929238126218e+18,-0.003582824021577835,0.001576687442138791,0.0015699096256867051
1.729492923821622e+18,-0.0020541695412248373,-0.0007543679093942046,0.001829207525588572
1.7294929238306222e+18,-0.0012674072058871388,3.536469012033194e-05,0.0014779646880924702
1.7294929238396224e+18,-0.0019165276316925883,-0.0008329536067321897,-0.00039894081419333816
1.7294929238456225e+18,-0.0009588313987478614,0.00046434966498054564,-0.0004743100726045668
1.7294929238546227e+18,5.5997461458900943e-05,-0.00010839495371328667,0.0005997905391268432
1.7294929238606228e+18,-0.0008946534944698215,0.0019625022541731596,0.0028037880547344685
1.729492923869623e+18,0.0011252328986302018,-0.0005159304710105062,-0.0010108461137861013
1.7294929238786232e+18,-0.002894878853112459,0.0021191523410379887,-0.0016993520548567176
1.7294929238846234e+18,-0.0009628745610825717,0.0015730437589809299,-0.0006684215622954071
1.7294929238936236e+18,-0.002430750522762537,0.0003547824453562498,0.0004410079855006188
1.7294929238996237e+18,-0.0010253245709463954,0.0015888232737779617,0.00295148603618145
1.729492923908624e+18,-0.00036381740937940776,0.0005090902559459209,-0.0028545833192765713
1.729492923917624e+18,0.001357405330054462,0.0017557075479999185,0.0014273053966462612
1.7294929239236242e+18,0.00078704918269068,-0.001095415442250669,0.0015813779318705201
1.7294929239326244e+18,-0.0006843998562544584,-4.0451439417665824e-05,-0.0018978503067046404
1.7294929239386245e+18,-0.003131943056359887,0.0019596365746110678,0.0006943140178918839
1.7294929239476247e+18,0.0014791694702580571,0.0028641540557146072,0.0013450492406263947
1.729492923956625e+18,0.0007598213851451874,-0.0001050963401212357,0.0018679553177207708
1.729492923962625e+18,-0.003198897698894143,-0.0018937902059406042,-0.0021353699266910553
1.7294929239716252e+18,-0.0013749905629083514,0.0011229069205000997,-0.00036418798845261335
1.7294929239776253e+18,0.001058952184394002,0.001613070722669363,0.0014069589087739587
1.7294929239866255e+18,-0.0009459977736696601,0.0017844161484390497,-0.0018761423416435719
1.7294929239956257e+18,-3.1112012948142365e-05,-0.0003300750977359712,-0.0017646680353209376
1.729492924004626e+18,0.0007341356249526143,-0.0028720006812363863,0.0009523854241706431
1.729492924010626e+18,1.0225982805422973e-05,0.000976674142293632,0.0002513694344088435
1.7294929240196262e+18,-0.0018409924814477563,0.0011659024748951197,-0.0017029434675350785
1.7294929240286264e+18,-0.001188908820040524,-0.0010175213683396578,0.0011322828941047192
1.7294929240346266e+18,-0.0002887424489017576,-0.0017616203986108303,0.0018754629418253899
1.7294929240436268e+18,-0.0017343945801258087,0.00020325061632320285,0.0018008365295827389
1.729492924052627e+18,-0.000260376458754763,-0.004553651437163353,9.052258974406868e-06
1.729492924058627e+18,0.001027240650728345,-0.0008216637070290744,0.0006281069363467395
1.7294929240676273e+18,-0.000105550185253378,-0.0017217216081917286,0.00267240428365767
1.7294929240736274e+18,0.0006826544995419681,0.0003646784170996398,-0.0030288873240351677
1.7294929240826276e+18,0.0010443778010085225,-0.0008202354656532407,0.001435773097909987
1.7294929240886277e+18,0.00042877550004050136,-0.00019268124015070498,0.0009688108693808317
1.729492924097628e+18,-0.0005028641317039728,-0.002352948999032378,-0.0008406755514442921
1.729492924103628e+18,-0.0001011273343465291,-0.0005989119526930153,-0.0022912020795047283
1.7294929241126282e+18,0.0005175767000764608,-0.001196485129185021,-0.00120728078763932
1.7294929241186284e+18,0.00048613385297358036,-3.278804069850594e-05,-0.0006696230266243219
1.7294929241276285e+18,-0.0007547590066678822,-0.0015064639737829566,-0.0007781370659358799
1.7294929241366287e+18,0.0006472768727689981,0.0013254808727651834,-0.00046943468623794615
1.7294929241426289e+18,-0.0021948639769107103,0.00023702938051428646,-0.0017392555018886924
1.729492924151629e+18,-0.0002933529613073915,-0.002253933111205697,0.001990368589758873
1.7294929241576292e+18,-0.0016621466493234038,0.00028917723102495074,-0.0010634586215019226
1.7294929241666294e+18,-0.0005916802911087871,-3.747855430447089e-07,0.0012415713863447309
1.7294929241756296e+18,-0.0011864849366247654,-0.0002488753816578537,0.0007654778892174363
1.7294929241816297e+18,-0.0010775579139590263,0.0010865831281989813,0.0010362956672906876
1.72949292419063e+18,-0.0005563533050008118,0.0005790828145109117,-0.0005341934156604111
1.72949292419663e+18,0.0013960284413769841,0.0007630609907209873,-0.0023271525278687477
1.7294929242056302e+18,-0.0009543015039525926,-0.0017355626914650202,-0.001866315957158804
1.7294929242116303e+18,0.0020209483336657286,-0.0008019069791771472,-0.0016219919780269265
1.7294929242206305e+18,0.0008174264221452177,0.000334455311531201,-0.0001998267398448661
1.7294929242296307e+18,-0.0014076998922973871,0.0013984653633087873,-0.0019523975206539035
1.7294929242356308e+18,-0.00010259607370244339,0.000716774316970259,-0.0010121045634150505
1.729492924244631e+18,0.0004471457505133003,0.0010115127079188824,0.0031100038904696703
1.7294929242536312e+18,-0.002572319470345974,0.0025440554600208998,-0.002126406179741025
1.7294929242626314e+18,-0.0015261105727404356,0.0013209120370447636,-0.0021402707789093256
1.7294929242716316e+18,0.000842169625684619,0.001246575266122818,-0.0014254453126341105
1.7294929242806318e+18,0.0008945596637204289,0.0014871214516460896,-0.0007242281571961939
1.729492924286632e+18,-0.00079135358100757,-0.0017185641918331385,0.0019783235620707273
1.7294929242956321e+18,0.0014167953049764037,-4.509292011789512e-06,-0.002254293765872717
1.7294929243046323e+18,0.0015891939401626587,-0.0001836321607697755,0.0002655674470588565
1.7294929243136325e+18,0.000636883603874594,4.188165257801302e-05,0.0010779175208881497
1.7294929243196326e+18,0.0028552457224577665,0.0004843550268560648,-0.0006080329185351729
1.7294929243286328e+18,-0.003418322652578354,-0.0028122905641794205,-0.00016350153600797057
1.729492924337633e+18,0.00040342865395359695,-0.0016889659455046058,-0.0007967749261297286
1.7294929243436332e+18,0.0004698198172263801,0.00023214469547383487,2.165579098800663e-05
1.7294929243526333e+18,-0.0005589202046394348,-0.0010898889740929008,0.0012661726213991642
1.7294929243616335e+18,0.0002823853865265846,0.00037053393316455185,0.0013756065163761377
1.7294929243676337e+18,0.00122078787535429,-0.00013191318430472165,0.0004657597455661744
1.7294929243766339e+18,0.0012093347031623125,-0.0005082857678644359,0.0018110191449522972
1.729492924385634e+18,-0.00017054246563930064,-0.0007374009001068771,0.0014343747170642018
1.7294929243946342e+18,-0.0008996771648526192,0.0011779204942286015,0.0005124633316881955
1.7294929244036344e+18,0.0025546029210090637,-0.0007666480378247797,-0.0011422651587054133
1.7294929244096346e+18,0.0020452928729355335,0.000290598749415949,-0.001333223539404571
1.7294929244186348e+18,0.0014244402991607785,-0.002119494369253516,0.000687959895003587
1.729492924427635e+18,-0.00037335167871788144,-0.000700399570632726,0.001434916746802628
1.7294929244366351e+18,0.0004436565504875034,0.0009140399051830173,0.0008405171683989465
1.7294929244426353e+18,0.0005114550585858524,-0.0008104579173959792,0.0032633841037750244
1.7294929244516355e+18,-0.0009292367030866444,-0.0002494979416951537,-0.0006594937876798213
1.7294929244606356e+18,0.001490607624873519,-0.0003480725281406194,-0.001621099072508514
1.7294929244666358e+18,0.0017190866637974977,0.0009245682740584016,-0.0019315020181238651
1.729492924475636e+18,-0.0013731641229242086,-0.0012311871396377683,-0.0028816673438996077
1.7294929244846362e+18,-0.0008452114416286349,-0.0011048491578549147,-0.00031450274400413036
1.7294929244906363e+18,-0.0009124333737418056,-0.0003626009274739772,-0.000471042818389833
1.7294929244996365e+18,0.0030755321495234966,0.0028650681488215923,-0.00034187486744485795
1.7294929245056366e+18,-0.0005211053648963571,0.0015650753630325198,-0.0009060784941539168
1.7294929245146368e+18,-0.0002435421192785725,0.0010813819244503975,0.0001945817784871906
1.729492924520637e+18,-0.001577644026838243,-0.0007426093798130751,0.0015094461850821972
1.729492924529637e+18,0.0009208703995682299,0.0023229450453072786,-0.002870334079489112
1.7294929245356372e+18,0.0014525337610393763,0.00019220149260945618,-0.0013425103388726711
1.7294929245446374e+18,0.0015516801504418254,0.0019645702559500933,0.001103617949411273
1.7294929245536376e+18,-0.0029160529375076294,0.0017668810905888677,0.00387780973687768
1.7294929245596378e+18,0.002582871587947011,0.00018962094327434897,0.0002127908228430897
1.729492924568638e+18,0.0009498958825133741,-0.0002430666354484856,-0.0008875071071088314
1.7294929245776381e+18,-0.0001503473031334579,0.0011822532396763563,-0.0005401293747127056
1.7294929245836383e+18,0.0008213157998397946,-0.0029384433291852474,-0.0005323030636645854
1.7294929245926385e+18,0.0019063366344198585,-0.0011134076630696654,-0.0010931944707408547
1.7294929246016387e+18,0.0003469651855994016,-0.0032712239772081375,-0.00041742686880752444
1.7294929246076388e+18,-2.2936541427043267e-05,-0.0012917263666167855,0.00011701919720508158
1.729492924616639e+18,0.0014903865521773696,-5.9850284742424265e-05,-0.0027530158404260874
1.7294929246256392e+18,0.0012186386156827211,0.00297721684910357,0.0016882928321138024
1.7294929246346394e+18,-0.0032454344909638166,0.0019444102654233575,-0.0006389268673956394
1.7294929246406395e+18,0.00041997621883638203,-0.0016121864318847656,0.0002950973284896463
1.7294929246496397e+18,-0.003063847543671727,-0.0020275115966796875,0.0008516490343026817
1.72949292465864e+18,0.00017743832722771913,-0.001863781362771988,0.0007827453664503992
1.72949292466764e+18,0.0011060094693675637,0.0019145311089232564,-0.00021559002925641835
1.7294929246766403e+18,0.0009027722990140319,-0.000870967807713896,0.0017068734159693122
1.7294929246826404e+18,-0.0006315388018265367,0.0024837390519678593,-0.0012921523302793503
1.7294929246916406e+18,0.00046007195487618446,-0.0015641101635992527,0.0028354052919894457
1.7294929246976407e+18,-0.002695204457268119,0.001663198578171432,-0.001469187205657363
1.729492924706641e+18,-0.0011638503056019545,-0.0010854975553229451,0.002427391242235899
1.729492924715641e+18,0.0035509648732841015,-0.00036009689210914075,0.001978866057470441
1.7294929247216412e+18,0.0011862879619002342,0.0007166521390900016,0.0022952735889703035
1.7294929247306414e+18,-0.0006790924817323685,0.0014457969227805734,-0.0012911526719108224
1.7294929247366415e+18,0.0011762694921344519,-0.0017616801196709275,0.00289351143874228
1.7294929247456417e+18,0.0018681809306144714,-0.00026807852555066347,0.0007944387034513056
1.729492924754642e+18,-0.0002531242207624018,0.003847759682685137,-0.00104956713039428
1.729492924760642e+18,-0.0010409539099782705,-0.0012510133674368262,-0.0005072958883829415
1.7294929247696422e+18,0.00019786733901128173,-0.001704979338683188,0.0003810961206909269
1.7294929247786424e+18,0.0017079714452847838,-0.0013493385631591082,-0.0032896739430725574
1.7294929247846426e+18,0.00218421989120543,0.002841974375769496,-0.001283103134483099
1.7294929247936428e+18,-0.0011947059538215399,-0.0001338688743999228,0.0009048317442648113
1.729492924802643e+18,0.0008039156091399491,0.002249582437798381,-0.0007124111871235073
1.7294929248116431e+18,-0.0009061378077603877,0.0018439367413520813,-0.001262104487977922
1.7294929248176433e+18,-0.0019695002119988203,-0.000932098540943116,0.0016632971819490194
1.7294929248266435e+18,7.968686986714602e-05,0.0006425928440876305,-0.0006926960195414722
1.7294929248356436e+18,-0.0006467378116212785,-0.0012956676073372364,0.004576808772981167
1.7294929248416438e+18,-0.0006308379233814776,-0.0018929459620267153,0.0019269384210929275
1.729492924850644e+18,0.0014769381377846003,0.0005597363924607635,-0.005011194851249456
1.7294929248596442e+18,0.003272870322689414,0.0023122818674892187,-0.002445403253659606
1.7294929248656443e+18,-0.001163588953204453,-0.00015986000653356314,0.0031352334190160036
1.7294929248746445e+18,-0.0005326420650817454,0.0006905373302288353,0.0012467980850487947
1.7294929248836447e+18,0.0027022373396903276,-0.003022002289071679,-0.002370367990806699
1.7294929248896448e+18,-0.0006286901771090925,0.00012261688243597746,-0.0005255707656033337
1.729492924898645e+18,-7.540579190390417e-06,-0.0024276350159198046,0.001170238945633173
1.7294929249076452e+18,-0.001372358645312488,-0.0010060810018330812,0.0018573779379948974
1.7294929249166454e+18,-0.0012835176894441247,-0.002633359283208847,-0.0009512276737950742
1.7294929249256456e+18,-0.0008099487167783082,0.00247967429459095,0.0006599159678444266
1.7294929249316457e+18,-0.0024773769546300173,-0.002809650031849742,0.0010132634779438376
1.729492924940646e+18,-7.93358776718378e-05,0.00018898812413681298,-0.00388706405647099
1.729492924949646e+18,-0.0013481995556503534,-0.0028313156217336655,0.004035648889839649
1.7294929249586463e+18,0.0005153880920261145,0.000941020785830915,-0.001482009538449347
1.7294929249646464e+18,0.0017243004404008389,0.002381830243393779,0.0007335486588999629
1.7294929249736466e+18,0.0020390928257256746,-0.0005082451971247792,-0.0001798298180801794
1.7294929249796467e+18,0.0002513342769816518,-0.0009083529002964497,3.28630194417201e-05
1.729492924988647e+18,0.001315547269769013,-0.0010930048301815987,-0.0006611415883526206
1.729492924997647e+18,-0.00034414432593621314,-0.0019934314768761396,0.0018291741143912077
1.7294929250036472e+18,0.001820505247451365,0.0004738083225674927,0.0014276058645918965
1.7294929250126474e+18,-0.00030336499912664294,0.0036556825507432222,0.0007542091188952327
1.7294929250216476e+18,0.0006903422181494534,-0.00011349837586749345,0.0020792833529412746
1.7294929250306478e+18,0.0005107317701913416,-0.0012554900022223592,0.0011200454318895936
1.729492925039648e+18,-4.561372406897135e-05,5.446033173939213e-05,0.002763782860711217
1.7294929250456481e+18,-2.127804691554047e-05,0.0003530758840497583,0.0027296480257064104
1.7294929250546483e+18,-0.002819494344294071,-0.0023035421036183834,-0.0013574069598689675
1.7294929250636485e+18,0.00026445009279996157,0.0006097735604271293,0.00015866401372477412
1.7294929250696486e+18,-0.0022048226092010736,0.002162379212677479,-0.0009219706989824772
1.7294929250786488e+18,-0.003207703586667776,-0.002935166237875819,-0.0032170400954782963
1.729492925084649e+18,0.0007714387029409409,-0.0014771653804928064,0.0037524020299315453
1.7294929250936492e+18,0.0013629122404381633,-0.000512618338689208,-0.0012014548992738128
1.7294929250996493e+18,0.0004682905855588615,0.0004286125476937741,-0.0022306160535663366
1.7294929251086495e+18,-0.002815000247210264,-0.0002939004625659436,0.0014734537107869983
1.7294929251146496e+18,0.0007966365665197372,-0.0018980978056788445,-0.001104564405977726
1.7294929251236498e+18,0.002386759966611862,0.0007593536865897477,0.0021833309438079596
1.72949292513265e+18,-0.0011548498878255486,-0.0002751066640485078,-0.002730217995122075
1.72949292513865e+18,-0.0011750363046303391,0.0006449462380260229,-0.0003415588871575892
1.7294929251476503e+18,-0.0011905694846063852,0.0003645670658443123,0.001961281057447195
1.7294929251536504e+18,7.234544318635017e-05,-0.0020031039603054523,0.00042193313129246235
1.7294929251626506e+18,-0.0007832464179955423,-0.0012624647933989763,0.0017893111798912287
1.7294929251716508e+18,-0.00038054186734370887,0.0027617313899099827,0.0006677815690636635
1.729492925177651e+18,-0.0008751142304390669,0.004605683498084545,-0.0016267342725768685
1.7294929251866511e+18,0.0009903446771204472,0.0018151102121919394,-0.00032086987630464137
1.7294929251956513e+18,0.00027782152756117284,0.0005872935289517045,-0.0033960980363190174
1.7294929252016515e+18,0.001026830868795514,-0.0017552945064380765,0.0009654898894950747
1.7294929252106516e+18,0.001279776799492538,-0.0007164794369600713,-0.0005872601759620011
1.7294929252166518e+18,-0.001065827440470457,-0.000802616064902395,-0.001506470376625657
1.729492925225652e+18,0.00020357573521323502,0.0008795776520855725,-0.002465439261868596
1.729492925231652e+18,-0.0012775303330272436,-0.0008340347558259964,0.00028171666781418025
1.7294929252406523e+18,-0.0024823741987347603,0.000935741700232029,0.002465766156092286
1.7294929252526525e+18,0.0010345734190195799,-0.0034683479461818933,0.0009838570840656757
1.7294929252616527e+18,-0.0006713217590004206,-0.0013545152032747865,0.0018799006938934326
1.7294929252676529e+18,0.002324705710634589,0.00037511109258048236,-0.00161779357586056
1.729492925276653e+18,-0.00042862605187110603,0.0001132712495746091,-0.00213639042340219
1.7294929252856532e+18,-0.0011548902839422226,-0.001981954788789153,0.0016868243692442775
1.7294929252916534e+18,0.0012659600470215082,-0.0002527823089621961,-0.0004127193824388087
1.7294929253006536e+18,-0.0011829788563773036,0.0009786554146558046,0.00033155837445519865
1.7294929253096538e+18,-0.0007373112603090703,-0.0008656863356009126,-0.0004172550397925079
1.729492925315654e+18,-0.000552576151676476,0.004355953074991703,0.0008660263265483081
1.729492925324654e+18,0.0026971623301506042,0.0013591920724138618,4.027219256386161e-05
1.7294929253306542e+18,-0.0003803442232310772,0.0006631733849644661,0.0007522497908212245
1.7294929253396544e+18,0.001071474514901638,0.00015284414985217154,-0.0001203049614559859
1.7294929253456545e+18,-0.00039094017120078206,-0.0009925597114488482,-0.000930868205614388
1.7294929253546547e+18,6.350363400997594e-05,-0.0008634109981358051,0.0013456891756504774
1.729492925363655e+18,-0.000990653526969254,-0.0006813312065787613,5.7393128372495994e-05
1.729492925369655e+18,-0.0006203370285220444,0.0035494707990437746,1.077631168300286e-05
1.7294929253786552e+18,-0.0012583892093971372,0.0022977886255830526,-0.0005912613705731928
1.7294929253846554e+18,-0.0015432604122906923,-0.0012193380389362574,-0.0005705678486265242
1.7294929253936556e+18,0.002792482962831855,-0.0022343432065099478,0.0031027670484036207
1.7294929254026557e+18,0.0005823359242640436,-0.0006882172310724854,-0.0025839318986982107
1.729492925411656e+18,0.0005699029425159097,2.46830841206247e-05,0.0014305750373750925
1.729492925417656e+18,0.0007306112674996257,0.0031936729792505503,-0.0020085368305444717
1.7294929254266563e+18,0.001888319500721991,-0.0006515092100016773,0.0013328158529475331
1.7294929254356564e+18,-0.000492679129820317,-0.00041943229734897614,0.0009926289785653353
1.7294929254416566e+18,-0.002470986219123006,-0.0010313327657058835,0.00318037997931242
1.7294929254506568e+18,-0.000413745001424104,0.0018703611567616463,-0.0011909065069630742
1.729492925456657e+18,0.00023142904683481902,0.001766029978170991,-0.000745113065931946
1.729492925465657e+18,-0.0010418789461255074,0.0011244690977036953,-0.00020279224554542452
1.7294929254716572e+18,0.001985252136364579,0.0009365256410092115,-0.001675590523518622
1.7294929254806574e+18,-0.0010356232523918152,-0.0010389124508947134,-0.0010479433694854379
1.7294929254896576e+18,-0.0019190573366358876,-0.0009672564920037985,-0.00027577055152505636
1.7294929254956577e+18,-0.002263394882902503,-0.0019146327394992113,0.002148924395442009
1.729492925504658e+18,0.0017778719775378704,-0.00013749829668086022,-0.0013075831811875105
1.729492925513658e+18,-0.000483023002743721,0.0012546712532639503,-0.0009019612334668636
1.7294929255196582e+18,0.0002751495339907706,-0.0020181939471513033,0.0005673302803188562
1.7294929255286584e+18,-0.0006003494490869343,0.003563147969543934,0.0006837687687948346
1.7294929255376586e+18,-0.001634900108911097,-0.001960038673132658,-0.0019445697544142604
1.7294929255466588e+18,0.002517041051760316,-0.0012625649105757475,0.0007800037274137139
1.729492925552659e+18,3.391800055396743e-05,-0.00028453904087655246,-0.0020601381547749043
1.7294929255616591e+18,0.0016671045450493693,-0.00035872875014320016,0.00011044798156945035
1.7294929255736594e+18,0.0007993315230123699,9.236150071956217e-05,-0.0005900714895687997
1.7294929255826596e+18,-0.0011858164798468351,-0.0014486807631328702,-0.0015439712442457676
1.7294929255916598e+18,0.0011170842917636037,0.0011437280336394906,-0.0009338621748611331
1.72949292559766e+18,0.0017154132947325706,0.0009901757584884763,0.0012738903751596808
1.72949292560666e+18,-0.0014606051845476031,-0.001248636282980442,9.640801727073267e-05
1.7294929256156603e+18,-0.00024008612672332674,0.00014745282533112913,0.0009823942091315985
1.7294929256246605e+18,0.001482661347836256,0.0011811070144176483,0.001319025526754558
1.7294929256336607e+18,-0.0004359806189313531,0.0016964495880529284,0.0030713037122040987
1.7294929256396608e+18,-0.0011767072137445211,-0.0001946048141689971,0.00043846465996466577
1.729492925648661e+18,-0.011254348792135715,-0.015887347981333733,0.0003511657123453915
1.729492925654661e+18,-0.05812383443117142,-0.08205218613147736,-9.884982137009501e-05
1.7294929256636613e+18,-0.1348629891872406,-0.18274863064289093,0.00029062828980386257
1.7294929256696614e+18,-0.18003667891025543,-0.24325509369373322,-0.002840219996869564
1.7294929256786616e+18,-0.23025575280189514,-0.31717783212661743,-0.002523825503885746
1.7294929256846618e+18,-0.2361893653869629,-0.3366922438144684,-0.00547174084931612
1.729492925693662e+18,-0.21574831008911133,-0.33038559556007385,-0.0061147166416049
1.7294929257026621e+18,-0.17615531384944916,-0.3033749759197235,-0.0032511106692254543
1.7294929257086623e+18,-0.15265877544879913,-0.28071099519729614,-0.0065393950790166855
1.7294929257176625e+18,-0.13681381940841675,-0.26294761896133423,-0.0050587826408445835
1.7294929257266627e+18,-0.1483536809682846,-0.27010369300842285,-0.007289287634193897
1.7294929257326628e+18,-0.16751137375831604,-0.2808321714401245,-0.010753713548183441
1.729492925741663e+18,-0.19114580750465393,-0.2985844016075134,-0.008483991026878357
1.729492925747663e+18,-0.1980145275592804,-0.3008243143558502,-0.008790085092186928
1.7294929257566633e+18,-0.1936749517917633,-0.2913304567337036,-0.010331684723496437
1.7294929257656635e+18,-0.1592397391796112,-0.26415351033210754,-0.010422072373330593
1.7294929257716636e+18,-0.1282520443201065,-0.23983560502529144,-0.010895946063101292
1.7294929257806638e+18,-0.09326717257499695,-0.20349469780921936,-0.012244733050465584
1.729492925786664e+18,-0.0771837905049324,-0.1815641224384308,-0.017436403781175613
1.7294929257956641e+18,-0.07291020452976227,-0.16235190629959106,-0.012899513356387615
1.7294929258046643e+18,-0.08138325065374374,-0.15121528506278992,-0.014008322730660439
1.7294929258106644e+18,-0.08779461681842804,-0.14294031262397766,-0.014091886579990387
1.7294929258196646e+18,-0.09009868651628494,-0.13075602054595947,-0.01948917657136917
1.7294929258256648e+18,-0.08074595779180527,-0.11991298943758011,-0.0166696198284626
1.729492925834665e+18,-0.057157423347234726,-0.09590902924537659,-0.014890090562403202
1.729492925840665e+18,-0.03637325018644333,-0.07724548876285553,-0.015892699360847473
1.7294929258496653e+18,-0.006911736447364092,-0.04768532142043114,-0.017290351912379265
1.7294929258556654e+18,0.004238597117364407,-0.02938050590455532,-0.017894964665174484
1.7294929258646656e+18,0.016248751431703568,-0.010055331513285637,-0.01746678538620472
1.7294929258706657e+18,0.013126501813530922,-0.0013783955946564674,-0.017297787591814995
1.729492925879666e+18,0.010130852460861206,0.012580853886902332,-0.018278436735272408
1.729492925885666e+18,0.006682110950350761,0.023788312450051308,-0.01769559271633625
1.7294929258946662e+18,0.009748258627951145,0.035002049058675766,-0.016282692551612854
1.7294929259006664e+18,0.016121191903948784,0.04379711300134659,-0.020492663607001305
1.7294929259096666e+18,0.03162529319524765,0.060962628573179245,-0.020695526152849197
1.7294929259156667e+18,0.04467286542057991,0.07013345509767532,-0.0210136566311121
1.729492925924667e+18,0.05961346626281738,0.08246023207902908,-0.020877471193671227
1.729492925930667e+18,0.06473783403635025,0.09259123355150223,-0.021749475970864296
1.7294929259396672e+18,0.06828153133392334,0.10102739185094833,-0.02221650816500187
1.7294929259486674e+18,0.06200554966926575,0.10929185897111893,-0.020330965518951416
1.7294929259546675e+18,0.05934038385748863,0.113022580742836,-0.01896454580128193
1.7294929259636677e+18,0.05458870530128479,0.1173398345708847,-0.020713502541184425
1.7294929259696678e+18,0.058582860976457596,0.12273640185594559,-0.021841000765562057
1.729492925978668e+18,0.06438888609409332,0.12518310546875,-0.01976063847541809
1.7294929259876682e+18,0.07274626195430756,0.12664665281772614,-0.022277487441897392
1.7294929259936684e+18,0.07654564082622528,0.13400860130786896,-0.020553020760416985
1.7294929260026685e+18,0.0834861621260643,0.13899509608745575,-0.024465294554829597
1.7294929260116687e+18,0.08563146740198135,0.14045561850070953,-0.019020115956664085
1.7294929260176689e+18,0.08242999762296677,0.14154018461704254,-0.01984523981809616
1.729492926026669e+18,0.07901360094547272,0.14252707362174988,-0.023699654266238213
1.7294929260326692e+18,0.07441794127225876,0.1389288306236267,-0.02066221833229065
1.7294929260416694e+18,0.067113496363163,0.1378203183412552,-0.02057482860982418
1.7294929260506696e+18,0.06959037482738495,0.13715429604053497,-0.022519927471876144
1.7294929260566697e+18,0.07310621440410614,0.1351616382598877,-0.02177486941218376
1.72949292606567e+18,0.07381928712129593,0.1312791109085083,-0.02343028411269188
1.72949292607467e+18,0.07936582714319229,0.13432960212230682,-0.023384064435958862
1.7294929260866703e+18,0.07699745148420334,0.1309903860092163,-0.02064480260014534
1.7294929260956705e+18,0.07096828520298004,0.12621231377124786,-0.022689539939165115
1.7294929261046707e+18,0.0677095353603363,0.12220767885446548,-0.020401692017912865
1.7294929261106708e+18,0.06618805229663849,0.118922658264637,-0.02316438779234886
1.729492926119671e+18,0.05943598970770836,0.11675295978784561,-0.022736674174666405
1.7294929261256712e+18,0.060978371649980545,0.11241815984249115,-0.017752833664417267
1.7294929261346714e+18,0.06295304745435715,0.10849550366401672,-0.023713070899248123
1.7294929261436716e+18,0.06627561897039413,0.1040487289428711,-0.018059400841593742
1.7294929261526717e+18,0.06538068503141403,0.10285072028636932,-0.022531837224960327
1.729492926158672e+18,0.05841003730893135,0.09930934011936188,-0.021765079349279404
1.729492926167672e+18,0.054050229489803314,0.09580427408218384,-0.019875608384609222
1.7294929261766723e+18,0.051247067749500275,0.09649674594402313,-0.022725719958543777
1.7294929261826724e+18,0.046955011785030365,0.09052501618862152,-0.02303422801196575
1.7294929261916726e+18,0.04759518802165985,0.08638183772563934,-0.02127659134566784
1.7294929262036728e+18,0.047640666365623474,0.0770735815167427,-0.020948592573404312
1.729492926212673e+18,0.04845075309276581,0.07781842350959778,-0.019669899716973305
1.7294929262186732e+18,0.04723571985960007,0.07388750463724136,-0.019098030403256416
1.7294929262276733e+18,0.04756699874997139,0.07245733588933945,-0.020228587090969086
1.7294929262366735e+18,0.04008113592863083,0.07358699291944504,-0.02011818252503872
1.7294929262426737e+18,0.03842607140541077,0.07043787091970444,-0.022236980497837067
1.7294929262516739e+18,0.0382668562233448,0.07069732248783112,-0.021996423602104187
1.729492926260674e+18,0.033108439296483994,0.06682471185922623,-0.020762430503964424
1.7294929262696742e+18,0.03553606942296028,0.058852385729551315,-0.019003305584192276
1.7294929262756744e+18,0.03727366402745247,0.05472352355718613,-0.02007604017853737
1.7294929262846746e+18,0.03704439476132393,0.05506332591176033,-0.01858406886458397
1.7294929262936748e+18,0.03892882540822029,0.048180509358644485,-0.01664244756102562
1.729492926299675e+18,0.04172609746456146,0.05133373662829399,-0.016385380178689957
1.729492926308675e+18,0.036946944892406464,0.051333531737327576,-0.01746405102312565
1.7294929263176753e+18,0.033217839896678925,0.05372115224599838,-0.01709122397005558
1.7294929263236754e+18,0.030173378065228462,0.049160223454236984,-0.01565941609442234
1.7294929263326756e+18,0.026868632063269615,0.050183914601802826,-0.014137046411633492
1.7294929263416758e+18,0.03147999569773674,0.04640789330005646,-0.01722014881670475
1.729492926350676e+18,0.03417801856994629,0.04551476240158081,-0.016741476953029633
1.729492926356676e+18,0.037430163472890854,0.04360751807689667,-0.014885211363434792
1.7294929263656763e+18,0.034816890954971313,0.04391538351774216,-0.014422410167753696
1.7294929263746765e+18,0.03463931381702423,0.04444844275712967,-0.014456216245889664
1.7294929263806766e+18,0.030151885002851486,0.04286634549498558,-0.015392415225505829
1.7294929263896768e+18,0.025778863579034805,0.0442662313580513,-0.0155399264767766
1.729492926398677e+18,0.02643508091568947,0.04518643766641617,-0.017237793654203415
1.729492926404677e+18,0.02566886879503727,0.046574365347623825,-0.01593913324177265
1.7294929264136773e+18,0.021967396140098572,0.04159980267286301,-0.016204969957470894
1.7294929264226775e+18,0.02746991068124771,0.03781317174434662,-0.01357643399387598
1.7294929264286776e+18,0.024922555312514305,0.037246860563755035,-0.017067328095436096
1.7294929264376778e+18,0.02633398212492466,0.038131263107061386,-0.010202284902334213
1.729492926446678e+18,0.027127046138048172,0.03733622282743454,-0.008746866136789322
1.7294929264556782e+18,0.021829696372151375,0.04079727083444595,-0.01243006344884634
1.7294929264646784e+18,0.019718602299690247,0.0392458550632,-0.008719364181160927
1.7294929264706785e+18,0.02112140692770481,0.03937087208032608,-0.009768723510205746
1.7294929264796787e+18,0.01845921203494072,0.03742507845163345,-0.010036583058536053
1.729492926488679e+18,0.023113904520869255,0.035177089273929596,-0.013252790085971355
1.729492926494679e+18,0.020235924050211906,0.033695854246616364,-0.01194332167506218
1.7294929265036792e+18,0.022309936583042145,0.032475054264068604,-0.01034220214933157
1.7294929265126794e+18,0.02177298255264759,0.03407035022974014,-0.009738421998918056
1.7294929265216796e+18,0.022714830935001373,0.033709850162267685,-0.010761608369648457
1.7294929265336799e+18,0.021856362000107765,0.03574848920106888,-0.008983688428997993
1.72949292654268e+18,0.02335038222372532,0.03331182897090912,-0.009352078661322594
1.7294929265516803e+18,0.02100750431418419,0.03037279099225998,-0.009397576563060284
1.7294929265606804e+18,0.022887935861945152,0.03506750613451004,-0.005595937836915255
1.7294929265696806e+18,0.023351864889264107,0.03354610502719879,-0.009978330694139004
1.7294929265756808e+18,0.02188805304467678,0.03274843841791153,-0.008806051686406136
1.729492926584681e+18,0.02321251854300499,0.030399324372410774,-0.004857322666794062
1.7294929265936812e+18,0.022354252636432648,0.03131977841258049,-0.008382100611925125
1.7294929266026813e+18,0.02007722482085228,0.030565790832042694,-0.0044958447106182575
1.7294929266086815e+18,0.017770184203982353,0.030310021713376045,-0.006659193895757198
1.7294929266176817e+18,0.01492574717849493,0.030741484835743904,-0.0058871000073850155
1.7294929266266819e+18,0.018615901470184326,0.027755532413721085,-0.005825237836688757
1.729492926632682e+18,0.018312448635697365,0.026297882199287415,-0.006003787741065025
1.7294929266416822e+18,0.014215569011867046,0.027658358216285706,-0.00272669130936265
1.7294929266476823e+18,0.015108349733054638,0.028917435556650162,-0.004122670739889145
1.7294929266566825e+18,0.017149701714515686,0.029745416715741158,-0.004799801856279373
1.7294929266656827e+18,0.014315662905573845,0.0315176285803318,-0.004911881405860186
1.729492926680683e+18,0.012298773042857647,0.03393055498600006,-0.000517143402248621
1.7294929266896832e+18,0.014666995033621788,0.028578948229551315,-0.0033249598927795887
1.7294929266986834e+18,0.014304793439805508,0.028467394411563873,-0.0008187326602637768
1.7294929267046835e+18,0.011329099535942078,0.031140731647610664,-0.0032393282745033503
1.7294929267136837e+18,0.0121126314625144,0.02678631991147995,-0.0008005010895431042
1.7294929267196838e+18,0.012926585972309113,0.026264101266860962,-0.0013885954394936562
1.729492926728684e+18,0.013933064416050911,0.027094446122646332,-0.0006083048065192997
1.7294929267376842e+18,0.016192983835935593,0.0245758555829525,-0.00047211250057443976
1.7294929267436844e+18,0.014827868901193142,0.026190822944045067,-0.0023867045529186726
1.7294929267526845e+18,0.014738889411091805,0.024496983736753464,-0.0012421943247318268
1.7294929267586847e+18,0.01563294790685177,0.025601182132959366,-0.0008153400849550962
1.7294929267676849e+18,0.01299193687736988,0.024018628522753716,0.002814145991578698
1.729492926776685e+18,0.013887076638638973,0.025116635486483574,0.001784646068699658
1.7294929267826852e+18,0.01209739688783884,0.023763371631503105,0.0006909685325808823
1.7294929267916854e+18,0.011879839934408665,0.023037748411297798,-0.0015851432690396905
1.7294929268006856e+18,0.010573216713964939,0.0192254688590765,0.0001377007574774325
1.7294929268066857e+18,0.00977270770817995,0.020199256017804146,0.0013846964575350285
1.729492926818686e+18,0.009906746447086334,0.01991516537964344,0.0017287535592913628
1.7294929268276861e+18,0.011416101828217506,0.01719404198229313,-0.0017841169610619545
1.7294929268336863e+18,0.00807640515267849,0.019977450370788574,-0.0007601504912599921
1.7294929268426865e+18,0.006789439357817173,0.020683152601122856,0.002593468176200986
1.7294929268516867e+18,0.009460845962166786,0.022428158670663834,0.0022319271229207516
1.7294929268576868e+18,0.011021412909030914,0.02250479720532894,0.0009785607689991593
1.729492926866687e+18,0.0116093335673213,0.02478417381644249,0.003063981421291828
1.7294929268756872e+18,0.014224691316485405,0.017551280558109283,0.0018230899004265666
1.7294929268816873e+18,0.009268549270927906,0.02010045014321804,0.0019000531174242496
1.7294929268906875e+18,0.008390720002353191,0.017000624909996986,0.003020342905074358
1.7294929268966876e+18,0.009275064803659916,0.01728164404630661,0.0031441482715308666
1.7294929269056878e+18,0.010701857507228851,0.0166588444262743,0.0035060811787843704
1.729492926914688e+18,0.00693271029740572,0.015908759087324142,0.0034360643476247787
1.729492926920688e+18,0.00805170089006424,0.0168889332562685,0.001067750621587038
1.7294929269296883e+18,0.0118218082934618,0.015066954307258129,0.0009857274126261473
1.7294929269356884e+18,0.008204944431781769,0.01337961945682764,0.005116052459925413
1.7294929269446886e+18,0.007929479703307152,0.011634298600256443,0.006456452421844006
1.7294929269506888e+18,0.007317901588976383,0.010692683979868889,0.007938934490084648
1.729492926959689e+18,0.0069940653629601,0.010770178399980068,0.004693780094385147
1.7294929269746893e+18,0.00561540387570858,0.010192329064011574,0.004209017846733332
1.7294929269806894e+18,0.009291409514844418,0.012386986054480076,0.002702241763472557
1.7294929269926897e+18,0.004069565795361996,0.009715631604194641,0.006241039372980595
1.7294929269986898e+18,0.00878245010972023,0.007646429818123579,0.005471011158078909
1.72949292700769e+18,0.00863354466855526,0.008921043947339058,0.007729670964181423
1.7294929270166902e+18,0.009532121941447258,0.008220919407904148,0.0049254558980464935
1.7294929270256904e+18,0.006074750330299139,0.006835137959569693,0.006495347246527672
1.7294929270316905e+18,0.009399427101016045,0.009792382828891277,0.006221454590559006
1.7294929270406907e+18,0.005428480915725231,0.004905601032078266,0.005537248682230711
1.729492927049691e+18,0.006195886060595512,0.004663828760385513,0.005477719008922577
1.729492927058691e+18,0.004481678828597069,0.004674216732382774,0.0057220798917114735
1.7294929270646912e+18,0.0061403424479067326,0.008209580555558205,0.005509012378752232
1.7294929270736914e+18,0.0038692476227879524,0.004733792040497065,0.007985064759850502
1.7294929270826916e+18,0.00530724273994565,0.0035873884335160255,0.004619894083589315
1.7294929270916918e+18,0.0029964656569063663,0.0053084054961800575,0.0065734414383769035
1.729492927100692e+18,0.0011990800267085433,0.0018891911022365093,0.0033476839307695627
1.729492927106692e+18,0.0004893222358077765,-0.0005986029282212257,0.008728761225938797
1.7294929271156923e+18,0.00204693665727973,0.0028771385550498962,0.006383438128978014
1.7294929271246925e+18,0.00464219506829977,0.0069772046990692616,0.005206943955272436
1.7294929271306926e+18,0.00612005265429616,0.0038162441924214363,0.006713274400681257
1.7294929271396928e+18,0.006645315792411566,0.004932736977934837,0.0069771939888596535
1.729492927148693e+18,0.004969421774148941,0.006398412398993969,0.006962848827242851
1.729492927154693e+18,0.0027514733374118805,0.0029924302361905575,0.004721342120319605
1.7294929271636933e+18,0.0031914524734020233,0.0027616533916443586,0.0066494024358689785
1.7294929271726935e+18,-0.0008427625289186835,0.0029052202589809895,0.005814317148178816
1.7294929271786936e+18,0.0037834488321095705,0.004245072137564421,0.007825952023267746
1.7294929271876938e+18,0.0028068162500858307,0.004715621005743742,0.00529944384470582
1.729492927196694e+18,-0.0005493336357176304,0.0019768120255321264,0.007393473759293556
1.7294929272056942e+18,0.0020886901766061783,0.0023295655846595764,0.0063500781543552876
1.7294929272116943e+18,0.0011968091130256653,0.003060575108975172,0.007293893489986658
1.7294929272206945e+18,0.0006178994080983102,0.00024520535953342915,0.0068666827864944935
1.7294929272296947e+18,-0.0017020161030814052,0.0016337089473381639,0.008807649835944176
1.729492927238695e+18,-0.0026086631696671247,5.840312223881483e-05,0.004141440615057945
1.729492927244695e+18,0.0003494446282275021,0.00010749045759439468,0.00728601636365056
1.7294929272536952e+18,0.0018561631441116333,-0.0008277320885099471,0.005327684339135885
1.7294929272596954e+18,0.0030591185204684734,0.0017206227639690042,0.009326893836259842
1.7294929272686956e+18,0.004075260832905769,0.003610048210248351,0.006313048303127289
1.7294929272746957e+18,0.0024206964299082756,0.0005289097316563129,0.00671231746673584
1.7294929272836959e+18,-0.001439928775653243,0.0010839260648936033,0.00402383878827095
1.729492927292696e+18,-0.0008154528331942856,-0.002498513087630272,0.006134474650025368
1.7294929272986962e+18,-0.0017480798996984959,-0.0046538906171917915,0.009677441790699959
1.7294929273076964e+18,-0.0021804729476571083,-0.004480745643377304,0.0053342124447226524
1.7294929273166966e+18,0.0005874603521078825,-0.0031334511004388332,0.007926462218165398
1.7294929273226967e+18,0.0002788652782328427,-0.0005511012859642506,0.005499016493558884
1.729492927331697e+18,0.0033077572006732225,-0.0001516136690042913,0.00313619920052588
1.729492927337697e+18,0.002062532352283597,0.0015565750654786825,0.007484681438654661
1.7294929273466972e+18,0.0010620707180351019,0.002442460972815752,0.006662369705736637
1.7294929273526973e+18,-0.0025378582067787647,-0.0008230480598285794,0.004957225173711777
1.7294929273616975e+18,-0.0014960498083382845,-0.002439694944769144,0.0066025396808981895
1.7294929273706977e+18,-0.001168162445537746,-0.00457786675542593,0.005942637100815773
1.729492927379698e+18,-0.001744370674714446,-0.0032476428896188736,0.00518378522247076
1.729492927385698e+18,-0.0032162193674594164,-0.006118119694292545,0.002990282140672207
1.7294929273946982e+18,0.0009871977381408215,-0.000560019863769412,0.004388492554426193
1.7294929274036984e+18,0.0008504143333993852,-0.0033805910497903824,0.005454584956169128
1.7294929274126986e+18,0.0007639807881787419,-0.00231204298324883,0.004893602803349495
1.7294929274186988e+18,0.0010967868147417903,0.0013817280996590853,0.004206711892038584
1.729492927427699e+18,-0.003662427421659231,0.001285565784201026,0.004623583983629942
1.7294929274366991e+18,-0.002662828890606761,-0.003984187729656696,0.004488400183618069
1.7294929274426993e+18,-0.0027004415169358253,-0.00517553323879838,0.005503996275365353
1.7294929274516995e+18,9.286811109632254e-05,-0.003963525407016277,0.004213368985801935
1.7294929274606996e+18,-0.0011675491696223617,-0.003270344575867057,0.004170755855739117
1.7294929274666998e+18,0.0018926950870081782,-0.00237279012799263,0.007479695603251457
1.7294929274757e+18,0.002575087361037731,-0.0014024866977706552,0.005989893805235624
1.7294929274847002e+18,0.002755901077762246,-0.0002604375476948917,0.00420331908389926
1.7294929274937004e+18,-0.0007889071712270379,-0.0023032238241285086,0.0042159962467849255
1.7294929274997005e+18,-0.002466028556227684,-0.0026239899452775717,0.005102002527564764
1.7294929275087007e+18,-0.0023916345089673996,-0.005228783935308456,0.005076596513390541
1.7294929275177009e+18,-0.004051020834594965,-0.004815259017050266,0.0031077980529516935
1.729492927526701e+18,-0.0018870930653065443,-0.0055341897532343864,0.0018978288862854242
1.7294929275327012e+18,-0.002217823639512062,-0.006087256129831076,0.0062323808670043945
1.7294929275417014e+18,0.0002237043809145689,-0.006170241162180901,0.00411238381639123
1.7294929275507016e+18,-0.0018466119654476643,-0.003223980311304331,0.002377279568463564
1.7294929275567017e+18,-0.002459119539707899,-0.004016628488898277,0.004587340634316206
1.729492927565702e+18,-0.0021627238020300865,-0.004447856452316046,0.006942984648048878
1.729492927574702e+18,-0.0024433101061731577,-0.006433641538023949,0.003165873931720853
1.7294929275807022e+18,-0.0062326998449862,-0.005152781028300524,0.0032285209745168686
1.7294929275897024e+18,-0.008803082630038261,-0.007647972088307142,0.0022754045203328133
1.7294929275987026e+18,-0.003385256975889206,-0.008612163364887238,0.0015400549164041877
1.7294929276047027e+18,-0.005274210125207901,-0.00735805369913578,0.0010190715547651052
1.729492927613703e+18,-0.0018198686884716153,-0.008766497485339642,0.003575395792722702
1.729492927622703e+18,-0.0033616768196225166,-0.008812329731881618,0.004326444119215012
1.7294929276317033e+18,-0.0036377613432705402,-0.011751021258533001,0.004824124276638031
1.7294929276377034e+18,-0.007938861846923828,-0.009210259653627872,0.0015618304023519158
1.7294929276467036e+18,-0.0077623045071959496,-0.011054692789912224,0.0019967311527580023
1.7294929276527037e+18,-0.008670525625348091,-0.00930652767419815,0.004371464252471924
1.729492927661704e+18,-0.010200402699410915,-0.00974416546523571,-0.0007433432620018721
1.729492927670704e+18,-0.011790419928729534,-0.009675931185483932,0.0032505933195352554
1.7294929276767043e+18,-0.00750188110396266,-0.012635883875191212,0.005398347973823547
1.7294929276857044e+18,-0.007358886767178774,-0.009340720251202583,0.0014559682458639145
1.7294929276917046e+18,-0.004828690551221371,-0.012429790571331978,0.0013181205140426755
1.7294929277007048e+18,-0.006017117761075497,-0.00956199411302805,0.001958671724423766
1.729492927706705e+18,-0.002533390186727047,-0.010238835588097572,0.0022046773228794336
1.729492927715705e+18,-0.009310823865234852,-0.006773901171982288,0.0025582085363566875
1.7294929277247053e+18,-0.012458785437047482,-0.007845335640013218,0.003480910323560238
1.7294929277307054e+18,-0.010708987712860107,-0.011864091269671917,0.0014806357212364674
1.7294929277397056e+18,-0.008859716355800629,-0.011635273694992065,-0.000518981134518981
1.7294929277487058e+18,-0.009221828542649746,-0.014657462015748024,0.0014022282557561994
1.729492927754706e+18,-0.005908891558647156,-0.013207326643168926,0.00031151267467066646
1.729492927763706e+18,-0.00969473272562027,-0.01344381831586361,0.0024525823537260294
1.7294929277697062e+18,-0.00836784578859806,-0.013540001586079597,-0.0025861207395792007
1.7294929277787064e+18,-0.0075203473679721355,-0.008580033667385578,0.005027251783758402
1.7294929277877066e+18,-0.005356505513191223,-0.008306324481964111,8.316367166116834e-05
1.7294929277937068e+18,-0.007142788730561733,-0.009729844518005848,0.00015289289876818657
1.729492927802707e+18,-0.0059981998056173325,-0.011694628745317459,0.00031783885788172483
1.7294929278117071e+18,-0.0077970908023417,-0.014404508285224438,0.0004458373296074569
1.7294929278207073e+18,-0.009035976603627205,-0.014997468329966068,-0.00045256971498019993
1.7294929278267075e+18,-0.010183936916291714,-0.014339675195515156,0.0016363796312361956
1.7294929278357076e+18,-0.008417245000600815,-0.011074574664235115,0.0011425146367400885
1.7294929278417078e+18,-0.010098258964717388,-0.012371794320642948,-0.00021398667013272643
1.729492927850708e+18,-0.011049766093492508,-0.008333244360983372,-0.0019202498951926827
1.7294929278597082e+18,-0.006830352824181318,-0.011833833530545235,0.00025633483892306685
1.7294929278657083e+18,-0.008680232800543308,-0.011828686110675335,0.0014811214059591293
1.7294929278747085e+18,-0.008543424308300018,-0.013927730731666088,-0.0026576078962534666
1.7294929278837087e+18,-0.011385973542928696,-0.01454418059438467,-0.0023015651386231184
1.7294929278897088e+18,-0.012826938182115555,-0.011791566386818886,-0.00028212438337504864
1.729492927898709e+18,-0.010554293170571327,-0.012792186811566353,0.0017284072237089276
1.7294929279077092e+18,-0.009629277512431145,-0.013356382958590984,-0.001908936770632863
1.7294929279137093e+18,-0.00892635527998209,-0.013310379348695278,-0.002101501449942589
1.7294929279227095e+18,-0.00886617787182331,-0.010804079473018646,0.0016477956669405103
1.7294929279287096e+18,-0.006510560866445303,-0.012698954902589321,0.0011114715598523617
1.7294929279377098e+18,-0.006541410461068153,-0.013208255171775818,-0.002165649551898241
1.72949292794371e+18,-0.008715340867638588,-0.01318893488496542,-0.003962185699492693
1.7294929279527101e+18,-0.009710880927741528,-0.013387572951614857,-0.004117049276828766
1.7294929279587103e+18,-0.011048536747694016,-0.012311307713389397,-0.003349697683006525
1.7294929279677105e+18,-0.009305586107075214,-0.012648225761950016,-0.002904272638261318
1.7294929279737106e+18,-0.009195063263177872,-0.012851021252572536,-0.001319425879046321
1.7294929279827108e+18,-0.005700069945305586,-0.014627371914684772,-3.164785448461771e-05
1.729492927988711e+18,-0.003878684714436531,-0.012267372570931911,-0.001070366706699133
1.729492927997711e+18,-0.004203807562589645,-0.015979260206222534,-0.0031563551165163517
1.7294929280067113e+18,-0.003241561818867922,-0.016012396663427353,0.007122575305402279
1.7294929280127114e+18,-0.0028844967018812895,-0.015175268054008484,0.016334999352693558
1.7294929280217116e+18,-4.850607365369797e-05,-0.02012191154062748,0.013373180292546749
1.7294929280307118e+18,0.01931370235979557,-0.03440149873495102,-0.006307497620582581
1.729492928036712e+18,0.030867498368024826,-0.03957045078277588,-0.007463219575583935
1.7294929280457121e+18,0.0408097468316555,-0.04848730191588402,-0.011150763370096684
1.7294929280547123e+18,0.04305626079440117,-0.049085527658462524,-0.011093410663306713
1.7294929280607124e+18,0.03550807386636734,-0.04927387461066246,-0.01532885991036892
1.7294929280697126e+18,0.02740347385406494,-0.0456138513982296,-0.01564306765794754
1.7294929280787128e+18,0.018991444259881973,-0.04111006110906601,-0.015545936301350594
1.729492928084713e+18,0.015215382911264896,-0.04021186754107475,-0.014663242734968662
1.7294929280937132e+18,0.01951281912624836,-0.04569162055850029,-0.0173624437302351
1.7294929280997133e+18,0.019919607788324356,-0.04667114466428757,-0.010628163814544678
1.7294929281087135e+18,0.02603732794523239,-0.046403221786022186,-0.01639016717672348
1.7294929281147136e+18,0.027777761220932007,-0.04771704599261284,-0.014590289443731308
1.7294929281237138e+18,0.02701549418270588,-0.044801000505685806,-0.015234238468110561
1.729492928132714e+18,0.019331656396389008,-0.03981088846921921,-0.015237742103636265
1.729492928138714e+18,0.012005524709820747,-0.036605753004550934,-0.014571234583854675
1.7294929281477143e+18,0.00614947872236371,-0.03466685488820076,-0.012018456123769283
1.7294929281537144e+18,0.001178777776658535,-0.034871656447649,-0.012396321631968021
1.7294929281627146e+18,-0.0011613377137109637,-0.03128531947731972,-0.009031585417687893
1.7294929281687148e+18,-0.001100094523280859,-0.03304330259561539,-0.011083951219916344
1.729492928177715e+18,-0.00017417059279978275,-0.02839735895395279,-0.009689267724752426
1.729492928183715e+18,0.0030388522427529097,-0.03132440522313118,-0.004735393915325403
1.7294929281927153e+18,0.000948060886003077,-0.02719232626259327,-0.0001651337370276451
1.7294929282017155e+18,-0.002216063439846039,-0.022428316995501518,0.0013676723465323448
1.7294929282077156e+18,-0.0060450793243944645,-0.017785536125302315,0.0047299498692154884
1.7294929282167158e+18,-0.014636129140853882,-0.01735609956085682,0.007402710150927305
1.729492928225716e+18,-0.023862384259700775,-0.015393679961562157,0.007263645529747009
1.729492928231716e+18,-0.02485443651676178,-0.013968383893370628,0.014074262231588364
1.7294929282407163e+18,-0.02305859886109829,-0.01302275899797678,0.016792137175798416
1.7294929282467164e+18,-0.026371311396360397,-0.013661002740263939,0.01852685771882534
1.7294929282557166e+18,-0.020132537931203842,-0.009168342687189579,0.0259677916765213
1.7294929282647168e+18,-0.0210132896900177,-0.009571447968482971,0.027413466945290565
1.729492928270717e+18,-0.019682377576828003,-0.008166861720383167,0.03420690819621086
1.729492928279717e+18,-0.02237262949347496,-0.007306013721972704,0.03978295624256134
1.7294929282887173e+18,-0.030210457742214203,-0.006482731085270643,0.0436246283352375
1.7294929282977175e+18,-0.031898945569992065,-0.006728846579790115,0.04776547849178314
1.7294929283037176e+18,-0.03646937012672424,-0.006031107157468796,0.05170496925711632
1.7294929283127178e+18,-0.0355231873691082,-0.004361002705991268,0.05756603926420212
1.729492928321718e+18,-0.031614240258932114,-0.004407927393913269,0.06466975808143616
1.7294929283277181e+18,-0.03363044187426567,-0.003763101063668728,0.07031881809234619
1.7294929283367183e+18,-0.027878642082214355,-0.0006370558403432369,0.0739218071103096
1.7294929283427185e+18,-0.026484178379178047,-0.0003083461197093129,0.07986395061016083
1.7294929283517187e+18,-0.030793534591794014,0.002942917635664344,0.08541680872440338
1.7294929283607188e+18,-0.032270919531583786,0.000702279678080231,0.0898120328783989
1.729492928366719e+18,-0.03330273553729057,-9.526091162115335e-06,0.09305749088525772
1.7294929283757192e+18,-0.03608839958906174,0.0006878487765789032,0.09689223766326904
1.7294929283847194e+18,-0.033966463059186935,-0.002327806083485484,0.10385198891162872
1.7294929283937196e+18,-0.029999855905771255,-0.003203253960236907,0.1114235520362854
1.7294929283997197e+18,-0.029425395652651787,0.003064017277210951,0.11409780383110046
1.72949292840872e+18,-0.02726384624838829,0.004757929127663374,0.12038162350654602
1.72949292841772e+18,-0.024926457554101944,0.002653660951182246,0.12686456739902496
1.7294929284237202e+18,-0.024396231397986412,0.0037916998844593763,0.1301804929971695
1.7294929284327204e+18,-0.02576531656086445,0.0030971397645771503,0.13545392453670502
1.7294929284417206e+18,-0.024536874145269394,-0.00021677219774574041,0.13955341279506683
1.7294929284477207e+18,-0.029150625690817833,-0.0008388441056013107,0.14127783477306366
1.729492928456721e+18,-0.026043115183711052,-0.005340987350791693,0.1505255103111267
1.729492928465721e+18,-0.02440294623374939,-0.005249759182333946,0.14949223399162292
1.7294929284717212e+18,-0.022559208795428276,-0.005860073491930962,0.15193724632263184
1.7294929284807214e+18,-0.019871873781085014,-0.006231237202882767,0.16062355041503906
1.7294929284867215e+18,-0.0192800872027874,-0.003370760940015316,0.16411565244197845
1.7294929284957217e+18,-0.017222758382558823,-0.004756801761686802,0.1665126085281372
1.7294929285017219e+18,-0.017927341163158417,-0.00302899070084095,0.17207230627536774
1.729492928510722e+18,-0.01708156429231167,-0.0030016738455742598,0.17486973106861115
1.7294929285167222e+18,-0.017833860591053963,-0.006098841316998005,0.1767987161874771
1.7294929285257224e+18,-0.019360870122909546,-0.006729682441800833,0.17957578599452972
1.7294929285317225e+18,-0.019512413069605827,-0.005964100360870361,0.18096217513084412
1.7294929285407227e+18,-0.01642342284321785,-0.003924221731722355,0.1835208237171173
1.729492928549723e+18,-0.014057516120374203,-0.008739653043448925,0.18721887469291687
1.729492928555723e+18,-0.012456882745027542,-0.006454430986195803,0.19130632281303406
1.7294929285647232e+18,-0.012245108373463154,-0.0079750781878829,0.19425204396247864
1.7294929285737234e+18,-0.009602546691894531,-0.00837337039411068,0.19629475474357605
1.7294929285797235e+18,-0.01602882705628872,-0.009319682605564594,0.19877420365810394
1.7294929285887237e+18,-0.011542532593011856,-0.008420530706644058,0.19681106507778168
1.729492928597724e+18,-0.011062325909733772,-0.011334116570651531,0.19987022876739502
1.729492928603724e+18,-0.015959545969963074,-0.011293299496173859,0.20217673480510712
1.7294929286127242e+18,-0.010318899527192116,-0.010656326077878475,0.20400473475456238
1.7294929286187244e+18,-0.013195378705859184,-0.009436080232262611,0.20715709030628204
1.7294929286277245e+18,-0.010179982520639896,-0.009114904329180717,0.20915569365024567
1.7294929286367247e+18,-0.009343852289021015,-0.009150552563369274,0.20980232954025269
1.7294929286427249e+18,-0.011551707983016968,-0.010568647645413876,0.21015137434005737
1.729492928651725e+18,-0.009388474747538567,-0.0142435934394598,0.20923759043216705
1.7294929286577252e+18,-0.009236247278749943,-0.014976915903389454,0.21059194207191467
1.7294929286697254e+18,-0.01035328023135662,-0.013394992798566818,0.21279950439929962
1.7294929286757256e+18,-0.012081964872777462,-0.014637126587331295,0.214772567152977
1.7294929286847258e+18,-0.010331300087273121,-0.01273528765887022,0.21522893011569977
1.729492928693726e+18,-0.010551800951361656,-0.016275357455015182,0.21604399383068085
1.729492928699726e+18,-0.00762546993792057,-0.01595401018857956,0.21486085653305054
1.7294929287087263e+18,-0.01148977316915989,-0.0151447132229805,0.21273425221443176
1.7294929287177265e+18,-0.011692139320075512,-0.014770842157304287,0.21559447050094604
1.7294929287237266e+18,-0.01457725279033184,-0.015554509125649929,0.21591395139694214
1.7294929287327268e+18,-0.014731856994330883,-0.018764670938253403,0.21186912059783936
1.729492928738727e+18,-0.012264884077012539,-0.017078077420592308,0.21669386327266693
1.729492928747727e+18,-0.013951877132058144,-0.0174371600151062,0.211784228682518
1.7294929287597274e+18,-0.01375519298017025,-0.015653293579816818,0.2137676179409027
1.7294929287717276e+18,-0.012154951691627502,-0.01517337467521429,0.21279257535934448
1.7294929287837279e+18,-0.0124423298984766,-0.01235919538885355,0.21007168292999268
1.729492928789728e+18,-0.014403095468878746,-0.012248057872056961,0.2061230093240738
1.7294929287987282e+18,-0.0130369383841753,-0.014947119168937206,0.21032725274562836
1.7294929288047283e+18,-0.01581270806491375,-0.015959879383444786,0.20793943107128143
1.7294929288137285e+18,-0.011584482155740261,-0.016149457544088364,0.20740148425102234
1.7294929288227287e+18,-0.011522402986884117,-0.019325237721204758,0.20539365708827972
1.7294929288287288e+18,-0.016793137416243553,-0.016129719093441963,0.20120961964130402
1.729492928837729e+18,-0.012499889358878136,-0.015391182154417038,0.20302997529506683
1.7294929288437292e+18,-0.014646170660853386,-0.011875331401824951,0.200828418135643
1.7294929288527293e+18,-0.0131293423473835,-0.014224104583263397,0.19972948729991913
1.7294929288617295e+18,-0.011459875851869583,-0.014486114494502544,0.19654372334480286
1.7294929288677297e+18,-0.011914524249732494,-0.012814736925065517,0.1910080462694168
1.7294929288767299e+18,-0.012409119866788387,-0.009416135028004646,0.19427406787872314
1.72949292888573e+18,-0.01148273330181837,-0.013001648709177971,0.19284769892692566
1.7294929288917302e+18,-0.01290640514343977,-0.007855190895497799,0.18946541845798492
1.7294929289007304e+18,-0.012997588142752647,-0.012122830376029015,0.18674106895923615
1.7294929289067305e+18,-0.015311728231608868,-0.006225112825632095,0.18632324039936066
1.7294929289157307e+18,-0.01734326407313347,-0.011061672121286392,0.1826906055212021
1.7294929289217308e+18,-0.01762445643544197,-0.007095904555171728,0.17771761119365692
1.729492928930731e+18,-0.012857736088335514,-0.007374917156994343,0.1787867397069931
1.7294929289367311e+18,-0.015002469532191753,-0.008666480891406536,0.17864438891410828
1.7294929289457313e+18,-0.012755373492836952,-0.007058820687234402,0.17873845994472504
1.7294929289547315e+18,-0.012092464603483677,-0.00759805366396904,0.16954515874385834
1.7294929289607316e+18,-0.012248044833540916,-0.007969656959176064,0.1711038053035736
1.7294929289697318e+18,-0.01384392287582159,-0.005896239075809717,0.16739143431186676
1.729492928975732e+18,-0.013648001477122307,-0.006462510209530592,0.1662425547838211
1.7294929289847322e+18,-0.017262790352106094,-0.006261629983782768,0.16184434294700623
1.7294929289907323e+18,-0.015168149024248123,-0.0031271183397620916,0.16257505118846893
1.7294929289997325e+18,-0.016259636729955673,-0.0035745028872042894,0.1583380401134491
1.7294929290057326e+18,-0.01504430454224348,-0.003454286139458418,0.1539396494626999
1.7294929290147328e+18,-0.014819150790572166,-0.004926165100187063,0.15288542211055756
1.729492929023733e+18,-0.013560392893850803,-0.007509283721446991,0.15091557800769806
1.7294929290327332e+18,-0.015552711673080921,-0.005880002398043871,0.14861993491649628
1.7294929290387333e+18,-0.015062128193676472,-0.008433109149336815,0.14387834072113037
1.7294929290477335e+18,-0.016494685783982277,-0.006898326333612204,0.14202231168746948
1.7294929290567337e+18,-0.015303811989724636,-0.009616222232580185,0.13642461597919464
1.7294929290627338e+18,-0.017977915704250336,-0.0045331185683608055,0.1364058405160904
1.729492929071734e+18,-0.011746121570467949,-0.005060182418674231,0.13206513226032257
1.7294929290807342e+18,-0.015582559630274773,-0.007201450876891613,0.13147765398025513
1.7294929290867343e+18,-0.013609731569886208,-0.007239173632115126,0.12789218127727509
1.7294929290957345e+18,-0.01181486714631319,-0.005938537418842316,0.1255798637866974
1.7294929291047347e+18,-0.012595820240676403,-0.0033981387969106436,0.12274637818336487
1.7294929291107348e+18,-0.013893731869757175,-9.799469262361526e-05,0.12032875418663025
1.729492929119735e+18,-0.016823042184114456,-0.004649665206670761,0.11401675641536713
1.7294929291257352e+18,-0.016544530168175697,-0.0020440288353711367,0.11524656414985657
1.7294929291347354e+18,-0.017078474164009094,-0.0015685348771512508,0.1098535805940628
1.7294929291437356e+18,-0.01680942066013813,-0.006036769598722458,0.1036628931760788
1.7294929291497357e+18,-0.014946643263101578,-0.006354111712425947,0.10762372612953186
1.729492929158736e+18,-0.013346641324460506,-0.003282316029071808,0.09903766214847565
1.729492929167736e+18,-0.012621970847249031,-0.000162546057254076,0.09839310497045517
1.7294929291737362e+18,-0.008931396529078484,0.000807684613391757,0.09723306447267532
1.7294929291827364e+18,-0.013730896636843681,-0.0015565294306725264,0.09318625181913376
1.7294929291917366e+18,-0.011671815998852253,-0.0039061896968632936,0.08684767782688141
1.7294929292007368e+18,-0.013901853933930397,-0.0018784429412335157,0.08781671524047852
1.729492929206737e+18,-0.01378778275102377,-0.0038777654990553856,0.08323965966701508
1.7294929292187372e+18,-0.007628481835126877,-0.0025447802618145943,0.07830996811389923
1.7294929292277373e+18,-0.011988512240350246,-0.0037078859750181437,0.07633378356695175
1.7294929292367375e+18,-0.007910601794719696,-0.0006894671241752803,0.07034828513860703
1.7294929292487378e+18,-0.01864110305905342,-0.011573268100619316,0.0704774335026741
1.729492929254738e+18,-0.028937608003616333,-0.021735677495598793,0.06654193997383118
1.729492929263738e+18,-0.0390477329492569,-0.03348592668771744,0.0648801252245903
1.7294929292727383e+18,-0.048688262701034546,-0.04856216907501221,0.06313551962375641
1.7294929292817385e+18,-0.05145513638854027,-0.052205104380846024,0.06382982432842255
1.7294929292877386e+18,-0.049291566014289856,-0.049328915774822235,0.06324142217636108
1.7294929292967388e+18,-0.04217374324798584,-0.04892507195472717,0.05768941715359688
1.729492929302739e+18,-0.03870702162384987,-0.0491093210875988,0.05864780396223068
1.7294929293117391e+18,-0.03858156129717827,-0.053590450435876846,0.05881839245557785
1.7294929293207393e+18,-0.04363710433244705,-0.0561605840921402,0.05908907204866409
1.7294929293267395e+18,-0.04666946828365326,-0.05612867698073387,0.055174220353364944
1.7294929293357396e+18,-0.054423440247774124,-0.06244819983839989,0.0564025416970253
1.7294929293417398e+18,-0.053826212882995605,-0.06527771055698395,0.05489693582057953
1.72949292935074e+18,-0.05017784982919693,-0.06861484795808792,0.04889609292149544
1.7294929293597402e+18,-0.04749118909239769,-0.06358614563941956,0.04948253557085991
1.7294929293657403e+18,-0.045679397881031036,-0.05972473695874214,0.050714120268821716
1.7294929293747405e+18,-0.0410008542239666,-0.05794284865260124,0.047050103545188904
1.7294929293837407e+18,-0.0381198413670063,-0.054414041340351105,0.047820743173360825
1.7294929293927409e+18,-0.03570859879255295,-0.04828892648220062,0.04754682630300522
1.729492929398741e+18,-0.03972692787647247,-0.04877734184265137,0.043185584247112274
1.7294929294077412e+18,-0.03609532490372658,-0.046117689460515976,0.04356636106967926
1.7294929294137413e+18,-0.03776463866233826,-0.04266097769141197,0.043313950300216675
1.7294929294227415e+18,-0.03701464459300041,-0.04231308400630951,0.041182465851306915
1.7294929294317417e+18,-0.03340563923120499,-0.04042389988899231,0.042377371340990067
1.7294929294377418e+18,-0.03321586549282074,-0.04363427311182022,0.0428093820810318
1.729492929446742e+18,-0.029804108664393425,-0.04005524516105652,0.03621266037225723
1.7294929294557422e+18,-0.027272770181298256,-0.03471564128994942,0.03677041456103325
1.7294929294617423e+18,-0.02184125781059265,-0.03274675831198692,0.034491751343011856
1.7294929294707425e+18,-0.018466630950570107,-0.028760258108377457,0.03838222473859787
1.7294929294797427e+18,-0.01857132278382778,-0.02501833811402321,0.03511384502053261
1.7294929294857428e+18,-0.02196747437119484,-0.02539503574371338,0.03444673866033554
1.729492929494743e+18,-0.024688642472028732,-0.024827254936099052,0.030989982187747955
1.7294929295037432e+18,-0.024647194892168045,-0.025771066546440125,0.03041750378906727
1.7294929295097434e+18,-0.022855650633573532,-0.0206555537879467,0.03374780714511871
1.7294929295187436e+18,-0.016435787081718445,-0.018306605517864227,0.03128793090581894
1.7294929295247437e+18,-0.013599843718111515,-0.01692156493663788,0.028924521058797836
1.729492929536744e+18,-0.009524740278720856,-0.009489241987466812,0.02959117293357849
1.729492929542744e+18,-0.005316656548529863,-0.007142702117562294,0.027894167229533195
1.7294929295517443e+18,-0.006510579958558083,-0.005935017950832844,0.0253799706697464
1.7294929295607444e+18,-0.004679182078689337,-0.002491394057869911,0.024877402931451797
1.7294929295667446e+18,-0.010597363114356995,-0.0012103933840990067,0.025864623486995697
1.7294929295757448e+18,-0.004070125985890627,-0.0007802109466865659,0.02481725439429283
1.729492929584745e+18,-0.0056181359104812145,0.0006078951410017908,0.02304326929152012
1.729492929590745e+18,-0.0016245455481112003,-0.00019311132200527936,0.027358347550034523
1.7294929295997453e+18,0.001740225707180798,-0.0003096876898780465,0.018882600590586662
1.7294929296057454e+18,0.002729045692831278,0.0026541310362517834,0.021228468045592308
1.7294929296147456e+18,0.002482048701494932,0.0040464820340275764,0.019741948693990707
1.7294929296207457e+18,0.0016972313169389963,0.0039038490504026413,0.020655201748013496
1.729492929629746e+18,-0.0004461838398128748,0.006789201870560646,0.02109452523291111
1.729492929638746e+18,-0.0010825396748259664,0.009240513667464256,0.01704656332731247
1.7294929296447462e+18,-0.001379952416755259,0.007984279654920101,0.01669209450483322
1.7294929296537464e+18,-0.0024391619954258204,0.01075094472616911,0.019376829266548157
1.7294929296627466e+18,0.005245737265795469,0.012237872928380966,0.019628247246146202
1.7294929296717468e+18,0.0031048189848661423,0.012877613306045532,0.01922668144106865
1.729492929683747e+18,0.007238383404910564,0.011577269062399864,0.01622130163013935
1.7294929296927473e+18,0.007953878492116928,0.010391191579401493,0.012649270705878735
1.7294929297017475e+18,0.0037409579381346703,0.009036799892783165,0.0148624861612916
1.7294929297077476e+18,0.003767620073631406,0.009525533765554428,0.014841082505881786
1.7294929297167478e+18,0.004824416246265173,0.005790529306977987,0.012516185641288757
1.729492929725748e+18,0.004933975636959076,0.007808620110154152,0.011762664653360844
1.729492929731748e+18,0.005580973345786333,0.006413268391042948,0.015073221176862717
1.7294929297407483e+18,0.00686114514246583,0.004824834410101175,0.01381075382232666
1.7294929297497485e+18,0.00687699019908905,0.008464572951197624,0.01085111778229475
1.7294929297557486e+18,0.008038406260311604,0.009592918679118156,0.011360260657966137
1.7294929297647488e+18,0.008317447267472744,0.008451770059764385,0.010518618859350681
1.729492929773749e+18,0.005837818142026663,0.006496969610452652,0.013792778365314007
1.729492929779749e+18,0.004173188470304012,0.008271122351288795,0.010281073860824108
1.7294929297917494e+18,0.009610706940293312,0.006382871884852648,0.010162453167140484
1.7294929298007496e+18,0.011136678978800774,0.006008482072502375,0.010718102566897869
1.7294929298097498e+18,0.007588316220790148,0.008656635880470276,0.008995194919407368
1.72949292981575e+18,0.009304068982601166,0.0036385832354426384,0.00496487133204937
1.72949292982475e+18,0.010341951623558998,0.006706572137773037,0.006930985487997532
1.7294929298337503e+18,0.006872706580907106,0.005341047421097755,0.007026078179478645
1.7294929298397504e+18,0.008621386252343655,0.00739128515124321,0.009188253432512283
1.7294929298487506e+18,0.007022323086857796,0.0031079864129424095,0.006759408861398697
1.7294929298577508e+18,0.008884857408702374,0.004972850903868675,0.003740401240065694
1.729492929863751e+18,0.009480753913521767,0.0065843104384839535,0.003110670717433095
1.729492929872751e+18,0.009789480827748775,0.00885457918047905,0.008402043022215366
1.7294929298817513e+18,0.009239793755114079,0.010336067527532578,0.0034676152281463146
1.7294929298877514e+18,0.006670709699392319,0.00679255835711956,0.0038589476607739925
1.7294929298967516e+18,0.009010586887598038,0.007580297999083996,0.005211943760514259
1.7294929299057518e+18,0.007131188176572323,0.007165039423853159,0.004034934099763632
1.729492929911752e+18,0.00796457938849926,0.009478672407567501,0.005277981515973806
1.729492929920752e+18,0.00918892677873373,0.0038194169756025076,0.0069877831265330315
1.7294929299297523e+18,0.010226949118077755,0.007772698998451233,0.0019969502463936806
1.7294929299357524e+18,0.014055050909519196,0.005248307716101408,0.000693374895490706
1.7294929299447526e+18,0.016191385686397552,0.006672299467027187,0.003987613599747419
1.7294929299537528e+18,0.01678369753062725,0.010772322304546833,0.0032626905012875795
1.729492929959753e+18,0.01431294810026884,0.007627974729984999,0.0023654799442738295
1.7294929299687532e+18,0.01499155443161726,0.011003179475665092,0.0025838445872068405
1.7294929299777533e+18,0.013751750811934471,0.01094293873757124,0.0009484263719059527
1.7294929299837535e+18,0.01504247821867466,0.011689822189509869,0.0016697479877620935
1.7294929299927537e+18,0.016801273450255394,0.008826598525047302,0.000744385935831815
1.7294929300017539e+18,0.018781645223498344,0.011745495721697807,0.00019362382590770721
1.729492930007754e+18,0.017583835870027542,0.010357975028455257,0.002494219457730651
1.7294929300167542e+18,0.018983716145157814,0.009670860134065151,0.0010003161150962114
1.7294929300257544e+18,0.015709850937128067,0.014588287100195885,-0.003986116964370012
1.7294929300317545e+18,0.016937192529439926,0.013587620109319687,0.0007041492499411106
1.7294929300407547e+18,0.012436239048838615,0.014457710087299347,8.876866195350885e-05
1.729492930049755e+18,0.013884611427783966,0.013852220959961414,0.0004671871429309249
1.729492930058755e+18,0.018513519316911697,0.007471124641597271,-0.002375930780544877
1.7294929300647552e+18,0.020196158438920975,0.009432992897927761,-0.0031311949715018272
1.7294929300737554e+18,0.018161196261644363,0.011965813115239143,-0.0009411585051566362
1.7294929300827556e+18,0.020985035225749016,0.01531403698027134,-0.000203361501917243
1.7294929300887557e+18,0.018405834212899208,0.01011319924145937,-0.00379099790006876
1.729492930097756e+18,0.02016853168606758,0.014266176149249077,-0.0030295492615550756
1.729492930103756e+18,0.02130448818206787,0.019205577671527863,-0.005437799729406834
1.7294929301127562e+18,0.018249142915010452,0.01846431940793991,-0.003584098070859909
1.7294929301217564e+18,0.0203991811722517,0.013185523450374603,-0.003088503610342741
1.7294929301277565e+18,0.021443825215101242,0.014324326999485493,-0.003442823188379407
1.7294929301367567e+18,0.023279495537281036,0.014650357887148857,-0.003357144771143794
1.729492930145757e+18,0.022089671343564987,0.012694146484136581,-0.0030926489271223545
1.729492930151757e+18,0.022032596170902252,0.014974253252148628,-0.003385427873581648
1.7294929301607572e+18,0.02214141935110092,0.014855381101369858,-0.004283194430172443
1.7294929301667574e+18,0.02056310698390007,0.012661881744861603,-0.0007555331103503704
1.7294929301757576e+18,0.017795804888010025,0.01379281934350729,-0.0028153297025710344
1.7294929301847578e+18,0.019059021025896072,0.011877985671162605,-0.0037754634395241737
1.729492930193758e+18,0.016087263822555542,0.008352733217179775,-0.006735801696777344
1.729492930199758e+18,0.01993243396282196,0.013199377804994583,-0.005743092857301235
1.7294929302087583e+18,0.015461338683962822,0.009873548522591591,-0.0030361288227140903
1.7294929302147584e+18,0.02114763855934143,0.013337197713553905,-0.0039411988109350204
1.7294929302237586e+18,0.0202182587236166,0.014562440104782581,-0.004170548170804977
1.7294929302327588e+18,0.018098246306180954,0.011527924798429012,-0.006138237193226814
1.729492930238759e+18,0.02044573239982128,0.013059158809483051,-0.003214858006685972
1.729492930247759e+18,0.019698884338140488,0.014486986212432384,-0.004452521447092295
1.7294929302567593e+18,0.020357031375169754,0.016532113775610924,-0.00378364697098732
1.7294929302657595e+18,0.02079072780907154,0.010949771851301193,-0.006602724082767963
1.7294929302747597e+18,0.027305997908115387,0.018619516864418983,-0.006200713105499744
1.7294929302837599e+18,0.024112222716212273,0.016814935952425003,-0.005614456720650196
1.72949293029276e+18,0.02589072287082672,0.015200861729681492,-0.006506605539470911
1.7294929302987602e+18,0.025693384930491447,0.010740364901721478,-0.007948472164571285
1.7294929303077604e+18,0.02605195716023445,0.011696960777044296,-0.004563093651086092
1.7294929303137605e+18,0.024340080097317696,0.01360850129276514,-0.0056006042286753654
1.7294929303227607e+18,0.02206750027835369,0.014129947870969772,-0.006777366157621145
1.7294929303287608e+18,0.023410411551594734,0.013422269374132156,-0.008578904904425144
1.729492930337761e+18,0.023373384028673172,0.016383852809667587,-0.008914975449442863
1.7294929303467612e+18,0.022006843239068985,0.012577909044921398,-0.009649399667978287
1.7294929303527613e+18,0.025029288604855537,0.013846147805452347,-0.0061152419075369835
1.7294929303617615e+18,0.02886969782412052,0.012687712907791138,-0.005535264033824205
1.7294929303677617e+18,0.03181005269289017,0.013128649443387985,-0.004832631908357143
1.7294929303767619e+18,0.03016115538775921,0.011938086710870266,-0.007780586369335651
1.729492930385762e+18,0.03128105029463768,0.010789194144308567,-0.007006613537669182
1.7294929303947622e+18,0.03007061406970024,0.010729284025728703,-0.008415117859840393
1.7294929304007624e+18,0.02964363805949688,0.01207814458757639,-0.005561132449656725
1.7294929304097626e+18,0.027973590418696404,0.012035652063786983,-0.011217011138796806
1.7294929304157627e+18,0.02616514079272747,0.013895520940423012,-0.0072425357066094875
1.729492930424763e+18,0.023710530251264572,0.013535832986235619,-0.007846017368137836
1.729492930433763e+18,0.024566102772951126,0.011050136759877205,-0.008735879324376583
1.7294929304397632e+18,0.027157334610819817,0.0132615240290761,-0.005480227991938591
1.7294929304487634e+18,0.027035709470510483,0.01206966396421194,-0.009280863218009472
1.7294929304577636e+18,0.03187848627567291,0.01225148793309927,-0.007786784321069717
1.7294929304637637e+18,0.031182799488306046,0.010472746565937996,-0.010069810785353184
1.729492930472764e+18,0.028164537623524666,0.013844241388142109,-0.008287804201245308
1.729492930481764e+18,0.028859535232186317,0.014489133842289448,-0.008970447815954685
1.7294929304877642e+18,0.026627466082572937,0.014848698861896992,-0.011824115179479122
1.7294929304967644e+18,0.023806720972061157,0.014604355208575726,-0.007776841055601835
1.7294929305057646e+18,0.023263251408934593,0.018220752477645874,-0.0057851532474160194
1.7294929305117647e+18,0.02496100589632988,0.013385230675339699,-0.007071981206536293
1.729492930520765e+18,0.02363665960729122,0.012230318039655685,-0.012381935492157936
1.729492930526765e+18,0.026330627501010895,0.012649079784750938,-0.008490978740155697
1.7294929305357652e+18,0.028120355680584908,0.013282367959618568,-0.006642092950642109
1.7294929305447654e+18,0.029000161215662956,0.008868968114256859,-0.009590214118361473
1.7294929305537656e+18,0.028510794043540955,0.014650285243988037,-0.011028849519789219
1.7294929305597658e+18,0.023723801597952843,0.013323971070349216,-0.008098926395177841
1.729492930568766e+18,0.026583407074213028,0.010074426420032978,-0.008828386664390564
1.7294929305777661e+18,0.026673180982470512,0.011649738997220993,-0.006763050332665443
1.7294929305867663e+18,0.02800143137574196,0.012578763999044895,-0.00917304027825594
1.7294929305927665e+18,0.029752695932984352,0.009540182538330555,-0.009084878489375114
1.7294929306017667e+18,0.029766926541924477,0.012947052717208862,-0.011167560704052448
1.7294929306107668e+18,0.030064811930060387,0.011511927470564842,-0.011496747843921185
1.729492930616767e+18,0.026264604181051254,0.009091012179851532,-0.010710795409977436
1.7294929306257672e+18,0.02653486467897892,0.013173270039260387,-0.009770181961357594
1.7294929306317673e+18,0.025872036814689636,0.011777692474424839,-0.011501505970954895
1.7294929306407675e+18,0.027587173506617546,0.014774110168218613,-0.007527701556682587
1.7294929306497677e+18,0.02637913078069687,0.011388542130589485,-0.008100694976747036
1.7294929306557678e+18,0.026680415496230125,0.011944841593503952,-0.008562767878174782
1.729492930664768e+18,0.028224831447005272,0.011870783753693104,-0.010272041894495487
1.7294929306737682e+18,0.029771847650408745,0.00912815798074007,-0.012093152850866318
1.7294929306797683e+18,0.027052896097302437,0.01172409113496542,-0.012661377899348736
1.7294929306887685e+18,0.029004164040088654,0.015648115426301956,-0.013460490852594376
1.7294929306977687e+18,0.025549303740262985,0.013238110579550266,-0.011212240904569626
1.7294929307037688e+18,0.026550328359007835,0.013719812035560608,-0.01046501100063324
1.729492930712769e+18,0.024286912754178047,0.014657326973974705,-0.007279661484062672
1.7294929307187692e+18,0.027175238355994225,0.014658422209322453,-0.008747689425945282
1.7294929307277693e+18,0.026790965348482132,0.014527718536555767,-0.009138773195445538
1.7294929307367695e+18,0.028577659279108047,0.01703810878098011,-0.007431951351463795
1.7294929307487698e+18,0.02931845560669899,0.01419292576611042,-0.008666218258440495
1.72949293076077e+18,0.0265265591442585,0.014353420585393906,-0.00850590318441391
1.7294929307667702e+18,0.025513311848044395,0.014873926527798176,-0.011634930968284607
1.7294929307757704e+18,0.02213301509618759,0.018135134130716324,-0.012970545329153538
1.7294929307847706e+18,0.02539166249334812,0.015948377549648285,-0.00956905260682106
1.7294929307937708e+18,0.024116186425089836,0.015058618038892746,-0.007985497824847698
1.729492930802771e+18,0.024332435801625252,0.014921003952622414,-0.009899908676743507
1.7294929308147712e+18,0.024868875741958618,0.012575670145452023,-0.011600280180573463
1.7294929308207713e+18,0.029280470684170723,0.010274311527609825,-0.013661729171872139
1.7294929308327716e+18,0.023171542212367058,0.008783193305134773,-0.01160200871527195
1.7294929308417718e+18,0.026055917143821716,0.010955490171909332,-0.00994731206446886
1.729492930850772e+18,0.025514524430036545,0.014358065091073513,-0.010020575486123562
1.729492930856772e+18,0.02870764397084713,0.015007851645350456,-0.013576962985098362
1.7294929308657723e+18,0.029598012566566467,0.013952330686151981,-0.012203753925859928
1.7294929308747725e+18,0.026175284758210182,0.014270531944930553,-0.009939255192875862
1.7294929308807726e+18,0.02528502605855465,0.012264368124306202,-0.009314929135143757
1.7294929308927729e+18,0.0242786705493927,0.01192120648920536,-0.012394740246236324
1.729492930898773e+18,0.02291569858789444,0.01065734215080738,-0.00641317805275321
1.7294929309077732e+18,0.01922338455915451,0.014041327871382236,-0.010117962956428528
1.7294929309137733e+18,0.02252528816461563,0.011408740654587746,-0.010762766934931278
1.7294929309227735e+18,0.022663980722427368,0.011376934126019478,-0.011569542810320854
1.7294929309317737e+18,0.023121291771531105,0.013750734739005566,-0.012368055060505867
1.7294929309377738e+18,0.024699034169316292,0.012701387517154217,-0.010853789746761322
1.729492930946774e+18,0.019700175151228905,0.012271778658032417,-0.009950794279575348
1.7294929309557742e+18,0.018716661259531975,0.005647436250001192,-0.011534880846738815
1.7294929309617743e+18,0.014614584855735302,0.01017317920923233,-0.012593949213624
1.7294929309707745e+18,0.01780250295996666,0.009050227701663971,-0.013240455649793148
1.7294929309797747e+18,0.016932226717472076,0.010440992191433907,-0.011490561999380589
1.729492930988775e+18,0.01612917147576809,0.010164681822061539,-0.008159087970852852
1.729492930994775e+18,0.0184355266392231,0.010783026926219463,-0.010297521948814392
1.7294929310037752e+18,0.02179105579853058,0.010586499236524105,-0.00834960862994194
1.7294929310127754e+18,0.02200586162507534,0.006872294005006552,-0.011943992227315903
1.7294929310217756e+18,0.01959645189344883,0.0077314358204603195,-0.007369208615273237
1.7294929310277757e+18,0.01909618079662323,0.007800094783306122,-0.01247466541826725
1.729492931036776e+18,0.019347431138157845,0.006751936860382557,-0.01007869839668274
1.729492931042776e+18,0.01602454110980034,0.007130067329853773,-0.013626151718199253
1.7294929310517763e+18,0.01742604747414589,0.006370409391820431,-0.0116126062348485
1.7294929310607764e+18,0.014160080812871456,0.008674489334225655,-0.011353125795722008
1.7294929310667766e+18,0.01659897156059742,0.008721853606402874,-0.006822201889008284
1.7294929310757768e+18,0.021938050165772438,0.008408439345657825,-0.010339821688830853
1.729492931084777e+18,0.022389713674783707,0.007802055217325687,-0.00929256435483694
1.7294929310937772e+18,0.021940717473626137,0.007662286050617695,-0.00976212602108717
1.7294929311027773e+18,0.02230038493871689,0.009857364930212498,-0.009436845779418945
1.7294929311087775e+18,0.016196567565202713,0.0075058843940496445,-0.013256239704787731
1.7294929311177777e+18,0.014970500953495502,0.007618645206093788,-0.009772585704922676
1.7294929311267779e+18,0.01427280344069004,0.008980374783277512,-0.009984971955418587
1.729492931135778e+18,0.015573292970657349,0.007969463244080544,-0.00908795278519392
1.7294929311447782e+18,0.0186119694262743,0.007984912022948265,-0.008718765340745449
1.7294929311507784e+18,0.018322402611374855,0.009551918134093285,-0.011028092354536057
1.7294929311597786e+18,0.017903147265315056,0.006149990949779749,-0.010632704943418503
1.7294929311687788e+18,0.017955489456653595,0.010397877544164658,-0.010744395665824413
1.729492931177779e+18,0.016221076250076294,0.0073205274529755116,-0.008792707696557045
1.7294929311867791e+18,0.013699278235435486,0.009093164466321468,-0.009519847109913826
1.7294929311957793e+18,0.01468830369412899,0.012274893932044506,-0.009147956036031246
1.7294929312017795e+18,0.015755604952573776,0.009306046180427074,-0.01020027231425047
1.7294929312107796e+18,0.016525594517588615,0.011398939415812492,-0.008752189576625824
1.7294929312197798e+18,0.0149398697540164,0.013591661117970943,-0.010826928541064262
1.72949293122578e+18,0.01570715941488743,0.011725733987987041,-0.010648081079125404
1.7294929312347802e+18,0.01047241035848856,0.010849256068468094,-0.009022947400808334
1.7294929312437804e+18,0.013818296603858471,0.0129705760627985,-0.00908020231872797
1.7294929312527805e+18,0.01172461174428463,0.008039706386625767,-0.009088469669222832
1.7294929312587807e+18,0.011975152418017387,0.010207134298980236,-0.010487751103937626
1.7294929312677809e+18,0.013355189003050327,0.011628717184066772,-0.007263837847858667
1.729492931276781e+18,0.012303429655730724,0.010443935170769691,-0.007310128770768642
1.7294929312857812e+18,0.01037588156759739,0.008516818284988403,-0.009416676126420498
1.7294929312917814e+18,0.010211996734142303,0.013224759139120579,-0.005512334872037172
1.7294929313007816e+18,0.00851516518741846,0.011750190518796444,-0.007416859269142151
1.7294929313097818e+18,0.009046938270330429,0.010612079873681068,-0.005447838455438614
1.729492931318782e+18,0.0069940234534442425,0.008110195398330688,-0.010063943453133106
1.729492931324782e+18,0.008008912205696106,0.005425810348242521,-0.007175602484494448
1.7294929313337823e+18,0.011688380502164364,0.007514922413975,-0.009979869239032269
1.7294929313427825e+18,0.01202492043375969,0.004360451363027096,-0.007661574985831976
1.7294929313517827e+18,0.014167950488626957,0.0036982703022658825,-0.011629203334450722
1.7294929313607828e+18,0.014286983758211136,0.007416127249598503,-0.011360210366547108
1.729492931369783e+18,0.013624160550534725,0.008344333618879318,-0.008740689605474472
1.7294929313757832e+18,0.011185270734131336,0.003787910332903266,-0.008049648255109787
1.7294929313847834e+18,0.00903655681759119,0.003528074361383915,-0.009402353316545486
1.7294929313937836e+18,0.0006048139184713364,0.0030527962371706963,-0.00800553523004055
1.7294929314027837e+18,0.00728571368381381,0.0033184317871928215,-0.009405974298715591
1.729492931411784e+18,0.009708288125693798,0.001681148773059249,-0.007527623325586319
1.729492931417784e+18,0.009514945559203625,0.0002637915313243866,-0.009232446551322937
1.7294929314267843e+18,0.009612600319087505,0.0026707653887569904,-0.006901534274220467
1.7294929314357844e+18,0.006419510580599308,0.002380103338509798,-0.010233406908810139
1.7294929314447846e+18,0.002192302606999874,0.0016125990077853203,-0.006764275953173637
1.7294929314507848e+18,0.0026227037888020277,0.0020888815633952618,-0.011732401326298714
1.729492931459785e+18,-0.001316423760727048,0.0039737895131111145,-0.00948585756123066
1.7294929314687852e+18,0.0007839846657589078,0.003555626841261983,-0.011285940185189247
1.7294929314777853e+18,0.004165932536125183,0.003577169496566057,-0.007448759861290455
1.7294929314837855e+18,0.0044921026565134525,0.001323377713561058,-0.008949185721576214
1.7294929314927857e+18,0.006146583706140518,-0.000554144149646163,-0.011234714649617672
1.7294929315017859e+18,0.005268854089081287,0.0015690785367041826,-0.005521525628864765
1.729492931507786e+18,0.004685849417001009,0.00046301307156682014,-0.00844189990311861
1.7294929315167862e+18,-0.002094584284350276,0.0024325838312506676,-0.009957694448530674
1.7294929315257864e+18,-0.002980251796543598,0.004916990175843239,-0.00807947851717472
1.7294929315317865e+18,-0.005892332177609205,0.005716276355087757,-0.009610230103135109
1.7294929315407867e+18,-0.0019065705128014088,0.0049459440633654594,-0.007018902339041233
1.729492931549787e+18,0.00031085615046322346,0.006160334683954716,-0.007312615402042866
1.729492931555787e+18,-0.0002215709537267685,0.004543588031083345,-0.00980304554104805
1.7294929315647872e+18,0.0023616566322743893,0.004726596642285585,-0.006486808881163597
1.7294929315737874e+18,0.00029255100525915623,0.004998435731977224,-0.007886894978582859
1.7294929315797875e+18,-0.0007744076428934932,0.005717672407627106,-0.005810082890093327
1.7294929315887877e+18,-0.00030840327963232994,0.005678081884980202,-0.00736668286845088
1.729492931597788e+18,-0.005037206225097179,0.006206368561834097,-0.010581480339169502
1.729492931603788e+18,-0.00486412737518549,0.005286621395498514,-0.005996528081595898
1.7294929316127882e+18,-0.0004930382128804922,0.00880508217960596,-0.009201711043715477
1.7294929316187884e+18,0.000830417382530868,0.0033910777419805527,-0.0058912234380841255
1.7294929316277885e+18,-0.0005890314932912588,0.0035464440006762743,-0.006733260583132505
1.7294929316367887e+18,0.0023262077011168003,0.0034429209772497416,-0.0063847810961306095
1.7294929316427889e+18,0.0021683690138161182,0.002371599432080984,-0.006252385675907135
1.729492931651789e+18,-0.002127186395227909,0.0021098137367516756,-0.007327983621507883
1.7294929316577892e+18,-0.0003385978052392602,0.006226891651749611,-0.00806070864200592
1.7294929316667894e+18,-0.006242377683520317,0.002275060396641493,-0.005406082607805729
1.7294929316727895e+18,-0.004102010279893875,0.003944610245525837,-0.008029931224882603
1.7294929316817897e+18,-0.004083157517015934,0.0035370055120438337,-0.009283086284995079
1.72949293169079e+18,-0.004541873000562191,0.006365661043673754,-0.0091092549264431
1.72949293169679e+18,-0.0035237986594438553,0.007352619431912899,-0.009718257933855057
1.7294929317057902e+18,-0.0036569437943398952,0.004189076833426952,-0.004431013949215412
1.7294929317147904e+18,-0.00660870224237442,0.005481608211994171,-0.006874261889606714
1.7294929317237906e+18,-0.005311233922839165,0.004840410780161619,-0.008766347542405128
1.7294929317297907e+18,-0.004957183729857206,0.005436734762042761,-0.008655388839542866
1.729492931738791e+18,-0.005011237226426601,0.0009610885754227638,-0.007894451729953289
1.729492931747791e+18,-0.00919467955827713,0.0011322294594720006,-0.007561662700027227
1.7294929317537912e+18,-0.00829128548502922,0.0027405526489019394,-0.009066319093108177
1.7294929317627914e+18,-0.008533895015716553,0.0022889506071805954,-0.004376967903226614
1.7294929317717916e+18,-0.007500085048377514,0.0009644484962336719,-0.00710261007770896
1.7294929317807918e+18,-0.009026067331433296,0.0002626340719871223,-0.0071387202478945255
1.729492931786792e+18,-0.00933894980698824,0.002077669370919466,-0.006907359696924686
1.7294929317957921e+18,-0.010292960330843925,0.0008634085534140468,-0.005734650418162346
1.7294929318047923e+18,-0.0085684759542346,0.0021933671087026596,-0.005095948465168476
1.7294929318137925e+18,-0.009143300354480743,0.0030174292623996735,-0.008405430242419243
1.7294929318227927e+18,-0.009250215254724026,0.0011773755541071296,-0.007380005903542042
1.729492931831793e+18,-0.006583888549357653,0.0027139203157275915,-0.005285994615405798
1.729492931840793e+18,-0.011250706389546394,0.003768577240407467,-0.006573299877345562
1.7294929318467932e+18,-0.013496235013008118,0.0020416027400642633,-0.007210452109575272
1.7294929318557934e+18,-0.01245512068271637,0.0034480520989745855,-0.0036857861559838057
1.7294929318647936e+18,-0.013122538104653358,-0.0006877267733216286,-0.007417788729071617
1.7294929318707937e+18,-0.01576363295316696,0.0020091854967176914,-0.004800048656761646
1.729492931879794e+18,-0.011897843331098557,0.0007300070719793439,-0.005660621915012598
1.729492931888794e+18,-0.014772015623748302,-0.0035698427818715572,-0.0030531217344105244
1.7294929318977943e+18,-0.012416240759193897,-0.00011984240700257942,-0.004454765468835831
1.7294929319037944e+18,-0.010641291737556458,-0.001055428059771657,-0.008058285340666771
1.7294929319127946e+18,-0.015332014299929142,0.001321709481999278,-0.005267970729619265
1.7294929319187948e+18,-0.011545222252607346,-0.0009840052807703614,-0.004416047595441341
1.729492931927795e+18,-0.017878223210573196,0.00031624932307749987,-0.007944696582853794
1.7294929319367951e+18,-0.015662239864468575,0.0033455255907028913,-0.006854799576103687
1.7294929319427953e+18,-0.016918601468205452,0.001232806476764381,-0.006662288215011358
1.7294929319517955e+18,-0.01209366973489523,0.001562233897857368,-0.0056519885547459126
1.7294929319607956e+18,-0.014192738570272923,0.0007234463701024652,-0.007171396166086197
1.7294929319667958e+18,-0.011252417229115963,0.00032758922316133976,-0.007470924872905016
1.729492931975796e+18,-0.015497563406825066,0.002403262536972761,-0.006686593871563673
1.729492931981796e+18,-0.014005844481289387,-0.00031604745890945196,-0.007911447435617447
1.7294929319907963e+18,-0.015302169136703014,0.0007296552648767829,-0.005152759607881308
1.7294929319997965e+18,-0.014185702428221703,-0.0018889849307015538,-0.005320795811712742
1.7294929320057966e+18,-0.015665143728256226,0.0008367589325644076,-0.0032607177272439003
1.7294929320147968e+18,-0.016339093446731567,-0.00233142520301044,-0.005543181672692299
1.729492932020797e+18,-0.012019786983728409,-0.000803800649009645,-0.007668070495128632
1.729492932029797e+18,-0.01376525592058897,0.00018390081822872162,-0.0046472614631056786
1.7294929320387973e+18,-0.016134407371282578,-0.0004921573563478887,-0.0059399595484137535
1.7294929320447974e+18,-0.015030126087367535,0.0016442028572782874,-0.005740762688219547
1.7294929320537976e+18,-0.01806851103901863,-0.0019531046273186803,-0.006956587079912424
1.7294929320597978e+18,-0.01485018152743578,-0.0018370976904407144,-0.004075455944985151
1.729492932068798e+18,-0.02126309834420681,-0.004607180133461952,-0.004105620086193085
1.729492932074798e+18,-0.01901460811495781,-0.004847606178373098,-0.005467752926051617
1.7294929320837983e+18,-0.0177701897919178,-0.0028369573410600424,-0.0046944995410740376
1.7294929320897984e+18,-0.02049722708761692,-0.0005495504010468721,-0.0067244949750602245
1.7294929320987986e+18,-0.015802180394530296,-0.003086936892941594,-0.007817679084837437
1.7294929321077988e+18,-0.017556684091687202,-0.004408396780490875,-0.006618357263505459
1.729492932113799e+18,-0.02121254988014698,-0.0017213216051459312,-0.006821176037192345
1.729492932122799e+18,-0.02211698330938816,-0.005962822120636702,-0.005180733278393745
1.7294929321287992e+18,-0.026698637753725052,-0.002022982807829976,-0.006411565002053976
1.7294929321377994e+18,-0.02128446474671364,-0.005253639537841082,-0.004356734454631805
1.7294929321467996e+18,-0.020516831427812576,-0.0012587649980559945,-0.005958860274404287
1.7294929321557998e+18,-0.01868184097111225,-0.0028185886330902576,-0.005563601851463318
1.7294929321648e+18,-0.020492685958743095,-0.0023273141123354435,-0.004568712320178747
1.7294929321738002e+18,-0.018524818122386932,-0.0031800316646695137,-0.006048022769391537
1.7294929321828004e+18,-0.021175725385546684,-0.0044938321225345135,-0.006741965189576149
1.7294929321888005e+18,-0.022036151960492134,-0.006999546196311712,-0.003572717308998108
1.7294929321978007e+18,-0.022097168490290642,-0.00779341533780098,-0.003118832129985094
1.729492932206801e+18,-0.020366927608847618,-0.00476884376257658,-0.005666622892022133
1.729492932212801e+18,-0.022116074338555336,-0.004161202814429998,-0.007766511291265488
1.7294929322218012e+18,-0.019736632704734802,-0.004364632070064545,-0.004389133770018816
1.7294929322308014e+18,-0.01674545928835869,-0.002349585760384798,-0.00445320550352335
1.7294929322398016e+18,-0.019149689003825188,-0.003632395528256893,-0.0021693578455597162
1.7294929322458017e+18,-0.02173875831067562,-0.005622870288789272,-0.003924460615962744
1.729492932254802e+18,-0.017528589814901352,-0.006242518778890371,-0.006417224649339914
1.729492932263802e+18,-0.018844159319996834,-0.004017835017293692,-0.006010366603732109
1.7294929322728023e+18,-0.02051452174782753,-0.008885366842150688,-0.004111505579203367
1.7294929322818025e+18,-0.018534133210778236,-0.004242312628775835,-0.007906136102974415
1.7294929322908027e+18,-0.01770000159740448,-0.0033247717656195164,-0.005952007602900267
1.729492932299803e+18,-0.02006557770073414,-0.002239728346467018,-0.006135405041277409
1.729492932308803e+18,-0.01705840975046158,-0.003293227171525359,-0.0032917680218815804
1.7294929323178033e+18,-0.02065235935151577,-0.0037593247834593058,-0.004162181168794632
1.7294929323268035e+18,-0.022036157548427582,-0.0031905730720609426,-0.003816840937361121
1.7294929323358036e+18,-0.021320760250091553,-0.007617481984198093,-0.0047538187354803085
1.7294929323448038e+18,-0.020491747185587883,-0.0053580389358103275,-0.005794551223516464
1.729492932353804e+18,-0.015914468094706535,-0.0016782910097390413,-0.0020962029229849577
1.7294929323628042e+18,-0.016604052856564522,-0.0004400922916829586,-0.004731738939881325
1.7294929323748045e+18,-0.01790689304471016,-0.0006171123823150992,-0.005139567889273167
1.7294929323838047e+18,-0.017383700236678123,-0.00215354491956532,-0.004874182399362326
1.7294929323928049e+18,-0.02171563357114792,-0.005148124881088734,-0.0059961313381791115
1.729492932398805e+18,-0.024081947281956673,-0.005366275552660227,-0.006721191108226776
1.7294929324078052e+18,-0.017419520765542984,-0.0028644464910030365,-0.00273085106164217
1.7294929324198054e+18,-0.016154276207089424,-0.0012418989790603518,-0.005104475654661655
1.7294929324288056e+18,-0.016352904960513115,-0.0001356473658233881,-0.00099367112852633
1.7294929324378058e+18,-0.014597179368138313,0.0015900030266493559,-0.005107240751385689
1.729492932446806e+18,-0.015934301540255547,-0.0029164920561015606,-0.005957098212093115
1.7294929324558062e+18,-0.01730872318148613,-0.0010577450739219785,-0.002378990640863776
1.7294929324648064e+18,-0.017933055758476257,-0.0045921639539301395,-0.003087672870606184
1.7294929324738066e+18,-0.0189208947122097,-0.007400026544928551,-0.005382563453167677
1.7294929324828068e+18,-0.014259759336709976,-0.002818841254338622,-0.004137982614338398
1.729492932491807e+18,-0.017728544771671295,-0.0009561916813254356,-0.004562912508845329
1.7294929325008072e+18,-0.013959460891783237,-0.0029251654632389545,-0.004479981958866119
1.7294929325098074e+18,-0.01590823195874691,-0.002582591027021408,-0.0051911273039877415
1.7294929325188076e+18,-0.018700195476412773,-0.0033724838867783546,-0.0051358770579099655
1.7294929325278077e+18,-0.022180434316396713,-0.0028009444940835238,-0.003693714737892151
1.7294929325338079e+18,-0.023368239402770996,-0.0026288768276572227,-0.0067295809276402
1.729492932542808e+18,-0.023758413270115852,-0.0017620553262531757,-0.002624394604936242
1.7294929325548083e+18,-0.01734747551381588,0.0027062594890594482,-0.0013280282728374004
1.7294929325638085e+18,-0.01945037767291069,4.801666364073753e-06,-0.004632513504475355
1.7294929325698086e+18,-0.0196528322994709,-0.00122162071056664,-0.0009271642193198204
1.7294929325788088e+18,-0.0171175766736269,0.0017498219385743141,-0.004443292506039143
1.729492932587809e+18,-0.017479363828897476,0.0005315628368407488,-0.005356357432901859
1.7294929325968092e+18,-0.022783320397138596,0.000250750919803977,-0.0036612434778362513
1.7294929326058094e+18,-0.021217739209532738,-0.0028345987666398287,-0.004071951378136873
1.7294929326148096e+18,-0.023304834961891174,-0.004722164012491703,-0.0028760298155248165
1.7294929326208097e+18,-0.020684029906988144,-0.003270041663199663,-0.0034056820441037416
1.72949293262981e+18,-0.019643139094114304,-0.004743528552353382,-0.002744354773312807
1.72949293263881e+18,-0.018536970019340515,-0.0032655405811965466,-0.0056002759374678135
1.7294929326508104e+18,-0.015733247622847557,-0.0009006243199110031,-0.0032951771281659603
1.7294929326568105e+18,-0.016072474420070648,-0.0022990372963249683,-0.0035203152801841497
1.7294929326658107e+18,-0.020560715347528458,-0.0026394694577902555,-0.002327940659597516
1.729492932674811e+18,-0.021102041006088257,-0.0027157904114574194,-0.00496181333437562
1.729492932683811e+18,-0.025315752252936363,-0.005432979669421911,-0.0017769830301404
1.7294929326928113e+18,-0.018879493698477745,-0.0028454940766096115,-0.0046490454114973545
1.7294929327018115e+18,-0.018155960366129875,-0.0034843122120946646,-0.002432561479508877
1.7294929327078116e+18,-0.016743149608373642,-0.0015154541470110416,-0.002896571531891823
1.7294929327168118e+18,-0.012460224330425262,-0.0035663056187331676,-0.005054228939116001
1.729492932725812e+18,-0.01979696936905384,0.0015610827831551433,-0.003616235451772809
1.7294929327348122e+18,-0.021688709035515785,-0.0011944875586777925,-0.0033057760447263718
1.7294929327438124e+18,-0.026466788724064827,-0.0015761813847348094,-0.004714962560683489
1.7294929327528125e+18,-0.027313794940710068,-0.003760696854442358,-0.002706254133954644
1.7294929327588127e+18,-0.023282689973711967,-0.004580075852572918,-0.0018409054027870297
1.7294929327678129e+18,-0.024144362658262253,-0.00803724117577076,-0.0029475868213921785
1.729492932776813e+18,-0.017188051715493202,-0.005910415668040514,-0.002813563449308276
1.7294929327828132e+18,-0.014260396361351013,-0.007548540830612183,-0.0012927763164043427
1.7294929327918134e+18,-0.01869579218327999,-0.006892366800457239,-0.004790992941707373
1.7294929328008136e+18,-0.017620397731661797,-0.007669894024729729,-0.004467394202947617
1.7294929328068137e+18,-0.021288562566041946,-0.005872202105820179,-0.005032174289226532
1.729492932815814e+18,-0.023039035499095917,-0.006051467265933752,-0.0010524452663958073
1.729492932824814e+18,-0.02222284860908985,-0.009337029419839382,-0.00510178878903389
1.7294929328338143e+18,-0.020817628130316734,-0.008224651217460632,-0.006014049984514713
1.7294929328398144e+18,-0.015590284019708633,-0.00666675204411149,-0.0008644878398627043
1.7294929328488146e+18,-0.015021632425487041,-0.005633324384689331,-0.003230741713196039
1.7294929328578148e+18,-0.015693698078393936,-0.008917207829654217,-0.0034354564268141985
1.729492932863815e+18,-0.014760960824787617,-0.009365024045109749,-0.004125186707824469
1.729492932872815e+18,-0.01718294806778431,-0.005887332372367382,-0.0046363347209990025
1.7294929328788152e+18,-0.02199077606201172,-0.007098346017301083,-0.00215840432792902
1.7294929328878154e+18,-0.023879144340753555,-0.005144988652318716,-0.002647074870765209
1.7294929328968156e+18,-0.019463660195469856,-0.0046878354623913765,-0.005189382936805487
1.7294929329058158e+18,-0.017227178439497948,-0.006733328104019165,-0.004057068377733231
1.729492932911816e+18,-0.016975201666355133,-0.0032483378890901804,-0.002649301430210471
1.729492932920816e+18,-0.01512113306671381,-0.007389869075268507,5.9096841141581535e-05
1.7294929329268163e+18,-0.012861459515988827,-0.007725529372692108,-0.0033880046103149652
1.7294929329358164e+18,-0.0138148358091712,-0.007114465348422527,-0.002046395093202591
1.7294929329448166e+18,-0.017046326771378517,-0.005973233841359615,-0.004148305859416723
1.7294929329508168e+18,-0.022506235167384148,-0.00624884944409132,-0.0010427881497889757
1.729492932959817e+18,-0.019958944991230965,-0.00554235652089119,-0.00545421103015542
1.729492932965817e+18,-0.020771846175193787,-0.00421476736664772,-0.0010396444704383612
1.7294929329748173e+18,-0.018560150638222694,-0.0055716619826853275,-0.003306683385744691
1.7294929329808174e+18,-0.016332708299160004,-0.0024807883892208338,-0.0034768013283610344
1.7294929329898176e+18,-0.013294280506670475,-0.002757122041657567,-0.00045166630297899246
1.7294929329988178e+18,-0.013300993479788303,-0.00612989254295826,-0.00390558666549623
1.729492933004818e+18,-0.018081828951835632,-0.009161313995718956,-0.001763795269653201
1.729492933013818e+18,-0.01649017632007599,-0.008719267323613167,-0.0031531169079244137
1.7294929330198182e+18,-0.014663751237094402,-0.007523894775658846,-0.0021180342882871628
1.7294929330288184e+18,-0.016704248264431953,-0.005377139430493116,-0.0008903997950255871
1.7294929330378186e+18,-0.01283208653330803,-0.004134944640100002,-0.004613266326487064
1.7294929330438188e+18,-0.014449282549321651,-0.0031563984230160713,-0.002704598708078265
1.729492933052819e+18,-0.011002367362380028,-0.0038867685943841934,-0.0034430427476763725
1.7294929330618191e+18,-0.010560845956206322,-0.007899992167949677,-0.0039348057471215725
1.7294929330678193e+18,-0.009356913156807423,-0.005419974215328693,-0.0011191926896572113
1.7294929330768195e+18,-0.01090220082551241,-0.0062709953635931015,-0.0028735746163874865
1.7294929330858196e+18,-0.008182467892765999,-0.007097266614437103,-0.00298862112686038
1.7294929330948198e+18,-0.013672254979610443,-0.006578311789780855,-0.0034310470800846815
1.72949293310082e+18,-0.010372160002589226,-0.004534201696515083,-0.0021259277127683163
1.7294929331098202e+18,-0.011229394935071468,-0.008512753061950207,-0.0031672667246311903
1.7294929331188204e+18,-0.010967136360704899,-0.007438394706696272,-0.0038329309318214655
1.7294929331278205e+18,-0.012030398473143578,-0.010304214432835579,-0.005892292596399784
1.7294929331368207e+18,-0.011019349098205566,-0.00804910995066166,-0.0015173471765592694
1.7294929331428209e+18,-0.013994328677654266,-0.006441127508878708,-0.004676121287047863
1.729492933151821e+18,-0.014425856061279774,-0.006035366095602512,-0.0017018256476148963
1.7294929331608212e+18,-0.015217865817248821,-0.007187751121819019,-0.0032039028592407703
1.7294929331668214e+18,-0.013621710240840912,-0.007499322295188904,-0.006597335450351238
1.7294929331758216e+18,-0.012408017180860043,-0.009823623113334179,-0.0015912436647340655
1.7294929331848218e+18,-0.01155606098473072,-0.010379336774349213,-0.0039676399901509285
1.729492933193822e+18,-0.012809605337679386,-0.010123347863554955,-0.004181455355137587
1.7294929332028221e+18,-0.015617852099239826,-0.01018395647406578,-0.002607242204248905
1.7294929332088223e+18,-0.014349411241710186,-0.007129989564418793,-0.00032141245901584625
1.7294929332178225e+18,-0.01496125292032957,-0.008184240199625492,-0.003414873732253909
1.7294929332268227e+18,-0.015417112037539482,-0.008917510509490967,-0.0052010975778102875
1.7294929332328228e+18,-0.0163121297955513,-0.006200558505952358,-0.005349739454686642
1.729492933241823e+18,-0.011573808267712593,-0.01020458061248064,-0.0032138247042894363
1.729492933247823e+18,-0.014720918610692024,-0.00672047957777977,-0.00369794899597764
1.7294929332568233e+18,-0.010336109437048435,-0.006780452094972134,-0.001249419990926981
1.7294929332658235e+18,-0.008933408185839653,-0.01013483852148056,-0.002870885655283928
1.7294929332718236e+18,-0.009429612196981907,-0.009134017862379551,-0.0063549368642270565
1.7294929332808238e+18,-0.01113163772970438,-0.00876963697373867,-0.004127162043005228
1.729492933286824e+18,-0.00969330407679081,-0.012950845994055271,-0.0017477545188739896
1.7294929332958241e+18,-0.009066672995686531,-0.010567983612418175,-0.005654794164001942
1.7294929333018243e+18,-0.004865104332566261,-0.010479442775249481,-0.0005529546178877354
1.7294929333108244e+18,-0.008543477393686771,-0.011877509765326977,-0.005475712940096855
1.7294929333198246e+18,-0.007562348619103432,-0.011735955253243446,-0.0016926223179325461
1.7294929333258248e+18,-0.00860806368291378,-0.012678571045398712,-0.001638052286580205
1.729492933334825e+18,-0.01081551518291235,-0.009880982339382172,0.0011889892630279064
1.7294929333438252e+18,-0.009801702573895454,-0.010655646212399006,-0.002693688962608576
1.7294929333498253e+18,-0.009933412075042725,-0.0104808509349823,-0.0009819664992392063
1.7294929333588255e+18,-0.008322933688759804,-0.0055268313735723495,-0.0042835804633796215
1.7294929333678257e+18,-0.005974573083221912,-0.008020284585654736,-0.002299529267475009
1.7294929333738258e+18,-0.004347813781350851,-0.010016056708991528,-0.00260549527592957
1.729492933382826e+18,-0.006360282655805349,-0.010210064239799976,-0.0016899018082767725
1.7294929333918262e+18,-0.0021576855797320604,-0.013988361693918705,0.001951376674696803
1.7294929333978263e+18,-0.004429950378835201,-0.007939683273434639,-0.0022966908290982246
1.7294929334068265e+18,-0.0049774437211453915,-0.007023227401077747,-0.004213519860059023
1.7294929334158267e+18,-0.005218752194195986,-0.007771155331283808,-0.0022611001040786505
1.7294929334218268e+18,-0.005906820762902498,-0.007543534506112337,-0.0006342087872326374
1.729492933430827e+18,-0.0069277044385671616,-0.005978497210890055,-0.0039940495043993
1.7294929334368271e+18,-0.0033382726833224297,-0.006979119963943958,-0.0023171263746917248
1.7294929334458273e+18,-0.004995233379304409,-0.009621169418096542,-0.001955050742253661
1.7294929334548275e+18,-0.0034911353141069412,-0.007262015715241432,-0.0031016364227980375
1.7294929334638277e+18,-0.007622388191521168,-0.009086904115974903,-0.0024102129973471165
1.729492933472828e+18,-0.01016982365399599,-0.006151488982141018,-0.002342239022254944
1.729492933478828e+18,-0.009614832699298859,-0.00452496949583292,-0.0031374196987599134
1.7294929334878282e+18,-0.007639612071216106,-0.006693609058856964,-0.0011864391854032874
1.7294929334938284e+18,-0.007722790353000164,-0.004881477914750576,-0.0046837665140628815
1.7294929335028285e+18,-0.0070131076499819756,-0.009238142520189285,-0.0041223689913749695
1.7294929335088287e+18,-0.00270883459597826,-0.007667571306228638,-0.0032698947470635176
1.7294929335178289e+18,-0.0032772026024758816,-0.007939653471112251,-0.0017226866912096739
1.729492933526829e+18,-0.004028515890240669,-0.006260800175368786,-0.0034883148036897182
1.7294929335358292e+18,-0.007954663597047329,-0.005030610598623753,-5.0006434321403503e-05
1.7294929335448294e+18,-0.007827028632164001,-0.0062751853838562965,-0.005950869061052799
1.7294929335538296e+18,-0.0021357282530516386,-0.001314907567575574,-0.0015328475274145603
1.7294929335598298e+18,-0.0023734141141176224,-0.003430807963013649,-0.0008489999454468489
1.72949293356883e+18,-0.0016936741303652525,-0.004461519420146942,-0.0020703256595879793
1.7294929335778301e+18,0.003410001052543521,-0.006654286291450262,-0.003731089411303401
1.7294929335868303e+18,0.00428872462362051,-0.00837697647511959,-0.001642413903027773
1.7294929335958305e+18,-0.001351409824565053,-0.006322871893644333,-0.0012590690748766065
1.7294929336048307e+18,0.0002297224709764123,-0.00262633478268981,-0.0007645635632798076
1.7294929336108308e+18,-0.002933669602498412,-0.005240566097199917,-0.0010222281562164426
1.729492933619831e+18,-0.00228416477330029,-0.004414458759129047,-0.0031640948727726936
1.7294929336288312e+18,0.0024524007458239794,-0.005835513584315777,-0.0004575497005134821
1.7294929336348314e+18,0.004360261373221874,-0.0072915079072117805,-0.0038509811274707317
1.7294929336438316e+18,0.0027728769928216934,-0.005302067846059799,-0.0034849243238568306
1.7294929336528317e+18,0.0027018506079912186,-0.0067250789143145084,-0.004950814880430698
1.729492933661832e+18,0.004250829108059406,-0.005076311994343996,-0.00039666565135121346
1.729492933670832e+18,-0.0015508179785683751,-0.010171789675951004,-0.0010226882295683026
1.7294929336798323e+18,-0.0016031272243708372,-0.00786083284765482,-0.0010161761892959476
1.7294929336858324e+18,-0.0025133942253887653,-0.00763807212933898,0.0013989752624183893
1.7294929336948326e+18,-0.0007180850952863693,-0.00543598085641861,-0.004979237914085388
1.7294929337038328e+18,-7.668917533010244e-05,-0.0040845563635230064,-0.0015876967227086425
1.729492933712833e+18,0.00606381893157959,-0.0058568259701132774,0.0002962073776870966
1.7294929337218332e+18,0.006375299766659737,-0.01169569417834282,-0.001028330298140645
1.7294929337278333e+18,0.005299468524754047,-0.005806228145956993,-0.002505554584786296
1.7294929337368335e+18,0.0038237578701227903,-0.005994413048028946,-0.004282795824110508
1.7294929337458337e+18,0.004563316237181425,-0.005079914350062609,-0.0011107278987765312
1.729492933754834e+18,-0.001037773909047246,-0.0075421640649437904,-0.0019032341660931706
1.729492933763834e+18,-0.0011532386997714639,-0.008718681521713734,0.0006210319697856903
1.7294929337698342e+18,0.0007013317663222551,-0.005077105946838856,-0.001878243638202548
1.7294929337788344e+18,0.0006754865171387792,-0.007743168156594038,-0.003836188931018114
1.7294929337848346e+18,0.0036199716851115227,-0.008011382073163986,-0.0037236735224723816
1.7294929337938348e+18,0.004153915215283632,-0.008473358117043972,-0.0009768164018169045
1.729492933802835e+18,0.005694831721484661,-0.007744450122117996,-0.0004154263297095895
1.7294929338118351e+18,0.00785251148045063,-0.00665153656154871,-0.0006195344030857086
1.7294929338208353e+18,0.0044180224649608135,-0.008366482332348824,-0.0021990719251334667
1.7294929338298355e+18,0.003083248622715473,-0.005451935343444347,-0.004606494680047035
1.7294929338388357e+18,0.002706016879528761,-0.007529434747993946,-0.002597247948870063
1.729492933847836e+18,0.005703257396817207,-0.006242355797439814,-0.003860692959278822
1.729492933853836e+18,0.0025599373038858175,-0.00701210368424654,-0.001027673133648932
1.7294929338628362e+18,0.005906249396502972,-0.007484518922865391,-0.0005041820695623755
1.7294929338718364e+18,0.006926254369318485,-0.0074969567358493805,-0.00015721807722002268
1.7294929338808366e+18,0.010593301616609097,-0.010983496904373169,-0.002743273042142391
1.7294929338868367e+18,0.011180861853063107,-0.008167266845703125,-0.0037111141718924046
1.729492933895837e+18,0.009529710747301579,-0.0073638977482914925,-0.0025908893439918756
1.729492933904837e+18,0.011262352578341961,-0.005597340874373913,-0.00253686704672873
1.7294929339108372e+18,0.007500103674829006,-0.005739958491176367,-0.0030194739811122417
1.7294929339198374e+18,0.008774077519774437,-0.004813509993255138,-0.002767818048596382
1.7294929339288376e+18,0.012790429405868053,-0.008454389870166779,-8.079712279140949e-05
1.7294929339348378e+18,0.008813811466097832,-0.00743410550057888,-0.0037379786372184753
1.729492933943838e+18,0.010110436007380486,-0.00550831388682127,-0.0028113541193306446
1.729492933949838e+18,0.011781958863139153,-0.0039930567145347595,-0.0028260010294616222
1.7294929339588383e+18,0.010514303110539913,-0.005485710687935352,0.0004896105965599418
1.7294929339648384e+18,0.010089599527418613,-0.005806382745504379,-0.001749240211211145
1.7294929339738386e+18,0.008849281817674637,-0.0033866497687995434,-0.0009594466537237167
1.7294929339798387e+18,0.01291037630289793,-0.0008036082144826651,-0.0019684568978846073
1.729492933988839e+18,0.011993717402219772,-0.004643311724066734,0.0010935156606137753
1.729492933997839e+18,0.008901759050786495,-0.0025766370818018913,-0.0030223182402551174
1.7294929340038392e+18,0.00807355809956789,-0.0040018875151872635,-0.00037716468796133995
1.7294929340128394e+18,0.010010919533669949,-0.004907918628305197,-0.0014248898951336741
1.7294929340188396e+18,0.00587400421500206,-0.0030630123801529408,-0.0027520661242306232
1.7294929340278397e+18,0.010677547194063663,-0.005601045675575733,0.0010525293182581663
1.72949293403684e+18,0.006987228058278561,-0.0028155366890132427,-0.0015517135616391897
1.72949293404284e+18,0.013118728995323181,-0.0012073380639776587,-0.0003879438154399395
1.7294929340518403e+18,0.010465044528245926,-0.0010269517078995705,0.0002740137279033661
1.7294929340578404e+18,0.013025444932281971,-0.00396204087883234,-0.004573095589876175
1.7294929340668406e+18,0.008336886763572693,-0.007769294548779726,-0.0012729596346616745
1.7294929340758408e+18,0.008031446486711502,-0.005905545316636562,-0.002194215077906847
1.729492934081841e+18,0.006969648413360119,-0.011012556962668896,-0.0020931668113917112
1.729492934090841e+18,0.007048160769045353,-0.007505264598876238,-0.0008226418285630643
1.7294929340998413e+18,0.004286004696041346,-0.008483735844492912,-0.0034124585799872875
1.7294929341058414e+18,0.007544057909399271,-0.010488548316061497,-0.001971783582121134
1.7294929341148416e+18,0.006831728387624025,-0.0060314880684018135,-0.0010927451075986028
1.7294929341208417e+18,0.0075356545858085155,-0.005087886471301317,0.0005857691867277026
1.729492934129842e+18,0.011506903916597366,-0.0042966678738594055,-0.001828578533604741
1.729492934138842e+18,0.008733492344617844,-0.007097115274518728,-0.0030213301070034504
1.7294929341448422e+18,0.008150407113134861,-0.002238997956737876,-0.00034127524122595787
1.7294929341538424e+18,0.008468789048492908,-0.006492049433290958,0.0003821365535259247
1.7294929341598426e+18,0.0091856075450778,-0.006485671270638704,-0.0026513475459069014
1.7294929341688428e+18,0.007314717397093773,-0.0035091284662485123,0.0007156945066526532
1.729492934174843e+18,0.006635662168264389,-0.005383017472922802,-9.297637734562159e-05
1.729492934183843e+18,0.00966786127537489,-0.009324677288532257,-0.0014034005580469966
1.7294929341928433e+18,0.009870234876871109,-0.008308550342917442,-0.002320983912795782
1.7294929341988434e+18,0.011773485690355301,-0.006239438429474831,-0.00190014170948416
1.7294929342078436e+18,0.01384930033236742,-0.004571552388370037,0.00013490114361047745
1.7294929342138437e+18,0.0152059905230999,-0.004590556025505066,-0.002348905196413398
1.729492934222844e+18,0.015191431157290936,-0.005349571350961924,-0.002935916418209672
1.729492934228844e+18,0.013010858558118343,-0.00784663762897253,-0.0015133894048631191
1.7294929342378442e+18,0.007841955870389938,-0.0063790492713451385,-0.0032934248447418213
1.7294929342468444e+18,0.006807441357523203,-0.009434178471565247,-0.002016558079048991
1.7294929342558446e+18,0.006882436573505402,-0.008261171169579029,0.00010882481001317501
1.7294929342618447e+18,0.0045682936906814575,-0.010917644947767258,-0.0021413774229586124
1.729492934270845e+18,0.013141586445271969,-0.005910863634198904,-0.0005027149454690516
1.729492934279845e+18,0.010858764871954918,-0.009569738991558552,-0.0002564270980656147
1.7294929342858452e+18,0.013247252441942692,-0.005829459056258202,0.0019003641791641712
1.7294929342948454e+18,0.012870117090642452,-0.005813554394990206,-0.0016261863056570292
1.7294929343038456e+18,0.008546510711312294,-0.005641652271151543,-0.00032390072010457516
1.7294929343128458e+18,0.007670669350773096,-0.01137686986476183,-0.0036682444624602795
1.729492934321846e+18,0.007087858393788338,-0.005511516705155373,-0.00190216233022511
1.7294929343308462e+18,0.0038595113437622786,-0.006403809413313866,-0.003300171112641692
1.7294929343368463e+18,0.00661045778542757,-0.005064577795565128,-0.002686314284801483
1.7294929343458465e+18,0.0033661923371255398,-0.00476234732195735,-0.0007429833058267832
1.7294929343548467e+18,0.011278841644525528,-0.0036983692552894354,-0.0011047505540773273
1.7294929343608468e+18,0.011683829128742218,-0.005646648816764355,-0.0007553434115834534
1.729492934369847e+18,0.012403707019984722,-0.0067779081873595715,0.0020949502941221
1.7294929343758472e+18,0.045785073190927505,0.03629345819354057,-0.0010477247415110469
1.7294929343848474e+18,0.33779802918434143,0.44936731457710266,-0.021251773461699486
1.7294929343938476e+18,0.6807977557182312,0.9854233264923096,-0.04103066772222519
1.7294929343998477e+18,0.8949095606803894,1.3376489877700806,-0.05704531818628311
1.729492934408848e+18,1.3633867502212524,1.734236240386963,-0.07845304906368256
1.729492934417848e+18,2.0534181594848633,1.8852670192718506,-0.09450001269578934
1.7294929344238482e+18,2.5045807361602783,1.8592519760131836,-0.10225559026002884
1.7294929344328484e+18,3.071126699447632,1.725490927696228,-0.11163759231567383
1.7294929344388485e+18,3.2986106872558594,1.629671335220337,-0.12099001556634903
1.7294929344478487e+18,3.407334089279175,1.5500229597091675,-0.14823229610919952
1.729492934456849e+18,3.3158931732177734,1.5910941362380981,-0.16914503276348114
1.729492934462849e+18,3.2044098377227783,1.6525323390960693,-0.1853112429380417
1.7294929344718492e+18,3.0903379917144775,1.7505550384521484,-0.20851266384124756
1.7294929344808494e+18,3.0929887294769287,1.790730595588684,-0.23509453237056732
1.7294929344868495e+18,3.1521482467651367,1.748621940612793,-0.2495882213115692
1.7294929344958497e+18,3.2727463245391846,1.626111626625061,-0.2711792290210724
1.72949293450485e+18,3.317631244659424,1.459831953048706,-0.292670875787735
1.72949293451085e+18,3.276599645614624,1.347983717918396,-0.31005188822746277
1.7294929345198502e+18,3.087397575378418,1.2243119478225708,-0.32725563645362854
1.7294929345288504e+18,2.793365716934204,1.1457728147506714,-0.3451976180076599
1.7294929345378506e+18,2.498696804046631,1.1001240015029907,-0.3649604618549347
1.7294929345438508e+18,2.3391671180725098,1.0681437253952026,-0.3747250735759735
1.729492934552851e+18,2.187345027923584,1.0022257566452026,-0.38856634497642517
1.7294929345618511e+18,2.122382164001465,0.90345299243927,-0.40422141551971436
1.7294929345708513e+18,2.076456069946289,0.7786355018615723,-0.4210079610347748
1.7294929345768515e+18,2.0212602615356445,0.6939749717712402,-0.4293094575405121
1.7294929345858516e+18,1.8671462535858154,0.5745739936828613,-0.4415489733219147
1.7294929345948518e+18,1.6424058675765991,0.48158276081085205,-0.45320722460746765
1.729492934603852e+18,1.388081669807434,0.41045722365379333,-0.45969974994659424
1.7294929346098522e+18,1.235518217086792,0.3683619797229767,-0.4637162983417511
1.7294929346188524e+18,1.0614938735961914,0.3146839737892151,-0.47165441513061523
1.7294929346278525e+18,0.9649950861930847,0.25414156913757324,-0.47908687591552734
1.7294929346368527e+18,0.918302595615387,0.18722693622112274,-0.48877614736557007
1.7294929346428529e+18,0.8910014033317566,0.14562568068504333,-0.49518054723739624
1.729492934651853e+18,0.8251721858978271,0.07833249121904373,-0.5047666430473328
1.7294929346608532e+18,0.7062699198722839,0.027325963601469994,-0.5114917159080505
1.7294929346668534e+18,0.5977857708930969,-0.004928785376250744,-0.5146082043647766
1.7294929346758536e+18,0.44066673517227173,-0.03996456041932106,-0.5228186845779419
1.7294929346818537e+18,0.3438693583011627,-0.0532032735645771,-0.5245838761329651
1.729492934690854e+18,0.23507320880889893,-0.08500774949789047,-0.5311013460159302
1.729492934696854e+18,0.19591820240020752,-0.1041320413351059,-0.5318892598152161
1.7294929347058542e+18,0.1710258424282074,-0.13393686711788177,-0.542005717754364
1.7294929347148544e+18,0.15217313170433044,-0.1644010692834854,-0.5425528287887573
1.7294929347208545e+18,0.12798063457012177,-0.1806090921163559,-0.5467765927314758
1.7294929347298547e+18,0.06712779402732849,-0.2053150236606598,-0.5492266416549683
1.729492934738855e+18,-0.019333936274051666,-0.2236015498638153,-0.5542628765106201
1.729492934744855e+18,-0.08337391167879105,-0.23732435703277588,-0.5535545945167542
1.7294929347538552e+18,-0.1688346415758133,-0.2515445053577423,-0.554369330406189
1.7294929347598554e+18,-0.20800191164016724,-0.2617478668689728,-0.5560896396636963
1.7294929347688556e+18,-0.23658938705921173,-0.27464166283607483,-0.5590291023254395
1.7294929347778557e+18,-0.25182390213012695,-0.2885286509990692,-0.5612676739692688
1.7294929347838559e+18,-0.25302356481552124,-0.29660430550575256,-0.5599778294563293
1.729492934792856e+18,-0.267606645822525,-0.3097411096096039,-0.5611173510551453
1.7294929348018563e+18,-0.298755407333374,-0.3222483694553375,-0.5592749118804932
1.7294929348078564e+18,-0.32540974020957947,-0.3303525149822235,-0.5609450936317444
1.7294929348168566e+18,-0.37254881858825684,-0.3345857858657837,-0.5589916706085205
1.7294929348258568e+18,-0.4108980894088745,-0.3401177227497101,-0.5568937063217163
1.729492934831857e+18,-0.4287680983543396,-0.3453995883464813,-0.5561288595199585
1.729492934840857e+18,-0.4350886940956116,-0.3452819287776947,-0.5513597130775452
1.7294929348498573e+18,-0.43048590421676636,-0.3489634692668915,-0.5542950630187988
1.7294929348558574e+18,-0.42262372374534607,-0.3486209511756897,-0.546714723110199
1.7294929348678577e+18,-0.4060632884502411,-0.34635528922080994,-0.5450098514556885
1.7294929348738578e+18,-0.40874621272087097,-0.34698742628097534,-0.5423896908760071
1.729492934882858e+18,-0.43120014667510986,-0.3510408103466034,-0.5410527586936951
