timestamp,accel_x,accel_y,accel_z
1.7294250550103444e+18,0.048148591071367264,-0.019156374037265778,-9.779190063476562
1.7294250550193446e+18,0.020745934918522835,0.0005810283473692834,-9.809860229492188
1.7294250550283448e+18,0.002517382614314556,-0.03630432114005089,-9.859063148498535
1.729425055037345e+18,0.014644861221313477,-0.011894009076058865,-9.759420394897461
1.7294250550463452e+18,0.059429317712783813,-0.02698690816760063,-9.769670486450195
1.7294250550553454e+18,-0.0434509813785553,0.060039788484573364,-9.806122779846191
1.7294250550643456e+18,-0.02429082989692688,-0.0471450537443161,-9.782394409179688
1.7294250550733458e+18,0.02923024818301201,0.036189109086990356,-9.7473783493042
1.729425055079346e+18,-0.0025157162453979254,-0.05381536856293678,-9.806114196777344
1.729425055088346e+18,0.018439123407006264,0.07151837646961212,-9.835270881652832
1.7294250550973463e+18,-0.0412791445851326,0.018687866628170013,-9.858503341674805
1.7294250551063465e+18,0.027444664388895035,-0.03024693951010704,-9.84400749206543
1.7294250551153467e+18,-0.0731237605214119,0.05549221485853195,-9.795886993408203
1.729425055124347e+18,-0.04257363826036453,0.0044273859821259975,-9.816557884216309
1.729425055133347e+18,-0.0007461498025804758,-0.030538221821188927,-9.839682579040527
1.7294250551423473e+18,-0.0011882185935974121,0.031483244150877,-9.79255199432373
1.7294250551513475e+18,0.015972532331943512,-0.11056340485811234,-9.739296913146973
1.7294250551603476e+18,-0.01804623007774353,0.046684034168720245,-9.779731750488281
1.7294250551693478e+18,0.05982661992311478,0.024792606011033058,-9.811452865600586
1.729425055178348e+18,-0.06025143340229988,-0.00867610052227974,-9.732732772827148
1.7294250551873482e+18,-0.0020743347704410553,0.05249808356165886,-9.855525016784668
1.7294250551963484e+18,-0.046331457793712616,0.011129556223750114,-9.82588005065918
1.7294250552053486e+18,0.0640759989619255,-0.009286063723266125,-9.797369003295898
1.7294250552143488e+18,0.03828853368759155,0.05974514037370682,-9.78952407836914
1.729425055223349e+18,-0.03220004215836525,-0.06621821969747543,-9.755109786987305
1.7294250552323492e+18,-0.0015247261617332697,-0.06171053275465965,-9.789819717407227
1.7294250552413494e+18,0.014432534575462341,-0.03161577507853508,-9.854907035827637
1.7294250552503496e+18,-0.0023119691759347916,-0.027260910719633102,-9.824882507324219
1.7294250552593498e+18,0.05952242389321327,0.0249943844974041,-9.861146926879883
1.72942505526835e+18,-0.0244673453271389,0.06489496678113937,-9.793007850646973
1.72942505527435e+18,0.021275635808706284,0.02166593447327614,-9.785554885864258
1.7294250552833503e+18,-0.003412732155993581,-0.029233044013381004,-9.837281227111816
1.7294250552923505e+18,0.019702544435858727,0.004855667240917683,-9.809171676635742
1.7294250553013507e+18,0.048883240669965744,-0.06352122128009796,-9.780008316040039
1.7294250553103508e+18,-0.01860703155398369,0.05482666194438934,-9.769647598266602
1.729425055319351e+18,-0.07484754920005798,-0.0082289669662714,-9.684566497802734
1.7294250553283512e+18,0.007894297130405903,-0.012801036238670349,-9.761666297912598
1.7294250553373514e+18,0.012674039229750633,0.003750062081962824,-9.791157722473145
1.7294250553463516e+18,-0.11618851870298386,-0.05192958563566208,-9.832135200500488
1.7294250553553518e+18,-0.00020645007316488773,0.03992066904902458,-9.836015701293945
1.729425055364352e+18,0.04820277541875839,0.00434638699516654,-9.780951499938965
1.7294250553733522e+18,-0.007965694181621075,-0.053828466683626175,-9.780634880065918
1.7294250553793523e+18,-0.022732162848114967,0.0662660226225853,-9.867673873901367
1.7294250553913526e+18,-0.0427158921957016,-0.05995260924100876,-9.866884231567383
1.7294250553973527e+18,0.01124514825642109,0.09112678468227386,-9.790176391601562
1.729425055406353e+18,-0.05537054315209389,0.07314886152744293,-9.80252742767334
1.729425055415353e+18,0.005284598562866449,-0.07230901718139648,-9.799215316772461
1.7294250554243533e+18,-0.04447811096906662,-0.028777552768588066,-9.83835220336914
1.7294250554333535e+18,-0.01565462350845337,-0.010802820324897766,-9.793103218078613
1.7294250554423537e+18,0.008346292190253735,-0.06982502341270447,-9.835347175598145
1.7294250554513539e+18,-0.012569456361234188,-0.014705780893564224,-9.845579147338867
1.729425055460354e+18,-0.04649187624454498,-0.03106410801410675,-9.779069900512695
1.7294250554663542e+18,-0.05319284647703171,0.10579094290733337,-9.831371307373047
1.7294250554753544e+18,-0.03470515459775925,0.023868536576628685,-9.827407836914062
1.7294250554843546e+18,0.03370937705039978,-0.055531710386276245,-9.831460952758789
1.7294250554903547e+18,0.048615626990795135,0.05559573695063591,-9.790419578552246
1.729425055499355e+18,-0.001270983717404306,-0.07394803315401077,-9.719414710998535
1.729425055508355e+18,-0.04078780487179756,-0.06343729048967361,-9.79874324798584
1.7294250555173553e+18,-0.06077985838055611,0.02736739069223404,-9.802268028259277
1.7294250555263555e+18,0.0003664277319330722,0.015018042176961899,-9.824746131896973
1.7294250555353556e+18,0.002361635211855173,0.007195691578090191,-9.794651985168457
1.7294250555443558e+18,-0.028380755335092545,0.04336978495121002,-9.78329086303711
1.729425055553356e+18,0.0022228634916245937,-0.012041638605296612,-9.787826538085938
1.7294250555623562e+18,0.05346277728676796,-0.06698449701070786,-9.888104438781738
1.7294250555713564e+18,0.07211238145828247,-0.019821949303150177,-9.790255546569824
1.7294250555803566e+18,-0.07997211813926697,0.013469675555825233,-9.848645210266113
1.7294250555893568e+18,-0.043161362409591675,0.035319410264492035,-9.770136833190918
1.729425055598357e+18,-0.003664482617750764,0.055912792682647705,-9.810417175292969
1.729425055604357e+18,-0.030062399804592133,-0.04091878980398178,-9.715763092041016
1.7294250556133573e+18,0.018117835745215416,0.013623349368572235,-9.809386253356934
1.7294250556193574e+18,-0.025050273165106773,0.03483802452683449,-9.766976356506348
1.7294250556283576e+18,0.09415566176176071,0.015138207003474236,-9.784518241882324
1.7294250556373578e+18,0.00235091638751328,-0.03406467288732529,-9.79482650756836
1.729425055646358e+18,-0.009929437190294266,0.022546522319316864,-9.79491901397705
1.7294250556553582e+18,-0.05014381930232048,0.005946195684373379,-9.807027816772461
1.7294250556643584e+18,-0.053906816989183426,-0.03400897979736328,-9.747474670410156
1.7294250556733586e+18,0.04622838273644447,0.007087869569659233,-9.809103012084961
1.7294250556823588e+18,-0.02948768064379692,0.03389175236225128,-9.8866548538208
1.729425055688359e+18,0.053697291761636734,-0.020156756043434143,-9.741800308227539
1.729425055697359e+18,-0.07203734666109085,-0.021299853920936584,-9.761191368103027
1.7294250557063593e+18,-0.059091344475746155,0.07004403322935104,-9.818486213684082
1.7294250557153595e+18,0.028580689802765846,0.05378694459795952,-9.899214744567871
1.7294250557243597e+18,-0.04702778533101082,0.003138238564133644,-9.749348640441895
1.7294250557333599e+18,-0.008054787293076515,0.028869876638054848,-9.833527565002441
1.72942505574236e+18,0.03593394532799721,-0.038699790835380554,-9.790120124816895
1.7294250557513603e+18,0.0003320540126878768,0.024752415716648102,-9.790943145751953
1.7294250557573604e+18,0.02865099348127842,-0.08639967441558838,-9.744627952575684
1.7294250557663606e+18,0.06561439484357834,0.005153560545295477,-9.831596374511719
1.7294250557753608e+18,0.06413973867893219,-0.010725964792072773,-9.84359359741211
1.729425055784361e+18,0.017335742712020874,-0.08835257589817047,-9.799544334411621
1.7294250557933612e+18,0.05586785078048706,-0.10686326771974564,-9.876810073852539
1.7294250558023613e+18,0.03120320849120617,-0.06208951771259308,-9.863359451293945
1.7294250558113615e+18,0.028129415586590767,0.02701370231807232,-9.746734619140625
1.7294250558203617e+18,-0.004889683797955513,0.02936786226928234,-9.784317016601562
1.729425055829362e+18,0.020733317360281944,-0.09828344732522964,-9.782940864562988
1.729425055838362e+18,-0.00042829549056477845,-0.05209053307771683,-9.746052742004395
1.7294250558473623e+18,-0.007391082122921944,-0.03376037999987602,-9.781700134277344
1.7294250558563625e+18,0.05500941723585129,-0.013097434304654598,-9.892923355102539
1.7294250558653627e+18,-0.021958377212285995,-0.028316952288150787,-9.787297248840332
1.7294250558713628e+18,-0.001779738930054009,0.04494816064834595,-9.798686027526855
1.729425055880363e+18,-0.01942806877195835,-0.027165288105607033,-9.833355903625488
1.7294250558893632e+18,-0.006346897222101688,0.0063274879939854145,-9.81695556640625
1.7294250558983634e+18,0.014702033251523972,-0.037552110850811005,-9.876142501831055
1.7294250559043635e+18,0.027322011068463326,-0.10884937644004822,-9.775837898254395
1.7294250559133637e+18,-0.0653030276298523,0.04986782371997833,-9.774754524230957
1.729425055922364e+18,-0.007807497400790453,0.02929144725203514,-9.791868209838867
1.729425055931364e+18,0.01289187092334032,-0.01320785004645586,-9.79049301147461
1.7294250559403643e+18,0.023422623053193092,0.018643848598003387,-9.849935531616211
1.7294250559493645e+18,0.046220652759075165,-0.020178217440843582,-9.866911888122559
1.7294250559583647e+18,0.0055550928227603436,-0.02028467133641243,-9.81706428527832
1.7294250559673649e+18,-0.0006073500262573361,0.029174108058214188,-9.770811080932617
1.729425055973365e+18,-0.04192527383565903,0.015485730953514576,-9.796663284301758
1.729425055979365e+18,-0.06275674700737,-0.015903275460004807,-9.692906379699707
1.7294250559883653e+18,0.06591932475566864,0.07369806617498398,-9.846735954284668
1.7294250559973655e+18,0.06703541427850723,-0.005444969981908798,-9.716780662536621
1.7294250560063657e+18,0.054206859320402145,-0.00946341548115015,-9.810930252075195
1.729425056015366e+18,-0.024653639644384384,0.03341230750083923,-9.800890922546387
1.729425056024366e+18,-0.0071007683873176575,0.014203767292201519,-9.782331466674805
1.7294250560333663e+18,-0.0002967989130411297,-0.02235293947160244,-9.7741060256958
1.7294250560423665e+18,0.026333926245570183,-0.03302108868956566,-9.768379211425781
1.7294250560513667e+18,0.02331933192908764,-0.04030636325478554,-9.825957298278809
1.7294250560603668e+18,0.019913388416171074,0.043411415070295334,-9.840688705444336
1.729425056069367e+18,-0.05456387251615524,-0.025128938257694244,-9.81887435913086
1.7294250560783672e+18,0.012911606580018997,-0.020796574652194977,-9.800053596496582
1.7294250560873674e+18,-0.06278296560049057,0.03367951139807701,-9.753730773925781
1.7294250560933676e+18,-0.0009668821003288031,-0.030788365751504898,-9.7489013671875
1.7294250561023677e+18,-0.02346840314567089,0.01547529362142086,-9.777833938598633
1.729425056111368e+18,-0.011047100648283958,-0.04030367359519005,-9.737161636352539
1.729425056120368e+18,0.006731725297868252,-0.01688002422451973,-9.872746467590332
1.7294250561293683e+18,-0.08181394636631012,0.0302974134683609,-9.777703285217285
1.7294250561383685e+18,-0.027550719678401947,0.0006763487472198904,-9.869828224182129
1.7294250561473687e+18,0.035302821546792984,0.045100271701812744,-9.804004669189453
1.729425056156369e+18,0.05496819689869881,-0.013239307329058647,-9.811185836791992
1.729425056165369e+18,-0.05603209137916565,0.05733555555343628,-9.801041603088379
1.7294250561743693e+18,-0.08099053055047989,-0.03514770418405533,-9.723416328430176
1.7294250561833695e+18,-0.03302520513534546,-0.035840678960084915,-9.852957725524902
1.7294250561923697e+18,-0.014277145266532898,0.027441643178462982,-9.802117347717285
1.7294250561983698e+18,-0.045726675540208817,0.05008268356323242,-9.744827270507812
1.72942505620737e+18,0.014653541147708893,-0.07566061615943909,-9.796223640441895
1.7294250562163702e+18,-0.013219437561929226,-0.008600885048508644,-9.79527759552002
1.7294250562253704e+18,-0.0045037344098091125,-0.02839130535721779,-9.857495307922363
1.7294250562343706e+18,0.006438600830733776,-0.08811913430690765,-9.876620292663574
1.7294250562433708e+18,-0.019760722294449806,0.009863628074526787,-9.79633903503418
1.729425056252371e+18,0.0005350815481506288,-0.005415043327957392,-9.724406242370605
1.7294250562613711e+18,-0.03077646903693676,-0.04301338642835617,-9.834249496459961
1.7294250562703713e+18,-0.011423507705330849,-0.010298395529389381,-9.807579040527344
1.7294250562793715e+18,0.058895647525787354,-0.006492458283901215,-9.845154762268066
1.7294250562883717e+18,-0.02142779529094696,-0.017337383702397346,-9.841514587402344
1.729425056297372e+18,0.04179718345403671,0.018633805215358734,-9.801963806152344
1.729425056306372e+18,-0.02874390222132206,0.014062885195016861,-9.814127922058105
1.7294250563153723e+18,-0.007935005240142345,-0.03266049548983574,-9.813365936279297
1.7294250563213724e+18,0.07984127849340439,0.022512102499604225,-9.909125328063965
1.7294250563303726e+18,0.004524388816207647,3.0252476790337823e-05,-9.819928169250488
1.7294250563393728e+18,0.00721467612311244,0.023382630199193954,-9.814240455627441
1.729425056345373e+18,0.03233443573117256,-0.001431723590940237,-9.857250213623047
1.729425056351373e+18,0.04849167913198471,0.006045786663889885,-9.776119232177734
1.7294250563573732e+18,-0.0054448689334094524,-0.008292478509247303,-9.836202621459961
1.7294250563633733e+18,-0.061075806617736816,0.028843006119132042,-9.73662281036377
1.7294250563723735e+18,-0.03499419987201691,-0.10367675125598907,-9.789294242858887
1.7294250563783736e+18,0.004413651302456856,-0.035280369222164154,-9.802349090576172
1.7294250563873738e+18,-0.06104964762926102,-0.03469204902648926,-9.839168548583984
1.729425056393374e+18,0.04696830362081528,-0.06312346458435059,-9.794205665588379
1.729425056399374e+18,0.014888986945152283,-0.036686971783638,-9.79912281036377
1.7294250564083743e+18,0.01973922923207283,0.023677846416831017,-9.847569465637207
1.7294250564113743e+18,-0.06182416155934334,0.04922930523753166,-9.790879249572754
1.7294250564173745e+18,0.012835578061640263,-0.06440012902021408,-9.855018615722656
1.7294250564233746e+18,0.001812535454519093,0.0013486542738974094,-9.778264045715332
1.7294250564293747e+18,-0.019146502017974854,-0.016729839146137238,-9.889339447021484
1.7294250564353748e+18,-0.11650523543357849,-0.0022739716805517673,-9.832510948181152
1.729425056441375e+18,-0.04475337639451027,0.030450619757175446,-9.763991355895996
1.729425056447375e+18,0.016684461385011673,-0.0163766760379076,-9.87912654876709
1.7294250564533752e+18,-0.04075093939900398,0.04048451781272888,-9.870843887329102
1.7294250564593754e+18,0.0011245796922594309,-0.056030549108982086,-9.850743293762207
1.7294250564653755e+18,0.0016028846148401499,-0.05924420431256294,-9.810356140136719
1.7294250564713756e+18,0.11228815466165543,-0.024076195433735847,-9.798995971679688
1.7294250564773757e+18,0.039260875433683395,0.04367136210203171,-9.77890396118164
1.729425056486376e+18,0.05565211921930313,-0.015394428744912148,-9.783524513244629
1.729425056492376e+18,0.09042184799909592,-0.0025921009946614504,-9.840392112731934
1.7294250565013763e+18,-0.04448554292321205,-0.04626791551709175,-9.802030563354492
1.7294250565073764e+18,0.007939417846500874,-0.04183582961559296,-9.721636772155762
1.7294250565133765e+18,0.048626333475112915,-0.04023323953151703,-9.792595863342285
1.7294250565193766e+18,0.052646055817604065,-0.052299413830041885,-9.826814651489258
1.7294250565253768e+18,-0.017514830455183983,-0.0014178260462358594,-9.858475685119629
1.729425056531377e+18,-0.00022301601711660624,-0.034658804535865784,-9.782953262329102
1.729425056537377e+18,-0.007366801146417856,-0.15850989520549774,-9.818964958190918
1.7294250565433772e+18,0.10285358130931854,0.058724675327539444,-9.842206954956055
1.7294250565493773e+18,0.0668538361787796,-0.05881136283278465,-9.82639217376709
1.7294250565583775e+18,-0.030946159735322,0.048768334090709686,-9.80797290802002
1.7294250565643776e+18,0.001198059180751443,-0.08419057726860046,-9.864938735961914
1.7294250565703777e+18,0.04387355223298073,0.021117134019732475,-9.851580619812012
1.7294250565763779e+18,0.027452165260910988,-0.0011748680844902992,-9.908893585205078
1.729425056579378e+18,0.015111936256289482,0.0418546237051487,-9.822721481323242
1.729425056585378e+18,0.015535983256995678,-0.04629568010568619,-9.840605735778809
1.7294250565943782e+18,0.04843757301568985,0.059828538447618484,-9.813249588012695
1.7294250566003784e+18,-0.019796306267380714,0.05082561820745468,-9.775890350341797
1.7294250566063785e+18,0.008128448389470577,0.05357775464653969,-9.837922096252441
1.7294250566123786e+18,-0.01724141277372837,-0.0093946922570467,-9.742913246154785
1.7294250566153787e+18,-0.009143325500190258,0.08073285222053528,-9.852362632751465
1.729425056624379e+18,0.04091977700591087,0.04151293262839317,-9.821252822875977
1.729425056630379e+18,0.03540835902094841,-0.04871341586112976,-9.781904220581055
1.7294250566363791e+18,-0.01433006301522255,0.08536511659622192,-9.791707038879395
1.7294250566453793e+18,0.07179876416921616,0.04448183625936508,-9.854183197021484
1.7294250566543795e+18,0.02138487808406353,0.0020973053760826588,-9.819005012512207
1.7294250566573796e+18,-0.062350060790777206,0.04710037633776665,-9.786202430725098
1.7294250566633797e+18,0.027938762679696083,0.021072525531053543,-9.834212303161621
1.7294250566693798e+18,0.03899213299155235,0.04774966463446617,-9.877249717712402
1.72942505667538e+18,0.02436181530356407,-0.0327356718480587,-9.753276824951172
1.72942505668138e+18,-0.0003913490509148687,0.010764049366116524,-9.827878952026367
1.7294250566903803e+18,0.03118366189301014,0.014715001918375492,-9.889092445373535
1.7294250566963804e+18,0.0034829783253371716,-0.016911501064896584,-9.822676658630371
1.7294250567023805e+18,-0.047165416181087494,-0.006810988299548626,-9.802685737609863
1.7294250567113807e+18,0.006077519617974758,-0.023492122069001198,-9.796772003173828
1.729425056720381e+18,-0.001740693929605186,-0.030673064291477203,-9.80161190032959
1.729425056729381e+18,0.05324070528149605,0.014791151508688927,-9.76739501953125
1.7294250567323812e+18,-0.09023817628622055,0.05721980333328247,-9.872267723083496
1.7294250567383813e+18,0.04455884173512459,0.008147338405251503,-9.746598243713379
1.7294250567473815e+18,-0.007236727513372898,0.03490685299038887,-9.90396499633789
1.7294250567533816e+18,-0.0013165316777303815,0.06669515371322632,-9.798941612243652
1.7294250567623818e+18,-0.030464835464954376,0.005353603046387434,-9.867193222045898
1.729425056768382e+18,0.004234046209603548,0.008106918074190617,-9.792508125305176
1.7294250567803822e+18,0.005267603322863579,0.027363387867808342,-9.80385684967041
1.7294250567893824e+18,0.058753594756126404,-0.011989853344857693,-9.684374809265137
1.7294250567953825e+18,0.017241012305021286,0.054405905306339264,-9.856216430664062
1.7294250568043827e+18,0.07517591863870621,-0.009860086254775524,-9.761602401733398
1.729425056813383e+18,0.044784244149923325,-0.02075226418673992,-9.834210395812988
1.729425056822383e+18,-0.07747327536344528,-0.006840994581580162,-9.746667861938477
1.7294250568313833e+18,0.06431800127029419,-0.013058146461844444,-9.815669059753418
1.7294250568403835e+18,0.008292884565889835,0.033654723316431046,-9.841710090637207
1.7294250568493837e+18,0.07086846977472305,-0.09132720530033112,-9.860269546508789
1.729425056858384e+18,-0.021639062091708183,-0.08979061990976334,-9.793257713317871
1.729425056867384e+18,-0.06451116502285004,0.016792869195342064,-9.828948974609375
1.7294250568763843e+18,0.056612350046634674,-0.04112185165286064,-9.782108306884766
1.7294250568853844e+18,-0.025248421356081963,0.033374328166246414,-9.80647087097168
1.7294250568943846e+18,0.012462693266570568,-0.02864338457584381,-9.848348617553711
1.7294250569033848e+18,0.07153721153736115,-0.0068378206342458725,-9.811371803283691
1.729425056912385e+18,0.017177633941173553,0.0348997600376606,-9.763991355895996
1.7294250569213852e+18,-0.02368297055363655,-0.05821601301431656,-9.80223560333252
1.7294250569303854e+18,-0.038524772971868515,0.02621600404381752,-9.841252326965332
1.7294250569393856e+18,-0.027264010161161423,-0.03757326304912567,-9.855103492736816
1.7294250569483858e+18,-0.06485658138990402,-0.03392329066991806,-9.856805801391602
1.729425056957386e+18,0.025332417339086533,-0.015408981591463089,-9.850191116333008
1.7294250569663862e+18,0.004525867756456137,-0.03184286504983902,-9.801658630371094
1.7294250569753864e+18,-0.045849476009607315,-0.027316132560372353,-9.80347728729248
1.7294250569873866e+18,-0.08477463573217392,0.03018053248524666,-9.805155754089355
1.7294250569963868e+18,0.0456429123878479,0.05147413909435272,-9.760625839233398
1.729425057002387e+18,-0.024952208623290062,0.07143440842628479,-9.883336067199707
1.7294250570113871e+18,-0.004355546087026596,0.03521176427602768,-9.738920211791992
1.7294250570203873e+18,-0.005683251190930605,0.02001975104212761,-9.789178848266602
1.7294250570293875e+18,-0.009378374554216862,0.00645425682887435,-9.782114028930664
1.7294250570383877e+18,0.012877474538981915,-0.03529694303870201,-9.85111141204834
1.729425057047388e+18,0.037926193326711655,-0.05765840783715248,-9.825764656066895
1.729425057056388e+18,0.01749526709318161,0.006837578024715185,-9.893754005432129
1.7294250570653883e+18,0.008106554858386517,0.03342197462916374,-9.865286827087402
1.7294250570743885e+18,0.021986406296491623,0.10207556933164597,-9.751380920410156
1.7294250570833887e+18,-0.05430382862687111,0.08926883339881897,-9.78108024597168
1.7294250570893888e+18,-0.0348275788128376,-0.014009550213813782,-9.772378921508789
1.729425057095389e+18,-0.06834481656551361,0.03250638768076897,-9.781646728515625
1.729425057101389e+18,0.030852504074573517,0.010402298532426357,-9.832662582397461
1.7294250571073892e+18,-0.024146297946572304,-0.022999225184321404,-9.821863174438477
1.7294250571133893e+18,0.024397211149334908,0.008976154960691929,-9.8333101272583
1.7294250571193894e+18,-0.09071910381317139,-0.042399436235427856,-9.883318901062012
1.7294250571253896e+18,-0.024005379527807236,0.019233085215091705,-9.762767791748047
1.7294250571313897e+18,0.014967494644224644,0.014016195200383663,-9.777124404907227
1.7294250571373898e+18,-0.0654795691370964,0.024030346423387527,-9.890267372131348
1.72942505714339e+18,0.0625511184334755,-0.028407499194145203,-9.943896293640137
1.72942505714939e+18,-0.024182558059692383,0.05531961843371391,-9.873739242553711
1.7294250571553902e+18,0.023494724184274673,0.028876906260848045,-9.849879264831543
1.7294250571613903e+18,-0.005125894211232662,-0.015247168950736523,-9.825189590454102
1.7294250571673905e+18,0.023621410131454468,0.0478719100356102,-9.793265342712402
1.7294250571733906e+18,0.03965352103114128,-0.034570496529340744,-9.791296005249023
1.7294250571823908e+18,-0.024007007479667664,-0.04836875572800636,-9.805916786193848
1.729425057191391e+18,-0.004725618753582239,-0.013964229263365269,-9.832773208618164
1.7294250572003912e+18,-0.018450366333127022,0.0355493500828743,-9.827220916748047
1.7294250572093914e+18,-0.02609255351126194,-0.013951191678643227,-9.795990943908691
1.7294250572183916e+18,-0.04607069864869118,0.016763722524046898,-9.846062660217285
1.7294250572243917e+18,0.07500980794429779,0.022590961307287216,-9.719409942626953
1.7294250572333919e+18,-0.03314432501792908,-0.0038002801593393087,-9.78673267364502
1.729425057242392e+18,0.0007847992819733918,-0.03480317443609238,-9.778665542602539
1.7294250572513923e+18,-0.05190008133649826,-0.02252805046737194,-9.81429672241211
1.7294250572603924e+18,0.052033986896276474,-0.0823955237865448,-9.793252944946289
1.7294250572693926e+18,-0.005110231693834066,0.016476837918162346,-9.872834205627441
1.7294250572783928e+18,-0.01896481215953827,0.04778416082262993,-9.763202667236328
1.729425057284393e+18,-0.0335858091711998,0.015378332696855068,-9.819208145141602
1.7294250572933932e+18,0.08825831115245819,0.008204536512494087,-9.79371166229248
1.7294250573023933e+18,0.09152554720640182,-0.021092059090733528,-9.819334983825684
1.7294250573113935e+18,-0.04595872014760971,0.04509682580828667,-9.857914924621582
1.7294250573203937e+18,-0.05194969102740288,0.0627618134021759,-9.806303977966309
1.729425057329394e+18,-0.051059819757938385,0.014958519488573074,-9.782636642456055
1.729425057338394e+18,-0.01271884422749281,0.08317071199417114,-9.782872200012207
1.7294250573473943e+18,0.053024400025606155,0.0013762535527348518,-9.760004043579102
1.7294250573563945e+18,-0.035598400980234146,0.05295213684439659,-9.850632667541504
1.7294250573653947e+18,-0.030410150066018105,-0.03884733095765114,-9.845919609069824
1.729425057374395e+18,0.0053388094529509544,-0.030846044421195984,-9.832371711730957
1.729425057383395e+18,0.023256948217749596,-0.026337232440710068,-9.82065486907959
1.7294250573923953e+18,0.03835202008485794,-0.050660621374845505,-9.884841918945312
1.7294250574013955e+18,0.03640164062380791,-0.022601086646318436,-9.93905258178711
1.7294250574103956e+18,0.08253568410873413,-0.06102447211742401,-9.870535850524902
1.7294250574193958e+18,-0.003314823377877474,0.027966201305389404,-9.917363166809082
1.729425057425396e+18,0.009448815137147903,0.02083824947476387,-9.9072904586792
1.7294250574343962e+18,0.01855219341814518,0.05570284277200699,-10.01706600189209
1.7294250574433964e+18,0.027876492589712143,-0.00188831752166152,-9.945584297180176
1.7294250574523965e+18,-0.009491990320384502,-0.052399978041648865,-10.002532958984375
1.7294250574613967e+18,0.021065060049295425,-0.025520626455545425,-9.907496452331543
1.729425057470397e+18,0.014067256823182106,-0.026607278734445572,-10.027071952819824
1.729425057479397e+18,-0.03071141615509987,-0.0012731701135635376,-9.962153434753418
1.7294250574883973e+18,-0.03761968016624451,0.009131538681685925,-10.011664390563965
1.7294250574973975e+18,-0.01788829080760479,0.0270956140011549,-10.08592414855957
1.7294250575063977e+18,-0.041776180267333984,-0.03943580389022827,-10.144037246704102
1.729425057515398e+18,0.03983299061655998,0.05165070295333862,-10.06301212310791
1.729425057524398e+18,0.053794700652360916,-0.04992767423391342,-10.054862976074219
1.7294250575333983e+18,0.04004380479454994,0.03353481367230415,-10.048188209533691
1.7294250575423985e+18,0.01492516789585352,0.008470539003610611,-10.108649253845215
1.7294250575513987e+18,-0.08595366775989532,-0.000902052503079176,-10.206506729125977
1.7294250575603988e+18,0.005802962929010391,0.02906615287065506,-10.135623931884766
1.729425057566399e+18,-0.01807853952050209,-0.009504122659564018,-10.14718246459961
1.7294250575783992e+18,-0.052824851125478745,0.014734659343957901,-10.496772766113281
1.7294250575873994e+18,-0.024545058608055115,-0.031472064554691315,-10.532151222229004
1.7294250575963996e+18,0.01663123071193695,-0.0047638569958508015,-10.485855102539062
1.7294250576053998e+18,0.010574234649538994,-0.04184792563319206,-10.457620620727539
1.7294250576144e+18,-0.08301293104887009,-0.0395883247256279,-10.588851928710938
1.7294250576234002e+18,-0.0003172901924699545,0.09030268341302872,-10.592308044433594
1.7294250576324004e+18,-0.028865477070212364,0.01577054336667061,-10.62287425994873
1.7294250576414006e+18,0.005440653767436743,0.01349471602588892,-10.547540664672852
1.7294250576504008e+18,-0.035035137087106705,-0.09967081993818283,-10.598620414733887
1.729425057659401e+18,-0.00928415171802044,0.09651128947734833,-10.534160614013672
1.7294250576684012e+18,-0.05445811152458191,-0.0163818821310997,-10.544378280639648
1.7294250576744013e+18,0.03719808906316757,-0.006614279001951218,-10.602182388305664
1.7294250576834015e+18,-0.06625824421644211,0.025232994928956032,-10.606578826904297
1.7294250576924017e+18,0.018513353541493416,0.011568894609808922,-10.478450775146484
1.7294250577014019e+18,-0.031402960419654846,-0.07320450246334076,-10.607998847961426
1.729425057710402e+18,-0.043706342577934265,0.008853108622133732,-10.555288314819336
1.7294250577194022e+18,0.014809533953666687,0.01350661925971508,-10.588226318359375
1.7294250577284024e+18,0.013698708266019821,-0.007765325717628002,-10.617790222167969
1.7294250577374026e+18,-0.02837747149169445,0.08295375853776932,-10.589384078979492
1.7294250577434028e+18,0.05833045020699501,-0.007539139129221439,-10.552142143249512
1.729425057755403e+18,-0.017975743860006332,0.005647649057209492,-10.640228271484375
1.7294250577614031e+18,-0.006345024332404137,-0.045691072940826416,-10.556689262390137
1.7294250577704033e+18,-0.0004910931456834078,0.019895240664482117,-10.621354103088379
1.7294250577794035e+18,-0.05554686114192009,-0.0006445159669965506,-10.594297409057617
1.7294250577884037e+18,-0.03668831288814545,-0.03209296986460686,-10.563234329223633
1.729425057797404e+18,0.01554023940116167,0.0028222997207194567,-10.495573043823242
1.729425057806404e+18,-0.039417605847120285,0.05970527604222298,-10.62177562713623
1.7294250578124042e+18,-0.10448738932609558,-0.05371571332216263,-10.626947402954102
1.7294250578214044e+18,-0.05222221463918686,-0.04496411979198456,-10.696846961975098
1.7294250578304046e+18,0.02712221071124077,-0.015945110470056534,-10.632139205932617
1.7294250578394048e+18,0.07200847566127777,0.02606145478785038,-10.582630157470703
1.729425057848405e+18,-0.06161516159772873,-0.067448690533638,-10.541604042053223
1.729425057854405e+18,-0.06559379398822784,0.0027783962432295084,-10.645750999450684
1.7294250578634053e+18,-0.0029151802882552147,-0.022047124803066254,-10.587400436401367
1.7294250578724055e+18,-0.024185439571738243,-0.027852831408381462,-10.60940170288086
1.7294250578814057e+18,-0.08615566790103912,-0.05878829210996628,-10.574528694152832
1.729425057890406e+18,0.042614441365003586,0.03182142972946167,-10.599405288696289
1.729425057899406e+18,0.07922084629535675,-0.1278231143951416,-10.613346099853516
1.7294250579084063e+18,0.028213931247591972,-0.0436326265335083,-10.569632530212402
1.7294250579174065e+18,-0.010079547762870789,0.018727123737335205,-10.636177062988281
1.7294250579264067e+18,0.06707634031772614,0.02389591373503208,-10.600621223449707
1.7294250579354068e+18,0.031114153563976288,-0.054722677916288376,-10.598711013793945
1.729425057944407e+18,0.00440690852701664,0.06345614790916443,-10.524494171142578
1.7294250579534072e+18,0.05523396283388138,0.02082171104848385,-10.631668090820312
1.7294250579594074e+18,0.002990816719830036,-0.037677645683288574,-10.624579429626465
1.7294250579624074e+18,-0.000716856331564486,0.0009358453098684549,-10.643648147583008
1.7294250579684076e+18,-0.009603647515177727,-0.04978441447019577,-10.628331184387207
1.7294250579744077e+18,0.01694723404943943,0.02695530652999878,-10.600659370422363
1.7294250579804078e+18,0.10727856308221817,0.032499123364686966,-10.628560066223145
1.729425057989408e+18,0.008211788721382618,0.0337490476667881,-10.562798500061035
1.7294250579984082e+18,0.037508197128772736,-0.014034963212907314,-10.589783668518066
1.7294250580044083e+18,0.0349157378077507,0.05213432013988495,-10.559914588928223
1.7294250580104084e+18,-0.036945633590221405,-0.004355560056865215,-10.599976539611816
1.7294250580164086e+18,0.03652626648545265,-0.08448516577482224,-10.574527740478516
1.7294250580224087e+18,-0.03853609785437584,-0.0029172077775001526,-10.636086463928223
1.7294250580284088e+18,0.033435579389333725,-0.10358012467622757,-10.593514442443848
1.729425058034409e+18,0.08345837891101837,0.03934411332011223,-10.65259075164795
1.729425058037409e+18,0.012714795768260956,0.029993461444973946,-10.547771453857422
1.7294250580464092e+18,0.006427248474210501,-0.028021782636642456,-10.626852989196777
1.7294250580524093e+18,-0.05915512144565582,0.003977669402956963,-10.704371452331543
1.7294250580584095e+18,0.0050643919967114925,0.01666652038693428,-10.584349632263184
1.7294250580644096e+18,-0.009205139242112637,0.0668664500117302,-10.638067245483398
1.7294250580704097e+18,-0.005891439504921436,0.03662536293268204,-10.655938148498535
1.7294250580764099e+18,0.0805576965212822,-0.026913780719041824,-10.705643653869629
1.72942505808241e+18,0.029316596686840057,-0.016033316031098366,-10.632333755493164
1.72942505808841e+18,0.015891551971435547,-0.016024915501475334,-10.652307510375977
1.7294250580944102e+18,0.005235557910054922,0.019835710525512695,-10.590192794799805
1.7294250581004104e+18,0.009113309904932976,0.01328970491886139,-10.56194019317627
1.7294250581064105e+18,0.03652690351009369,-0.03970753028988838,-10.62063980102539
1.7294250581124106e+18,0.02676737681031227,-0.06344898790121078,-10.65237808227539
1.7294250581154107e+18,0.023995021358132362,0.0001358634326606989,-10.612378120422363
1.729425058124411e+18,-0.04082588851451874,-0.03270047530531883,-10.592235565185547
1.729425058130411e+18,0.01668407768011093,-0.011698294430971146,-10.809402465820312
1.7294250581364111e+18,-0.0802309513092041,-0.018622813746333122,-10.586418151855469
1.7294250581424113e+18,0.06509818136692047,-0.04325571656227112,-10.614766120910645
1.7294250581484114e+18,-0.021588541567325592,0.021615445613861084,-10.610366821289062
1.7294250581544115e+18,0.008412330411374569,0.052942678332328796,-10.64553451538086
1.7294250581604116e+18,0.007401415146887302,-0.011328360997140408,-10.667991638183594
1.7294250581634117e+18,0.05726439133286476,-0.0650952011346817,-10.561088562011719
1.7294250581694118e+18,-0.04911774396896362,0.026904499158263206,-10.650003433227539
1.729425058175412e+18,-0.027279090136289597,-0.08557862043380737,-10.611977577209473
1.7294250581844122e+18,-0.05557946860790253,-0.003768123220652342,-10.577215194702148
1.7294250581904123e+18,-0.026074565947055817,0.026101116091012955,-10.626307487487793
1.7294250581964124e+18,-0.0472581684589386,0.032055605202913284,-10.599959373474121
1.7294250582024125e+18,-0.015682028606534004,-0.0014542760327458382,-10.568249702453613
1.7294250582084127e+18,0.019754964858293533,-0.05335858091711998,-10.638657569885254
1.7294250582144128e+18,-0.011110381223261356,0.03555702045559883,-10.561227798461914
1.729425058220413e+18,0.04742566496133804,-0.014554595574736595,-10.628328323364258
1.729425058229413e+18,0.025013640522956848,-0.022693181410431862,-10.5444917678833
1.7294250582354132e+18,0.026001974940299988,0.038935545831918716,-10.629997253417969
1.7294250582414134e+18,0.060060109943151474,0.049063242971897125,-10.560953140258789
1.7294250582474135e+18,0.00939278956502676,-0.013237861916422844,-10.503116607666016
1.7294250582534136e+18,0.0025397809222340584,-0.04660357907414436,-10.598959922790527
1.7294250582594138e+18,0.017987679690122604,-0.06345779448747635,-10.601948738098145
1.729425058265414e+18,-0.036730263382196426,-0.039006490260362625,-10.554157257080078
1.729425058271414e+18,-0.02265751361846924,-0.0025442829355597496,-10.623785972595215
1.7294250582774141e+18,0.015293965116143227,-0.024738367646932602,-10.647401809692383
1.7294250582834143e+18,0.048065803945064545,-0.007295643445104361,-10.644621849060059
1.7294250582864143e+18,-0.07260049879550934,-0.03865092620253563,-10.608311653137207
1.7294250582954145e+18,0.08599188178777695,-0.05929578095674515,-10.535698890686035
1.7294250583014147e+18,0.029426444321870804,0.01646340638399124,-10.637499809265137
1.7294250583074148e+18,-0.027075042948126793,0.06673126667737961,-10.619461059570312
1.729425058313415e+18,0.008685986511409283,-0.02975916489958763,-10.611913681030273
1.729425058319415e+18,0.04400738701224327,-0.0784168541431427,-10.64592456817627
1.7294250583254152e+18,-0.02915308065712452,0.010162043385207653,-10.601226806640625
1.7294250583314153e+18,-0.016262056306004524,0.0354623943567276,-10.681095123291016
1.7294250583404155e+18,0.026277005672454834,-0.02487717941403389,-10.688956260681152
1.7294250583464156e+18,0.04937835410237312,-0.005877288058400154,-10.601937294006348
1.7294250583494157e+18,-0.09338986873626709,-0.015703219920396805,-10.644598007202148
1.7294250583554158e+18,0.05923089012503624,-0.014385009184479713,-10.6171236038208
1.729425058361416e+18,-0.00011346905375830829,-0.010671088472008705,-10.64197063446045
1.729425058367416e+18,-0.08044245839118958,-0.009466116316616535,-10.55936050415039
1.7294250583734162e+18,-0.049876805394887924,0.054803285747766495,-10.545736312866211
1.7294250583794163e+18,-0.04630369320511818,0.016672350466251373,-10.574319839477539
1.7294250583854164e+18,0.03185782954096794,0.050148069858551025,-10.654383659362793
1.7294250583944166e+18,-0.03129385784268379,0.07359610497951508,-10.561917304992676
1.7294250584004168e+18,0.0009338837116956711,0.054374706000089645,-10.59215259552002
1.729425058406417e+18,-0.03447481989860535,0.020893534645438194,-10.614109992980957
1.729425058409417e+18,-0.08721263706684113,-0.03962886333465576,-10.598811149597168
1.7294250584184172e+18,-0.00024038096307776868,0.025533638894557953,-10.667798042297363
1.7294250584244173e+18,0.05165981873869896,0.04877334088087082,-10.519502639770508
1.7294250584334175e+18,-0.043213870376348495,-0.02715388499200344,-10.574851989746094
1.7294250584394176e+18,-0.042623646557331085,-0.08267831802368164,-10.544947624206543
1.7294250584454177e+18,0.03729303181171417,0.04201257973909378,-10.604842185974121
1.729425058454418e+18,-0.04485022649168968,0.008159903809428215,-10.592747688293457
1.729425058460418e+18,0.016701407730579376,0.006846202537417412,-10.569144248962402
1.7294250584664182e+18,0.03482475131750107,-0.055815327912569046,-10.619741439819336
1.7294250584724183e+18,0.05476612225174904,-0.019784029573202133,-10.598637580871582
1.7294250584784184e+18,0.06162211671471596,-0.03186217322945595,-10.609842300415039
1.7294250584844186e+18,0.03199387714266777,-0.04926930367946625,-10.507311820983887
1.7294250584904187e+18,0.020858239382505417,0.04032355919480324,-10.533440589904785
1.7294250584964188e+18,0.033113740384578705,-0.02212425321340561,-10.590092658996582
1.729425058502419e+18,0.030389616265892982,-0.020924577489495277,-10.577373504638672
1.729425058508419e+18,-0.05339623987674713,-0.06745737791061401,-10.587667465209961
1.7294250585174193e+18,-0.04780350625514984,-0.035670146346092224,-10.588123321533203
1.7294250585234194e+18,-0.03278949484229088,0.008975807577371597,-10.578523635864258
1.7294250585294195e+18,-0.0033909326884895563,0.06041277199983597,-10.51293659210205
1.7294250585354196e+18,0.006370839662849903,0.016459647566080093,-10.644111633300781
1.7294250585444198e+18,0.02376595512032509,0.043460797518491745,-10.57209300994873
1.72942505855042e+18,0.06671334058046341,0.05583537369966507,-10.669938087463379
1.72942505855642e+18,-0.046493228524923325,0.023108994588255882,-10.670498847961426
1.7294250585624202e+18,-0.06316147744655609,0.012400003150105476,-10.563044548034668
1.7294250585684204e+18,0.025697557255625725,-0.029333900660276413,-10.52949047088623
1.7294250585744205e+18,0.04052652791142464,-0.07863326370716095,-10.672481536865234
1.7294250585804206e+18,0.0037778657861053944,-0.00026710410020314157,-10.529967308044434
1.7294250585834207e+18,0.053105805069208145,-0.011415252462029457,-10.6694917678833
1.7294250585894208e+18,0.001588391256518662,0.04317678511142731,-10.522810935974121
1.729425058598421e+18,-0.06853429228067398,-0.03746394068002701,-10.596004486083984
1.729425058604421e+18,0.0334562286734581,-0.010531268082559109,-10.548898696899414
1.7294250586104212e+18,-0.020065365359187126,-0.09245510399341583,-10.611602783203125
1.7294250586164214e+18,-0.024928225204348564,-0.10123801231384277,-10.574081420898438
1.7294250586224215e+18,0.0346091203391552,-0.029871460050344467,-10.587928771972656
1.7294250586284216e+18,-0.012360178865492344,0.00394495390355587,-10.562166213989258
1.7294250586344218e+18,0.01767600141465664,0.020915580913424492,-10.54252815246582
1.729425058643422e+18,0.03247219696640968,-0.09338673204183578,-10.571144104003906
1.729425058646422e+18,0.020028041675686836,-0.050777237862348557,-10.48534870147705
1.7294250586554222e+18,-0.01368885301053524,-0.028505567461252213,-10.537187576293945
1.7294250586584223e+18,-0.05466051399707794,0.036542244255542755,-10.558612823486328
1.7294250586644224e+18,0.007357190363109112,0.04633103311061859,-10.513434410095215
1.7294250586704225e+18,0.03853181377053261,0.016731692478060722,-10.544965744018555
1.7294250586764227e+18,-0.058124180883169174,0.05263900011777878,-10.598477363586426
1.7294250586854228e+18,-0.004623468965291977,-0.005105247255414724,-10.536003112792969
1.729425058688423e+18,0.04137901961803436,-0.06392829120159149,-10.558586120605469
1.729425058694423e+18,-0.011699915863573551,-0.05570094659924507,-10.518216133117676
1.7294250587034232e+18,0.04807521030306816,0.042995937168598175,-10.512227058410645
1.7294250587064233e+18,-0.018379108980298042,-0.011566066183149815,-10.579424858093262
1.7294250587154235e+18,-0.0051541877910494804,0.012564634904265404,-10.52451229095459
1.7294250587214236e+18,0.023162709549069405,-0.036186642944812775,-10.485692977905273
1.7294250587304238e+18,-0.04950501769781113,-0.08343914896249771,-10.513535499572754
1.729425058736424e+18,-0.01832735352218151,0.035821352154016495,-10.555652618408203
1.729425058742424e+18,0.007642606273293495,0.05414126068353653,-10.654200553894043
1.7294250587514243e+18,-0.02917107194662094,0.11159300804138184,-10.53119945526123
1.7294250587574244e+18,-0.04992666095495224,-0.05711854621767998,-10.529050827026367
1.7294250587634245e+18,0.037252943962812424,0.04043681174516678,-10.590611457824707
1.7294250587694246e+18,-0.007707319222390652,0.02499018982052803,-10.532071113586426
1.7294250587754248e+18,0.06274063885211945,-0.1250024437904358,-10.491802215576172
1.729425058781425e+18,0.007218184880912304,-0.03176382929086685,-10.505343437194824
1.729425058787425e+18,-0.032833244651556015,0.046434998512268066,-10.546406745910645
1.7294250587934252e+18,0.014671636745333672,0.07873786240816116,-10.546626091003418
1.7294250588024253e+18,-0.00012481538578867912,-0.10336101800203323,-10.531437873840332
1.7294250588054254e+18,0.0588553287088871,-0.10020226240158081,-10.55723762512207
1.7294250588144256e+18,-0.05472508445382118,0.017716115340590477,-10.57497787475586
1.7294250588174257e+18,0.052400097250938416,-0.009958845563232899,-10.578786849975586
1.7294250588234258e+18,0.02808251790702343,0.08882009983062744,-10.630581855773926
1.729425058829426e+18,0.03723400458693504,-0.012343110516667366,-10.557530403137207
1.729425058835426e+18,0.03881271928548813,-0.01865687593817711,-10.49759578704834
1.7294250588414262e+18,-0.02754129283130169,-0.0021380146499723196,-10.53119945526123
1.7294250588474263e+18,-0.004493373446166515,0.04615186154842377,-10.556974411010742
1.7294250588534264e+18,-0.07376709580421448,0.0739799365401268,-10.369280815124512
1.7294250588594266e+18,0.008671100251376629,0.048132624477148056,-10.458263397216797
1.7294250588654267e+18,0.08437325060367584,-0.07346125692129135,-10.464216232299805
1.729425058874427e+18,-0.025200054049491882,0.04736771062016487,-10.389752388000488
1.729425058883427e+18,-0.05730719491839409,-0.03887259215116501,-10.427821159362793
1.7294250588924273e+18,0.04560898244380951,0.003895300207659602,-10.287845611572266
1.7294250589014275e+18,0.026244493201375008,-0.009707058779895306,-10.285571098327637
1.7294250589104276e+18,-0.043920937925577164,-0.008473621681332588,-10.276727676391602
1.7294250589194278e+18,-0.017532333731651306,0.029229722917079926,-10.2992525100708
1.729425058928428e+18,-0.024844761937856674,-0.0010624265996739268,-10.266364097595215
1.7294250589374282e+18,-0.040825244039297104,-0.014891443774104118,-10.171576499938965
1.7294250589464284e+18,-0.04543817788362503,-0.06940311938524246,-10.157231330871582
1.7294250589584287e+18,0.0673782080411911,-0.13902460038661957,-10.189249992370605
1.7294250589674289e+18,-0.002147157210856676,0.004889989737421274,-10.161781311035156
1.729425058976429e+18,-0.017658863216638565,-0.023343130946159363,-10.056400299072266
1.7294250589854292e+18,0.07068514078855515,0.06396576017141342,-10.121100425720215
1.7294250589944294e+18,-0.05429963767528534,-0.010442397557199001,-10.08861255645752
1.7294250590034296e+18,0.012646506540477276,-0.0002172864624299109,-10.024724960327148
1.7294250590124298e+18,0.0005770479328930378,0.023677585646510124,-9.997638702392578
1.72942505902143e+18,-0.05262834206223488,-0.01151418499648571,-9.969934463500977
1.7294250590304302e+18,0.0876879170536995,-7.3899413109757e-05,-9.946772575378418
1.7294250590394304e+18,-0.016992270946502686,-0.04389287531375885,-9.869080543518066
1.7294250590484306e+18,-0.011075001209974289,-0.001057934365235269,-9.83068561553955
1.7294250590574308e+18,0.005166088230907917,0.006436856463551521,-9.874493598937988
1.729425059063431e+18,-0.06395679712295532,0.015864450484514236,-9.804664611816406
1.729425059072431e+18,-0.003445245558395982,-0.00022424741473514587,-9.686293601989746
1.7294250590844314e+18,-0.04224992170929909,0.043992433696985245,-9.788443565368652
1.7294250590934316e+18,0.09946238994598389,-0.030725251883268356,-9.761661529541016
1.7294250591024317e+18,0.08183814585208893,0.08085859566926956,-9.74985408782959
1.729425059111432e+18,0.06746622174978256,-0.015837883576750755,-9.736751556396484
1.729425059120432e+18,0.05975830554962158,-0.0007488269475288689,-9.653511047363281
1.7294250591324324e+18,0.006600557826459408,-0.028758591040968895,-9.709389686584473
1.7294250591414326e+18,0.0595526322722435,-0.056039366871118546,-9.672307014465332
1.7294250591534328e+18,0.0032946262508630753,0.07777971029281616,-9.698249816894531
1.729425059162433e+18,0.028073184192180634,0.03980668634176254,-9.75047779083252
1.7294250591714332e+18,0.04912271350622177,0.013817135244607925,-9.669843673706055
1.7294250591804334e+18,-0.041318684816360474,-0.05838960036635399,-9.728086471557617
1.7294250591924337e+18,-0.07086898386478424,-0.04329783469438553,-9.639805793762207
1.7294250592014339e+18,0.034920431673526764,0.015362557023763657,-9.669124603271484
1.729425059210434e+18,0.005866441875696182,-0.014678826555609703,-9.627692222595215
1.7294250592224343e+18,0.0190077256411314,0.028030365705490112,-9.6871919631958
1.7294250592314345e+18,-0.013547261245548725,-0.002716491697356105,-9.73983097076416
1.7294250592404347e+18,0.06157480925321579,0.046321120113134384,-9.689990043640137
1.729425059249435e+18,-0.016545305028557777,0.0462043434381485,-9.70112419128418
1.729425059258435e+18,-0.005354989320039749,-0.014733444899320602,-9.670284271240234
1.7294250592704353e+18,0.05933653563261032,0.03494230657815933,-9.69495964050293
1.7294250592794355e+18,-0.04417913407087326,-0.011607412248849869,-9.72628116607666
1.7294250592884357e+18,0.041457030922174454,0.06825721263885498,-9.652488708496094
1.729425059297436e+18,0.026921432465314865,-0.01646656170487404,-9.647890090942383
1.729425059306436e+18,-0.027510542422533035,-0.03199925273656845,-9.709443092346191
1.7294250593154363e+18,0.002325973939150572,-0.00931877363473177,-9.760984420776367
1.7294250593214364e+18,0.012634442187845707,0.04528871923685074,-9.626913070678711
1.7294250593304366e+18,0.04051366075873375,0.006726473569869995,-9.800634384155273
1.7294250593394368e+18,-0.02106284722685814,-0.00021107145585119724,-9.683488845825195
1.729425059348437e+18,0.02178383804857731,-0.030844496563076973,-9.66660213470459
1.7294250593574372e+18,0.023183021694421768,-0.06931039690971375,-9.734944343566895
1.7294250593664374e+18,-0.006591479294002056,0.012419253587722778,-9.661806106567383
1.7294250593784376e+18,0.06629628688097,0.0400339774787426,-9.664885520935059
1.7294250593874378e+18,0.10029858350753784,0.09928186237812042,-9.679139137268066
1.729425059393438e+18,0.03518077731132507,-0.006951505318284035,-9.724396705627441
1.7294250594054382e+18,-0.01773771643638611,0.04233845695853233,-9.69540786743164
1.7294250594144384e+18,0.050990328192710876,-0.03113311156630516,-9.664968490600586
1.7294250594264387e+18,-0.041373081505298615,-0.011014480143785477,-9.652655601501465
1.7294250594354388e+18,0.0406775064766407,-0.06788600236177444,-9.63659381866455
1.729425059447439e+18,0.0006495077395811677,-0.039372291415929794,-9.617706298828125
1.7294250594564393e+18,0.09117711335420609,-0.1132877767086029,-9.621310234069824
1.7294250594654395e+18,-0.03831076622009277,-0.01110277883708477,-9.702292442321777
1.7294250594774397e+18,0.07580675184726715,0.015581713989377022,-9.60558795928955
1.72942505948644e+18,0.01390187069773674,-0.01791948825120926,-9.665576934814453
1.7294250594954401e+18,0.029704879969358444,-0.04553605988621712,-9.621243476867676
1.7294250595044403e+18,0.09248357266187668,-0.009297122247517109,-9.582975387573242
1.7294250595134405e+18,0.0019380104495212436,0.05116136744618416,-9.626961708068848
1.7294250595224407e+18,-0.06694131344556808,-0.03521234542131424,-9.568439483642578
1.729425059534441e+18,0.0071841333992779255,-0.062255412340164185,-9.599166870117188
1.7294250595434412e+18,-0.05423620343208313,-0.014620307832956314,-9.640913009643555
1.7294250595524413e+18,0.03360310196876526,0.006549159996211529,-9.588728904724121
1.7294250595614415e+18,-0.03282050043344498,0.01154743880033493,-9.666707038879395
1.7294250595704417e+18,-0.04547634348273277,-0.08701745420694351,-9.590446472167969
1.729425059579442e+18,0.04152340814471245,0.029450710862874985,-9.628583908081055
1.729425059588442e+18,-0.018333302810788155,0.09316757321357727,-9.623730659484863
1.7294250595974423e+18,0.005168091971427202,0.007265079766511917,-9.689659118652344
1.7294250596034424e+18,-0.11106202006340027,-0.022127598524093628,-9.624126434326172
1.7294250596154427e+18,-0.020124709233641624,-0.037547893822193146,-9.546241760253906
1.729425059627443e+18,-0.01845117285847664,-0.04121460020542145,-9.597597122192383
1.7294250596364431e+18,-0.02892329730093479,-0.00799107737839222,-9.517792701721191
1.7294250596454433e+18,0.036507900804281235,-0.1071646437048912,-9.587573051452637
1.7294250596544435e+18,0.029847217723727226,-0.05475204065442085,-9.554543495178223
1.7294250596634437e+18,-0.06908649951219559,-0.011810511350631714,-9.573797225952148
1.729425059672444e+18,-0.024475792422890663,0.023200668394565582,-9.599075317382812
1.729425059681444e+18,0.012555189430713654,-0.003665038151666522,-9.597969055175781
1.7294250596904443e+18,0.018564708530902863,-0.01921539381146431,-9.583989143371582
1.7294250596994445e+18,-0.06776048243045807,-0.06159014627337456,-9.589981079101562
1.7294250597084447e+18,-0.005205963272601366,0.05363365262746811,-9.546609878540039
1.729425059720445e+18,0.09926772862672806,0.003924503456801176,-9.558137893676758
1.729425059729445e+18,-0.044582560658454895,0.059488967061042786,-9.616231918334961
1.7294250597384453e+18,-0.04096522182226181,0.028180968016386032,-9.576602935791016
1.7294250597474455e+18,-0.028951015323400497,0.01237049512565136,-9.546875
1.7294250597564457e+18,0.08572031557559967,0.06903374195098877,-9.620352745056152
1.729425059765446e+18,0.06394857913255692,-0.04731467738747597,-9.490673065185547
1.729425059771446e+18,0.022730812430381775,0.022937636822462082,-9.51832389831543
1.7294250597804462e+18,0.01851608045399189,0.05235881358385086,-9.571015357971191
1.7294250597894464e+18,-0.1318691223859787,-0.009638166055083275,-9.57817268371582
1.7294250597954465e+18,-0.03914806246757507,-0.04380672797560692,-9.583041191101074
1.7294250598044467e+18,-0.027126308530569077,0.013379613868892193,-9.540926933288574
1.7294250598104468e+18,0.022037751972675323,-0.010068858973681927,-9.482232093811035
1.729425059819447e+18,0.020857200026512146,0.043595511466264725,-9.520493507385254
1.7294250598284472e+18,-0.0036334164906293154,-0.03517608717083931,-9.535820960998535
1.7294250598344474e+18,-0.009436497464776039,0.0481523796916008,-9.451187133789062
1.7294250598434476e+18,0.01246622484177351,0.0467776358127594,-9.503351211547852
1.7294250598524477e+18,-0.061599791049957275,0.09589642286300659,-9.54085922241211
1.729425059861448e+18,-0.025474481284618378,0.053845394402742386,-9.544292449951172
1.729425059870448e+18,-0.0237361341714859,0.03174459934234619,-9.527318000793457
1.7294250598794483e+18,0.10235780477523804,0.016925040632486343,-9.556346893310547
1.7294250598884485e+18,0.07478373497724533,-0.03283880650997162,-9.513533592224121
1.7294250598974487e+18,0.030832692980766296,-0.019343174993991852,-9.533143043518066
1.729425059906449e+18,0.07132522016763687,-0.008271578699350357,-9.520835876464844
1.729425059915449e+18,-0.04726506024599075,-0.027148626744747162,-9.464850425720215
1.7294250599244493e+18,-0.04073849692940712,0.003794475458562374,-9.4650297164917
1.7294250599334495e+18,-0.0017052667681127787,-0.049401793628931046,-9.548314094543457
1.7294250599424497e+18,0.061348240822553635,0.00980017427355051,-9.430318832397461
1.7294250599514499e+18,0.03404003381729126,0.00322979548946023,-9.503561973571777
1.72942505995745e+18,-0.006494378205388784,-0.10802993923425674,-9.519672393798828
1.7294250599664502e+18,0.018892280757427216,-0.06562632322311401,-9.51066780090332
1.7294250599754504e+18,0.03224581107497215,-0.11812074482440948,-9.497457504272461
1.7294250599814505e+18,-0.0487884022295475,-0.017465101554989815,-9.52885627746582
1.7294250599874506e+18,-0.07821444422006607,0.022022832185029984,-9.436484336853027
1.7294250599964508e+18,0.009289505891501904,-0.02282683551311493,-9.569519996643066
1.729425060002451e+18,-0.02078181877732277,-0.06248019263148308,-9.49821662902832
1.7294250600114511e+18,0.0684867650270462,-0.04560207575559616,-9.497791290283203
1.7294250600204513e+18,0.01962653361260891,0.022132493555545807,-9.562849998474121
1.7294250600264515e+18,-0.014859190210700035,0.04827752336859703,-9.520426750183105
1.7294250600354516e+18,-0.037335868924856186,-0.023201340809464455,-9.517486572265625
1.7294250600414518e+18,-0.016348237171769142,0.016846105456352234,-9.441902160644531
1.729425060047452e+18,0.016827629879117012,-0.014085853472352028,-9.439530372619629
1.729425060056452e+18,-0.03260515630245209,0.011904039420187473,-9.402158737182617
1.7294250600624522e+18,-0.028110049664974213,0.024273604154586792,-9.50018310546875
1.7294250600714524e+18,-0.06905113905668259,-0.004642804153263569,-9.481460571289062
1.7294250600774525e+18,0.040236011147499084,-0.02432156354188919,-9.533838272094727
1.7294250600834527e+18,0.07549400627613068,0.09289314597845078,-9.60451602935791
1.7294250600894528e+18,0.060567162930965424,0.004331563599407673,-9.514928817749023
1.729425060095453e+18,0.04050265625119209,0.07174301892518997,-9.43724250793457
1.729425060101453e+18,-0.04106578975915909,-0.02186485379934311,-9.32080364227295
1.7294250601074532e+18,-0.053178202360868454,-0.03131914883852005,-9.494904518127441
1.7294250601134533e+18,0.0017274704296141863,-0.030165765434503555,-9.45889949798584
1.7294250601194534e+18,-0.0355035774409771,0.018756994977593422,-9.419920921325684
1.7294250601254536e+18,0.052809830754995346,-0.09021806716918945,-9.494471549987793
1.7294250601314537e+18,0.01104787178337574,-0.020208727568387985,-9.39484691619873
1.7294250601374538e+18,-0.055596597492694855,0.0017150876810774207,-9.447086334228516
1.729425060146454e+18,-0.027734408155083656,-0.061911750584840775,-9.45256519317627
1.729425060149454e+18,-0.054328080266714096,-0.035026438534259796,-9.541298866271973
1.7294250601554542e+18,-0.09352391958236694,0.0713924840092659,-9.49244213104248
1.7294250601614543e+18,0.03264028951525688,-0.013784603215754032,-9.413715362548828
1.7294250601674545e+18,0.07905416190624237,-0.022738642990589142,-9.471301078796387
1.7294250601734546e+18,0.05797780677676201,0.053033240139484406,-9.495343208312988
1.7294250601794547e+18,0.007391130086034536,0.01779640093445778,-9.428092002868652
1.7294250601854548e+18,-0.055285535752773285,0.063890241086483,-9.464872360229492
1.729425060191455e+18,-0.02230592630803585,-0.050611983984708786,-9.500890731811523
1.729425060197455e+18,-0.0015758215449750423,0.014481703750789165,-9.492615699768066
1.7294250602034552e+18,-0.004620969295501709,0.051591284573078156,-9.428210258483887
1.7294250602094554e+18,0.09221918880939484,0.03431142494082451,-9.416401863098145
1.7294250602154555e+18,0.022616172209382057,0.07329858094453812,-9.391892433166504
1.7294250602214556e+18,-0.057889603078365326,0.05746985971927643,-9.417724609375
1.7294250602274557e+18,-0.03477545082569122,0.05631334334611893,-9.439615249633789
1.7294250602334559e+18,0.03217429295182228,-0.053411226719617844,-9.434585571289062
1.729425060239456e+18,0.0516815185546875,-0.0443321168422699,-9.444025039672852
1.7294250602454561e+18,0.020873818546533585,0.044956836849451065,-9.469588279724121
1.7294250602544563e+18,-0.03746793419122696,0.01816316321492195,-9.478686332702637
1.7294250602604564e+18,0.009440437890589237,-0.02982073463499546,-9.398038864135742
1.7294250602694566e+18,-0.05795818567276001,-0.030852429568767548,-9.42330551147461
1.7294250602754568e+18,-0.09770120680332184,-0.008424823172390461,-9.39145565032959
1.729425060284457e+18,-0.019210796803236008,-0.028475889936089516,-9.398380279541016
1.729425060290457e+18,0.03810696303844452,0.0054076192900538445,-9.404937744140625
1.7294250602964572e+18,0.05500124767422676,-0.037263087928295135,-9.461721420288086
1.7294250603054574e+18,0.04397687315940857,-0.019604627043008804,-9.451390266418457
1.7294250603114575e+18,0.05420375615358353,0.016956035047769547,-9.466495513916016
1.7294250603174577e+18,-0.04405197501182556,0.04697723686695099,-9.476083755493164
1.7294250603234578e+18,-0.0062537589110434055,0.00752957072108984,-9.477030754089355
1.729425060332458e+18,-0.0351620614528656,-0.02715286612510681,-9.380290985107422
1.7294250603414582e+18,0.07285275310277939,0.035314641892910004,-9.384255409240723
1.7294250603474583e+18,0.05668468773365021,0.01641256734728813,-9.413921356201172
1.7294250603534584e+18,0.0015785109717398882,0.017544910311698914,-9.356660842895508
1.7294250603594586e+18,-0.023324264213442802,0.047543447464704514,-9.496830940246582
1.7294250603684588e+18,-0.005692450329661369,0.010219193063676357,-9.481707572937012
1.729425060374459e+18,-0.011143124662339687,-0.013966762460768223,-9.44357681274414
1.729425060380459e+18,0.021767795085906982,0.0032040816731750965,-9.460543632507324
1.7294250603864591e+18,-0.042120467871427536,-0.019917812198400497,-9.440103530883789
1.7294250603954593e+18,-0.01293825265020132,-0.009664492681622505,-9.363578796386719
1.7294250604014595e+18,-0.0012874912936240435,0.026163427159190178,-9.519057273864746
1.7294250604074596e+18,-0.05732523277401924,0.08326570689678192,-9.385558128356934
1.7294250604134597e+18,0.06783690303564072,-0.06616221368312836,-9.336788177490234
1.7294250604194598e+18,0.0004476731992326677,-0.014230063185095787,-9.302753448486328
1.72942506042546e+18,-0.017802659422159195,-0.03613715246319771,-9.331849098205566
1.72942506043146e+18,-0.035629719495773315,-0.02654155157506466,-9.442159652709961
1.7294250604404603e+18,-0.03206609934568405,0.024670522660017014,-9.35213851928711
1.7294250604464604e+18,9.925218182615936e-05,0.007580714300274849,-9.349347114562988
1.7294250604524605e+18,0.021369779482483864,0.07342323660850525,-9.404879570007324
1.7294250604584607e+18,-0.06390717625617981,0.032432638108730316,-9.428811073303223
1.7294250604674609e+18,0.04884083941578865,0.03819827735424042,-9.281586647033691
1.729425060473461e+18,0.03525073081254959,0.03349665179848671,-9.387304306030273
1.7294250604824612e+18,0.03555428236722946,0.03839143365621567,-9.459604263305664
1.7294250604884613e+18,0.017051206901669502,0.0328732468187809,-9.451892852783203
1.7294250604944614e+18,0.006161509547382593,-0.030865833163261414,-9.525263786315918
1.7294250605034616e+18,0.029343590140342712,-0.008614391088485718,-9.415454864501953
1.7294250605094618e+18,-0.01028270274400711,0.05784960463643074,-9.459757804870605
1.729425060515462e+18,-0.006658289115875959,0.04791144281625748,-9.509564399719238
1.729425060521462e+18,0.011647245846688747,0.014812911860644817,-9.443716049194336
1.7294250605304622e+18,0.06419713795185089,0.0067564998753368855,-9.431249618530273
1.7294250605364623e+18,-0.0086370799690485,0.00025884652859531343,-9.403153419494629
1.7294250605454625e+18,0.043425191193819046,-0.020878201350569725,-9.355605125427246
1.7294250605514627e+18,0.04176916927099228,-0.03847562149167061,-9.235882759094238
1.7294250605574628e+18,-0.008614609017968178,-0.0407884418964386,-9.243306159973145
1.729425060563463e+18,0.01534061785787344,0.03143363818526268,-9.272224426269531
1.729425060572463e+18,0.058766137808561325,-0.04139390215277672,-9.284419059753418
1.7294250605784632e+18,0.005180144216865301,0.05117376148700714,-9.231057167053223
1.7294250605874634e+18,-0.06033174693584442,-0.016228938475251198,-9.29080867767334
1.7294250605934636e+18,0.04180477559566498,-0.09553322196006775,-9.248610496520996
1.7294250605994637e+18,-0.0307993832975626,0.04000946506857872,-9.198390007019043
1.7294250606054638e+18,0.013351745903491974,-0.00428101047873497,-9.172919273376465
1.729425060611464e+18,-0.004850813653320074,-0.058965347707271576,-9.096534729003906
1.729425060617464e+18,-0.01675134152173996,0.045896705240011215,-9.129975318908691
1.7294250606264643e+18,0.07372180372476578,0.006487575825303793,-9.057437896728516
1.7294250606294643e+18,-0.0017665969207882881,-0.06648977845907211,-9.016029357910156
1.7294250606354644e+18,-0.0010756331030279398,0.01244286447763443,-9.084037780761719
1.7294250606414646e+18,-0.06120530888438225,0.011943891644477844,-9.034269332885742
1.7294250606474647e+18,0.041043978184461594,-0.020763002336025238,-8.994586944580078
1.7294250606534648e+18,-0.0003387259494047612,-0.08098886162042618,-8.931556701660156
1.729425060659465e+18,-0.0495343878865242,0.0416545495390892,-8.92451286315918
1.729425060665465e+18,-0.03266637399792671,0.01706579700112343,-9.049189567565918
1.7294250606714652e+18,0.033737603574991226,0.08787333220243454,-8.90945053100586
1.7294250606774653e+18,-0.019207274541258812,-0.06118636578321457,-8.955723762512207
1.7294250606834655e+18,0.07484400272369385,-0.018062222748994827,-8.851451873779297
1.7294250606894656e+18,-0.021440543234348297,0.03387821838259697,-8.843478202819824
1.7294250606984658e+18,-0.036925215274095535,-0.003511065151542425,-8.905635833740234
1.729425060707466e+18,-0.0030064804013818502,-0.03454830124974251,-8.828547477722168
1.729425060713466e+18,0.03655734285712242,-0.08743391185998917,-8.91200065612793
1.7294250607194662e+18,0.053764358162879944,-0.006011306308209896,-8.843774795532227
1.7294250607254664e+18,-0.08205999433994293,0.025779763236641884,-8.773917198181152
1.7294250607314665e+18,0.027763422578573227,-0.020510686561465263,-8.688340187072754
1.7294250607404667e+18,0.08593408018350601,0.005529162008315325,-8.771417617797852
1.7294250607464668e+18,-0.048790253698825836,-0.053044866770505905,-8.66279125213623
1.729425060749467e+18,0.001896513276733458,-0.0687655434012413,-8.649253845214844
1.729425060755467e+18,-0.021419372409582138,0.0016468121903017163,-8.659062385559082
1.7294250607614671e+18,0.013739955611526966,-0.015848718583583832,-8.615679740905762
1.7294250607704673e+18,-0.022367270663380623,-0.07040011882781982,-8.651461601257324
1.7294250607764675e+18,-0.021708738058805466,-0.004392520524561405,-8.694828987121582
1.7294250607794675e+18,-0.02434631623327732,0.02376842126250267,-8.631278038024902
1.7294250607854676e+18,-0.028513984754681587,-0.035014864057302475,-8.617424964904785
1.7294250607914678e+18,-0.019581811502575874,-0.03044455498456955,-8.634967803955078
1.729425060797468e+18,0.07452398538589478,-0.04450249671936035,-8.599225044250488
1.729425060806468e+18,0.03247513994574547,-0.007271257694810629,-8.639634132385254
1.7294250608124682e+18,-0.0477713868021965,0.013962071388959885,-8.640043258666992
1.7294250608214684e+18,-0.07646874338388443,0.06558310985565186,-8.726886749267578
1.7294250608274685e+18,0.0018660875502973795,0.04480098560452461,-8.70136547088623
1.7294250608334687e+18,0.011757133528590202,0.023467998951673508,-8.78225040435791
1.7294250608394688e+18,0.021770484745502472,0.053184933960437775,-8.667143821716309
1.729425060845469e+18,-0.05216120183467865,-0.010304589755833149,-8.617640495300293
1.729425060851469e+18,0.019518984481692314,-0.0584460124373436,-8.625129699707031
1.7294250608574692e+18,-0.006047878414392471,0.026014499366283417,-8.721078872680664
1.7294250608634693e+18,-0.08481527119874954,-0.04908893629908562,-8.739150047302246
1.7294250608694694e+18,0.034360114485025406,-0.041452109813690186,-8.737852096557617
1.7294250608754696e+18,-0.029050879180431366,0.15337613224983215,-8.774480819702148
1.7294250608814697e+18,-0.008407866582274437,-0.026386357843875885,-8.719253540039062
1.7294250608874698e+18,0.023507878184318542,-0.03592097759246826,-8.790539741516113
1.72942506089347e+18,-0.05153472349047661,0.08037426322698593,-8.79879379272461
1.72942506089947e+18,0.006477648857980967,0.028897617012262344,-12.103163719177246
1.7294250609054702e+18,-0.04341726750135422,0.007084676995873451,-14.963857650756836
1.7294250609144704e+18,0.021978003904223442,-0.03317328169941902,-16.086843490600586
1.7294250609174705e+18,-0.012308488599956036,-0.024871401488780975,-16.173948287963867
1.7294250609234706e+18,0.01786903478205204,-0.018787415698170662,-16.229764938354492
1.7294250609294707e+18,0.003241779748350382,0.044392164796590805,-16.20287322998047
1.7294250609354708e+18,0.049064792692661285,-0.044851046055555344,-16.31723403930664
1.729425060941471e+18,0.0191232580691576,-0.05988768860697746,-16.294572830200195
1.729425060947471e+18,0.015566432848572731,0.06058609113097191,-16.112361907958984
1.7294250609564713e+18,0.07287729531526566,0.01554877683520317,-16.056594848632812
1.7294250609624714e+18,0.01557469367980957,-0.004396713338792324,-15.894781112670898
1.7294250609684716e+18,-0.02911561168730259,0.04221666231751442,-15.924129486083984
1.7294250609744717e+18,-0.012684822082519531,-0.002650459762662649,-15.760729789733887
1.7294250609804718e+18,0.009980102069675922,0.02041696384549141,-15.786455154418945
1.729425060989472e+18,0.022848747670650482,-0.03086812049150467,-15.696549415588379
1.7294250609954721e+18,-0.11100378632545471,-0.02365765906870365,-15.480777740478516
1.7294250610014723e+18,0.011719385161995888,0.031053775921463966,-15.347792625427246
1.7294250610074724e+18,-0.05110947787761688,-0.0017463702242821455,-15.32737922668457
1.7294250610164726e+18,0.0040809037163853645,-0.008957972750067711,-15.233296394348145
1.7294250610224727e+18,-0.003676788182929158,-0.04041217267513275,-15.063334465026855
1.7294250610254728e+18,-0.03595210984349251,0.05946895107626915,-15.05038833618164
1.729425061031473e+18,-0.03007456474006176,0.037459734827280045,-15.055935859680176
1.729425061037473e+18,0.010446715168654919,-0.07686235010623932,-14.85682201385498
1.7294250610464732e+18,0.02437707968056202,-0.006793271284550428,-14.729697227478027
1.7294250610524733e+18,0.027964791283011436,0.009357975795865059,-14.6556978225708
1.7294250610584735e+18,0.046192195266485214,0.046285830438137054,-14.660511016845703
1.7294250610644736e+18,-0.04198087751865387,0.0241281446069479,-14.54168701171875
1.7294250610704737e+18,0.05036146938800812,-0.08401692658662796,-14.401849746704102
1.729425061079474e+18,0.03777698427438736,0.043928515166044235,-14.368882179260254
1.729425061085474e+18,-0.007012082263827324,0.020079901441931725,-14.223244667053223
1.7294250610914742e+18,-0.03589913621544838,-0.08208434283733368,-14.193229675292969
1.7294250610974743e+18,-0.022039372473955154,-0.029942132532596588,-14.078936576843262
1.7294250611034744e+18,-0.09148998558521271,0.04628046229481697,-13.983542442321777
1.7294250611064745e+18,-0.07054789364337921,-0.00647337082773447,-13.975378036499023
1.7294250611124746e+18,-0.012349424883723259,-0.058111805468797684,-13.928887367248535
1.7294250611184748e+18,0.01136645209044218,-0.010133382864296436,-13.94091796875
1.729425061124475e+18,0.02538912743330002,0.02456505596637726,-13.846141815185547
1.729425061130475e+18,-0.06906148046255112,0.04915942996740341,-13.761558532714844
1.7294250611364751e+18,-0.003923141397535801,0.03647200018167496,-13.713653564453125
1.7294250611424753e+18,0.04129255190491676,0.010806952603161335,-13.638710021972656
1.7294250611484754e+18,-0.0031381724402308464,0.013424919918179512,-13.534285545349121
1.7294250611544755e+18,-0.028838174417614937,0.014268521219491959,-13.558464050292969
1.7294250611604756e+18,0.0557277612388134,-0.004354692529886961,-13.484508514404297
1.7294250611664758e+18,0.008128806948661804,0.02346103824675083,-13.436205863952637
1.729425061172476e+18,-0.09132993966341019,0.011218106374144554,-13.258316040039062
1.729425061178476e+18,-0.07667408883571625,-0.030348407104611397,-13.318045616149902
1.7294250611844762e+18,0.0025184382684528828,0.03184773772954941,-13.172383308410645
1.7294250611904763e+18,-0.02128562144935131,-0.07141759246587753,-13.158602714538574
1.7294250611964764e+18,-0.04666605219244957,-0.0161035917699337,-13.020750045776367
1.7294250612024765e+18,0.04777466878294945,-0.018471574410796165,-12.975553512573242
1.7294250612114767e+18,-0.025739282369613647,-0.06673295050859451,-12.932479858398438
1.7294250612174769e+18,-0.02573179453611374,0.013525118120014668,-12.919416427612305
1.729425061223477e+18,-0.007234720513224602,0.04676339030265808,-12.887621879577637
1.7294250612324772e+18,0.03318817913532257,-0.06316012889146805,-12.79117202758789
1.7294250612354772e+18,0.1152038425207138,0.006851595360785723,-12.770363807678223
1.7294250612444774e+18,-0.020628564059734344,0.028377076610922813,-12.733772277832031
1.7294250612504776e+18,0.022982554510235786,0.004415401257574558,-12.61974048614502
1.7294250612534776e+18,0.010631034150719643,-0.030054157599806786,-12.62293815612793
1.7294250612624778e+18,-0.05596359819173813,-0.03922010585665703,-12.634109497070312
1.729425061268478e+18,0.0038202032446861267,0.01748928427696228,-12.560471534729004
1.729425061274478e+18,-0.03749652951955795,-0.0804658904671669,-12.440728187561035
1.7294250612804782e+18,0.026941657066345215,0.04408007487654686,-12.404241561889648
1.7294250612834783e+18,0.0006570052937604487,-0.07417437434196472,-12.39665699005127
1.7294250612924785e+18,0.012743016704916954,-0.01487452071160078,-12.37607479095459
1.7294250612984786e+18,-0.006038269959390163,-0.0781194195151329,-12.343469619750977
1.7294250613074788e+18,0.03398953378200531,-0.014204077422618866,-12.225554466247559
1.729425061313479e+18,-0.0042111752554774284,0.03214976564049721,-12.17158317565918
1.729425061319479e+18,-0.02366645447909832,0.06612350046634674,-12.219411849975586
1.7294250613254792e+18,0.008407444693148136,0.026974186301231384,-12.131937026977539
1.7294250613314793e+18,-0.0624079704284668,0.08230733871459961,-12.122859001159668
1.7294250613374794e+18,-0.0016830482054501772,0.03100454993546009,-12.151644706726074
1.7294250613464796e+18,0.051078543066978455,-0.050950728356838226,-12.078963279724121
1.7294250613524797e+18,0.059472423046827316,0.07266564667224884,-12.061080932617188
1.72942506135848e+18,0.023252621293067932,-0.013760232366621494,-11.945688247680664
1.72942506136448e+18,0.032109394669532776,0.02738082967698574,-12.000937461853027
1.7294250613734802e+18,0.04140324890613556,-0.03906382992863655,-11.917303085327148
1.7294250613824804e+18,0.007807123474776745,-0.025183528661727905,-11.81477165222168
1.7294250613884805e+18,0.026390185579657555,-0.04139910638332367,-11.809462547302246
1.7294250613944806e+18,-0.03598577529191971,0.0578642338514328,-11.830191612243652
1.7294250614004808e+18,-0.015087730251252651,0.0298086479306221,-11.80859375
1.729425061406481e+18,-0.046762581914663315,-0.006412954535335302,-11.797537803649902
1.729425061412481e+18,0.02748456969857216,0.03421271592378616,-11.738127708435059
1.7294250614184812e+18,0.046854205429553986,0.001116221072152257,-11.649855613708496
1.7294250614244813e+18,-0.06022239848971367,-0.010350767523050308,-11.5538911819458
1.7294250614334815e+18,0.026970935985445976,-0.06743698567152023,-11.624456405639648
1.7294250614364815e+18,0.007370965089648962,-0.048025667667388916,-11.592591285705566
1.7294250614424817e+18,-0.04521469399333,0.05444904789328575,-11.573450088500977
1.7294250614514819e+18,-0.048923052847385406,0.08621024340391159,-11.577339172363281
1.729425061457482e+18,0.008259721100330353,-0.022996777668595314,-11.59924030303955
1.729425061463482e+18,0.0030783237889409065,0.02054952085018158,-11.431151390075684
1.7294250614694822e+18,0.08943507820367813,0.019965363666415215,-11.396026611328125
1.7294250614724823e+18,0.03742751479148865,-0.04439229518175125,-11.460780143737793
1.7294250614814825e+18,0.003186773741617799,-0.05243492126464844,-11.344547271728516
1.7294250614874826e+18,-0.09888063371181488,-0.00935434177517891,-11.423789978027344
1.7294250614934828e+18,0.04836762696504593,-0.02752581611275673,-11.398664474487305
1.729425061499483e+18,0.021150467917323112,-0.004534851759672165,-11.381413459777832
1.729425061505483e+18,0.06310120224952698,0.03671860322356224,-11.328298568725586
1.7294250615114831e+18,-0.00996420904994011,-0.06115850806236267,-11.337936401367188
1.7294250615174833e+18,0.02723548375070095,-0.05998792499303818,-11.299028396606445
1.7294250615234834e+18,-0.08244623243808746,-0.04870108142495155,-11.346447944641113
1.7294250615294835e+18,0.006363023538142443,0.005625671241432428,-11.358805656433105
1.7294250615354836e+18,-0.040021348744630814,0.07265370339155197,-11.227909088134766
1.7294250615414838e+18,-0.028439326211810112,0.013396397233009338,-11.275473594665527
1.729425061547484e+18,0.05072643980383873,-0.035276513546705246,-11.1796875
1.729425061553484e+18,-8.712766430107877e-05,0.038149643689394,-11.094651222229004
1.7294250615624842e+18,0.027057884261012077,-0.003649697173386812,-11.144423484802246
1.7294250615684844e+18,0.007225228939205408,-0.01772952452301979,-11.087409019470215
1.7294250615744845e+18,-0.05889442190527916,-0.06272425502538681,-11.040401458740234
1.7294250615804846e+18,-0.08016674220561981,-0.019142773002386093,-11.065465927124023
1.7294250615864847e+18,-0.002589462324976921,0.011990626342594624,-10.98242473602295
1.7294250615924849e+18,0.011410712264478207,-0.025499070063233376,-11.081469535827637
1.729425061598485e+18,0.043461695313453674,0.08319054543972015,-11.02142333984375
1.7294250616074852e+18,0.0009294013725593686,0.047495756298303604,-11.009767532348633
1.7294250616134853e+18,-0.03820774704217911,-0.01202842965722084,-11.038180351257324
1.7294250616194854e+18,0.010194317437708378,-0.022476037964224815,-10.940749168395996
1.7294250616254856e+18,0.0003073169500567019,0.06693369895219803,-10.889288902282715
1.7294250616314857e+18,0.018403656780719757,-0.007234868593513966,-10.965062141418457
1.7294250616374858e+18,0.006388394627720118,0.011164776049554348,-10.921732902526855
1.729425061643486e+18,-0.007418763358145952,-0.0028009244706481695,-10.885193824768066
1.729425061649486e+18,0.04126884788274765,0.04974775016307831,-10.820504188537598
1.7294250616554862e+18,-0.021708399057388306,-0.015640443190932274,-10.84187126159668
1.7294250616614863e+18,0.015190176665782928,0.0011004864936694503,-10.844610214233398
1.7294250616704865e+18,-0.011083818972110748,-0.017066149041056633,-10.800618171691895
1.7294250616764867e+18,0.0609840489923954,0.09969264268875122,-10.797365188598633
1.7294250616824868e+18,0.05198897793889046,-0.04057091847062111,-10.747697830200195
1.729425061688487e+18,0.029499996453523636,-0.018183691427111626,-10.768204689025879
1.729425061694487e+18,-0.036572787910699844,-0.06784006208181381,-10.752988815307617
1.7294250617004872e+18,0.0326017290353775,-0.006783909164369106,-10.78128719329834
1.7294250617064873e+18,0.012526406906545162,-0.03786911070346832,-10.700553894042969
1.7294250617124874e+18,0.012403472326695919,-0.023711159825325012,-10.69029426574707
1.7294250617184876e+18,0.0586242638528347,-0.03367835655808449,-10.663745880126953
1.7294250617244877e+18,-0.009477590210735798,-0.0005095417145639658,-10.704604148864746
1.7294250617304878e+18,0.04840002954006195,-0.001205262029543519,-10.678609848022461
1.729425061736488e+18,0.02615707367658615,-0.009092399850487709,-10.621417999267578
1.729425061742488e+18,0.07131057977676392,0.0439261794090271,-10.692572593688965
1.7294250617514883e+18,0.007742852903902531,0.019567999988794327,-10.602778434753418
1.7294250617574884e+18,-0.01868443563580513,-0.01855034939944744,-10.614156723022461
1.7294250617604884e+18,0.045413099229335785,-0.02776878885924816,-10.649703025817871
1.7294250617694886e+18,0.026785878464579582,-0.03523052856326103,-10.545604705810547
1.7294250617754888e+18,-0.08167281001806259,0.048606742173433304,-10.598820686340332
1.729425061781489e+18,0.007877664640545845,0.005057564005255699,-10.541803359985352
1.729425061784489e+18,-0.02439434640109539,0.023015007376670837,-10.61776065826416
1.7294250617934892e+18,0.040592093020677567,-0.02447204850614071,-10.588809967041016
1.7294250617994893e+18,-0.026776142418384552,-0.034407854080200195,-10.53742790222168
1.7294250618054894e+18,-0.05963042005896568,-0.02109922468662262,-10.515460968017578
1.7294250618114895e+18,-0.07941137254238129,-0.00794657040387392,-10.493836402893066
1.7294250618174897e+18,-0.027873443439602852,-0.00468816701322794,-10.430224418640137
1.7294250618234898e+18,0.007033576723188162,-0.048290450125932693,-10.489456176757812
1.72942506182949e+18,-0.009456204250454903,-0.04656440019607544,-10.519986152648926
1.72942506183249e+18,0.0595213957130909,-0.028209511190652847,-10.503087043762207
1.7294250618414902e+18,0.012588432990014553,0.014650391414761543,-10.489624977111816
1.7294250618474903e+18,0.07512994855642319,-0.05590817332267761,-10.446300506591797
1.7294250618534904e+18,0.08543992042541504,0.08263666182756424,-10.485390663146973
1.7294250618594906e+18,-0.029716121032834053,-0.018971150740981102,-10.443098068237305
1.7294250618654907e+18,-0.009409807622432709,0.045268524438142776,-10.415666580200195
1.7294250618714908e+18,-0.038867294788360596,-0.006941164378076792,-10.490039825439453
1.729425061877491e+18,0.10268145054578781,0.03884522244334221,-10.34284496307373
1.729425061883491e+18,-0.04154891520738602,0.0005168745992705226,-10.41528606414795
1.7294250618924913e+18,0.09704238921403885,-0.02884318307042122,-10.282846450805664
1.7294250618954913e+18,-0.027971893548965454,0.0456668846309185,-10.418723106384277
1.7294250619044915e+18,-0.01977657526731491,0.028078116476535797,-10.362757682800293
1.7294250619134917e+18,-0.044753193855285645,0.0410858690738678,-10.301549911499023
1.729425061922492e+18,-0.0017951765330508351,0.026064235717058182,-10.360090255737305
1.729425061928492e+18,0.01774618588387966,-0.018989713862538338,-10.300768852233887
1.7294250619344922e+18,0.0006784532452002168,0.058532245457172394,-10.174989700317383
1.7294250619404923e+18,-0.006134676747024059,0.06088579073548317,-10.375398635864258
1.7294250619464924e+18,0.013803740032017231,0.04438196122646332,-10.287383079528809
1.7294250619554926e+18,-0.013865922577679157,-0.028053639456629753,-10.288893699645996
1.7294250619614927e+18,-0.021852517500519753,0.020421400666236877,-10.313018798828125
1.7294250619674929e+18,0.005483511835336685,-0.039941154420375824,-10.250910758972168
1.729425061976493e+18,0.03656734153628349,0.017678633332252502,-10.242039680480957
1.7294250619854932e+18,0.0011287813540548086,0.03612946718931198,-10.348125457763672
1.7294250619944934e+18,0.002341089304536581,0.026140736415982246,-10.24118709564209
1.7294250620034936e+18,0.0576503649353981,0.038235656917095184,-10.107661247253418
1.7294250620124938e+18,0.029533354565501213,-0.020356005057692528,-10.230618476867676
1.729425062021494e+18,0.03785279393196106,-0.03568485751748085,-10.157365798950195
1.7294250620304942e+18,-0.014053725637495518,-0.013601339422166348,-10.190189361572266
1.7294250620364943e+18,0.05484252795577049,0.10569224506616592,-10.188790321350098
1.7294250620454945e+18,0.059585388749837875,-0.03455977886915207,-10.20665168762207
1.7294250620574948e+18,0.03611762821674347,-0.00706255529075861,-10.14307975769043
1.729425062066495e+18,-0.020086780190467834,-0.027091313153505325,-10.06844425201416
1.7294250620754952e+18,0.006334519013762474,0.03524292632937431,-10.101091384887695
1.7294250620814953e+18,-0.028687752783298492,0.015907971188426018,-10.156487464904785
1.7294250620934956e+18,0.053202420473098755,-0.009541484527289867,-10.083629608154297
1.7294250621024957e+18,0.030903585255146027,-0.022135501727461815,-10.07064151763916
1.729425062111496e+18,-0.05934698507189751,0.0033575494308024645,-10.214937210083008
1.729425062120496e+18,0.016948014497756958,0.03186759725213051,-10.029203414916992
1.7294250621294963e+18,0.05167122930288315,0.045554205775260925,-10.03837776184082
1.7294250621384965e+18,-0.034129492938518524,0.042023368179798126,-10.087306022644043
1.7294250621444966e+18,-0.022219043225049973,-0.010438353754580021,-10.117938041687012
1.7294250621534968e+18,-0.017751488834619522,0.08737507462501526,-10.09070110321045
1.729425062162497e+18,0.020584208890795708,-0.014097279869019985,-10.003265380859375
1.7294250621714972e+18,-0.03456149250268936,-0.032923806458711624,-9.967029571533203
1.7294250621804974e+18,-0.05307018756866455,-0.029867367818951607,-10.059507369995117
1.7294250621894976e+18,-0.04368298500776291,-0.008812996558845043,-10.099018096923828
1.7294250621984978e+18,0.0319356843829155,0.014016414061188698,-9.99886703491211
1.729425062207498e+18,-0.050016019493341446,0.0567292794585228,-9.97058391571045
1.7294250622164982e+18,-0.10010362416505814,0.04786437377333641,-9.98928165435791
1.7294250622254984e+18,-0.03092179074883461,0.04735385626554489,-9.952094078063965
1.7294250622344986e+18,0.04325220733880997,0.0879986509680748,-9.9288330078125
1.7294250622434988e+18,-0.05672628805041313,-0.03444759547710419,-9.9547700881958
1.729425062252499e+18,-0.0017005224945023656,-0.048677556216716766,-10.092925071716309
1.7294250622614991e+18,-0.01407855749130249,-0.06295940279960632,-9.978214263916016
1.7294250622704993e+18,-0.03207980468869209,0.034629739820957184,-9.994440078735352
1.7294250622764995e+18,-0.0799490362405777,-0.016519904136657715,-9.96353816986084
1.7294250622854996e+18,-0.023087063804268837,-0.02604939416050911,-9.949115753173828
1.7294250622944998e+18,0.03910350054502487,0.009048407897353172,-9.986580848693848
1.7294250623035e+18,0.026817018166184425,0.056978821754455566,-9.924564361572266
1.7294250623125002e+18,0.03841019421815872,-0.002718054922297597,-9.940566062927246
1.7294250623215004e+18,0.020548909902572632,0.002325991168618202,-9.938555717468262
1.7294250623335007e+18,-0.050368648022413254,0.10980761796236038,-9.901273727416992
1.7294250623395008e+18,0.04450761899352074,-0.010946004651486874,-9.95975399017334
1.729425062348501e+18,-0.08225202560424805,-0.035249900072813034,-9.94704532623291
1.7294250623575012e+18,-0.031033257022500038,0.0645751804113388,-9.888811111450195
1.7294250623665014e+18,0.0869889110326767,-0.011031371541321278,-9.834136009216309
1.7294250623785016e+18,0.039295703172683716,-0.034211233258247375,-9.87229061126709
1.7294250623875018e+18,-0.009180773049592972,0.007975714281201363,-9.809122085571289
1.729425062396502e+18,0.03642036393284798,0.002196909161284566,-9.907047271728516
1.7294250624055022e+18,0.03246626630425453,0.09773997217416763,-9.851119041442871
1.7294250624145024e+18,-0.010589984245598316,-0.024365896359086037,-9.895095825195312
1.7294250624235026e+18,-0.06617312878370285,0.003011926542967558,-9.889213562011719
1.7294250624325028e+18,-0.056184496730566025,-0.10731950402259827,-9.8401517868042
1.729425062441503e+18,-0.03773874044418335,-0.026356466114521027,-9.826951026916504
1.7294250624505032e+18,-0.005783535074442625,0.028236251324415207,-9.84791088104248
1.7294250624595034e+18,0.00038044832763262093,0.012841600924730301,-9.789026260375977
1.7294250624685036e+18,0.014001660980284214,0.023719733580946922,-9.861862182617188
1.7294250624775037e+18,-0.07701176404953003,0.05574710667133331,-9.80575180053711
1.729425062486504e+18,-0.08201565593481064,-0.016003752127289772,-9.8742036819458
1.729425062492504e+18,-0.10270258039236069,-0.0035887681879103184,-9.83421802520752
1.7294250625015043e+18,-0.008231508545577526,0.02709234319627285,-9.824136734008789
1.7294250625135045e+18,-0.08230037987232208,0.018009327352046967,-9.811836242675781
1.7294250625225047e+18,-0.015274250879883766,-0.08573459833860397,-9.817033767700195
1.729425062531505e+18,-0.009296727366745472,0.015007690526545048,-9.755261421203613
1.729425062540505e+18,0.00020400321227498353,0.001984145725145936,-9.777053833007812
1.7294250625495053e+18,0.021264366805553436,0.03144722431898117,-9.84689998626709
1.7294250625585055e+18,-0.0027428860776126385,0.020603306591510773,-9.759689331054688
1.7294250625675057e+18,-0.02024069055914879,0.026510968804359436,-9.753385543823242
1.7294250625765059e+18,0.030413422733545303,0.07892091572284698,-9.75602912902832
1.729425062585506e+18,-0.028707634657621384,-0.005823641549795866,-9.790096282958984
1.7294250625945062e+18,-0.021980205550789833,-0.08640156686306,-9.815605163574219
1.7294250626065065e+18,-0.03727265074849129,0.03250616043806076,-9.843440055847168
1.7294250626155067e+18,-0.0019094373565167189,-0.005533985327929258,-9.71827220916748
1.729425062624507e+18,-0.00731631787493825,0.03721378743648529,-9.811907768249512
1.729425062633507e+18,-0.01808195933699608,-0.06247168034315109,-9.735416412353516
1.7294250626425073e+18,0.015021241270005703,-0.07567617297172546,-9.76087760925293
1.7294250626515075e+18,0.06423933058977127,0.021768735721707344,-9.752362251281738
1.7294250626605076e+18,0.03401856869459152,0.047306254506111145,-9.795557975769043
1.7294250626695078e+18,0.0016570045845583081,-0.017231088131666183,-9.81418228149414
1.729425062678508e+18,-0.042527277022600174,0.0550471767783165,-9.800889015197754
1.7294250626875082e+18,0.002629291731864214,0.024088013917207718,-9.778302192687988
1.7294250626965084e+18,-0.07637938112020493,0.07947303354740143,-9.722189903259277
1.7294250627085087e+18,0.029164381325244904,0.03562353551387787,-9.80660343170166
1.7294250627175089e+18,0.014544254168868065,0.031177924945950508,-9.83310604095459
1.729425062726509e+18,-0.0037302905693650246,0.014782367274165154,-9.770306587219238
1.7294250627325092e+18,0.03407168760895729,-0.04015433415770531,-9.754343032836914
1.7294250627415094e+18,0.021621771156787872,-0.07219359278678894,-9.850480079650879
1.7294250627535096e+18,0.0535438247025013,0.06665436923503876,-9.774565696716309
1.7294250627625098e+18,0.052974604070186615,-0.018238933756947517,-9.745542526245117
1.72942506277151e+18,0.06027887389063835,-0.013705171644687653,-9.708227157592773
1.7294250627805102e+18,-0.02842085249722004,-0.046638123691082,-9.746734619140625
1.7294250627895104e+18,-0.0008663281914778054,0.03477465733885765,-9.715888023376465
1.7294250627985106e+18,-0.03010495752096176,0.0008775933529250324,-9.749411582946777
1.7294250628105108e+18,0.04046978801488876,-0.01122245192527771,-9.758139610290527
1.729425062819511e+18,0.056313738226890564,-0.01781628467142582,-9.7754545211792
1.7294250628285112e+18,-0.0018827995518222451,-0.01816541701555252,-9.757956504821777
1.7294250628375114e+18,-0.04290707781910896,-0.01049510296434164,-9.775428771972656
1.7294250628435116e+18,-0.07240959256887436,0.05970583111047745,-9.720614433288574
1.7294250628525117e+18,-0.057744015008211136,-0.052672602236270905,-9.660307884216309
1.729425062861512e+18,0.03443437069654465,-0.020230969414114952,-9.714025497436523
1.729425062870512e+18,-0.0058674560859799385,0.055115826427936554,-9.72922420501709
1.7294250628795123e+18,0.0006360596162267029,0.007942676544189453,-9.730061531066895
1.7294250628885125e+18,-0.032158397138118744,-0.010443707928061485,-9.763506889343262
1.7294250628975127e+18,0.08658953756093979,0.03441194072365761,-9.751382827758789
1.729425062906513e+18,0.03455774858593941,-0.022966293618083,-9.703069686889648
1.729425062915513e+18,0.040458302944898605,-0.003481358289718628,-9.682415962219238
1.7294250629245133e+18,0.048190996050834656,0.051621343940496445,-9.746794700622559
1.7294250629335135e+18,-0.01351324561983347,0.013721482828259468,-9.739521026611328
1.7294250629455137e+18,0.060636114329099655,0.009516654536128044,-9.784271240234375
1.7294250629515139e+18,-0.031865399330854416,-0.02810993418097496,-9.79381275177002
1.729425062963514e+18,0.029376113787293434,-0.01664901338517666,-9.805747985839844
1.7294250629725143e+18,-0.0049371602945029736,0.008172228001058102,-9.840978622436523
1.7294250629815145e+18,0.018694838508963585,-0.0043616327457129955,-9.792089462280273
1.7294250629905147e+18,-0.068158820271492,0.01023532822728157,-9.913676261901855
1.729425062999515e+18,-0.0431172177195549,-0.07888323068618774,-9.822546005249023
1.729425063008515e+18,-0.04669734090566635,-0.03886178508400917,-9.683475494384766
1.7294250630175153e+18,0.025069138035178185,-0.026196522638201714,-9.820979118347168
1.7294250630265155e+18,-0.006132087204605341,0.05658982694149017,-9.799583435058594
1.7294250630325156e+18,0.014641675166785717,-0.06053836643695831,-9.858415603637695
1.7294250630415158e+18,0.051160406321287155,-0.02600553259253502,-9.79982852935791
1.729425063050516e+18,0.06154538691043854,-0.031122520565986633,-9.794805526733398
1.7294250630625162e+18,-0.016122259199619293,-0.03447938710451126,-9.815516471862793
1.7294250630715164e+18,0.03972366824746132,0.001522005070000887,-9.8341064453125
1.7294250630805166e+18,-0.05018550902605057,-0.047982726246118546,-9.771805763244629
1.7294250630895168e+18,0.02515912801027298,-0.03805077448487282,-9.766615867614746
1.729425063098517e+18,-0.046165622770786285,-0.011785021983087063,-9.775944709777832
1.7294250631075172e+18,0.027920011430978775,0.08906719833612442,-9.75757122039795
1.7294250631135173e+18,-0.021946130320429802,0.0512176938354969,-9.778107643127441
1.7294250631225175e+18,0.05000077188014984,0.021569205448031425,-9.757145881652832
1.7294250631315177e+18,0.0397881381213665,0.020696653053164482,-9.782221794128418
1.729425063140518e+18,0.07548351585865021,-0.03152453526854515,-9.757304191589355
1.729425063149518e+18,0.01754559949040413,-0.0383782684803009,-9.790013313293457
1.7294250631555182e+18,-0.028028316795825958,0.024229031056165695,-9.799229621887207
1.7294250631615183e+18,0.03798907622694969,-0.022288832813501358,-9.757527351379395
1.7294250631705185e+18,0.001855167793110013,0.027267729863524437,-9.779938697814941
1.7294250631795187e+18,0.035452086478471756,0.11753859370946884,-9.746153831481934
1.729425063188519e+18,-0.11666137725114822,-0.09724760055541992,-9.707745552062988
1.729425063197519e+18,0.07742175459861755,-0.020428314805030823,-9.726865768432617
1.7294250632065193e+18,-0.013715390115976334,0.01347795594483614,-9.74785041809082
1.7294250632155195e+18,0.07441557198762894,0.003368821693584323,-9.869348526000977
1.7294250632245197e+18,-0.018788592889904976,-0.029948703944683075,-9.691069602966309
1.7294250632335199e+18,-0.08454592525959015,-0.04270415008068085,-9.767038345336914
1.72942506324252e+18,0.01796594262123108,-0.05618232861161232,-9.78329086303711
1.7294250632515203e+18,-0.053257398307323456,0.07208915054798126,-9.66535758972168
1.7294250632575204e+18,-0.030294131487607956,0.00837014801800251,-9.741127967834473
1.7294250632665206e+18,0.0395343080163002,0.024327483028173447,-9.77231216430664
1.7294250632755208e+18,-0.025675995275378227,0.024737194180488586,-9.752496719360352
1.729425063284521e+18,-0.07208728790283203,0.07199262827634811,-9.731426239013672
1.7294250632935212e+18,-0.033604513853788376,-0.00170948076993227,-9.75127124786377
1.7294250633055214e+18,0.017538441345095634,-0.0016289998311549425,-9.723138809204102
1.7294250633145216e+18,0.04054032266139984,-0.018100721761584282,-9.801579475402832
1.7294250633235218e+18,-0.051410309970378876,0.019401729106903076,-9.769378662109375
1.729425063332522e+18,0.033582985401153564,-0.08455691486597061,-9.823025703430176
1.7294250633415222e+18,0.037386298179626465,-0.0002683606289792806,-9.71208381652832
1.7294250633505224e+18,-0.00812594685703516,0.008755332790315151,-9.779097557067871
1.7294250633595226e+18,-0.027137070894241333,0.07536301016807556,-9.761641502380371
1.7294250633685228e+18,0.09354835003614426,-0.007365875411778688,-9.701054573059082
1.729425063377523e+18,-0.017001189291477203,-0.055074915289878845,-9.723349571228027
1.7294250633865231e+18,-0.07416927814483643,0.012241186574101448,-9.711609840393066
1.7294250633955233e+18,0.01494635920971632,0.052356839179992676,-9.694992065429688
1.7294250634045235e+18,0.011054719798266888,-0.06251787394285202,-9.767390251159668
1.7294250634135237e+18,0.012097438797354698,-0.003260777099058032,-9.753560066223145
1.729425063422524e+18,-0.041589245200157166,-0.031064197421073914,-9.74478816986084
1.729425063431524e+18,0.0669136643409729,0.03524511307477951,-9.851987838745117
1.7294250634405243e+18,-0.03141357749700546,-0.008898425847291946,-9.631590843200684
1.7294250634495245e+18,0.04859763756394386,-0.057202111929655075,-9.737340927124023
1.7294250634585247e+18,-0.042208731174468994,-0.01779136247932911,-9.731144905090332
1.7294250634675249e+18,0.04060865193605423,-0.04236937314271927,-9.755959510803223
1.729425063476525e+18,-0.020145652815699577,0.07312370091676712,-9.717628479003906
1.7294250634855252e+18,-0.017015470191836357,0.04027609899640083,-9.704880714416504
1.7294250634945254e+18,-0.019820187240839005,0.01866612769663334,-9.713889122009277
1.7294250635035256e+18,0.048315566033124924,-0.01009665708988905,-9.639286041259766
1.7294250635125258e+18,0.05440027266740799,0.07881592959165573,-9.776469230651855
1.729425063521526e+18,0.09692494571208954,-0.04022502154111862,-9.715197563171387
1.7294250635305262e+18,0.01514617633074522,-0.00935598649084568,-9.8074951171875
1.7294250635395264e+18,-0.003357882611453533,0.04128726199269295,-9.755736351013184
1.7294250635455265e+18,-0.028372380882501602,-0.05827830731868744,-9.715139389038086
1.7294250635545267e+18,0.007247328292578459,-0.0006178139592520893,-9.734999656677246
1.729425063563527e+18,-0.020321672782301903,0.014380010776221752,-9.754464149475098
1.729425063572527e+18,0.0282241590321064,0.04230375587940216,-9.750425338745117
1.7294250635815273e+18,0.009540886618196964,0.08193710446357727,-9.735370635986328
1.7294250635905275e+18,-0.009757268242537975,0.06610425561666489,-9.745634078979492
1.7294250635995277e+18,-0.007716260384768248,-0.0349707305431366,-9.751533508300781
1.729425063608528e+18,-0.009730540215969086,0.02715093456208706,-9.749774932861328
1.729425063620528e+18,0.10601215809583664,-0.009711001068353653,-9.713260650634766
1.7294250636295283e+18,-0.0643390491604805,0.01649915799498558,-9.670294761657715
1.7294250636385285e+18,-0.030111879110336304,0.02792458049952984,-9.735873222351074
1.7294250636475287e+18,-0.012222480028867722,0.044488344341516495,-9.733514785766602
1.729425063656529e+18,-0.020663559436798096,-0.10302843153476715,-9.773792266845703
1.7294250636685292e+18,0.004433847963809967,-0.029033856466412544,-9.755499839782715
1.7294250636775293e+18,-0.018016409128904343,0.02903127111494541,-9.728157997131348
1.7294250636865295e+18,-0.07113360613584518,-0.003668013494461775,-9.696621894836426
1.7294250636955297e+18,0.013822229579091072,0.05180555209517479,-9.659834861755371
1.72942506370453e+18,0.0023073251359164715,-0.009858289733529091,-9.752314567565918
1.72942506371353e+18,-0.014914465136826038,-0.01791144534945488,-9.783090591430664
1.7294250637225303e+18,-0.04204486310482025,-0.055552564561367035,-9.731842041015625
1.7294250637315305e+18,0.06371916085481644,0.05410291999578476,-9.76313591003418
1.7294250637405307e+18,0.03274035453796387,-0.0064982143230736256,-9.739843368530273
1.729425063749531e+18,-0.12166763097047806,0.01314932107925415,-9.783729553222656
1.729425063758531e+18,0.07607570290565491,0.00023185741156339645,-9.748929023742676
1.7294250637675313e+18,0.01468124333769083,-0.010335596278309822,-9.77121353149414
1.7294250637795315e+18,0.05643873289227486,0.09561540186405182,-9.71503734588623
1.7294250637885317e+18,0.009838749654591084,0.04163529351353645,-9.788811683654785
1.729425063797532e+18,-0.00552378548309207,0.039170797914266586,-9.729308128356934
1.729425063806532e+18,0.0013356595300137997,0.009805132634937763,-9.725296020507812
1.7294250638155323e+18,-0.01995246671140194,0.0345538966357708,-9.809456825256348
1.7294250638245325e+18,-0.024575557559728622,0.04790027439594269,-9.684171676635742
1.7294250638335327e+18,-0.03789921849966049,-0.010398323647677898,-9.788918495178223
1.7294250638425329e+18,-0.055337876081466675,-0.0025608083233237267,-9.704238891601562
1.729425063848533e+18,0.0026507163420319557,-0.011306358501315117,-9.804137229919434
1.7294250638575332e+18,0.02424057386815548,0.07822014391422272,-9.85509967803955
1.7294250638665334e+18,-0.02856970950961113,-0.045213013887405396,-9.767108917236328
1.7294250638755336e+18,0.04577890783548355,-0.07436301559209824,-9.69591999053955
1.7294250638845338e+18,-0.047780074179172516,0.07007774710655212,-9.82131290435791
1.729425063893534e+18,-0.0008708794484846294,-0.019382795318961143,-9.745553970336914
1.7294250639025341e+18,-0.018486425280570984,-0.0045643942430615425,-9.673811912536621
1.7294250639085343e+18,0.023837678134441376,0.02740991674363613,-9.714950561523438
1.7294250639175345e+18,-0.05487682670354843,-0.024215318262577057,-9.7860107421875
1.7294250639295347e+18,-0.006522413343191147,0.08380253612995148,-9.781463623046875
1.729425063938535e+18,-0.08223278820514679,-0.06651410460472107,-9.711777687072754
1.729425063944535e+18,0.04443751275539398,-0.04027910158038139,-9.706521987915039
1.7294250639535352e+18,0.07534165680408478,-0.0767848938703537,-9.825340270996094
1.7294250639625354e+18,0.030327046290040016,-0.01347347255796194,-9.685296058654785
1.7294250639715356e+18,-0.034905124455690384,0.012704812921583652,-9.724546432495117
1.7294250639805358e+18,-0.03250788152217865,-0.02530178427696228,-9.885384559631348
1.729425063986536e+18,-0.0034781768918037415,0.03438128903508186,-9.73448657989502
1.7294250639955361e+18,0.06585026532411575,0.005096416920423508,-9.699915885925293
1.7294250640045363e+18,-0.09695687144994736,0.0012171142734587193,-9.723140716552734
1.7294250640135365e+18,0.007415656466037035,0.02907210774719715,-9.797539710998535
1.7294250640225367e+18,0.005731549113988876,0.0673825740814209,-9.80146312713623
1.7294250640285368e+18,0.07882166653871536,-0.01019693911075592,-9.700567245483398
1.729425064037537e+18,0.052936676889657974,-0.03566531836986542,-9.750150680541992
1.7294250640465372e+18,-0.02364950068295002,-0.09016527980566025,-9.743302345275879
1.7294250640555374e+18,-0.025362007319927216,-0.028472352772951126,-9.743229866027832
1.7294250640645376e+18,-0.01130463182926178,0.022149665281176567,-9.861759185791016
1.7294250640735378e+18,-0.0027523653116077185,0.05211351811885834,-9.711688041687012
1.729425064082538e+18,-0.03144453465938568,0.04863312467932701,-9.798065185546875
1.7294250640915382e+18,0.0646149143576622,0.04436862841248512,-9.72397518157959
1.7294250641035384e+18,-0.02640927955508232,-0.0054437811486423016,-9.744379997253418
1.7294250641125386e+18,-0.035860899835824966,0.012409672141075134,-9.810797691345215
1.7294250641215388e+18,0.02118852362036705,0.057316143065690994,-9.710892677307129
1.729425064127539e+18,-0.02718760259449482,0.009308580309152603,-9.724255561828613
1.7294250641365391e+18,-0.055655140429735184,0.04371277242898941,-9.802467346191406
1.7294250641455393e+18,-0.014443943277001381,0.050355590879917145,-9.745759010314941
1.7294250641545395e+18,-0.06088115647435188,-0.07714401185512543,-9.722557067871094
1.7294250641635397e+18,0.05181191489100456,-0.06404340267181396,-9.773749351501465
1.72942506417254e+18,-0.08518562465906143,0.07436421513557434,-9.801825523376465
1.72942506418154e+18,-0.04792489483952522,-0.06621039658784866,-9.73055362701416
1.7294250641875402e+18,-0.001095362240448594,-0.11840707063674927,-9.725048065185547
1.7294250641965404e+18,0.023167241364717484,-0.033476416021585464,-9.651111602783203
1.7294250642025405e+18,-0.06253167986869812,-0.022711941972374916,-9.708883285522461
1.7294250642085407e+18,-0.0266131404787302,-0.016072014346718788,-9.680146217346191
1.7294250642175409e+18,0.041360072791576385,-0.025172026827931404,-9.828572273254395
1.729425064226541e+18,-0.007607580162584782,-0.002207408891990781,-9.825277328491211
1.7294250642355412e+18,0.015218691900372505,0.06701036542654037,-9.826396942138672
1.7294250642475415e+18,-0.008079033344984055,0.0027319497894495726,-9.739173889160156
1.7294250642565417e+18,0.06280118227005005,-0.02053561806678772,-9.809075355529785
1.729425064265542e+18,0.0008722801576368511,-0.026035964488983154,-9.677229881286621
1.729425064274542e+18,0.019182367250323296,-0.08026948571205139,-9.84583568572998
1.7294250642835423e+18,0.02896004170179367,0.057164642959833145,-9.748003959655762
1.7294250642925425e+18,-0.014855404384434223,0.03156435117125511,-9.796220779418945
1.7294250643015427e+18,0.06876228749752045,-0.03595970571041107,-9.747897148132324
1.7294250643105428e+18,0.04811401665210724,0.003266643499955535,-9.760279655456543
1.729425064319543e+18,-0.052920661866664886,0.04217786341905594,-9.76274299621582
1.7294250643285432e+18,-0.03773196414113045,0.0026472306344658136,-9.75643253326416
1.7294250643375434e+18,0.01736495830118656,-0.00789694394916296,-9.76677417755127
1.7294250643465436e+18,-0.007184910587966442,0.010669463314116001,-9.752507209777832
1.7294250643555438e+18,0.04221689701080322,-0.013874595053493977,-9.845393180847168
1.729425064364544e+18,-0.024358920753002167,0.03046215884387493,-9.748955726623535
1.7294250643765443e+18,-0.013457000255584717,-0.017783863469958305,-9.727663040161133
1.7294250643855444e+18,0.020357228815555573,0.02516636811196804,-9.767159461975098
1.7294250643945446e+18,-0.022671058773994446,-0.0398007333278656,-9.81147575378418
1.7294250644035448e+18,-0.05075239762663841,0.02754989266395569,-9.81518840789795
1.729425064412545e+18,-0.05017557740211487,0.009499060921370983,-9.811511993408203
1.7294250644215452e+18,-0.014859016053378582,-0.006464330945163965,-9.715635299682617
1.7294250644305454e+18,-0.05880950391292572,-0.017848141491413116,-9.776946067810059
1.7294250644395456e+18,0.05987708270549774,-0.011142888106405735,-9.77869987487793
1.7294250644485458e+18,-0.041938167065382004,0.034024957567453384,-9.866351127624512
1.729425064457546e+18,0.03603357821702957,-0.028588321059942245,-9.804133415222168
1.7294250644665462e+18,0.023088395595550537,0.03702974691987038,-9.75251579284668
1.7294250644755464e+18,0.010648802854120731,-0.06996119767427444,-9.796037673950195
1.7294250644845466e+18,0.03679099678993225,-0.08846177905797958,-9.772577285766602
1.7294250644935468e+18,0.02707870863378048,-0.07615280896425247,-9.812880516052246
1.729425064502547e+18,0.06565101444721222,0.007873176597058773,-9.777753829956055
1.7294250645115471e+18,-0.01764814369380474,0.03952503949403763,-9.78287410736084
1.7294250645205473e+18,-0.0170559324324131,-0.05296734347939491,-9.776754379272461
1.7294250645295475e+18,0.018586281687021255,-0.02209949679672718,-9.817302703857422
1.7294250645385477e+18,-0.041296906769275665,0.017257729545235634,-9.84220027923584
1.7294250645445478e+18,-0.04274401068687439,6.624896195717156e-05,-9.77324390411377
1.729425064553548e+18,0.004972992930561304,-0.12103170901536942,-9.833721160888672
1.7294250645625482e+18,0.04528727009892464,-0.04901181161403656,-9.791114807128906
1.7294250645715484e+18,-0.004673650022596121,-0.07674970477819443,-9.778151512145996
1.7294250645805486e+18,-0.007900231517851353,0.029827890917658806,-9.687746047973633
1.7294250645925489e+18,-0.023569144308567047,0.098477803170681,-9.770126342773438
1.729425064601549e+18,-0.040996965020895004,-0.04602724313735962,-9.746657371520996
1.7294250646075492e+18,0.020202141255140305,0.06151474267244339,-9.770317077636719
1.7294250646165494e+18,0.004281273111701012,0.0475316196680069,-9.754768371582031
1.7294250646225495e+18,-0.03197040781378746,-0.02487139403820038,-9.717668533325195
1.7294250646315497e+18,-0.08237294852733612,-0.020949911326169968,-9.815360069274902
1.72942506464055e+18,0.07819798588752747,-0.05582733824849129,-9.745316505432129
1.7294250646525501e+18,0.03315958008170128,-0.02491285838186741,-9.848958015441895
1.7294250646615503e+18,-0.016832508146762848,-0.008908651769161224,-9.803079605102539
1.7294250646735506e+18,0.0335192047059536,-0.02813884988427162,-9.757223129272461
1.7294250646825508e+18,0.08128973096609116,0.05625070631504059,-9.776383399963379
1.729425064691551e+18,0.046282652765512466,0.02695440500974655,-9.810133934020996
1.7294250647005512e+18,-0.015583210624754429,-0.01700860820710659,-9.804757118225098
1.7294250647065513e+18,0.08260906487703323,0.11534417420625687,-9.786076545715332
1.7294250647155515e+18,0.02111777476966381,0.05849876627326012,-9.75167465209961
1.7294250647185516e+18,0.11453705281019211,-0.014113915152847767,-9.84489631652832
1.7294250647245517e+18,0.009141906164586544,0.021875696256756783,-9.799528121948242
1.7294250647335519e+18,0.06601033359766006,0.05671097710728645,-9.848170280456543
1.729425064739552e+18,-0.039357371628284454,0.032613418996334076,-9.786664962768555
1.7294250647455521e+18,-0.026862289756536484,-0.03859608992934227,-9.78317928314209
1.7294250647515523e+18,0.005414651706814766,0.004456934053450823,-9.76704216003418
1.7294250647545523e+18,0.08732712268829346,0.06012238189578056,-9.822566032409668
1.7294250647605524e+18,0.019144179299473763,0.03351902961730957,-9.77426815032959
1.7294250647665526e+18,-0.027249125763773918,0.013188861310482025,-9.770376205444336
1.7294250647755528e+18,-0.08602501451969147,0.05608632043004036,-9.75346851348877
1.729425064781553e+18,-0.01620880886912346,0.028989342972636223,-9.785165786743164
1.729425064790553e+18,3.3077478292398155e-05,-0.003096405416727066,-9.793342590332031
1.7294250647965532e+18,0.022254284471273422,-0.06182366609573364,-9.751620292663574
1.7294250648055534e+18,0.026557836681604385,0.009963997639715672,-9.844705581665039
1.7294250648115535e+18,0.005453196819871664,-0.01440536230802536,-9.736271858215332
1.7294250648175537e+18,-0.008261573500931263,-0.07180733233690262,-9.857675552368164
1.7294250648265539e+18,0.07384694367647171,-0.03166003152728081,-9.861298561096191
1.729425064832554e+18,-0.010103609412908554,0.017355531454086304,-9.819441795349121
1.7294250648415542e+18,-0.004483278840780258,0.0009065449703484774,-9.818297386169434
1.7294250648445542e+18,0.008093076758086681,-0.010187892243266106,-9.787627220153809
1.7294250648505544e+18,-0.01897733472287655,0.005670046899467707,-9.771797180175781
1.7294250648565545e+18,0.01640881784260273,0.009834329597651958,-9.84357738494873
1.7294250648625546e+18,-0.003092770231887698,0.023772088810801506,-9.822256088256836
1.7294250648685548e+18,0.03708774596452713,0.00438462570309639,-9.776269912719727
1.729425064874555e+18,0.0032550583127886057,-0.025470612570643425,-9.76974868774414
1.729425064880555e+18,0.05371544137597084,0.01321550365537405,-9.810075759887695
1.7294250648895552e+18,0.028522616252303123,0.04577459394931793,-9.717278480529785
1.7294250648955553e+18,-0.04177400469779968,0.03818460553884506,-9.713537216186523
1.7294250649045555e+18,0.06488300114870071,-0.00815038476139307,-9.783843994140625
1.7294250649105556e+18,0.02473152056336403,0.010290412232279778,-9.77441120147705
1.7294250649165558e+18,-0.010912148281931877,-0.048559751361608505,-9.77138614654541
1.729425064922556e+18,-0.04848075285553932,0.01213383674621582,-9.809638977050781
1.729425064931556e+18,0.004325772635638714,0.09347178786993027,-9.723233222961426
1.7294250649405563e+18,0.054117362946271896,-0.016333797946572304,-9.750572204589844
1.7294250649465564e+18,-0.02756587788462639,-0.047618843615055084,-9.79626750946045
1.7294250649525565e+18,0.03415803983807564,-0.03600726276636124,-9.802608489990234
1.7294250649615567e+18,-0.040164023637771606,-0.008870373480021954,-9.803377151489258
1.729425064970557e+18,-0.006529968231916428,0.07478073239326477,-9.792110443115234
1.729425064976557e+18,-0.030392823740839958,0.0630919560790062,-9.750924110412598
1.7294250649855572e+18,-0.010203645564615726,-0.0034167603589594364,-9.747904777526855
1.7294250649885573e+18,0.013523286208510399,0.023825138807296753,-9.80357551574707
1.7294250649975575e+18,0.04574418440461159,-0.019873958081007004,-9.80616569519043
1.7294250650005576e+18,0.04054829850792885,-0.01511963177472353,-9.750763893127441
1.7294250650095578e+18,-0.14748819172382355,0.06206965819001198,-9.76551342010498
1.729425065015558e+18,-0.009641994722187519,-0.03509978950023651,-9.807541847229004
1.729425065021558e+18,0.05502208694815636,-0.025881843641400337,-9.803836822509766
1.7294250650305582e+18,-0.01870630867779255,0.015140816569328308,-9.777841567993164
1.7294250650365583e+18,-0.019905567169189453,0.02620292827486992,-9.83092975616455
1.7294250650425585e+18,0.011501514352858067,-0.027242325246334076,-9.775683403015137
1.7294250650515587e+18,0.05949247628450394,0.08506502211093903,-9.830021858215332
1.7294250650605588e+18,-0.05292944610118866,0.01963048055768013,-9.726632118225098
1.729425065066559e+18,-0.04375651478767395,-0.06351087242364883,-9.786053657531738
1.7294250650755592e+18,0.08948686718940735,-0.023909088224172592,-9.835580825805664
1.7294250650815593e+18,-0.04144195094704628,0.012338154949247837,-9.765106201171875
1.7294250650905595e+18,-0.022506283596158028,0.05755409225821495,-9.802363395690918
1.7294250650995597e+18,-0.03702348843216896,-0.053274963051080704,-9.743687629699707
1.7294250651055598e+18,-0.08730506896972656,-0.014074156992137432,-9.76072883605957
1.72942506511456e+18,0.0375048965215683,-0.057172585278749466,-9.818235397338867
1.72942506511756e+18,0.009157488122582436,0.005825848318636417,-9.798592567443848
1.7294250651235602e+18,0.024421358481049538,0.04634009301662445,-9.823145866394043
1.7294250651295603e+18,-0.08407849073410034,-0.03690221905708313,-9.762598037719727
1.7294250651355604e+18,0.027383780106902122,-0.03743063658475876,-9.865175247192383
1.7294250651415606e+18,-0.04338141158223152,-0.006944320164620876,-9.801453590393066
1.7294250651475607e+18,0.00593355530872941,0.0029976333025842905,-9.837679862976074
1.7294250651535608e+18,-0.04281584918498993,0.0383240208029747,-9.793306350708008
1.729425065159561e+18,-0.011284278705716133,-0.054713938385248184,-9.807951927185059
1.7294250651685612e+18,0.02834067866206169,-0.09563762694597244,-9.786683082580566
1.7294250651745613e+18,0.03189300000667572,0.027787428349256516,-9.777045249938965
1.7294250651805614e+18,-0.03861426189541817,0.02819911018013954,-9.816947937011719
1.7294250651895616e+18,-0.018918171525001526,0.07263895869255066,-9.799094200134277
1.7294250651955617e+18,-0.033506445586681366,-0.074278324842453,-9.772600173950195
1.7294250652015619e+18,0.042439259588718414,-0.049421679228544235,-9.762544631958008
1.729425065207562e+18,0.10638033598661423,-0.054721400141716,-9.710268020629883
1.7294250652165622e+18,0.004763055592775345,0.017582997679710388,-9.794554710388184
1.7294250652195622e+18,-0.003922530449926853,0.02790747955441475,-9.835058212280273
1.7294250652255624e+18,0.01703723892569542,0.038767650723457336,-9.743820190429688
1.7294250652345626e+18,-0.006653910037130117,0.11537479609251022,-9.803001403808594
1.7294250652405627e+18,-0.008686520159244537,0.041392732411623,-9.832806587219238
1.7294250652435628e+18,-0.019077029079198837,0.005444716662168503,-9.810111999511719
1.729425065249563e+18,0.026344342157244682,0.0636022686958313,-9.84812068939209
1.729425065258563e+18,0.08977179229259491,-0.05221997946500778,-9.762482643127441
1.7294250652645632e+18,-0.00625411095097661,-0.0036470128688961267,-9.81119155883789
1.7294250652675633e+18,-0.044412847608327866,0.021432675421237946,-9.811622619628906
1.7294250652765635e+18,-0.011525518260896206,-0.03445492684841156,-9.820501327514648
1.7294250652825636e+18,-0.0033175176940858364,-0.12984894216060638,-9.833422660827637
1.7294250652915638e+18,0.06458009034395218,-0.03306619077920914,-9.694905281066895
1.729425065297564e+18,0.0201399102807045,-0.022228511050343513,-9.77249526977539
1.729425065303564e+18,-0.0552309975028038,0.05897878482937813,-9.821348190307617
1.7294250653095642e+18,-0.1256188601255417,-0.007570414803922176,-9.766223907470703
1.7294250653155643e+18,0.023921186104416847,0.07427584379911423,-9.773332595825195
1.7294250653245645e+18,-0.08111494034528732,-0.07858091592788696,-9.809379577636719
1.7294250653335647e+18,-0.05874169245362282,0.04004889726638794,-9.73593521118164
1.7294250653365647e+18,0.030932404100894928,0.0037447281647473574,-9.850041389465332
1.729425065345565e+18,0.0386197455227375,-0.09473726898431778,-9.741204261779785
1.729425065351565e+18,0.027990849688649178,-0.010977733880281448,-9.884105682373047
1.7294250653575652e+18,-0.10682018101215363,0.003295348724350333,-9.839201927185059
1.7294250653665654e+18,-0.01790206879377365,-0.028498509898781776,-9.84925365447998
1.7294250653725655e+18,0.005168030969798565,-0.04497917741537094,-9.808441162109375
1.7294250653785656e+18,-0.02042345702648163,-0.0017692031105980277,-9.780760765075684
1.7294250653845658e+18,-0.0013708872720599174,0.13124439120292664,-9.790641784667969
1.729425065390566e+18,-0.035556916147470474,-0.043945759534835815,-9.849136352539062
1.729425065399566e+18,0.014482226222753525,-0.031330183148384094,-9.796060562133789
1.7294250654055662e+18,-0.02100309357047081,-0.008692209608852863,-9.785484313964844
1.7294250654115663e+18,0.08797155320644379,0.05597740411758423,-9.764825820922852
1.7294250654205665e+18,-0.04217337816953659,0.04361937567591667,-9.759050369262695
1.7294250654265667e+18,-0.08356279879808426,0.037585996091365814,-9.780000686645508
1.7294250654355668e+18,0.007925075478851795,-0.03056362085044384,-9.836933135986328
1.729425065441567e+18,-0.07395157217979431,-0.005790933966636658,-9.758496284484863
1.7294250654505672e+18,-0.05824926868081093,0.02535802125930786,-9.820767402648926
1.7294250654565673e+18,0.00528828427195549,0.039360057562589645,-9.768830299377441
1.7294250654625674e+18,-0.09996317327022552,-0.010440101847052574,-9.8046236038208
1.7294250654685676e+18,-0.020909668877720833,-0.024556221440434456,-9.822174072265625
1.7294250654745677e+18,-0.061677493155002594,-0.0443110428750515,-9.739694595336914
1.7294250654805678e+18,0.05942653492093086,-0.10223179310560226,-9.799749374389648
1.729425065486568e+18,0.02343018911778927,-0.0016721663996577263,-9.829448699951172
1.7294250654955681e+18,-0.08852746337652206,-0.0029255489353090525,-9.806641578674316
1.7294250655015683e+18,-0.022533033043146133,0.01682036928832531,-9.82947063446045
1.7294250655075684e+18,0.022100182250142097,0.05406809598207474,-9.846617698669434
1.7294250655135685e+18,0.008364124223589897,-0.06497115641832352,-9.767473220825195
1.7294250655225687e+18,-0.0036339014768600464,0.01585690677165985,-9.792665481567383
1.729425065531569e+18,0.042571112513542175,-0.026817815378308296,-9.824380874633789
1.729425065540569e+18,-0.0020934485364705324,-0.09074529260396957,-9.800097465515137
1.7294250655465692e+18,0.032364506274461746,0.027658667415380478,-9.866178512573242
1.7294250655525693e+18,0.021421687677502632,0.04611941799521446,-9.804412841796875
1.7294250655585695e+18,-0.03272505849599838,0.05303225666284561,-9.863507270812988
1.7294250655645696e+18,0.029636405408382416,0.013625547289848328,-9.787903785705566
1.7294250655705697e+18,-0.028364375233650208,-0.056718070060014725,-9.778181076049805
1.7294250655765699e+18,0.03970961645245552,-0.08469530194997787,-9.829361915588379
1.72942506558257e+18,-0.017791464924812317,-0.020035162568092346,-9.751591682434082
1.72942506558857e+18,0.0851062461733818,0.061937909573316574,-9.885451316833496
1.7294250655945702e+18,0.018844760954380035,-0.01859118416905403,-9.845793724060059
1.7294250656035704e+18,-0.03617078438401222,0.040720779448747635,-9.891119956970215
1.7294250656125706e+18,0.0713701993227005,0.009926564060151577,-9.823528289794922
1.7294250656185708e+18,0.05071914941072464,-0.00911429338157177,-9.757948875427246
1.729425065624571e+18,0.0784137099981308,0.061769790947437286,-9.797650337219238
1.729425065630571e+18,-0.016448311507701874,-0.0031432295218110085,-9.81386661529541
1.7294250656395712e+18,0.01517836470156908,0.00024171060067601502,-9.750256538391113
1.7294250656485714e+18,0.07459399849176407,0.022313684225082397,-9.732926368713379
1.7294250656545715e+18,-0.05612073838710785,-0.04661238193511963,-9.830902099609375
1.7294250656635717e+18,0.03770679980516434,0.0661550834774971,-9.82384204864502
1.7294250656695718e+18,0.06635374575853348,0.12246145308017731,-9.838325500488281
1.729425065675572e+18,-0.038043007254600525,0.034706540405750275,-9.831174850463867
1.729425065681572e+18,-0.045890167355537415,0.09440585225820541,-9.822043418884277
1.7294250656875722e+18,0.015476163476705551,0.014125381596386433,-9.836711883544922
1.7294250656935724e+18,-0.001995934871956706,0.039751872420310974,-9.800250053405762
1.7294250656995725e+18,0.06292013078927994,-0.02902154065668583,-9.826210021972656
1.7294250657055726e+18,-0.008923850022256374,0.020491231232881546,-9.709012985229492
1.7294250657115727e+18,-0.03641388192772865,0.0015507035423070192,-9.731369972229004
1.7294250657175729e+18,0.007520402316004038,-0.07771889865398407,-9.825573921203613
1.729425065723573e+18,0.015344933606684208,0.04094964638352394,-9.846227645874023
1.7294250657325732e+18,0.03154219686985016,-0.01982887089252472,-9.846297264099121
1.7294250657385733e+18,0.04454297944903374,0.014560144394636154,-9.835227012634277
1.7294250657445734e+18,-0.013401396572589874,0.03344956785440445,-9.77839469909668
1.7294250657505736e+18,-0.04704422131180763,-0.037788163870573044,-9.827807426452637
1.7294250657565737e+18,-0.018546829000115395,-0.02828904427587986,-9.78858470916748
1.7294250657625738e+18,-0.022144842892885208,0.05242549255490303,-9.845800399780273
1.729425065771574e+18,-0.025385981425642967,0.014263153076171875,-9.835792541503906
1.7294250657775741e+18,-0.06285250186920166,-0.011571304872632027,-9.680069923400879
1.7294250657865743e+18,-0.029966790229082108,0.009948302991688251,-9.775464057922363
1.7294250657925745e+18,0.022445380687713623,-0.032533835619688034,-9.76499080657959
1.7294250657985746e+18,0.001975351246073842,-0.021326525136828423,-9.777647018432617
1.7294250658045747e+18,0.01362282782793045,0.029755836352705956,-9.80874252319336
1.7294250658105748e+18,0.07131067663431168,0.04681693762540817,-9.728376388549805
1.729425065816575e+18,-0.039492201060056686,0.04033680260181427,-9.819367408752441
1.729425065822575e+18,0.02707451954483986,-0.03878442198038101,-9.788139343261719
1.7294250658315753e+18,-0.0003672777384053916,-0.0012086868518963456,-9.806777000427246
1.7294250658375754e+18,-0.00687461206689477,-0.043657898902893066,-9.8123779296875
1.7294250658435756e+18,0.05275397747755051,0.009157862514257431,-9.731051445007324
1.7294250658525757e+18,0.05010634660720825,0.00415399856865406,-9.776193618774414
1.729425065858576e+18,0.006666435860097408,-0.006368258502334356,-9.746664047241211
1.729425065867576e+18,0.0013974548783153296,-0.0017282547196373343,-9.770421028137207
1.7294250658735762e+18,0.034252747893333435,0.004566000774502754,-9.747373580932617
1.7294250658795763e+18,0.04903154820203781,0.019468454644083977,-9.754398345947266
1.7294250658855764e+18,0.006648148410022259,-0.005926845129579306,-9.724675178527832
1.7294250658915766e+18,-0.0972442775964737,-0.13752099871635437,-9.843087196350098
1.7294250658975767e+18,0.0354301854968071,-0.020692070946097374,-9.802325248718262
1.7294250659035768e+18,0.03541233018040657,0.032676320523023605,-9.864665031433105
1.729425065909577e+18,-0.04106138274073601,-0.06525501608848572,-9.825382232666016
1.7294250659185772e+18,0.0009464100585319102,-0.0702495276927948,-9.843052864074707
1.7294250659245773e+18,0.027271509170532227,-0.06125748157501221,-9.768022537231445
1.7294250659305774e+18,0.06225304678082466,0.00010476943134563044,-9.791824340820312
1.7294250659395776e+18,0.043077848851680756,0.008360064588487148,-9.811776161193848
1.7294250659455777e+18,-0.0004700011922977865,-0.06348402798175812,-9.774446487426758
1.7294250659515779e+18,-0.016400866210460663,-0.060865677893161774,-9.815299987792969
1.729425065957578e+18,0.018969271332025528,-0.04711982607841492,-9.861827850341797
1.7294250659665782e+18,-0.07043443620204926,0.07558419555425644,-9.847888946533203
