timestamp,gyro_x,gyro_y,gyro_z
1.7275292331580426e+18,0.0005156312836334109,-0.0007004562648944557,-0.0016548578860238194
1.7275292331640428e+18,0.00023567755124531686,0.0001494486496085301,-0.0016883144853636622
1.727529233170043e+18,0.0008737409370951355,-0.002292506629601121,0.0018783039413392544
1.727529233176043e+18,-0.0005572385853156447,-0.0004884317750111222,-0.0002048770838882774
1.727529233179043e+18,0.0013225541915744543,0.0010171044850721955,-0.001827593194320798
1.7275292331850432e+18,0.0003066940698772669,0.0010209642350673676,0.005654449108988047
1.7275292331910433e+18,-0.0008030837052501738,0.0007682530558668077,-0.0009558562887832522
1.7275292331970435e+18,0.0014755453448742628,5.032508124713786e-05,-0.00031552041764371097
1.7275292332000435e+18,-0.0014469886664301157,-0.00013488595141097903,0.0008227376965805888
1.7275292332060436e+18,-0.0017430669395253062,-0.002092496957629919,-0.002971854992210865
1.7275292332120438e+18,-0.0012928596697747707,0.0003446871414780617,-0.0010496436152607203
1.727529233218044e+18,-0.0014112347271293402,-1.9916511519113556e-05,-0.00449972040951252
1.727529233221044e+18,0.0018760908860713243,0.0034258814994245768,-0.0012343773851171136
1.727529233227044e+18,-0.00022304074082057923,-0.0022155314218252897,0.0027785084675997496
1.7275292332330442e+18,0.0021056002005934715,0.001029605627991259,0.0027112355455756187
1.7275292332390444e+18,0.00017683424812275916,0.001293611596338451,0.0005066969315521419
1.7275292332450445e+18,-0.002369651570916176,0.0008712674025446177,0.0013533135643228889
1.7275292332480445e+18,-0.0005233589909039438,0.0009148672106675804,-0.0019624342676252127
1.7275292332540447e+18,-0.0035136984661221504,-0.002494588727131486,0.0010425085201859474
1.7275292332600448e+18,0.0028315905947238207,-0.0011888372246176004,0.002352207200601697
1.727529233266045e+18,0.0015507612843066454,0.002328827977180481,0.0013653832720592618
1.727529233272045e+18,0.0001501014339737594,0.0006410481291823089,0.0007407678058370948
1.727529233275045e+18,0.0013383406912907958,7.608995656482875e-05,-0.0007925104582682252
1.7275292332810452e+18,-0.0008637435385026038,-0.0009761243127286434,-0.0007526980480179191
1.7275292332870454e+18,-3.104567076661624e-05,-0.001856821239925921,0.0017178409034386277
1.7275292332930455e+18,0.002399400109425187,0.0013096259208396077,-0.001348023535683751
1.7275292332990456e+18,-0.000829836935736239,2.7034839149564505e-05,0.0013851391850039363
1.7275292333050458e+18,0.0004140200326219201,-0.00036827073199674487,1.3427943486021832e-05
1.7275292333080458e+18,-0.0010600256500765681,-0.0009704730473458767,-0.0009465955081395805
1.727529233314046e+18,-0.0006788651226088405,-0.0007204249268397689,0.0014855805784463882
1.727529233320046e+18,0.0017634775722399354,0.0002504263538867235,0.0010498533956706524
1.7275292333260462e+18,0.0005911804619245231,-0.0005759060732088983,-0.0015724694821983576
1.7275292333320463e+18,-0.0004041921638417989,-0.0016153508331626654,-0.00025552354054525495
1.7275292333350464e+18,0.0007362108444795012,-0.0025400847662240267,-0.0028554273303598166
1.7275292333410465e+18,0.0003066021017730236,-0.0021587645169347525,0.0015445336466655135
1.7275292333470467e+18,-0.001950995298102498,-0.0008743166108615696,0.0041789826937019825
1.7275292333530468e+18,0.0009533099946565926,-0.0003795797238126397,0.0008762743091210723
1.7275292333560468e+18,-0.0014392042066901922,0.0020258028525859118,-0.00014746196393389255
1.727529233362047e+18,-0.0008356083417311311,-0.001144478446803987,-0.00015078650903888047
1.727529233368047e+18,0.0020869753789156675,-0.0002103975130012259,0.0007774608093313873
1.7275292333740472e+18,0.0020770931150764227,0.004273156635463238,-0.00031302814022637904
1.7275292333800474e+18,0.0022497642785310745,0.002578006125986576,-0.002873955760151148
1.7275292333830474e+18,0.0010944200912490487,-0.0010886795353144407,-0.0009892703965306282
1.7275292333890476e+18,-0.0014034538762643933,-0.003369502490386367,0.0030527671333402395
1.7275292333950477e+18,-0.005234934389591217,-0.0015295649645850062,0.0014650430530309677
1.7275292334010478e+18,0.0013815585989505053,0.0005690657417289913,-0.0015733495820313692
1.727529233404048e+18,-0.0007094660541042686,-0.0004249371122568846,-0.002624775981530547
1.727529233410048e+18,-3.024146099050995e-05,0.0008622472523711622,0.0012433906085789204
1.727529233416048e+18,0.001470495481044054,-0.0005918156821280718,0.0005181198357604444
1.7275292334220483e+18,0.0007923640077933669,-0.0005422735121101141,-0.0025587468408048153
1.7275292334250483e+18,-0.000817313848529011,-0.0008838685462251306,0.0015684034442529082
1.7275292334310484e+18,0.000838743057101965,-0.0024709429126232862,0.0006136851152405143
1.7275292334370486e+18,-0.000578738225158304,-0.0016599721275269985,-0.001302377786487341
1.7275292334430487e+18,0.001075059175491333,0.0011977095855399966,-0.0007936148904263973
1.7275292334460488e+18,-0.002733277389779687,0.002950194990262389,-0.0008603850146755576
1.727529233452049e+18,-0.00020788134133908898,-0.0011784778907895088,-0.0003187364782206714
1.727529233458049e+18,-0.0002872908371500671,-2.6875000912696123e-05,0.0005422052345238626
1.7275292334640492e+18,-0.0013902521459385753,-0.0008340507629327476,0.0028412691317498684
1.7275292334670492e+18,0.0013764743926003575,0.0008907436276786029,-0.0001140241147368215
1.7275292334730493e+18,-0.0007231879862956703,-0.0023489249870181084,-0.0021781499963253736
1.7275292334790495e+18,-0.0008469846216030419,0.0027214554138481617,-0.0012690606527030468
1.7275292334850496e+18,0.0008918002131395042,-0.003296045120805502,0.0012344610877335072
1.7275292334880497e+18,0.00017391511937603354,0.0029062707908451557,-0.0009103890624828637
1.7275292334940498e+18,0.0008294788422062993,0.0021015896927565336,0.00015445827739313245
1.72752923350005e+18,-0.0018358140951022506,0.0002526716561987996,0.003386375494301319
1.72752923350605e+18,-0.0019970478024333715,0.001454975688830018,-0.0002063373540295288
1.7275292335120502e+18,-0.002523288130760193,-0.0008218634175136685,0.0020115843508392572
1.7275292335150502e+18,0.0016614128835499287,-0.0014487511944025755,0.0017986189341172576
1.7275292335210504e+18,0.0009780884720385075,-0.001568482955917716,0.001766440225765109
1.7275292335270505e+18,-0.0008791098953224719,0.0010153033072128892,0.001973699778318405
1.7275292335300506e+18,0.0005278877215459943,-0.0023981526028364897,0.0008199013536795974
1.7275292335360507e+18,-0.0027898564003407955,-0.00037066213553771377,0.0008248983067460358
1.7275292335420508e+18,0.00031399866566061974,0.00256939884275198,0.0006505975034087896
1.727529233548051e+18,-0.0016433835262432694,0.0010649316245689988,-0.0013712014770135283
1.727529233554051e+18,0.000546299503184855,0.0001622111740289256,0.0009897643467411399
1.7275292335570511e+18,-0.0019458476454019547,-0.0012111092219129205,-0.0010179022792726755
1.7275292335630513e+18,0.0011116995010524988,0.0027180302422493696,0.0002613552496768534
1.7275292335690514e+18,0.0025763080921024084,-0.00035253973328508437,-0.0015838085673749447
1.7275292335750515e+18,0.00154229742474854,0.0019668687600642443,0.0016894022701308131
1.7275292335780516e+18,0.0022618325892835855,-0.00148362061008811,0.0011490994365885854
1.7275292335840517e+18,0.0005438138614408672,-0.0019274671794846654,-0.002566863317042589
1.7275292335900518e+18,2.5279017791035585e-05,3.0288074412965216e-05,-1.4238920812204015e-05
1.727529233596052e+18,-0.0004905129317194223,0.001968598226085305,0.0016329691279679537
1.727529233599052e+18,-0.0014312268467620015,-0.0008493862114846706,6.225694960448891e-06
1.7275292336050522e+18,7.775843550916761e-05,0.0023433035239577293,0.0003405971801839769
1.7275292336110523e+18,-0.001915747532621026,-0.0020776367746293545,-0.0012898094719275832
1.7275292336170524e+18,-0.00046336595551110804,-0.004057455342262983,0.0003404937160667032
1.7275292336230525e+18,0.0006381353014148772,-0.0007427457021549344,0.0011276238365098834
1.7275292336260526e+18,-0.002351894974708557,-0.00027671142015606165,0.004294154234230518
1.7275292336320527e+18,0.0009194178273901343,-0.0005392527091316879,-0.0033823526464402676
1.7275292336380529e+18,0.001903694705106318,0.0007557388744316995,0.0008111351635307074
1.727529233644053e+18,-0.001507759210653603,0.0021714242175221443,-0.0009413798688910902
1.727529233647053e+18,-0.002291137119755149,0.0008120274869725108,-0.001207101158797741
1.7275292336530532e+18,-0.0023918296210467815,-0.0021176477894186974,-1.0187405678152572e-05
1.7275292336590533e+18,-0.00322575680911541,0.0017407028935849667,0.0010303596500307322
1.7275292336650534e+18,0.0001788321096682921,8.032693585846573e-05,-0.0005091714556328952
1.7275292336680535e+18,0.00028649187879636884,-0.004068043082952499,-0.00040550221456214786
1.7275292336740536e+18,0.00030512557714246213,-0.00356008717790246,0.0018466332694515586
1.7275292336800538e+18,-0.0017055568750947714,0.00234109815210104,-0.001793203642591834
1.727529233686054e+18,-6.978674355195835e-05,0.0014942550333216786,-0.0021752917673438787
1.727529233692054e+18,0.0002542286238167435,-0.0007988371653482318,0.0008271855185739696
1.7275292336980541e+18,0.0009664427489042282,0.0017766176024451852,2.3982476704986766e-05
1.7275292337010542e+18,0.0006430352223105729,0.00131345319095999,0.000935385178308934
1.7275292337070543e+18,0.0016374557744711637,-0.0003460388397797942,-0.0025764605961740017
1.7275292337130545e+18,-0.001706693205051124,0.0018818319076672196,0.000489136902615428
1.7275292337190546e+18,0.00018187842215411365,-0.002516227774322033,-0.0006492682732641697
1.7275292337250547e+18,-0.0011245220666751266,-0.001137236482463777,0.00026280630845576525
1.7275292337310548e+18,-0.0010407944209873676,0.00019994573085568845,0.0001668155164225027
1.727529233734055e+18,0.0015568374656140804,0.001449286937713623,0.00043756337254308164
1.727529233740055e+18,-0.0017177120316773653,0.000843609101139009,-0.001411652541719377
1.7275292337460552e+18,-0.00139404006768018,-0.002849066397175193,-0.0007165880524553359
1.7275292337520553e+18,-0.002467746613547206,-0.00031721804407425225,0.00010713795927586034
1.7275292337550554e+18,-0.00039183697663247585,-0.0004613494675140828,0.00046191015280783176
1.7275292337610555e+18,0.00022613097098656,-0.002142595825716853,0.0013632714981213212
1.7275292337670556e+18,0.0037383423186838627,-0.00011510615149745718,0.0004342578467912972
1.7275292337730557e+18,-0.0023037001956254244,-0.00289355986751616,-0.002014974830672145
1.7275292337790559e+18,-0.00014284365170169622,-0.0010411936091259122,-0.004028380382806063
1.727529233785056e+18,0.0013976902700960636,-0.002079680562019348,0.0006223173113539815
1.7275292337910561e+18,0.0020618813578039408,-6.0383732488844544e-05,-0.0015959820011630654
1.7275292337970563e+18,0.000525773037225008,-0.000544757058378309,0.0025488550309091806
1.7275292338030564e+18,0.0019444671925157309,-0.0013001079205423594,0.0006584832444787025
1.7275292338060564e+18,0.00021558883599936962,-0.0022482944186776876,0.0003957776352763176
1.7275292338120566e+18,-0.001882776035927236,-0.0008775187307037413,0.0006363713764585555
1.7275292338180567e+18,0.0023615811951458454,-0.0029919918160885572,-0.0028474086429923773
1.7275292338240568e+18,-0.000635855714790523,-0.001704757334664464,0.0027773743495345116
1.727529233830057e+18,-0.0023773822467774153,-0.0014355536550283432,0.0007419454632326961
1.727529233836057e+18,-0.0021740689408034086,0.003124598879367113,-0.00234026531688869
1.7275292338420572e+18,0.0005573155358433723,0.0019306072499603033,-0.0017326809465885162
1.7275292338450573e+18,0.0010668478207662702,-0.00016904315270949155,-0.002021440537646413
1.7275292338510574e+18,0.0012727506691589952,0.0042192996479570866,-0.0003613854059949517
1.7275292338570575e+18,-0.0012662078952416778,-0.0019283812725916505,0.0020163257140666246
1.7275292338630577e+18,-6.462055171141401e-05,0.0025287119206041098,0.0006749068852514029
1.7275292338690578e+18,0.0020082565024495125,-0.00187765434384346,-0.00013666764425579458
1.727529233875058e+18,0.0009525630157440901,0.000797989428974688,-0.00011428043944761157
1.727529233881058e+18,-0.00019358911958988756,-2.707157182157971e-05,-0.00037484843051061034
1.7275292338870582e+18,0.0016623196424916387,-0.0005899370880797505,0.0027110951486974955
1.7275292338930583e+18,-0.00025768420891836286,0.0009305509156547487,0.0005974288797006011
1.7275292338960584e+18,0.0010368968360126019,-0.0007630464970134199,0.0032494254410266876
1.7275292339050586e+18,0.00028147586272098124,-0.0005404105177149177,0.0009774955688044429
1.7275292339080586e+18,0.0011188492644578218,-0.001723548281006515,0.0001778490113792941
1.7275292339140588e+18,0.0005799694918096066,0.00034148767008446157,0.00019491984858177602
1.727529233920059e+18,0.0008291937410831451,0.0014168042689561844,0.0025793351233005524
1.727529233926059e+18,-0.00010685189045034349,-0.0016624784329906106,0.0011338595068082213
1.7275292339320591e+18,-0.0012126329820603132,-0.0017997934482991695,-0.00230712303891778
1.7275292339380593e+18,0.0004947358975186944,0.0009710010490380228,-0.0015797950327396393
1.7275292339440594e+18,-0.0028246543370187283,0.00038319258601404727,0.0018197301542386413
1.7275292339470595e+18,0.0003908849903382361,0.00035010624560527503,-0.0004332796670496464
1.7275292339530596e+18,0.0019510660786181688,0.0005805963883176446,0.0003237905038986355
1.7275292339590597e+18,0.0027267381083220243,0.0003919053706340492,0.0026194320525974035
1.7275292339650598e+18,-0.0006958393496461213,-0.0017644258914515376,0.0015302901156246662
1.72752923397106e+18,0.0012739632511511445,-0.000857860257383436,0.0007076891488395631
1.72752923397406e+18,-0.00042281285277567804,0.0020633020903915167,0.0017738270107656717
1.7275292339800602e+18,-0.00014395735342986882,-0.0024829257745295763,-0.000501004105899483
1.7275292339860603e+18,0.0011291815899312496,-0.0019402290927246213,0.00011529312905622646
1.7275292339920604e+18,-0.001345745986327529,-0.000953249866142869,0.0031222656834870577
1.7275292339980605e+18,-0.0007377270376309752,0.0004907588590867817,-0.0009992594132199883
1.7275292340010606e+18,0.00014647436910308897,-0.0018329767044633627,0.00030254642479121685
1.7275292340070607e+18,0.002729567466303706,0.0011267641093581915,-0.0008899655076675117
1.7275292340130609e+18,0.00032149083563126624,0.0014283433556556702,0.001135731814429164
1.727529234019061e+18,-0.0012448220513761044,-0.0007125483825802803,0.0022787663619965315
1.727529234025061e+18,-0.0013188276207074523,-0.002585567068308592,0.0004484700330067426
1.7275292340310612e+18,-0.0006460381555370986,0.0016504829982295632,0.0008428388391621411
1.7275292340370614e+18,0.0002689506800379604,0.0008930194308049977,-0.0018204512307420373
1.7275292340430615e+18,-0.00043253248441033065,0.0007852714625187218,-0.0007330494117923081
1.7275292340460616e+18,0.001248146640136838,-0.0014724702341482043,0.0002823168761096895
1.7275292340520617e+18,0.0006331182084977627,0.0034908996894955635,-0.0025948684196919203
1.7275292340580618e+18,-0.00014957942767068744,-0.0016275839880108833,-0.0008764039375819266
1.727529234064062e+18,-0.00220550037920475,0.0005593801033683121,-0.0014047970762476325
1.727529234070062e+18,0.0007533612661063671,-0.0015487689524888992,0.0015327372821047902
1.7275292340760622e+18,-0.0014085492584854364,-0.0020577390678226948,0.0018268304411321878
1.7275292340790623e+18,6.311448669293895e-05,0.0037208874709904194,0.0005585657781921327
1.7275292340850624e+18,0.0031005197670310736,-0.0019329150673002005,-0.00024542820756323636
1.7275292340910625e+18,0.0007406105869449675,-0.0009254146716557443,0.002443247241899371
1.7275292340970627e+18,-0.00251298351213336,-0.0018189674010500312,0.00015443714801222086
1.7275292341000627e+18,-0.0012954403646290302,-0.000474616332212463,0.001455882447771728
1.7275292341060628e+18,3.8704492908436805e-05,0.0002927012392319739,0.001594269066117704
1.727529234112063e+18,-0.0036107508931308985,-0.001032997970469296,0.00043121998896822333
1.727529234118063e+18,-0.0005127778276801109,0.0014214424882084131,-0.0013861493207514286
1.7275292341210632e+18,0.00279631488956511,-0.001794068026356399,-0.001728357863612473
1.7275292341270633e+18,0.002993537113070488,0.0015301583334803581,-0.0017807638505473733
1.7275292341330634e+18,0.0011707613011822104,-2.8658314477070235e-05,-0.0022582723759114742
1.7275292341360635e+18,0.0030939383432269096,0.0018987094517797232,0.00015638122567906976
1.7275292341420636e+18,0.0001961287489393726,-0.000678555341437459,-0.0015623383224010468
1.7275292341480637e+18,-0.0001195260847453028,-0.0014929230092093349,-0.0013979693176224828
1.727529234154064e+18,-0.0019693186040967703,0.0007837802986614406,-0.0034958377946168184
1.727529234160064e+18,0.001927891280502081,-0.0013210822362452745,-0.001803108025342226
1.727529234166064e+18,0.00027599636814557016,0.0005538478144444525,0.001887610531412065
1.7275292341690642e+18,0.002948801964521408,0.0012673685560002923,8.246887591667473e-05
1.7275292341750643e+18,-0.002233973005786538,-0.0022379725705832243,0.0015389961190521717
1.7275292341810644e+18,0.0009104527998715639,0.00035643018782138824,-0.0009371777414344251
1.7275292341840645e+18,-0.0009085778729058802,0.00012117773439968005,0.0007077165064401925
1.7275292341900646e+18,-0.002305840142071247,0.0003908962244167924,0.0017429495928809047
1.7275292341960648e+18,-0.000842900772113353,-0.001440714462660253,0.0019760620780289173
1.727529234202065e+18,0.00028518110048025846,-0.002430946798995137,-0.0023362694773823023
1.727529234208065e+18,-0.0016526920953765512,-0.00034046685323119164,-0.001746657188050449
1.727529234211065e+18,-0.0010035537416115403,0.005261749029159546,-0.00017473933985456824
1.7275292342170652e+18,-0.0008281705086119473,0.0011723206844180822,-0.0013511519646272063
1.7275292342230653e+18,0.002159851137548685,-0.00016845871869008988,-0.0011182643938809633
1.7275292342260654e+18,0.0017844850663095713,0.0016603469848632812,-0.002793659921735525
1.7275292342320655e+18,-0.001336067565716803,0.0006095854914747179,0.0011613700771704316
1.7275292342380657e+18,0.0007380432216450572,-0.00023841338406782597,-0.0006050841184332967
1.7275292342440658e+18,0.00026864424580708146,-0.0003581418714020401,0.0013741003349423409
1.7275292342470659e+18,-0.0026229415088891983,-0.0012126406654715538,0.00037790287751704454
1.727529234253066e+18,-0.00037764423177577555,0.0020021158270537853,-5.357616828405298e-05
1.727529234259066e+18,0.00012061061715940014,-0.0017986162565648556,-0.0003018830611836165
1.7275292342650662e+18,0.0013470675330609083,-0.0014457355719059706,0.002115466631948948
1.7275292342680663e+18,0.0025109690614044666,0.0024792675394564867,-0.0001058670604834333
1.7275292342740664e+18,-0.004244846757501364,0.00046884414041414857,-0.00127785571385175
1.7275292342800666e+18,0.0001293253299081698,0.005043551791459322,-0.0013409022940322757
1.7275292342860667e+18,0.0004409219545777887,0.0012029483914375305,-0.00047036242904141545
1.7275292342920668e+18,0.0018313296604901552,-0.0006600703345611691,-0.0010132426396012306
1.727529234295067e+18,-0.00024128524819388986,0.0002657547884155065,-0.0009225342073477805
1.727529234301067e+18,-0.0005515940138138831,0.00028484276845119894,-0.0002125152968801558
1.7275292343070671e+18,0.00047880774945952,-0.0008025006973184645,6.25992615823634e-05
1.7275292343130673e+18,0.0006320776301436126,0.002194073749706149,0.0005215033306740224
1.7275292343160673e+18,0.00038675713585689664,-0.0002444977289997041,-0.0009181303321383893
1.7275292343220675e+18,-0.0015405542217195034,-0.0006727437139488757,-0.0014566262252628803
1.7275292343250675e+18,0.00017051512259058654,0.0004520023940131068,-0.001367682358250022
1.7275292343310676e+18,2.080537706206087e-05,-0.0010088956914842129,-0.002280234592035413
1.7275292343370678e+18,-0.002780532231554389,-0.001067427801899612,-0.0018739064689725637
1.727529234343068e+18,0.00027571863029152155,-0.0012296837521716952,-5.5166074162116274e-05
1.727529234346068e+18,-0.00175390241201967,-0.0007463981746695936,0.0006230745348148048
1.727529234352068e+18,-0.0002532271610107273,-0.0014274801360443234,-7.182332046795636e-05
1.7275292343580682e+18,0.0011189818615093827,0.0008535539382137358,-2.9574262953246944e-05
1.7275292343640684e+18,-0.0007452756399288774,0.002751800464466214,0.00032489787554368377
1.7275292343670684e+18,-0.0005986528121866286,-0.00048802586388774216,0.001446496811695397
1.7275292343730685e+18,0.0021099532023072243,-0.0011552564101293683,0.00029346460360102355
1.7275292343790687e+18,-0.0014309672405943274,0.00139576883520931,0.002000445267185569
1.7275292343850688e+18,0.002560002962127328,-0.0015188467223197222,-0.0004569745506159961
1.7275292343880689e+18,0.003247152315452695,0.001879274845123291,-0.0014068420277908444
1.727529234394069e+18,0.0002711059642024338,0.001625695382244885,0.0013465896481648088
1.727529234400069e+18,-3.373447179910727e-05,0.0002699973701965064,-0.00016225023136939853
1.7275292344060692e+18,0.00031796342227607965,-0.0006308878655545413,0.0008773141889832914
1.7275292344090693e+18,0.0011839719954878092,-0.0008950010524131358,-0.0018049104837700725
1.7275292344150694e+18,0.001466197893023491,0.0019501204369589686,-0.0011751456186175346
1.7275292344210696e+18,0.0009455859544686973,-0.0008262439514510334,0.0020075233187526464
1.7275292344240696e+18,-5.434772901935503e-05,-0.0002878931409213692,-0.0026616924442350864
1.7275292344300698e+18,-0.0011598907876759768,-0.0026622889563441277,0.0006557817687280476
1.72752923443607e+18,-0.001200997969135642,0.0015935782575979829,-0.0026296162977814674
1.72752923444207e+18,-0.0019301666179671884,-0.0004320517764426768,-0.0027703901287168264
1.72752923444507e+18,-0.0016805982450023293,-0.002020083134993911,0.00021743234538007528
1.7275292344510702e+18,0.0005422751419246197,0.00028832326643168926,-0.004161950666457415
1.7275292344570703e+18,-0.0008374662138521671,-2.1180137991905212e-05,-0.0008752423455007374
1.7275292344630705e+18,-0.0010371352545917034,0.0004382429469842464,-0.00011648499639704823
1.7275292344660705e+18,0.0007525400724261999,0.002174978144466877,-0.0008908952004276216
1.7275292344720707e+18,-0.003173982026055455,-0.0015431196661666036,0.0011810363503172994
1.7275292344780708e+18,-0.0016342968447133899,0.0032277361024171114,0.0014576271641999483
1.727529234484071e+18,4.8265465011354536e-05,0.0008614833932369947,0.00015663084923289716
1.727529234487071e+18,0.0030255538877099752,0.0011512526543810964,0.0006075823330320418
1.727529234493071e+18,0.001909081474877894,-0.0016209703171625733,-0.0013674849178642035
1.7275292344990712e+18,0.0024375913199037313,0.0007748067728243768,0.00036484975134953856
1.7275292345050714e+18,-0.00010387838119640946,0.00048651816905476153,-0.0015916075790300965
1.7275292345080714e+18,-0.0003447073686402291,0.0008530559134669602,-0.002621571533381939
1.7275292345140716e+18,-0.0007552296156063676,0.00018662918591871858,0.004082751460373402
1.7275292345200717e+18,0.0013137196656316519,0.0006618707557208836,-0.00208194088190794
1.7275292345260718e+18,-0.0027394744101911783,0.0031565760727971792,0.0002775565953925252
1.7275292345290719e+18,-1.715804319246672e-05,-0.0018897138070315123,-0.0007803692133165896
1.727529234535072e+18,-0.0002837149368133396,0.0002685984072741121,-0.001719892956316471
1.7275292345410721e+18,-0.0012476200936362147,0.002052568830549717,0.0010001625632867217
1.7275292345440722e+18,-0.001364421215839684,7.661431300221011e-05,-0.0003972998820245266
1.7275292345500723e+18,-0.0031376988627016544,-0.001079085050150752,0.0001182263731607236
1.7275292345560724e+18,-0.002776459790766239,-0.0014197173295542598,0.0036322593223303556
1.7275292345620726e+18,0.0025223547127097845,-0.0021158731542527676,0.00039887771708890796
1.7275292345650726e+18,0.00020218857389409095,-0.002963986014947295,-0.0016930743586272001
1.7275292345710728e+18,0.0020449920557439327,0.0018141978653147817,0.0016600573435425758
1.727529234577073e+18,-0.0021424656733870506,-0.0021503379102796316,-0.0003816352691501379
1.727529234583073e+18,-0.0007097999914549291,-0.00022819625155534595,0.000706238322891295
1.727529234586073e+18,0.002065352164208889,-0.0009850886417552829,-0.001033363281749189
1.7275292345920732e+18,-0.0014933784259483218,-0.001063548494130373,-0.0010057019535452127
1.7275292345980733e+18,0.00045784362009726465,-0.00037491056718863547,-6.127430242486298e-05
1.7275292346040735e+18,0.0008662307518534362,-0.0018066224874928594,0.0027281446382403374
1.7275292346070735e+18,-0.0032475157640874386,-0.0005455148639157414,-0.0008006019052118063
1.7275292346130737e+18,-0.001413707621395588,-0.001344083109870553,0.0013057312462478876
1.7275292346190738e+18,0.0016691446071490645,-0.002152048284187913,0.0037243522237986326
1.727529234625074e+18,-0.00041424925439059734,-0.00021872573415748775,0.00034936872543767095
1.727529234628074e+18,-0.00036572746466845274,-0.002313785720616579,-0.0008751597488299012
1.727529234634074e+18,-0.00029663852183148265,0.00042150713852606714,0.0035802796483039856
1.7275292346400742e+18,0.002210601232945919,0.0014462644467130303,-0.00028631745954044163
1.7275292346460744e+18,-0.0006745366845279932,-0.0009849236812442541,-0.0018803494749590755
1.7275292346520745e+18,0.0009344342979602516,0.00015051677473820746,-0.00014855351764708757
1.7275292346550746e+18,0.0020570734050124884,-6.820505223004147e-05,0.0011651888489723206
1.7275292346610747e+18,-0.0004122276441194117,0.002672733971849084,-0.0016407107468694448
1.7275292346670748e+18,0.002961238846182823,0.003433144884184003,-0.0006089519010856748
1.727529234673075e+18,0.00033042620634660125,-0.0017067109001800418,-0.0030678240582346916
1.727529234679075e+18,0.0032356330193579197,-0.002323620719835162,0.0012233834713697433
1.7275292346820751e+18,0.0009618459735065699,-0.001792927854694426,0.0031561751384288073
1.7275292346880753e+18,-0.0008605786715634167,-0.00029272594838403165,0.0023307278752326965
1.7275292346940754e+18,-0.0016311269719153643,0.0017368390690535307,-0.0007198492530733347
1.7275292347000755e+18,0.001991062657907605,0.0020793252624571323,0.0006581649649888277
1.7275292347030756e+18,-0.0016027928795665503,0.00015806153533048928,0.0011250319657847285
1.7275292347090757e+18,-0.0018864466110244393,0.0007738554268144071,0.0007401059847325087
1.7275292347150758e+18,0.0017961807316169143,-0.001212507952004671,0.000865118345245719
1.727529234721076e+18,0.0024013896472752094,-0.0007666444289498031,-0.0004045909154228866
1.727529234724076e+18,-0.0029500331729650497,-0.00012377351231407374,-0.0014961560955271125
1.7275292347300762e+18,0.0005109486519359052,-0.00044417567551136017,-4.2647530790418386e-05
1.7275292347360763e+18,-0.0026387807447463274,0.0018907190533354878,0.0003048773796763271
1.7275292347420764e+18,-0.0018273191526532173,-0.0013561451341956854,-0.0030724473763257265
1.7275292347450765e+18,-0.001081545720808208,-0.00048801375669427216,-0.0010284282034263015
1.7275292347510766e+18,0.0011531843338161707,-0.000543109723366797,0.00030610489193350077
1.7275292347570767e+18,-0.002334786579012871,-0.0013757423730567098,0.004039987456053495
1.7275292347630769e+18,0.0009188902913592756,-0.0005102232680656016,0.0005217795260250568
1.727529234769077e+18,0.0010600562673062086,-0.0012103017652407289,0.0006605328526347876
1.727529234772077e+18,-0.001759407576173544,0.00022398376313503832,0.00023602538567502052
1.7275292347780772e+18,0.0006812357460148633,0.0027473566588014364,0.00013153401960153133
1.7275292347840773e+18,0.003080239985138178,0.001694909413345158,-0.0005621760501526296
1.7275292347870774e+18,-0.0006493674009107053,-0.0018770028837025166,0.00045037170639261603
1.7275292347930775e+18,-0.0008316414896398783,-0.0022870993707329035,0.0008724734652787447
1.7275292347990776e+18,0.0006183000514283776,0.0005502342828549445,-0.0006749827298335731
1.7275292348020777e+18,0.0015870865900069475,-0.0012077828869223595,-0.00037419848376885056
1.7275292348080778e+18,-0.0013785853516310453,-0.0014263256452977657,-0.002730421256273985
1.727529234814078e+18,-0.00022851514222566038,-0.0006518634618259966,-0.00012418908590916544
1.727529234820078e+18,0.0025288593024015427,-0.0007856373558752239,0.0029953448101878166
1.7275292348230781e+18,-0.0004907496040686965,-0.0025985436514019966,0.0005346770631149411
1.7275292348290783e+18,0.0020325027871876955,-0.00031097696046344936,0.0019571224693208933
1.7275292348350784e+18,-0.0036371066235005856,-0.0020487881265580654,-0.00018014872330240905
1.7275292348380785e+18,-0.0008284365176223218,-0.002337046666070819,-0.001970670884475112
1.7275292348440786e+18,0.0011768124531954527,-0.00034390095970593393,-0.0034922808408737183
1.7275292348500787e+18,0.0022469344548881054,-0.0005891733453609049,0.001650530961342156
1.7275292348560788e+18,0.00029507509316317737,-0.0008198129362426698,0.001699072658084333
1.727529234859079e+18,-0.0004327733186073601,0.0010002864291891456,0.0006108295056037605
1.727529234865079e+18,-0.0008404586696997285,0.0005222355248406529,-0.00012714715558104217
1.7275292348710792e+18,0.00259694317355752,-0.0026258043944835663,0.00036945060128346086
1.7275292348770793e+18,0.0011784083908423781,0.0009172813151963055,0.0012602182105183601
1.7275292348800794e+18,0.0017683765618130565,0.0006211221334524453,-0.0009225347894243896
1.7275292348860795e+18,-0.00035658429260365665,0.00022933476429898292,-0.003650371916592121
1.7275292348920796e+18,0.002397932345047593,-0.00020404196402523667,-0.00190245162229985
1.7275292348950797e+18,0.0034838069695979357,0.0014057859079912305,-0.0020815932657569647
1.7275292349010798e+18,0.0012345415307208896,0.0012426234316080809,0.0010380608728155494
1.72752923490708e+18,-0.0011909289751201868,0.0010144979460164905,0.0004793870903085917
1.72752923491308e+18,0.0008345338283106685,-0.0004482900258153677,0.0010072170989587903
1.7275292349190802e+18,0.0019042737549170852,-0.0018322591204196215,0.0010556867346167564
1.7275292349250803e+18,0.0010068987030535936,0.0017761464696377516,0.0018578850431367755
1.7275292349280804e+18,0.0015255199978128076,-8.36286289995769e-06,-0.0008064688299782574
1.7275292349340805e+18,-0.00022382152383215725,0.0003549341345205903,0.0026516984216868877
1.7275292349400806e+18,0.0002385954576311633,-0.0022995444014668465,-0.0011170258512720466
1.7275292349430807e+18,0.00016210619651246816,-0.0006273754988797009,0.001277203788049519
1.7275292349490808e+18,-0.0028379096183925867,0.00194363493937999,-0.0014367315452545881
1.727529234955081e+18,0.001017677248455584,0.0007254455122165382,-0.0030830390751361847
1.727529234961081e+18,0.0006358262617141008,-0.0013624202692881227,-0.000431216845754534
1.7275292349640812e+18,0.000910047790966928,-0.00017398509953636676,-0.0005102533614262938
1.7275292349700813e+18,-0.0002645411004777998,0.0017972519854083657,0.0015938124852254987
1.7275292349760814e+18,0.0005306235398165882,-0.00032387173268944025,-0.0016153841279447079
1.7275292349820815e+18,0.0010037814499810338,0.0004735328257083893,0.00048272707499563694
1.7275292349850816e+18,0.005077300127595663,-0.005961318500339985,-0.0006745494902133942
1.7275292349910817e+18,0.028373660519719124,-0.021338922902941704,-0.001334646949544549
1.7275292349970819e+18,0.05128807947039604,-0.038044124841690063,0.0017359476769343019
1.727529235003082e+18,0.07289247214794159,-0.05067789554595947,0.00017829201533459127
1.727529235006082e+18,0.08464761078357697,-0.05923919379711151,-0.0007512859883718193
1.7275292350120822e+18,0.0995757058262825,-0.07199869304895401,-0.000985466642305255
1.7275292350180823e+18,0.1055142730474472,-0.07936651259660721,0.0011304642539471388
1.7275292350210824e+18,0.10678622126579285,-0.08185005933046341,0.0012835981324315071
1.7275292350270825e+18,0.10430435091257095,-0.08170361071825027,0.0007828105590306222
1.7275292350330826e+18,0.0925803855061531,-0.07756923884153366,-0.0019134246977046132
1.7275292350390828e+18,0.08185087144374847,-0.07126929610967636,-0.003618149086833
1.7275292350420828e+18,0.07808948308229446,-0.07183322310447693,-0.0007515903562307358
1.727529235048083e+18,0.0661960244178772,-0.06757061183452606,0.0016238363459706306
1.727529235054083e+18,0.062136415392160416,-0.06409628689289093,-0.0029264730401337147
1.7275292350570831e+18,0.06588920205831528,-0.06648115813732147,-0.003158703912049532
1.7275292350630833e+18,0.06862320005893707,-0.06631527841091156,-0.00201212614774704
1.7275292350690834e+18,0.0761995017528534,-0.06906107068061829,-0.001987878931686282
1.7275292350750835e+18,0.08749126642942429,-0.07316472381353378,-0.0028693643398582935
1.7275292350780836e+18,0.0895521268248558,-0.07395642250776291,-0.0002911355113610625
1.7275292350840837e+18,0.0881517082452774,-0.07212630659341812,0.0005482299020513892
1.7275292350900838e+18,0.0910663902759552,-0.07151950150728226,-0.0022141931112855673
1.727529235093084e+18,0.08466227352619171,-0.07127714902162552,-0.003558230586349964
1.727529235099084e+18,0.07613953202962875,-0.06382087618112564,-0.0006800803821533918
1.7275292351050842e+18,0.06473569571971893,-0.06125514209270477,-0.0007538375211879611
1.7275292351110843e+18,0.05502856895327568,-0.05553795397281647,-0.001001840690150857
1.7275292351140844e+18,0.04863667115569115,-0.05299371853470802,-0.0015605778899043798
1.7275292351200845e+18,0.04005502536892891,-0.048237305134534836,-0.002095608739182353
1.7275292351260846e+18,0.03748021647334099,-0.04776470363140106,-0.0029526541475206614
1.7275292351320847e+18,0.03699382022023201,-0.04333527013659477,-0.003041941672563553
1.7275292351350848e+18,0.03799273818731308,-0.044833917170763016,-0.0023582540452480316
1.727529235141085e+18,0.040176697075366974,-0.04117272049188614,-7.554958574473858e-05
1.727529235147085e+18,0.04289928078651428,-0.038210198283195496,-0.0026738557498902082
1.7275292351530852e+18,0.040384139865636826,-0.03693709522485733,-0.0013146299170330167
1.7275292351560852e+18,0.0436323881149292,-0.03186557814478874,-0.004791444167494774
1.7275292351620854e+18,0.03659391403198242,-0.031931404024362564,-0.003146090777590871
1.7275292351680855e+18,0.029438288882374763,-0.025970859453082085,-0.002437424613162875
1.7275292351710856e+18,0.02171442098915577,-0.02457612194120884,-0.0011343836085870862
1.7275292351770857e+18,0.014046559110283852,-0.019097937270998955,-0.0018423616420477629
1.7275292351830858e+18,0.004318489693105221,-0.017646854743361473,-0.0010777657153084874
1.727529235189086e+18,-0.004014595877379179,-0.015772687271237373,-0.0042066252790391445
1.727529235195086e+18,-0.00908094272017479,-0.01072367187589407,-0.002427769359201193
1.7275292351980861e+18,-0.005831431597471237,-0.010037439875304699,-0.0030927727930247784
1.7275292352040863e+18,-0.005614767782390118,-0.0068834940902888775,-0.004494807217270136
1.7275292352100864e+18,-0.004900280386209488,-0.005628686863929033,-0.004917339887470007
1.7275292352130865e+18,-0.003209994174540043,-0.0028467788361012936,-0.003130062483251095
1.7275292352190866e+18,-0.0017254520207643509,0.00023477211652789265,-0.0019512426806613803
1.7275292352250867e+18,-0.0019991763401776552,0.0034313045907765627,-0.004680007230490446
1.7275292352310868e+18,-0.005094677209854126,0.006922768894582987,-0.004064758773893118
1.727529235237087e+18,-0.009582800790667534,0.006640814244747162,0.0005632920656353235
1.727529235243087e+18,-0.012887023389339447,0.011175110936164856,-0.004239104688167572
1.7275292352460872e+18,-0.01761210709810257,0.013330677524209023,-0.002687005326151848
1.7275292352520873e+18,-0.02207512967288494,0.01715354062616825,-0.004161305259913206
1.7275292352580874e+18,-0.025815386325120926,0.014905150048434734,-0.0016263186698779464
1.7275292352610875e+18,-0.028733324259519577,0.017452280968427658,-0.001555314869619906
1.7275292352670876e+18,-0.024957839399576187,0.019099855795502663,-0.006801136769354343
1.7275292352730877e+18,-0.029113050550222397,0.02069118805229664,-0.0028847854118794203
1.7275292352790879e+18,-0.02772815153002739,0.022876927629113197,-0.0018205944215878844
1.727529235285088e+18,-0.02470790594816208,0.024812204763293266,-0.002700480166822672
1.7275292352910881e+18,-0.025744574144482613,0.02390209585428238,-0.0034727330785244703
1.7275292352970883e+18,-0.028031907975673676,0.027710940688848495,-0.004095796495676041
1.7275292353000883e+18,-0.0256113912910223,0.026969218626618385,-0.0003013131208717823
1.7275292353060884e+18,-0.028326235711574554,0.029730159789323807,-0.0027612170670181513
1.7275292353120886e+18,-0.03100539930164814,0.030346935614943504,-0.0002896934747695923
1.7275292353180887e+18,-0.03335713595151901,0.03244097903370857,-0.0043974583968520164
1.7275292353210888e+18,-0.037384193390607834,0.033507075160741806,-0.0028301551938056946
1.727529235327089e+18,-0.03552304953336716,0.031976934522390366,-0.004096823278814554
1.727529235333089e+18,-0.03613414987921715,0.03470016270875931,-0.0011421532835811377
1.727529235336089e+18,-0.03708168491721153,0.03838085010647774,0.0005218395963311195
1.7275292353420892e+18,-0.03482205420732498,0.030922120437026024,-0.0036795916967093945
1.7275292353480893e+18,-0.03355248272418976,0.035366784781217575,-0.00573586393147707
1.7275292353540895e+18,-0.03267800807952881,0.03324101120233536,-0.0037033050321042538
1.7275292353600896e+18,-0.03117644600570202,0.034289952367544174,-0.005086076445877552
1.7275292353630897e+18,-0.032513197511434555,0.032933223992586136,-0.0025507682003080845
1.7275292353690898e+18,-0.032986484467983246,0.03321386128664017,-0.005496022291481495
1.72752923537509e+18,-0.03766678646206856,0.029005609452724457,-0.0042027197778224945
1.72752923537809e+18,-0.037710271775722504,0.031012726947665215,-0.00598138477653265
1.72752923538409e+18,-0.038303863257169724,0.03339102119207382,-0.0017773249419406056
1.7275292353900902e+18,-0.0397748202085495,0.030532950535416603,-0.004195865243673325
1.7275292353960904e+18,-0.039885666221380234,0.03042665123939514,-0.0010059133637696505
1.7275292353990904e+18,-0.04096772149205208,0.03311172500252724,-0.003019235096871853
1.7275292354050906e+18,-0.03908911719918251,0.030898600816726685,-0.001806147862225771
1.7275292354110907e+18,-0.035453613847494125,0.03403118997812271,-0.0030881676357239485
1.7275292354140908e+18,-0.035494208335876465,0.03201567381620407,-0.004902822896838188
1.727529235420091e+18,-0.028677083551883698,0.03208841755986214,-0.006121192127466202
1.727529235426091e+18,-0.03329342231154442,0.033400315791368484,-0.004247788339853287
1.7275292354320911e+18,-0.027995813637971878,0.031665921211242676,-0.005759579129517078
1.7275292354380913e+18,-0.029286278411746025,0.03218638151884079,-0.003628729609772563
1.7275292354410913e+18,-0.0331508032977581,0.029804175719618797,-0.0022621178068220615
1.7275292354470915e+18,-0.0331178642809391,0.031716592609882355,-0.003539099358022213
1.7275292354530916e+18,-0.03240809217095375,0.027600185945630074,-0.0035980958491563797
1.7275292354590917e+18,-0.033004701137542725,0.02790096588432789,-0.0017679999582469463
1.7275292354650918e+18,-0.03574099391698837,0.02580053173005581,-0.004039257764816284
1.727529235471092e+18,-0.03080887161195278,0.027100201696157455,-0.0011120233684778214
1.727529235474092e+18,-0.02970244362950325,0.025569714605808258,-0.002511614700779319
1.7275292354800922e+18,-0.03150450438261032,0.024183807894587517,-0.003986008930951357
1.7275292354860923e+18,-0.029425349086523056,0.025453347712755203,-0.001998390769585967
1.7275292354920924e+18,-0.027804486453533173,0.027633514255285263,-0.003860373282805085
1.7275292354980925e+18,-0.025189843028783798,0.02496483363211155,-0.005933350883424282
1.7275292355010926e+18,-0.026122625917196274,0.029943246394395828,-0.003162068547680974
1.7275292355070927e+18,-0.024414697661995888,0.025530992075800896,-0.004219925031065941
1.7275292355130929e+18,-0.02616378851234913,0.023816397413611412,-0.004720326047390699
1.727529235519093e+18,-0.025384655222296715,0.025993594899773598,-0.007771125063300133
1.727529235522093e+18,-0.026700224727392197,0.021416498348116875,-0.0069448333233594894
1.7275292355280932e+18,-0.02809101715683937,0.02024376019835472,-0.00528518483042717
1.7275292355310932e+18,-0.02950344607234001,0.021818306297063828,-0.004164204932749271
1.7275292355370934e+18,-0.02510637417435646,0.022278115153312683,-0.0067568630911409855
1.7275292355430935e+18,-0.025342687964439392,0.022450381889939308,-0.0038160006515681744
1.7275292355490936e+18,-0.022246379405260086,0.02042231336236,-0.002092526061460376
1.7275292355550938e+18,-0.02054113894701004,0.02242167294025421,-0.005087566561996937
1.7275292355580938e+18,-0.01916215941309929,0.02098177932202816,-0.006434961222112179
1.727529235564094e+18,-0.020350048318505287,0.020432021468877792,-0.0019214220810681581
1.727529235570094e+18,-0.0184540543705225,0.020377809181809425,-0.005700575187802315
1.7275292355730941e+18,-0.01955670863389969,0.01904246024787426,-0.0027987274806946516
1.7275292355790943e+18,-0.016041293740272522,0.019673721864819527,-0.006579186767339706
1.7275292355850944e+18,-0.0180473942309618,0.014954928308725357,-0.0068962182849645615
1.7275292355910945e+18,-0.019220413640141487,0.016658777371048927,-0.004264106974005699
1.7275292355940946e+18,-0.01881321147084236,0.01373533345758915,-0.0054116337560117245
1.7275292356000947e+18,-0.02316443808376789,0.014985269866883755,-0.0023615288082510233
1.7275292356060948e+18,-0.016486717388033867,0.013913383707404137,-0.0027821981348097324
1.727529235612095e+18,-0.02120145969092846,0.012839233502745628,-0.003954931162297726
1.727529235615095e+18,-0.019412187859416008,0.015781639143824577,-0.006238236557692289
1.7275292356210952e+18,-0.017061999067664146,0.01917022466659546,-0.006938515231013298
1.7275292356270953e+18,-0.017133966088294983,0.01725531369447708,-0.004242899361997843
1.7275292356330954e+18,-0.018257971853017807,0.018061960116028786,-0.007565573789179325
1.7275292356390956e+18,-0.01814251020550728,0.012837518006563187,-0.0036989576183259487
1.7275292356420956e+18,-0.01635124534368515,0.014856030233204365,-0.004908679984509945
1.7275292356480957e+18,-0.01808040775358677,0.014963207766413689,-0.0024680476635694504
1.727529235654096e+18,-0.016292501240968704,0.013429130427539349,-0.004664166364818811
1.727529235660096e+18,-0.014530858024954796,0.01248480100184679,-0.005013970658183098
1.727529235663096e+18,-0.01561217661947012,0.013329489156603813,-0.004949795547872782
1.7275292356690962e+18,-0.016291623935103416,0.016311511397361755,-0.008280971087515354
1.7275292356750963e+18,-0.017467355355620384,0.011409762315452099,-0.0024261949583888054
1.7275292356810964e+18,-0.014640696346759796,0.012719331309199333,-0.0056750099174678326
1.7275292356840965e+18,-0.01606956496834755,0.012767509557306767,-0.003938221372663975
1.7275292356900966e+18,-0.01664801314473152,0.013719761744141579,-0.003982392139732838
1.7275292356960968e+18,-0.012471921741962433,0.011825555935502052,-0.0053224642761051655
1.727529235702097e+18,-0.013012237846851349,0.014651566743850708,-0.006161152850836515
1.727529235705097e+18,-0.013265716843307018,0.014628232456743717,-0.005370376631617546
1.727529235711097e+18,-0.011471307836472988,0.009157492779195309,-0.004972315859049559
1.7275292357170972e+18,-0.012874103151261806,0.009280771017074585,-0.002377673052251339
1.7275292357230973e+18,-0.011132565326988697,0.012634892016649246,-0.004412191919982433
1.7275292357260974e+18,-0.011747593991458416,0.009573999792337418,-0.0032104537822306156
1.7275292357320975e+18,-0.01218203641474247,0.008337752893567085,-0.0033600693568587303
1.7275292357380977e+18,-0.013586802408099174,0.009993172250688076,-0.004964462481439114
1.7275292357440978e+18,-0.00977023784071207,0.010946986265480518,-0.006497671362012625
1.7275292357470979e+18,-0.014269161969423294,0.009226889349520206,-0.0029358055908232927
1.727529235753098e+18,-0.012183844111859798,0.010849017649888992,-0.004736541770398617
1.727529235759098e+18,-0.010819090530276299,0.010873153805732727,-0.0030291664879769087
1.7275292357650982e+18,-0.009730909019708633,0.011020230129361153,-0.005130325444042683
1.7275292357680983e+18,-0.010976063087582588,0.009705214761197567,-0.0042924219742417336
1.7275292357740984e+18,-0.00834636576473713,0.009950526989996433,-0.0020921400282531977
1.7275292357800986e+18,-0.00853141862899065,0.010764747858047485,-0.0033278409391641617
1.7275292357860987e+18,-0.008979536592960358,0.009283287450671196,-0.006587785668671131
1.7275292357920988e+18,-0.010337878949940205,0.008309011347591877,-0.0036809174343943596
1.727529235795099e+18,-0.01093415729701519,0.012095150537788868,-0.0059226020239293575
1.727529235801099e+18,-0.013998005539178848,0.013639994896948338,-0.0012312501203268766
1.7275292358070991e+18,-0.01334965880960226,0.009265357628464699,-0.005194922909140587
1.7275292358100992e+18,-0.012766681611537933,0.009005911648273468,-0.004570924676954746
1.7275292358160993e+18,-0.0107837850227952,0.010945416055619717,-0.006083604879677296
1.7275292358220995e+18,-0.007280626799911261,0.009790554642677307,-0.007317019160836935
1.7275292358250995e+18,-0.011568594723939896,0.008874566294252872,-0.002714136615395546
1.7275292358310996e+18,-0.008057388477027416,0.013626070693135262,-0.0037707092706114054
1.7275292358370998e+18,-0.00802373606711626,0.012023432180285454,-0.003498497884720564
1.7275292358431e+18,-0.00839246716350317,0.011263185180723667,-0.006722726859152317
1.7275292358491e+18,-0.008240589872002602,0.008521460928022861,-0.004193899221718311
1.7275292358521e+18,-0.009713723324239254,0.011310849338769913,-0.007431904785335064
1.7275292358581002e+18,-0.010757253505289555,0.013154054991900921,-0.004765082150697708
1.7275292358641004e+18,-0.011151610873639584,0.006916984915733337,-0.004133936949074268
1.7275292358701005e+18,-0.00941524002701044,0.007303520105779171,-0.00482772896066308
1.7275292358731005e+18,-0.0106411874294281,0.009451364167034626,-0.004639950580894947
1.7275292358791007e+18,-0.00914893951267004,0.009985598735511303,-0.004120795056223869
1.7275292358851008e+18,-0.00870156567543745,0.010783214122056961,-0.004791500046849251
1.727529235891101e+18,-0.006235864479094744,0.010476771742105484,-0.0021082903258502483
1.727529235897101e+18,-0.009784127585589886,0.010805618949234486,-0.007344400510191917
1.7275292359031012e+18,-0.008407346904277802,0.010467804968357086,-0.0017669099615886807
1.7275292359061012e+18,-0.008877354674041271,0.010389718227088451,-0.003971187863498926
1.7275292359121014e+18,-0.007171202450990677,0.012910223565995693,-0.0019813459366559982
1.7275292359181015e+18,-0.009962089359760284,0.009151597507297993,-0.003780755214393139
1.7275292359211016e+18,-0.005928276106715202,0.009914170019328594,-0.005891567096114159
1.7275292359271017e+18,-0.005458659492433071,0.005947588477283716,-0.0035145736765116453
1.7275292359331018e+18,-0.01023045927286148,0.008785354904830456,-0.0029877242632210255
1.727529235939102e+18,-0.008416044525802135,0.00628488278016448,-0.00436004251241684
1.727529235945102e+18,-0.009465250186622143,0.008896533399820328,-0.005780179984867573
1.7275292359481021e+18,-0.00979068037122488,0.010103735141456127,-0.002772274427115917
1.7275292359541023e+18,-0.013121690601110458,0.005477018654346466,0.00045329402200877666
1.7275292359601024e+18,-0.01478374470025301,0.01075801532715559,-0.004746973980218172
1.7275292359631025e+18,-0.016264939680695534,0.00990384817123413,-0.0035890364088118076
1.7275292359691026e+18,-0.013839943334460258,0.00870751217007637,-0.0025496329180896282
1.7275292359751027e+18,-0.011788779869675636,0.0047992742620408535,-0.004902001470327377
1.7275292359781028e+18,-0.012760457582771778,0.009094782173633575,-0.0004920195788145065
1.727529235984103e+18,-0.010724250227212906,0.007642135955393314,-0.004558406304568052
1.727529235990103e+18,-0.009434624575078487,0.005649411119520664,-0.003678671084344387
1.7275292359961032e+18,-0.005646431352943182,0.006189011037349701,-0.004935527220368385
1.7275292360021033e+18,-0.005397900938987732,0.00519610894843936,-0.0031422546599060297
1.7275292360051034e+18,-0.008146817795932293,0.00576036237180233,-0.003398367902263999
1.7275292360111035e+18,-0.009187373332679272,0.00038915977347642183,-0.000511320075020194
1.7275292360171036e+18,-0.006249634549021721,0.0025020341854542494,-0.0008316646562889218
1.7275292360231037e+18,-0.00978219136595726,0.003854133887216449,-0.0029366607777774334
1.7275292360261038e+18,-0.007462845183908939,0.004246271215379238,-0.0019962317310273647
1.727529236032104e+18,-0.006720121018588543,0.0014288346283137798,-0.004546958953142166
1.727529236038104e+18,-0.004646063316613436,0.0048540858551859856,0.0002743012737482786
1.7275292360441042e+18,-0.005435253493487835,0.004359713755548,-0.0007891852874308825
1.7275292360501043e+18,-0.003400016576051712,0.0076633719727396965,-0.0003793955547735095
1.7275292360531044e+18,-0.0016802982427179813,0.003249896690249443,-0.0021006425376981497
1.7275292360591045e+18,-0.002178783994168043,0.0039562345482409,-9.998958557844162e-05
1.7275292360651046e+18,-0.003997331485152245,0.004921248648315668,-0.0020571723580360413
1.7275292360711048e+18,-0.005787287838757038,0.005065314471721649,0.00048007164150476456
1.727529236077105e+18,-0.0034677062649279833,0.0032891836017370224,-0.0032484708353877068
1.727529236080105e+18,-0.005240034777671099,0.0033622635528445244,-0.0032169115729629993
1.727529236086105e+18,-0.00589483417570591,0.0022326274774968624,-0.0006696521304547787
1.7275292360921052e+18,-0.008055401965975761,0.004222077317535877,-0.0016876563895493746
1.7275292360951053e+18,-0.005301128141582012,0.0032684525940567255,-0.002602564636617899
1.7275292361011054e+18,-0.007391610182821751,0.0005510104820132256,-0.0025968910194933414
1.7275292361071055e+18,-0.004049190320074558,0.0022941366769373417,-0.001919616013765335
1.7275292361131057e+18,-0.0038965176790952682,0.0022195796482264996,-0.0017631875816732645
1.7275292361161057e+18,0.0003889638464897871,0.0052734664641320705,-0.003072980558499694
1.7275292361221059e+18,0.0011840700171887875,0.003226454369723797,-8.044845890253782e-05
1.727529236128106e+18,0.002006535418331623,0.005007017869502306,-0.0017385135870426893
1.727529236134106e+18,0.00026593299116939306,0.007555389776825905,0.0018504305044189095
1.7275292361401062e+18,-0.0009269422153010964,0.00383398262783885,-0.0019492505816742778
1.7275292361431063e+18,0.0008959319675341249,0.004526104778051376,-0.0016660767141729593
1.7275292361491064e+18,0.0007303357124328613,0.0014337899629026651,-0.0018883362645283341
1.7275292361551066e+18,-0.0035737163852900267,0.0021130123641341925,-0.0007146038697101176
1.7275292361611067e+18,-0.003609467763453722,0.001284101977944374,-0.0017587788170203567
1.7275292361641068e+18,-0.004193319007754326,0.005646727979183197,-0.002274471800774336
1.727529236170107e+18,0.0005882133264094591,0.0083486782386899,-0.000771639053709805
1.727529236176107e+18,-0.0039169942028820515,0.006137637887150049,-0.0005865661660209298
1.7275292361821071e+18,-0.0010475043673068285,0.004985538776963949,-0.0021613682620227337
1.7275292361881073e+18,0.0008761126664467156,0.005394064821302891,-0.0031895244028419256
1.7275292361911073e+18,0.0011043970007449389,0.005600430071353912,0.0008863250259310007
1.7275292361971075e+18,0.0040618604980409145,0.0052403793670237064,-0.0024481385480612516
1.7275292362031076e+18,0.0028787655755877495,0.007040307391434908,-0.0010405300417914987
1.7275292362091077e+18,0.004704322200268507,0.005417614243924618,0.00043136614840477705
1.7275292362121078e+18,-0.0003651896258816123,0.00788542628288269,-0.0004156801151111722
1.727529236218108e+18,0.00459873303771019,0.006718659307807684,-0.0004171560285612941
1.727529236224108e+18,-0.0015327599830925465,0.0030002642888575792,-0.003010503249242902
1.727529236227108e+18,0.00022922037169337273,0.006787694990634918,-0.001596975838765502
1.7275292362331082e+18,0.0001647153403609991,0.0034547126851975918,-0.0038823019713163376
1.7275292362391084e+18,-0.0024200817570090294,0.0032500065863132477,0.00015042047016322613
1.7275292362451085e+18,-0.003002256155014038,0.002480010502040386,-0.0022621694952249527
1.7275292362511086e+18,-0.0008199438452720642,0.0011471896432340145,-0.002437946852296591
1.7275292362541087e+18,-0.0009689307771623135,0.004626226611435413,-0.0003825757303275168
1.7275292362601088e+18,0.00033155764685943723,0.004723401740193367,0.0008429212030023336
1.727529236266109e+18,0.0013263976434245706,0.005892092827707529,-0.002578063402324915
1.727529236272109e+18,0.0027071384247392416,0.006073188968002796,-0.003873283276334405
1.727529236275109e+18,0.0030925064347684383,0.007124391384422779,-0.00032110692700371146
1.7275292362811092e+18,0.0011993732769042253,0.007469768635928631,0.0008942568674683571
1.7275292362871094e+18,-0.0001632424391573295,0.00636141886934638,-0.0038491408340632915
1.7275292362931095e+18,-0.0005355484317988157,0.004468767438083887,-0.0008965560118667781
1.7275292362991096e+18,-0.0051415408961474895,0.002789068501442671,-0.0017898499500006437
1.7275292363051098e+18,-0.006505143828690052,0.0030466991011053324,-0.0012654640013352036
1.72752923631111e+18,-0.007097173947840929,0.0015917287673801184,-0.002532738260924816
1.72752923631411e+18,-0.0036661019548773766,0.004496370442211628,0.0002341284416615963
1.72752923632011e+18,-0.007443239912390709,0.005658701062202454,0.0012625844683498144
1.7275292363261102e+18,-0.007900824770331383,0.0031056967563927174,-0.0022861729376018047
1.7275292363321103e+18,-0.008369140326976776,0.0035187923349440098,-0.0025423935148864985
1.7275292363351104e+18,-0.007965938188135624,0.0015442133881151676,-0.0036268678959459066
1.7275292363411105e+18,-0.004441564437001944,0.004471092019230127,-0.00021529660443775356
1.7275292363471107e+18,-0.0011656680144369602,0.0026828269474208355,0.0009180358028970659
1.7275292363501107e+18,0.00044279987923800945,0.0035942704416811466,-0.0028984604869037867
1.7275292363561108e+18,-0.0017282430781051517,0.006596609018743038,0.001635384396649897
1.727529236362111e+18,-0.001188176218420267,0.0051286364905536175,0.0009425458265468478
1.727529236368111e+18,-0.0014157324330881238,0.0006095161661505699,-0.0002635063137859106
1.7275292363741112e+18,-0.0005346853286027908,0.005715692415833473,-0.0015473514795303345
1.7275292363771113e+18,-0.004707308951765299,0.003548174165189266,0.0008724697981961071
1.7275292363831114e+18,-0.003129818942397833,0.0029371543787419796,-4.600267857313156e-05
1.7275292363891116e+18,-0.00736818416044116,0.0016122671077027917,-0.0014419479994103312
1.7275292363951117e+18,-0.0037905052304267883,0.00439764279872179,-0.0020431806333363056
1.7275292364011118e+18,-0.004068390466272831,0.0032856951002031565,-0.001302162534557283
1.727529236404112e+18,-0.005149252712726593,0.0019414331763982773,0.0006584023358300328
1.727529236410112e+18,0.00042656646110117435,-0.0013918537879362702,0.001632146188057959
1.727529236416112e+18,-0.002695210510864854,0.0023070741444826126,0.0016954346792772412
1.7275292364221123e+18,-0.0004891022108495235,0.002868037670850754,-0.0014074029168114066
1.7275292364251123e+18,0.002038016449660063,0.0019505262607708573,-0.0018941799644380808
1.7275292364311124e+18,-0.00048801605589687824,0.004078499041497707,-0.001388575998134911
1.7275292364371126e+18,-0.0023084620479494333,0.003727188566699624,0.0007046690443530679
1.7275292364431127e+18,-0.000992434797808528,0.0048872060142457485,-0.0027237776666879654
1.7275292364461128e+18,-0.002096399897709489,0.004572223871946335,0.003112361067906022
1.727529236452113e+18,-0.006154157221317291,0.004620481748133898,-0.00012477600830607116
1.727529236458113e+18,-0.0033025506418198347,0.0026515196077525616,0.0007810037350282073
1.7275292364641132e+18,-0.006108283996582031,0.0011050673201680183,0.00015588173118885607
1.7275292364671132e+18,-0.004279537126421928,0.0027076052501797676,0.0034556970931589603
1.7275292364731133e+18,-0.005618405994027853,-0.0025297366082668304,0.0011100734118372202
1.7275292364791135e+18,-0.004744821228086948,0.001957193249836564,0.0013899396872147918
1.7275292364851136e+18,-0.0036265060771256685,0.0006286955322138965,0.0006666476838290691
1.7275292364881137e+18,-0.005280910059809685,0.0027836852241307497,-0.0018739898223429918
1.7275292364941138e+18,-0.0026391108985990286,0.000815016042906791,0.00042302580550312996
1.727529236500114e+18,-0.004145663697272539,-0.00023533543571829796,0.0018307239515706897
1.727529236503114e+18,-0.006862271577119827,-0.0009388858452439308,0.001193084754049778
1.7275292365121142e+18,-0.00010379881132394075,0.0004008722025901079,-0.0012716135242953897
1.7275292365151142e+18,-0.0007739266729913652,0.003387847915291786,0.0009308453882113099
1.7275292365211144e+18,-0.0037547750398516655,-0.0007891631685197353,0.0019362197490409017
1.7275292365271145e+18,-0.00034895562566816807,0.0005199940642341971,-0.0011526059824973345
1.7275292365331146e+18,-0.0032880238723009825,0.0014620576985180378,0.002562357112765312
1.7275292365361147e+18,-0.003260975470766425,0.0001642446732148528,-0.0004249714547768235
1.7275292365421148e+18,-0.0036197800654917955,-0.0015770297031849623,0.0009381358395330608
1.727529236548115e+18,-0.004389321897178888,-0.0002677661832422018,0.0018070789519697428
1.727529236551115e+18,-0.002478922251611948,0.00030319998040795326,0.0006142367492429912
1.7275292365571151e+18,-0.0037027355283498764,-0.0016870888648554683,0.002483746036887169
1.7275292365631153e+18,0.0007826592773199081,0.0005609069485217333,-0.0008145557949319482
1.7275292365661153e+18,-0.0005835487972944975,-0.0002299839397892356,0.0008276825537905097
1.7275292365721155e+18,0.0005735420854762197,-0.0013399706222116947,0.0042406837455928326
1.7275292365781156e+18,0.002467057202011347,-0.0013430106919258833,-0.0008349091513082385
1.7275292365841157e+18,0.002114306902512908,-0.002388203050941229,-0.0021423213183879852
1.7275292365901158e+18,0.0017126795137301087,-0.00222431356087327,0.0018886136822402477
1.727529236593116e+18,5.779089406132698e-05,-0.00025146850384771824,0.002372682560235262
1.727529236599116e+18,0.0019294967642053962,-0.002226391341537237,0.0028882238548249006
1.7275292366051162e+18,0.002493650885298848,-0.003012750530615449,0.0005418907385319471
1.7275292366081162e+18,-0.0005116496467962861,-0.004435358569025993,-2.358213532716036e-05
1.7275292366141164e+18,-0.0015044785104691982,-0.0056572286412119865,0.0015266439877450466
1.7275292366201165e+18,-0.0009575111325830221,-0.002143681515008211,0.0010374384000897408
1.7275292366261166e+18,0.0019112726440653205,-0.0047038523480296135,0.001032500178553164
1.7275292366291167e+18,0.0029574802611023188,-0.0029695159755647182,0.0032046157866716385
1.7275292366351168e+18,0.0033285641111433506,-0.0038978708907961845,0.0018318367656320333
1.727529236641117e+18,0.0020377379842102528,-0.00017247837968170643,0.003918400965631008
1.727529236647117e+18,0.0029986128211021423,0.0007443034555763006,0.0040213484317064285
1.727529236650117e+18,0.002803516574203968,0.001002006814815104,0.002225296339020133
1.7275292366561172e+18,0.0056833541020751,-0.0008759507327340543,0.004988727159798145
1.7275292366621174e+18,0.0008649688679724932,0.002047295216470957,0.005103880539536476
1.7275292366681175e+18,0.0021312313620001078,0.00011991814244538546,-0.0005862268153578043
1.7275292366711176e+18,0.0009271960007026792,-0.00025171396555379033,0.00023356406018137932
1.7275292366771177e+18,0.003963711205869913,0.0007132021710276604,0.0021982702892273664
1.7275292366831178e+18,0.0015391535125672817,-0.0013727823970839381,0.0027862766291946173
1.727529236686118e+18,-0.000972692621871829,-0.0018123046029359102,0.0012738294899463654
1.727529236692118e+18,0.0019249690230935812,0.00019346829503774643,0.002343399217352271
1.7275292366981181e+18,0.0018062979215756059,0.0014917355729267001,0.0018376308726146817
1.7275292367041183e+18,0.0025449697859585285,0.0005084971198812127,0.0030731114093214273
1.7275292367101184e+18,0.0028427427168935537,0.0001265799510292709,0.0023143133148550987
1.7275292367131185e+18,-0.001404804177582264,-0.00015482428716495633,0.0031819615978747606
1.7275292367191186e+18,0.00035678563290275633,0.0005057150847278535,0.0017300478648394346
1.7275292367251187e+18,0.002918734448030591,-0.0006305850693024695,0.003590129781514406
1.7275292367311188e+18,-8.879497181624174e-05,-0.0008244552300311625,0.0011664689518511295
1.727529236734119e+18,0.000837759580463171,0.0023875569459050894,0.001706049544736743
1.727529236740119e+18,-0.00485069677233696,0.001662880415096879,0.0023934904020279646
1.7275292367461192e+18,0.0006494966801255941,-0.0011096106609329581,0.003753870027139783
1.7275292367521193e+18,0.000591302989050746,-0.002073918003588915,0.0012301139067858458
1.7275292367551194e+18,-0.0015520707238465548,-0.0007867070380598307,0.0038719107396900654
1.7275292367611195e+18,-0.0018219295889139175,-0.001529956003651023,0.004213713575154543
1.7275292367671196e+18,0.001545581268146634,-0.0030691586434841156,0.00481970002874732
1.7275292367731197e+18,0.000969765183981508,-0.003094104351475835,0.002904697321355343
1.7275292367791199e+18,0.0029125898145139217,-0.0015319089870899916,0.004764554090797901
1.72752923678212e+18,0.005632887594401836,-0.002491616178303957,0.001825194340199232
1.72752923678812e+18,0.0022700296249240637,-0.0007574347546324134,0.002911624498665333
1.7275292367941202e+18,0.0017389417625963688,0.0008833504980430007,0.004907800815999508
1.7275292367971203e+18,-0.002698638942092657,-0.0014162013540044427,0.004259845241904259
1.7275292368031204e+18,-0.0015137969749048352,0.0035226389300078154,0.005303436890244484
1.7275292368091205e+18,-0.0027547632344067097,-0.00017596303950995207,0.004217128269374371
1.7275292368151206e+18,-0.00379398581571877,-0.0016777906566858292,0.005546232685446739
1.7275292368211208e+18,-0.0040653664618730545,-0.0022167048882693052,0.003106076968833804
1.7275292368241208e+18,-0.003986493684351444,-0.001703852554783225,0.004006178583949804
1.727529236830121e+18,-0.0037476287689059973,-0.002055173274129629,0.004170428030192852
1.727529236836121e+18,0.001092440215870738,-0.00032435532193630934,0.004935078788548708
1.7275292368421212e+18,-0.0005077073001302779,0.0007385999197140336,0.003517907578498125
1.7275292368481213e+18,-0.00033726682886481285,-0.0024659279733896255,0.005643409211188555
1.7275292368511214e+18,-0.003892662934958935,-0.0022571501322090626,0.004741586744785309
1.7275292368571215e+18,0.0012632071739062667,-0.0003784562286455184,0.0014356509782373905
1.7275292368631217e+18,0.0019057844765484333,0.003231431357562542,0.004454541951417923
1.7275292368691218e+18,0.003070483449846506,-0.0006680564256384969,0.004691381473094225
1.727529236875122e+18,-0.0025657895021140575,0.0015494362451136112,0.0028040739707648754
1.727529236878122e+18,-0.0005351152503862977,0.0016795772826299071,0.004358693491667509
1.727529236884122e+18,0.002149515086784959,-0.00024718011263757944,0.004492644220590591
1.7275292368901222e+18,-0.00185252889059484,-0.0014635911211371422,0.004458057228475809
1.7275292368931223e+18,-0.002023512963205576,-0.0025594811886548996,0.003627058584243059
1.7275292368991224e+18,-0.0028987773694097996,-0.001116729574277997,0.004162539262324572
1.7275292369051226e+18,-0.0028972546570003033,0.00011997541878372431,0.0015937681309878826
1.7275292369111227e+18,-0.0028694875072687864,0.0007377624278888106,0.003556284587830305
1.7275292369141228e+18,-0.0031879828311502934,0.0012986756628379226,0.003687312128022313
1.727529236920123e+18,-0.0017542068380862474,0.0034325318410992622,0.006976529490202665
1.727529236926123e+18,-0.0007922326331026852,0.0033261138014495373,0.0023686550557613373
1.7275292369321231e+18,-0.0015798896783962846,0.0009825894376263022,0.0057302601635456085
1.7275292369381233e+18,0.0015469864010810852,0.0013221654808148742,0.004490017890930176
1.7275292369411233e+18,0.0006881049484945834,0.00241984985768795,0.004123107064515352
1.7275292369471235e+18,0.001521215308457613,0.001106137060560286,0.005183031316846609
1.7275292369531236e+18,-0.0009832720970734954,0.002393071074038744,0.005987762939184904
1.7275292369591237e+18,0.003541505429893732,-0.0002591966185718775,0.006110009737312794
1.7275292369651238e+18,-0.001340242801234126,0.0009065547492355108,0.004224483855068684
1.727529236971124e+18,0.00044115795753896236,0.0004910020506940782,0.004548239521682262
1.727529236977124e+18,0.0036244390066713095,0.0018893340602517128,0.0009246638510376215
1.7275292369801242e+18,0.0037021341267973185,-0.00024602061603218317,0.005700603127479553
1.7275292369861243e+18,0.0015941925812512636,0.00042887870222330093,0.0012787615414708853
1.7275292369921244e+18,0.0012725760461762547,0.0016333353705704212,0.0028305898886173964
1.7275292369981245e+18,0.0021217691246420145,0.0006506213685497642,0.005663253366947174
1.7275292370041247e+18,0.002246143529191613,-0.0006763232522644103,0.005225598346441984
1.7275292370101248e+18,0.0036410854663699865,-0.00040884932968765497,0.003031760221347213
1.7275292370131249e+18,0.0036628004163503647,0.0002103812585119158,0.0047306884080171585
1.727529237019125e+18,0.0030774828046560287,0.001228730077855289,0.003002763260155916
1.727529237025125e+18,0.005799433682113886,0.0014384095557034016,0.004466009326279163
1.7275292370311252e+18,0.0009533213451504707,0.0015851948410272598,0.001801064470782876
1.7275292370371254e+18,-0.0009946066420525312,-0.0019844116177409887,0.004089921247214079
1.7275292370401254e+18,0.002201787428930402,0.001910820254124701,0.004538792185485363
1.7275292370461256e+18,-0.001883841585367918,1.9693863578140736e-05,0.005266733933240175
1.7275292370521257e+18,-0.003815172240138054,-0.004791507963091135,-0.000595510471612215
1.7275292370581258e+18,-0.0020942275878041983,-0.004827412310987711,0.005340936593711376
1.727529237061126e+18,-0.001595775131136179,-0.0010523817036300898,0.0007727432530373335
1.727529237067126e+18,0.0008889766177162528,-0.0027939756400883198,0.002228247933089733
1.7275292370731261e+18,0.0002890572650358081,-0.0012817466631531715,0.004066064953804016
1.7275292370791263e+18,0.003761820960789919,-0.002638500416651368,0.0023405184037983418
1.7275292370851264e+18,0.005321981851011515,-0.0019623623229563236,0.002356133656576276
1.7275292370881265e+18,0.0016267909668385983,-0.0022489819675683975,0.0008280749898403883
1.7275292370941266e+18,0.0039856918156147,-0.0017011634772643447,0.0026620961725711823
1.7275292371001267e+18,0.0018787829903885722,-0.003259738441556692,0.004715407732874155
1.7275292371061268e+18,0.0016561781521886587,-0.0033305068500339985,0.0016670629847794771
1.727529237112127e+18,-0.0009208357660099864,-0.002770116785541177,0.004184720106422901
1.727529237115127e+18,-0.0032202014699578285,-0.005065869074314833,0.0010282077128067613
1.7275292371211272e+18,-0.004144271370023489,-0.004500372335314751,0.004749495070427656
1.7275292371271273e+18,-0.003000806085765362,-0.002119386801496148,0.001479060621932149
1.7275292371301274e+18,-0.003266981104388833,-0.00443422794342041,0.001587189151905477
1.7275292371361275e+18,-0.001866523060016334,-0.0037033886183053255,0.004417273215949535
1.7275292371421276e+18,0.00015203689690679312,-0.0015709414146840572,0.0029219756834208965
1.7275292371481277e+18,0.0009020253783091903,-0.003128181677311659,0.0028728435281664133
1.727529237154128e+18,0.0014617863344028592,-0.006201055832207203,0.0036376570351421833
1.727529237157128e+18,0.002280409215018153,-0.0011399954091757536,0.0035143443383276463
1.727529237166128e+18,0.0009599932236596942,-0.004905329551547766,0.00515049509704113
1.7275292371691282e+18,0.0014711194671690464,-0.0017556563252583146,0.0034264428541064262
1.7275292371751283e+18,0.0008248668164014816,-0.002278719563037157,0.0033134922850877047
1.7275292371811284e+18,-0.00020671379752457142,-0.0016846308717504144,0.005581320263445377
1.7275292371871286e+18,0.0013148296857252717,-0.003278471762314439,0.001556948060169816
1.7275292371901286e+18,0.0019289333140477538,-0.0036985469050705433,0.0011404195101931691
1.7275292371961288e+18,3.3798860386013985e-05,-0.005144360475242138,0.003473270684480667
1.727529237202129e+18,-0.0007063130615279078,-0.0030418671667575836,0.00012838514521718025
1.727529237208129e+18,0.00027381395921111107,-0.0061296639032661915,0.0021998598240315914
1.727529237211129e+18,0.0030705269891768694,-0.0032393489964306355,0.003189969342201948
1.7275292372171292e+18,0.0033245254307985306,-0.005916783586144447,0.004397207405418158
1.7275292372231293e+18,0.004545547068119049,-0.002607878763228655,0.00022969581186771393
1.7275292372291295e+18,0.006090226117521524,-0.0020975975785404444,-0.0001751307863742113
1.7275292372351296e+18,0.006302890833467245,0.0009125079959630966,0.00132630520965904
1.7275292372381297e+18,0.004910614807158709,-0.0026254886761307716,0.0005439131055027246
1.7275292372441298e+18,0.003521103411912918,-0.0017804292729124427,0.0016672807978466153
1.72752923725013e+18,0.004538225010037422,-0.0021966632921248674,0.0008152524242177606
1.72752923725613e+18,0.002653517061844468,0.0015244861133396626,0.00017098430544137955
1.7275292372621302e+18,0.0037069893442094326,0.00018453673692420125,0.00011126382742077112
1.7275292372651302e+18,0.0028774095699191093,0.0023991642519831657,0.0024278350174427032
1.7275292372711304e+18,0.0038139785174280405,-0.001479403581470251,0.0038038170896470547
1.7275292372771305e+18,0.002762580756098032,0.001487193745560944,0.002473603468388319
1.7275292372831306e+18,0.0015930056106299162,-0.002870091237127781,0.0017190770013257861
1.7275292372891308e+18,0.001029216917231679,-0.0045688096433877945,-0.0006057510618120432
1.727529237295131e+18,0.0019164739642292261,-0.004317814949899912,0.00211851904168725
1.727529237298131e+18,0.007976503111422062,-0.0015550123061984777,0.00432074349373579
1.727529237304131e+18,0.0052232323214411736,-0.00647347467020154,0.0011744443327188492
1.7275292373101312e+18,0.005740806460380554,-0.003211413510143757,0.0040209935978055
1.7275292373161313e+18,0.006200022995471954,-0.004401169717311859,0.0037657469511032104
1.7275292373191314e+18,0.0026330100372433662,-0.004817222245037556,0.0012419400736689568
1.7275292373251315e+18,0.004083426669239998,-0.0010650483891367912,0.004287637770175934
1.7275292373311316e+18,-0.0007343984907492995,-0.0007490243297070265,0.001797518809325993
1.7275292373371318e+18,0.000714125344529748,-0.0034135065507143736,-0.001214595977216959
1.727529237343132e+18,0.0011786778923124075,-0.0037939634639769793,0.0030045968014746904
1.727529237346132e+18,0.00018315200577490032,-0.0008966962341219187,0.0010418795282021165
1.727529237352132e+18,0.00410851463675499,-0.002597428159788251,0.0016208398155868053
1.7275292373581322e+18,0.002847621450200677,-0.0060293106362223625,0.006006007082760334
1.7275292373611323e+18,0.007117253728210926,-0.0048838648945093155,0.00429397402331233
1.7275292373671324e+18,0.008740315213799477,-0.005452066659927368,0.006249647121876478
1.7275292373731325e+18,0.007710261736065149,-0.00048087933100759983,0.006578517146408558
1.7275292373791327e+18,0.0040437690913677216,-0.004784169606864452,0.0053916811011731625
1.7275292373851328e+18,0.005906704813241959,-0.001798288431018591,0.00714086415246129
1.7275292373881329e+18,0.005416592583060265,-0.0010832593543455005,0.005719658453017473
1.727529237394133e+18,0.001571577857248485,0.0012320950627326965,0.005040544550865889
1.727529237400133e+18,0.001371544785797596,0.0011705734068527818,0.004067461006343365
1.7275292374061332e+18,0.00015149649698287249,0.001339697977527976,0.007453090976923704
1.7275292374121334e+18,0.0013530163560062647,-0.0019022084306925535,0.008261553943157196
1.7275292374151334e+18,-4.2943982407450676e-05,-0.0009232258889824152,0.0050644041039049625
1.7275292374211336e+18,-6.29783608019352e-05,-0.0006229740683920681,0.003449005074799061
1.7275292374271337e+18,0.005540016107261181,0.0003477086720522493,0.0073138074949383736
1.7275292374331338e+18,0.0005057819653302431,-0.00034565950045362115,0.005552057642489672
1.727529237436134e+18,0.0053274547681212425,-0.0013287011533975601,0.005407514050602913
1.727529237442134e+18,0.005194186232984066,-0.0013979922514408827,0.005859023425728083
1.7275292374481341e+18,0.006016151048243046,-0.0022201412357389927,0.004378676414489746
1.7275292374541343e+18,0.0049071782268583775,0.004033335484564304,0.005106210708618164
1.7275292374601344e+18,0.0037087886594235897,-0.00010536884656175971,0.0019312199437990785
1.7275292374631345e+18,0.004314364865422249,-0.000645538792014122,0.0025614332407712936
1.7275292374691346e+18,0.002481156960129738,-0.0019217770313844085,0.0039658453315496445
1.7275292374751347e+18,0.0013778989668935537,-0.0006783821154385805,0.003984421491622925
1.7275292374811348e+18,0.0025994437746703625,-0.00014663179172202945,0.007053470239043236
1.727529237487135e+18,0.0024561479222029448,-0.0019173503387719393,0.003131886012852192
1.727529237490135e+18,0.0013824827037751675,-0.002649074885994196,0.0032754126004874706
1.7275292374961352e+18,0.0028512421995401382,0.00025719008408486843,0.0031907050870358944
1.7275292375021353e+18,0.0014992302749305964,-0.0011995245004072785,0.0003908888902515173
1.7275292375081354e+18,0.0029148831963539124,-0.00019355665426701307,0.0027128681540489197
1.7275292375141356e+18,0.003063384210690856,-0.0018231584690511227,0.0043483637273311615
1.7275292375171356e+18,0.001013018423691392,-0.002295640530064702,0.0011522856075316668
1.7275292375231357e+18,0.003201729618012905,-0.00048064091242849827,0.002156588714569807
1.7275292375291359e+18,-0.00023640808649361134,-0.0036723099183291197,0.003021742682904005
1.727529237535136e+18,0.0037453658878803253,-0.005803889594972134,0.0010259384289383888
1.727529237538136e+18,0.005373883061110973,-0.00010279379785060883,0.0017350438283756375
1.7275292375441362e+18,0.004108383785933256,0.0009503981564193964,0.0006121887709014118
1.7275292375501363e+18,0.0022006528452038765,-0.003561238758265972,-7.224662113003433e-05
1.7275292375561364e+18,0.0034985272213816643,-0.001239753793925047,-0.0005772970034740865
1.7275292375591365e+18,0.0055430009961128235,-0.0038533369079232216,0.0003736846847459674
1.7275292375651366e+18,0.002311126794666052,-0.0020002571400254965,-0.00014858265058137476
1.7275292375711368e+18,0.0018910691142082214,-0.001914028893224895,-0.0006123022176325321
1.727529237577137e+18,0.002983899787068367,-0.002192968502640724,-0.0007167072617448866
1.727529237583137e+18,0.0008517915266565979,-0.002749866107478738,0.0017811051802709699
1.727529237586137e+18,0.0002263702335767448,-0.003393089398741722,0.0013776893028989434
1.7275292375921372e+18,-0.0010272162035107613,-0.003408056916669011,-0.0022028640378266573
1.7275292375981373e+18,0.0012767140287905931,-0.0028340118005871773,-0.0001888266997411847
1.7275292376041375e+18,0.0015893916133791208,-0.00419276487082243,-0.0014946009032428265
1.7275292376101376e+18,0.0037396757397800684,-0.001984633272513747,0.0032804927323013544
1.7275292376131377e+18,0.003975784406065941,-0.0020854854956269264,0.0016989554278552532
1.7275292376191378e+18,0.004643322434276342,-0.00418150145560503,0.0014461878454312682
1.727529237625138e+18,0.004030928481370211,-0.0033974796533584595,0.0026930891908705235
1.727529237631138e+18,0.0030742106027901173,-0.003321005031466484,0.0033749863505363464
1.727529237634138e+18,0.004802340175956488,-0.0037097942549735308,0.0027175762224942446
1.7275292376401382e+18,0.003830003784969449,-0.006985403597354889,0.0034961183555424213
1.7275292376461384e+18,0.004237540066242218,-0.004159325268119574,0.0033437376841902733
1.7275292376491384e+18,0.00441537331789732,-0.007311388850212097,0.0029027145355939865
1.7275292376551386e+18,0.0027412408962845802,-0.004973968956619501,0.002961677499115467
1.7275292376611387e+18,0.0003422647132538259,-0.005728821735829115,0.002637248020619154
1.7275292376671388e+18,0.002004773821681738,-0.0041351052932441235,0.003338106442242861
1.727529237670139e+18,0.0003215527394786477,-0.002256945241242647,0.006499230861663818
1.727529237676139e+18,0.002244433620944619,-1.7700018361210823e-05,0.006085976958274841
1.7275292376821391e+18,0.002296167192980647,-0.002993222326040268,0.005748971365392208
1.7275292376881393e+18,0.002656155964359641,-0.002354340860620141,0.007952158339321613
1.7275292376941394e+18,0.005150539800524712,-0.003890757216140628,0.010816128924489021
1.7275292376971395e+18,0.003939203452318907,-0.00285952165722847,0.009032396599650383
1.7275292377031396e+18,0.001645041280426085,-0.0034455126151442528,0.0071471380069851875
1.7275292377091397e+18,-0.0034149857237935066,-0.005736437626183033,0.007380436174571514
1.7275292377151398e+18,-0.0018559853779152036,-0.005397523753345013,0.009013136848807335
1.72752923772114e+18,-0.000739739800337702,-0.005725689232349396,0.011477676220238209
1.72752923772414e+18,0.0015692900633439422,-0.004961653612554073,0.008721444755792618
1.7275292377301402e+18,-0.0029422850348055363,-0.007666665129363537,0.01358100026845932
1.7275292377361403e+18,-0.0008923427085392177,-0.005139971151947975,0.015088222920894623
1.7275292377421404e+18,0.0013750785728916526,-0.0037144722882658243,0.014700415544211864
1.7275292377451405e+18,0.002714778296649456,-0.0038074911572039127,0.01784469187259674
1.7275292377511406e+18,0.004553440026938915,-0.006036845967173576,0.014913614839315414
1.7275292377571407e+18,0.00027903541922569275,-0.001129702664911747,0.018626196309924126
1.7275292377631409e+18,0.004309022333472967,-0.005536399781703949,0.01740466058254242
1.727529237766141e+18,0.0013903778744861484,-0.006785528268665075,0.01778699830174446
1.727529237772141e+18,0.002289852127432823,-0.004417823161929846,0.022316301241517067
1.7275292377781412e+18,0.004008082207292318,-0.0035388111136853695,0.021514395251870155
1.7275292377841413e+18,0.0020533849019557238,-0.00825708732008934,0.02104279398918152
1.7275292377901414e+18,0.0011278075398877263,-0.00693818973377347,0.017555145546793938
1.7275292377961416e+18,0.0016921814531087875,-0.008849769830703735,0.023177796974778175
1.7275292377991416e+18,0.001893340377137065,-0.007915164344012737,0.024189071729779243
1.7275292378051418e+18,-7.338088471442461e-05,-0.004830420482903719,0.026159418746829033
1.727529237811142e+18,0.0016382120084017515,-0.00503265205770731,0.025954904034733772
1.727529237817142e+18,0.001031097024679184,-0.007597241550683975,0.026934530586004257
1.7275292378231421e+18,0.0027291844598948956,-0.002617333782836795,0.028775522485375404
1.7275292378261422e+18,0.0010870927944779396,-0.006041798274964094,0.03146294876933098
1.7275292378321423e+18,0.000423607649281621,-0.0067298198118805885,0.03151974827051163
1.7275292378381425e+18,0.0013931712601333857,-0.0077548520639538765,0.03163192793726921
1.7275292378441426e+18,0.004080071114003658,-0.006978789810091257,0.032946035265922546
1.7275292378501427e+18,0.0036319231148809195,-0.007835310883820057,0.03365972265601158
1.7275292378561428e+18,0.0033080833964049816,-0.0046378085389733315,0.032837990671396255
1.727529237859143e+18,0.001158407423645258,-0.005136956926435232,0.035906579345464706
1.727529237865143e+18,0.0037295082584023476,-0.0023308813106268644,0.034765131771564484
1.7275292378711432e+18,0.004290455020964146,-0.001441838452592492,0.034977588802576065
1.7275292378741432e+18,0.004902965854853392,-0.003191517200320959,0.03998301923274994
1.7275292378801434e+18,0.004567434079945087,-0.0029423735104501247,0.037756215780973434
1.7275292378861435e+18,0.005237673409283161,-0.002175978384912014,0.03701680898666382
1.7275292378921436e+18,0.005448043346405029,-0.004861833993345499,0.03923935815691948
1.7275292378981437e+18,0.004159210249781609,-0.004781926516443491,0.04466116055846214
1.7275292379011438e+18,0.005544313229620457,-0.003620855277404189,0.03849683701992035
1.727529237907144e+18,0.011125175282359123,-0.0029539489187300205,0.043013229966163635
1.727529237913144e+18,0.00811827089637518,-0.0035670080687850714,0.04213478043675423
1.7275292379191442e+18,0.008502730168402195,-0.003558364463970065,0.04399120435118675
1.7275292379221443e+18,0.0026678568683564663,-0.003426449839025736,0.04368121549487114
1.7275292379281444e+18,0.005968072917312384,-0.0037201177328824997,0.043271489441394806
1.7275292379341445e+18,0.008662935346364975,-0.004222564399242401,0.04604620859026909
1.7275292379371446e+18,0.006706919986754656,-0.001409633201546967,0.04558408632874489
1.7275292379431447e+18,0.01027586404234171,-0.003208660986274481,0.048020150512456894
1.7275292379491448e+18,0.007836670614778996,-0.0025884138885885477,0.04567922651767731
1.727529237955145e+18,0.006565701682120562,-0.0024558219593018293,0.04986434057354927
1.727529237961145e+18,0.009942837059497833,0.0016458483878523111,0.047009967267513275
1.7275292379671452e+18,0.006536869797855616,-0.0036222601775079966,0.05073501169681549
1.7275292379731453e+18,0.00649845227599144,-0.00019141798838973045,0.04747486114501953
1.7275292379791455e+18,0.006372054107487202,-0.006317212246358395,0.0490659661591053
1.7275292379851456e+18,0.00917951762676239,-0.0029512429609894753,0.052986029535532
1.7275292379881457e+18,0.012361818924546242,-0.004737346898764372,0.05243735760450363
1.7275292379941458e+18,0.008191381581127644,-0.0036058141849935055,0.04911002516746521
1.727529238000146e+18,0.009026951156556606,-0.004034833982586861,0.049218542873859406
1.727529238006146e+18,0.008203928358852863,-0.004244479816406965,0.051999010145664215
1.7275292380121462e+18,0.00904050562530756,-0.0028915053699165583,0.05199982598423958
1.7275292380181463e+18,0.0063042789697647095,-0.0037807393819093704,0.0521356500685215
1.7275292380241464e+18,0.010314433835446835,-0.004074685275554657,0.047675829380750656
1.7275292380301466e+18,0.00846004392951727,-0.0063509223982691765,0.051178451627492905
1.7275292380361467e+18,0.006651514209806919,-0.002311882795765996,0.05329173058271408
1.7275292380421468e+18,0.007948953658342361,-0.00538689736276865,0.05138842388987541
1.727529238045147e+18,0.008144045248627663,-0.006267870310693979,0.04901564493775368
1.727529238051147e+18,0.0038308624643832445,-0.007372971624135971,0.04793291911482811
1.7275292380571471e+18,0.006848886143416166,-0.006139409728348255,0.05125703662633896
1.7275292380631473e+18,0.0050306725315749645,-0.006754217203706503,0.04801855981349945
1.7275292380691474e+18,0.008203534409403801,-0.009092636406421661,0.048357438296079636
1.7275292380751475e+18,0.008825710043311119,-0.008557328023016453,0.04760094732046127
1.7275292380811476e+18,0.005363701842725277,-0.006736626382917166,0.04848092049360275
1.7275292380871478e+18,0.005767793394625187,-0.004890473559498787,0.0498431958258152
1.727529238093148e+18,0.0078313322737813,-0.003286430612206459,0.048891548067331314
1.727529238099148e+18,0.00823645293712616,-0.002930976916104555,0.04658138379454613
1.7275292381051482e+18,0.0037079353351145983,-0.0008581742877140641,0.04482143744826317
1.7275292381111483e+18,0.0078448336571455,-0.0025007412768900394,0.0460495799779892
1.7275292381171484e+18,0.008699965663254261,-0.0007952275336720049,0.04256006330251694
1.7275292381231485e+18,0.008742153644561768,-0.0024937905836850405,0.04524322971701622
1.7275292381291487e+18,0.008055148646235466,-0.004926455207169056,0.041735824197530746
1.7275292381351488e+18,0.00391105841845274,-0.006364304572343826,0.04182443395256996
1.727529238141149e+18,0.006683751940727234,-0.003037090180441737,0.040498726069927216
1.727529238147149e+18,0.006027054041624069,-0.005386614240705967,0.0395352803170681
1.7275292381531492e+18,0.0021793306805193424,-0.004797006491571665,0.040192216634750366
1.7275292381591493e+18,0.0005367880221456289,0.00020223343744874,0.03657161071896553
1.7275292381621494e+18,0.003040236420929432,-0.0016670747427269816,0.03691238909959793
1.7275292381681495e+18,0.005164872854948044,-0.0015423176810145378,0.035924796015024185
1.7275292381741496e+18,0.0012238307390362024,0.0002626050263643265,0.036104071885347366
1.7275292381801498e+18,0.003947019577026367,-0.003699586493894458,0.03398086130619049
1.72752923818615e+18,0.0074855429120361805,-0.0054506948217749596,0.035314977169036865
1.72752923819215e+18,0.0043551139533519745,-0.004018071573227644,0.03267305716872215
1.7275292381981501e+18,0.008343239314854145,-0.005175180733203888,0.03199019655585289
1.7275292382041503e+18,0.007717471104115248,-0.005838073790073395,0.034033771604299545
1.7275292382101504e+18,0.007015101611614227,-0.003931682091206312,0.031180402263998985
1.7275292382131505e+18,0.006818007677793503,-0.003141358494758606,0.02864930033683777
1.7275292382191506e+18,0.0076522850431501865,-0.00400590943172574,0.028090162202715874
1.7275292382251507e+18,0.004407309927046299,-0.0014932483900338411,0.028801394626498222
1.7275292382311508e+18,-0.0008270563557744026,-0.0018302600365132093,0.025824783369898796
1.727529238237151e+18,0.0033734263852238655,-0.004061566665768623,0.025021160021424294
1.727529238243151e+18,0.0021415972150862217,-0.004689143504947424,0.02156546711921692
1.7275292382491512e+18,0.0034771496430039406,-0.005629423540085554,0.023544957861304283
1.7275292382551514e+18,0.005058377981185913,-0.00734548456966877,0.022747749462723732
1.7275292382611515e+18,0.002345660235732794,-0.007057530339807272,0.01776079088449478
1.7275292382641516e+18,0.004772179760038853,-0.007066555321216583,0.018345458433032036
1.7275292382701517e+18,0.0057432218454778194,-0.005005282815545797,0.018721194937825203
1.7275292382761518e+18,0.00510122487321496,-0.0064740548841655254,0.017878729850053787
1.727529238282152e+18,0.0042718807235360146,-0.004089839290827513,0.014664199203252792
1.727529238288152e+18,0.006810440681874752,-0.005257831420749426,0.015049423091113567
1.7275292382941522e+18,0.0014711541589349508,-0.00827699527144432,0.016173748299479485
1.7275292383001523e+18,0.005714628845453262,-0.005106363911181688,0.013125830329954624
1.7275292383031524e+18,0.006317967548966408,-0.0038993265479803085,0.012513438239693642
1.7275292383091525e+18,0.005318513140082359,-0.003504927270114422,0.013459448702633381
1.7275292383151526e+18,0.005935576278716326,-0.005894947797060013,0.010089279152452946
1.7275292383181527e+18,0.005448042880743742,-0.005958085414022207,0.008050055243074894
1.7275292383241528e+18,0.0036287540569901466,-0.006424421910196543,0.008766918443143368
1.727529238330153e+18,0.0040452866815030575,-0.00952878687530756,0.005247700959444046
1.727529238336153e+18,0.0015553634148091078,-0.008732933551073074,0.005400331690907478
1.7275292383421532e+18,0.004580922890454531,-0.009230690076947212,0.0013405932113528252
1.7275292383451533e+18,0.004809246398508549,-0.007547931279987097,0.0057377684861421585
1.7275292383511534e+18,0.0035151392221450806,-0.009328077547252178,0.002287323586642742
1.7275292383571535e+18,0.005598844960331917,-0.005464004818350077,0.0026675527915358543
1.7275292383631537e+18,0.0050350818783044815,-0.0064482009038329124,0.002131589688360691
1.7275292383691538e+18,0.0010265104938298464,-0.004672069102525711,-0.0026700973976403475
1.7275292383721539e+18,0.002497137524187565,-0.005891815759241581,-0.002694308292120695
1.727529238378154e+18,0.0019989844877272844,-0.0062194522470235825,-0.0011474937200546265
1.727529238384154e+18,0.0012414971133694053,-0.004998432006686926,-0.002835159655660391
1.7275292383901542e+18,0.0015298337675631046,-0.00813094899058342,-0.0036541642621159554
1.7275292383961544e+18,0.002326588612049818,-0.006111930124461651,-0.007074649445712566
1.7275292383991544e+18,0.001799271791242063,-0.004169744439423084,-0.005969680845737457
1.7275292384051546e+18,0.0008375520119443536,-0.008305860683321953,-0.008105257526040077
1.7275292384111547e+18,0.003105689072981477,-0.008029237389564514,-0.004314528778195381
1.7275292384141548e+18,0.0012153858551755548,-0.00658031040802598,-0.006255533546209335
1.727529238420155e+18,0.0028433878906071186,-0.004335956647992134,-0.009977073408663273
1.727529238426155e+18,0.0002127257757820189,-0.01047524157911539,-0.010936913080513477
1.7275292384321551e+18,0.0026884074322879314,-0.009581837803125381,-0.008989984169602394
1.7275292384381553e+18,0.00030667369719594717,-0.0058886390179395676,-0.01272137463092804
1.7275292384411553e+18,0.002689269371330738,-0.007101648487150669,-0.010791433043777943
1.7275292384471555e+18,-0.0011169592617079616,-0.006178067531436682,-0.012940512038767338
1.7275292384531556e+18,0.003468090668320656,-0.007440201938152313,-0.014122914522886276
1.7275292384591557e+18,0.0032480957452207804,-0.006600572727620602,-0.016394678503274918
1.7275292384621558e+18,0.0004761453019455075,-0.010612590238451958,-0.015086621046066284
1.727529238468156e+18,0.00448269909247756,-0.007916280068457127,-0.016263894736766815
1.727529238474156e+18,0.004195732064545155,-0.009625482372939587,-0.016444053500890732
1.7275292384801562e+18,0.00461402116343379,-0.0057370420545339584,-0.01786242611706257
1.7275292384831562e+18,0.0029868127312511206,-0.01039199624210596,-0.018116503953933716
1.7275292384891564e+18,-0.0008212313987314701,-0.00867157056927681,-0.019576799124479294
1.7275292384951565e+18,0.0010418281890451908,-0.009271737188100815,-0.01582770049571991
1.7275292385011566e+18,0.0007527266279794276,-0.0016750679351389408,-0.0226132869720459
1.7275292385041567e+18,-0.002634812844917178,-0.0034086848609149456,-0.022155797109007835
1.7275292385101568e+18,-0.001822177437134087,0.000760131748393178,-0.018882961943745613
1.727529238516157e+18,0.004971656948328018,-0.003934341948479414,-0.026769859716296196
1.727529238522157e+18,-2.69751762971282e-05,-0.0013930796412751079,-0.023422015830874443
1.7275292385281572e+18,0.0028397943824529648,-0.003585071535781026,-0.024344731122255325
1.7275292385311572e+18,0.0009033532114699483,-0.003434829879552126,-0.02431614138185978
1.7275292385371574e+18,0.004013890866190195,-0.006152454763650894,-0.02473202534019947
1.7275292385431575e+18,-0.00023355986922979355,-0.0037726550363004208,-0.027994008734822273
1.7275292385491576e+18,0.003254260402172804,-0.0049046981148421764,-0.0287199467420578
1.7275292385521577e+18,0.004789440892636776,-0.0056782676838338375,-0.02907388284802437
1.7275292385581578e+18,-0.00024212116841226816,-0.0046307104639709,-0.03155674412846565
1.727529238564158e+18,8.554582018405199e-05,-0.002243292285129428,-0.03249675780534744
1.727529238570158e+18,0.0033177209552377462,-0.005305388942360878,-0.02973944880068302
1.7275292385761582e+18,0.005027077626436949,-0.009568419307470322,-0.03304997459053993
1.7275292385821583e+18,0.010861674323678017,-0.010297236032783985,-0.033102408051490784
1.7275292385851584e+18,0.013193760998547077,-0.015489134006202221,-0.033549077808856964
1.7275292385911585e+18,0.022431861609220505,-0.020126061514019966,-0.03469664976000786
1.7275292385971587e+18,0.0194865595549345,-0.023533117026090622,-0.0283046867698431
1.7275292386031588e+18,0.026222124695777893,-0.021362505853176117,-0.029914818704128265
1.7275292386061588e+18,0.02743816189467907,-0.02464596927165985,-0.02856108359992504
1.727529238612159e+18,0.025996826589107513,-0.025953806936740875,-0.03185052052140236
1.727529238618159e+18,0.024052996188402176,-0.021575551480054855,-0.03020959161221981
1.7275292386241592e+18,0.02119094505906105,-0.023606013506650925,-0.02917260304093361
1.7275292386301594e+18,0.02058202587068081,-0.022958975285291672,-0.02808743715286255
1.7275292386361595e+18,0.015844058245420456,-0.023746369406580925,-0.02831137180328369
1.7275292386391596e+18,0.01563914865255356,-0.01942133717238903,-0.028308728709816933
1.7275292386451597e+18,0.019343605265021324,-0.0246640183031559,-0.02860070765018463
1.7275292386511598e+18,0.020328201353549957,-0.025285789743065834,-0.028856782242655754
1.72752923865716e+18,0.022580960765480995,-0.028939198702573776,-0.02795722708106041
1.72752923866316e+18,0.02332237921655178,-0.02864525094628334,-0.02904827892780304
1.7275292386691602e+18,0.023265164345502853,-0.027902426198124886,-0.025915518403053284
1.7275292386721603e+18,0.02436855062842369,-0.025617368519306183,-0.0294930599629879
1.7275292386781604e+18,0.02147461287677288,-0.02637956291437149,-0.02616439014673233
1.7275292386841605e+18,0.024187622591853142,-0.024254539981484413,-0.0241846926510334
1.7275292386901606e+18,0.017785312607884407,-0.022252371534705162,-0.02350427582859993
1.7275292386961608e+18,0.017820047214627266,-0.024035107344388962,-0.026498472318053246
1.727529238702161e+18,0.013163119554519653,-0.020338186994194984,-0.02753698080778122
1.727529238705161e+18,0.01515195146203041,-0.02037179097533226,-0.025506824254989624
1.727529238711161e+18,0.012793336063623428,-0.022640584036707878,-0.02444259263575077
1.7275292387171612e+18,0.010956785641610622,-0.017415015026926994,-0.022604940459132195
1.7275292387231613e+18,0.015303097665309906,-0.01807541586458683,-0.023823050782084465
1.7275292387291615e+18,0.018356576561927795,-0.02019047923386097,-0.02559877187013626
1.7275292387351616e+18,0.01872447319328785,-0.018169572576880455,-0.02204165607690811
1.7275292387381617e+18,0.01736794225871563,-0.0175187848508358,-0.025520674884319305
1.7275292387441618e+18,0.016797028481960297,-0.01680346578359604,-0.022064676508307457
1.727529238750162e+18,0.017197640612721443,-0.015450679697096348,-0.022342106327414513
1.727529238756162e+18,0.014597314409911633,-0.013816694729030132,-0.02043513022363186
1.727529238759162e+18,0.013251785188913345,-0.012568090111017227,-0.02196561172604561
1.7275292387651622e+18,0.00654223095625639,-0.010133846662938595,-0.023814644664525986
1.7275292387711624e+18,0.009124528616666794,-0.007975215092301369,-0.020881714299321175
1.7275292387741624e+18,0.006101321894675493,-0.008513960987329483,-0.022235970944166183
1.7275292387801626e+18,0.002401223871856928,-0.011006919667124748,-0.021410860121250153
1.7275292387861627e+18,0.0020978376269340515,-0.0072036441415548325,-0.022591356188058853
1.7275292387921628e+18,0.0023330901749432087,-0.00690035242587328,-0.0216482263058424
1.727529238795163e+18,0.002984282560646534,-0.008776220493018627,-0.01943657174706459
1.727529238801163e+18,0.0032804927323013544,-0.005769149400293827,-0.02489704266190529
1.7275292388071631e+18,0.004021769389510155,-0.00709167355671525,-0.02268337644636631
1.7275292388131633e+18,0.004908388014882803,-0.004814805928617716,-0.020208656787872314
1.7275292388161633e+18,0.004063265398144722,-0.0038072061724960804,-0.021451527252793312
1.7275292388221635e+18,0.004146289546042681,-0.006412356626242399,-0.017323685809969902
1.7275292388281636e+18,0.005716280080378056,-0.0055153146386146545,-0.020281432196497917
1.7275292388341637e+18,0.003048479789867997,-0.001762008760124445,-0.02224409021437168
1.7275292388401638e+18,0.0013506601098924875,-0.002897705649957061,-0.018403368070721626
1.727529238843164e+18,0.003383736591786146,-0.0009749988093972206,-0.01719767041504383
1.727529238849164e+18,0.0011917511001229286,-0.002465083496645093,-0.016911273822188377
1.7275292388551642e+18,-0.0004300930304452777,-0.0008119004778563976,-0.019172843545675278
1.7275292388611643e+18,0.00017316752928309143,-0.00027269579004496336,-0.016634292900562286
1.7275292388641644e+18,-0.0023017218336462975,-0.0016156967030838132,-0.01685785874724388
1.7275292388701645e+18,0.0003060249728150666,-0.0019325517350807786,-0.01849186420440674
1.7275292388761646e+18,-0.0009360157418996096,-0.0005767123075202107,-0.017582830041646957
1.7275292388821647e+18,0.0007999084191396832,-0.0030202583875507116,-0.016156364232301712
1.7275292388881649e+18,0.00023243884788826108,-0.002543551614508033,-0.016188504174351692
1.727529238894165e+18,0.00040681438986212015,0.0029631787911057472,-0.01827259175479412
1.727529238897165e+18,0.0011191272642463446,0.0006317075458355248,-0.016723815351724625
1.7275292389031652e+18,-0.0013353470712900162,-0.0006704697152599692,-0.01515529677271843
1.7275292389091653e+18,0.0007639856776222587,0.0030576910357922316,-0.01681985706090927
1.7275292389151654e+18,-0.0017681048484519124,0.0024660916533321142,-0.015798985958099365
1.7275292389181655e+18,-0.0073517607524991035,0.003695109626278281,-0.01620841771364212
1.7275292389241656e+18,-0.005605216138064861,0.0025746345054358244,-0.01780126802623272
1.7275292389301658e+18,-0.008421393111348152,0.0052706655114889145,-0.015545268543064594
1.727529238936166e+18,-0.0032303265761584044,0.0022794478572905064,-0.013418734073638916
1.727529238939166e+18,-0.004597736522555351,0.0040515996515750885,-0.017280593514442444
1.727529238945166e+18,-0.0036488717887550592,0.0031760786660015583,-0.0162130668759346
1.7275292389511662e+18,-0.003811932634562254,0.0021572429686784744,-0.016345340758562088
1.7275292389571663e+18,-0.004563797265291214,0.002200916176661849,-0.014839161187410355
1.7275292389601664e+18,-0.004095291718840599,0.001957457046955824,-0.012751094065606594
1.7275292389661665e+18,-0.002363232895731926,0.005618334747850895,-0.016041170805692673
1.7275292389721667e+18,-0.005898177623748779,0.004537864122539759,-0.012360873632133007
1.7275292389781668e+18,-0.0035358075983822346,0.0034335306845605373,-0.014093846082687378
1.727529238984167e+18,-0.009547663852572441,0.006364412605762482,-0.015964874997735023
1.727529238987167e+18,-0.007008072454482317,0.00996799860149622,-0.015194490551948547
1.727529238993167e+18,-0.010499184019863605,0.00414676871150732,-0.01502517331391573
1.7275292389991672e+18,-0.008720390498638153,0.007560085039585829,-0.01579560898244381
1.7275292390051674e+18,-0.01157884206622839,0.004554808605462313,-0.013560935854911804
1.7275292390111675e+18,-0.007108290214091539,0.004693260882049799,-0.01590382121503353
1.7275292390171676e+18,-0.006207714322954416,0.004512228537350893,-0.0123835988342762
1.7275292390201677e+18,-0.004845351446419954,0.0031970730051398277,-0.013564376160502434
1.7275292390261678e+18,-0.005427710711956024,0.006409824825823307,-0.012359046377241611
1.727529239035168e+18,-0.0015831791097298265,0.004390619695186615,-0.01432066224515438
1.727529239038168e+18,-0.0008181091398000717,0.006764748599380255,-0.014517534524202347
1.7275292390441682e+18,-0.0034323374275118113,0.007701813243329525,-0.016300667077302933
1.7275292390501683e+18,-0.005472983233630657,0.008537746965885162,-0.013188529759645462
1.7275292390561684e+18,-0.007925637066364288,0.007526445668190718,-0.013020370155572891
1.7275292390621686e+18,-0.004512612242251635,0.007318233605474234,-0.011878899298608303
1.7275292390681687e+18,-0.003347197314724326,0.007928010076284409,-0.01253611221909523
1.7275292390711688e+18,-0.00682614091783762,0.006717683281749487,-0.012328731827437878
1.727529239077169e+18,-0.0035140356048941612,0.005886527709662914,-0.014588353224098682
1.727529239083169e+18,-0.00023856689222157001,0.0014960533007979393,-0.013907505199313164
1.7275292390891692e+18,0.0010995338670909405,0.004075272940099239,-0.011666539125144482
1.7275292390951693e+18,0.0005978659028187394,0.003827712731435895,-0.010645114816725254
1.7275292391011694e+18,0.001137821120209992,0.003119296859949827,-0.012250366620719433
1.7275292391041695e+18,0.0028019193559885025,0.006479626055806875,-0.013994014821946621
1.7275292391101696e+18,-0.00031314106308855116,0.008404148742556572,-0.01210540346801281
1.7275292391161697e+18,-0.003925608936697245,0.004725932609289885,-0.012179795652627945
1.7275292391221699e+18,-0.0013091195141896605,0.002156283240765333,-0.009657764807343483
1.72752923912517e+18,-0.0033454035874456167,0.006818907335400581,-0.011592046357691288
1.72752923913117e+18,-0.002961709164083004,0.0012139929458498955,-0.012283139862120152
1.7275292391371702e+18,-0.0011529689654707909,0.0049223871901631355,-0.009898844175040722
1.7275292391431703e+18,-0.006522997282445431,0.004844533279538155,-0.01007857546210289
1.7275292391491704e+18,-0.004327246453613043,0.004558247979730368,-0.013908139429986477
1.7275292391551706e+18,-0.002362283645197749,0.00564580736681819,-0.009398400783538818
1.7275292391611707e+18,0.00043782987631857395,0.005726447328925133,-0.012504848651587963
1.7275292391641708e+18,-0.0005957899265922606,0.00553533062338829,-0.009892419911921024
1.727529239170171e+18,-0.002089730929583311,0.004047410562634468,-0.012037909589707851
1.727529239176171e+18,-0.00018187490059062839,0.005892004817724228,-0.008928587660193443
1.7275292391821711e+18,-0.0026959117967635393,0.0020221653394401073,-0.008051544427871704
1.7275292391881713e+18,-0.002123653655871749,0.0014116993406787515,-0.009306034073233604
1.7275292391911713e+18,-0.004303411580622196,-0.0003109592944383621,-0.009439963847398758
1.7275292392001715e+18,-0.0021789337042719126,0.00014133728109300137,-0.011345927603542805
1.7275292392091717e+18,-0.005443767178803682,0.0023543594870716333,-0.009797153994441032
1.727529239218172e+18,-0.005051637068390846,0.0029163078870624304,-0.006989527493715286
1.727529239224172e+18,-0.0025093446020036936,0.004215901251882315,-0.010769945569336414
1.7275292392331722e+18,-0.0026157379616051912,0.0034857704304158688,-0.009667421691119671
1.7275292392421724e+18,-0.002244841307401657,0.005287704057991505,-0.011426554061472416
1.7275292392541727e+18,-0.0039850142784416676,0.0072726355865597725,-0.009070923551917076
1.7275292392631729e+18,-0.0037798001430928707,0.005307852290570736,-0.010846834629774094
1.727529239272173e+18,-0.0016937172040343285,0.005674232263118029,-0.010457726195454597
1.7275292392811732e+18,0.0003688902361318469,0.004170974716544151,-0.010776850394904613
1.7275292392871734e+18,-0.0008437694050371647,0.0024967999197542667,-0.010079635307192802
1.7275292392991736e+18,-0.0024990402162075043,0.005000288598239422,-0.008158748038113117
1.7275292393081738e+18,-0.0015769433230161667,0.0027986399363726377,-0.009058263152837753
1.727529239317174e+18,0.0008300147019326687,0.005811172537505627,-0.01106187142431736
1.7275292393261742e+18,-0.004652018658816814,0.003700194414705038,-0.008517667651176453
1.7275292393351744e+18,-0.0032926364801824093,0.004819323308765888,-0.009672864340245724
1.7275292393441746e+18,-0.002241414040327072,0.005166856572031975,-0.006900421809405088
1.7275292393531748e+18,-0.0032240930013358593,0.005632837302982807,-0.008604509755969048
1.727529239362175e+18,-0.0005804386455565691,0.002578731393441558,-0.008129672147333622
1.7275292393711752e+18,-0.0054976800456643105,0.004263590555638075,-0.006729485001415014
1.7275292393801754e+18,-0.008171334862709045,0.0021067913621664047,-0.0075084432028234005
1.7275292393891756e+18,-0.00640945415943861,0.004540280904620886,-0.009390500374138355
1.7275292393981757e+18,-0.008327232673764229,0.0016483974177390337,-0.006997674237936735
1.727529239407176e+18,-0.007421226240694523,0.0018300839001312852,-0.0063650826923549175
1.727529239416176e+18,-0.006339243147522211,0.0016734983073547482,-0.009883997961878777
1.7275292394221763e+18,-0.006286872085183859,0.00023224850883707404,-0.004734989255666733
1.7275292394311764e+18,-0.006036330480128527,1.83357042260468e-05,-0.005391183774918318
1.7275292394401766e+18,-0.0068145086988806725,0.0020424602553248405,-0.006853860802948475
1.7275292394491768e+18,-0.010865192860364914,0.0027987868525087833,-0.005739561282098293
1.727529239458177e+18,-0.009669856168329716,0.006507393438369036,-0.009623493999242783
1.7275292394671772e+18,-0.010565966367721558,0.004594458267092705,-0.007774284575134516
1.7275292394761774e+18,-0.012166162952780724,0.004899298306554556,-0.006517054978758097
1.7275292394851776e+18,-0.009118846617639065,0.0025540634524077177,-0.006116719450801611
1.7275292394941778e+18,-0.00737613532692194,-0.0005140488501638174,-0.004995560739189386
1.727529239503178e+18,-0.0074739656411111355,-0.001308427657932043,-0.007946040481328964
1.7275292395121782e+18,-0.010106440633535385,0.00196050014346838,-0.0074585056863725185
1.7275292395211784e+18,-0.008552659302949905,0.0058776033110916615,-0.008975319564342499
1.7275292395301786e+18,-0.011042628437280655,0.003269640263170004,-0.005285675171762705
1.7275292395391788e+18,-0.006992482580244541,0.005755302496254444,-0.005917565431445837
1.727529239548179e+18,-0.009684747084975243,0.003561399644240737,-0.004716840106993914
1.7275292395571791e+18,-0.00771720614284277,0.007921704091131687,-0.00512227276340127
1.7275292395661793e+18,-0.004729936830699444,0.005034466739743948,-0.00699982512742281
1.7275292395751795e+18,-0.0036188664380460978,0.0048198942095041275,-0.004400678910315037
1.7275292395841797e+18,-0.007116366643458605,0.001453546341508627,-0.005215800832957029
1.72752923959318e+18,-0.0055824220180511475,0.006251369137316942,-0.00848465971648693
1.72752923960218e+18,-0.00797969475388527,0.004656849429011345,-0.005442321766167879
1.7275292396111803e+18,-0.008847852237522602,0.0044546290300786495,-0.004078485071659088
1.7275292396171804e+18,-0.004968675784766674,0.00817791372537613,-0.007832731120288372
1.7275292396261806e+18,-0.00773613341152668,0.004233860410749912,-0.0038019432686269283
1.7275292396351808e+18,-0.0013483071234077215,0.006692667957395315,-0.0069441101513803005
1.727529239644181e+18,-0.004870244767516851,0.0038915867917239666,-0.005602557677775621
1.7275292396531812e+18,-0.0021700782235711813,0.003438487881794572,-0.004721787758171558
1.7275292396621814e+18,-0.005771990865468979,0.005186419002711773,-0.002685884013772011
1.7275292396711816e+18,-0.004216386936604977,0.007790792267769575,-0.004285205155611038
1.7275292396801818e+18,-0.004863893147557974,0.006551722530275583,-0.0027666129171848297
1.727529239689182e+18,-0.0036718840710818768,0.004425333812832832,-0.006368823815137148
1.7275292396981821e+18,0.0008065823931246996,0.004459984600543976,-0.0024041617289185524
1.7275292397041823e+18,-0.001756383222527802,0.003669730620458722,-0.005303737707436085
1.7275292397161825e+18,-0.0012520235031843185,0.005053384229540825,-0.004855668637901545
1.7275292397251827e+18,-0.0025411145761609077,0.002489052712917328,-0.0023247874341905117
1.7275292397311828e+18,-0.004282384179532528,0.006534039042890072,-0.0043750000186264515
1.727529239737183e+18,-0.006984017789363861,0.008215218782424927,-0.006108315661549568
1.7275292397461832e+18,-0.003261220408603549,0.0028815800324082375,-0.0029730917885899544
1.7275292397521833e+18,-0.005084896460175514,0.006886579096317291,-0.0031315332744270563
1.7275292397611835e+18,0.0007865761290304363,0.006709728389978409,-0.005206672940403223
1.7275292397701837e+18,0.0023286405485123396,0.00464649498462677,0.00010616984218358994
1.7275292397791839e+18,0.0029871349688619375,0.003863748861476779,-0.005254002287983894
1.727529239788184e+18,0.0007732140365988016,0.005356360226869583,-0.002257333369925618
1.7275292397971843e+18,-0.0002129185013473034,0.004659777972847223,-0.004393577575683594
1.7275292398061844e+18,-0.0037300498224794865,0.005011443048715591,-0.0031961998902261257
1.7275292398181847e+18,-0.00220177648589015,0.0020705510396510363,-0.004049629904329777
1.7275292398241848e+18,-0.003374385181814432,0.0037174834869802,-0.00425459211692214
1.727529239836185e+18,-0.0006875251419842243,0.001237618736922741,-0.0029660190921276808
1.7275292398421852e+18,0.0012906378833577037,0.003420633962377906,-0.002401703968644142
1.7275292398511854e+18,-0.0015786327421665192,0.002961591351777315,-0.004733165726065636
1.7275292398631857e+18,-0.005510629154741764,0.004476618953049183,-0.0030930310022085905
1.7275292398721859e+18,-0.0054044960997998714,0.00510728545486927,-0.0037888721562922
1.727529239881186e+18,-0.006939913611859083,0.006274005863815546,-0.0038268580101430416
1.7275292398901862e+18,-0.0058975620195269585,0.005228819325566292,-0.002892180811613798
1.7275292398961864e+18,-0.0016444099601358175,0.008790685795247555,-0.005171593744307756
1.7275292399051866e+18,-0.003603832796216011,0.00881136953830719,-0.0014882588293403387
1.7275292399171868e+18,-0.0017109161708503962,0.007416774518787861,-0.004683042876422405
1.727529239926187e+18,-0.0018332905601710081,0.005335632245987654,-0.0029846164397895336
1.7275292399351872e+18,-0.0007360153831541538,0.006688199937343597,-0.0033542057499289513
1.7275292399441874e+18,-0.0036317692138254642,0.004392605274915695,-0.0053812493570148945
1.7275292399531876e+18,-0.003312131855636835,0.0013666115701198578,-0.0034239564556628466
1.7275292399621878e+18,-0.0023770276457071304,0.0027849061880260706,-0.004297979641705751
1.727529239971188e+18,-0.0020549071487039328,0.002756541594862938,-0.0009859600104391575
1.7275292399801882e+18,-0.004728833679109812,-0.0007075710454955697,-0.0032104093115776777
1.7275292399921884e+18,-0.004524107091128826,0.002565355971455574,-0.005965433083474636
1.7275292399981885e+18,-0.0063790082931518555,0.0028924557846039534,-0.004712502472102642
1.7275292400071887e+18,-0.00221372046507895,0.0032905987463891506,-0.0032632076181471348
1.727529240016189e+18,-0.004158945754170418,-0.0008896478684619069,-0.003923354204744101
1.727529240025189e+18,-0.0035799634642899036,0.00399404251947999,-0.0036018001846969128
1.7275292400341893e+18,-0.004319671541452408,0.001628493657335639,-0.003354687476530671
1.7275292400431895e+18,-0.005239483900368214,0.0028479923494160175,-0.005279229488223791
1.7275292400521897e+18,-0.006023792549967766,0.0009930914966389537,-0.001909688115119934
1.72752924006119e+18,-0.0035828961990773678,0.0035613635554909706,-0.0033176857978105545
1.72752924007019e+18,-0.005225916858762503,0.003410535864531994,-0.0009526622015982866
1.7275292400791903e+18,-0.003064411459490657,0.003118857741355896,-0.003145964816212654
1.7275292400851904e+18,-0.0018962209578603506,0.00314131798222661,-0.003067851299419999
1.7275292400941906e+18,-0.002694609109312296,0.0025888816453516483,-0.0028741564601659775
1.7275292401031908e+18,-0.00203771167434752,0.0017820796929299831,-0.0035380723420530558
1.727529240115191e+18,-0.0018427573377266526,0.003214125521481037,-0.003611538792029023
1.7275292401241912e+18,3.3464981243014336e-05,0.0062621464021503925,-0.004554650280624628
1.7275292401301914e+18,0.001572813605889678,0.0062513770535588264,-0.0041580661199986935
1.7275292401391916e+18,0.0016916005406528711,0.0037612442392855883,-0.004813292995095253
1.7275292401481917e+18,0.0010862371418625116,0.005830866284668446,-0.0055480897426605225
1.727529240157192e+18,0.0032716752029955387,0.0035168337635695934,-0.0010877761524170637
1.727529240166192e+18,-0.0003113184357061982,0.005086017772555351,-0.0027974704280495644
1.7275292401721923e+18,-0.001375810126774013,0.0077369967475533485,-0.0025958034675568342
1.7275292401811924e+18,-0.0015547145158052444,0.011112038046121597,0.0019003560300916433
1.7275292401901926e+18,-0.0035800363402813673,0.010715956799685955,0.0008404231630265713
1.7275292401991928e+18,-0.0002696644514799118,0.010217886418104172,-0.0030486746691167355
1.727529240208193e+18,0.0009471253724768758,0.007622519973665476,-0.00151728349737823
1.7275292402171932e+18,0.0027106953784823418,0.007965568453073502,-0.0031151098664849997
1.7275292402261934e+18,0.0019947034306824207,0.007280794903635979,-0.00399363087490201
1.7275292402351936e+18,-0.0034824286121875048,0.006473574787378311,-0.0030939304269850254
1.7275292402441938e+18,0.00020331121049821377,0.0070027620531618595,-0.0020339335314929485
1.727529240253194e+18,-0.0008456967771053314,0.009892864152789116,-0.003029194660484791
1.7275292402621942e+18,-0.004104739520698786,0.007080365438014269,-0.002396772615611553
1.7275292402711944e+18,-0.0005494382930919528,0.007316495757550001,-0.0010066579561680555
1.7275292402801946e+18,-0.003299785777926445,0.005313647910952568,-0.0020377924665808678
1.7275292402891948e+18,0.0020230435766279697,0.008241558447480202,-0.003217051038518548
1.727529240298195e+18,-0.002044513588771224,0.00402655266225338,-0.0036450098268687725
1.7275292403071951e+18,-0.00025769323110580444,0.001590124680660665,-0.0016364275943487883
1.7275292403131953e+18,-0.00507326377555728,0.00219071377068758,0.0012200104538351297
1.7275292403221955e+18,-0.0034744718577712774,0.0036001340486109257,-0.0027847846504300833
1.7275292403311956e+18,-0.00591264758259058,0.0007409024983644485,-0.0015882507432252169
1.7275292403401958e+18,-0.0035767806693911552,0.0017398399068042636,-0.002181984717026353
1.727529240349196e+18,-0.00037281145341694355,0.004716763738542795,-0.00528069119900465
1.7275292403611963e+18,-0.0019031008705496788,0.001844374812208116,-0.005043569952249527
1.7275292403701965e+18,0.00047170405741780996,-0.0016557208728045225,-0.00446242094039917
1.7275292403791967e+18,-0.0011415067128837109,-0.0013085254468023777,-0.0020789934787899256
1.7275292403851968e+18,0.001102707115933299,-0.002137955743819475,-0.00045722501818090677
1.727529240394197e+18,8.082715794444084e-05,0.0015112455002963543,-0.00365492538549006
1.7275292404031972e+18,-0.002335828263312578,0.0005649285740219057,-0.0030841014813631773
1.7275292404121974e+18,-0.00570838013663888,-7.397076115012169e-05,-0.0008401351515203714
1.7275292404211976e+18,-0.0009695056360214949,0.002277642022818327,-0.0006722402758896351
1.7275292404331978e+18,-0.004447159823030233,0.0036556608974933624,-0.0037110794801265
1.727529240442198e+18,-6.603985093533993e-05,0.0018675096798688173,-0.0028714220970869064
1.7275292404511982e+18,-0.0015404043952003121,0.005167837254703045,-0.003355505410581827
1.7275292404601984e+18,8.479849202558398e-05,0.002433116314932704,-0.0040542068891227245
1.7275292404691986e+18,-0.0004544718249235302,0.004219376482069492,-0.004581172950565815
1.7275292404781988e+18,0.003517030505463481,0.003722497494891286,-0.002059347229078412
1.727529240484199e+18,0.00046710390597581863,0.003937112167477608,-0.00017213751561939716
1.727529240493199e+18,0.0005292616551741958,0.005420743487775326,-0.002278816420584917
1.7275292405021993e+18,0.0011668598745018244,0.0026285150088369846,-0.0012423498556017876
1.7275292405141996e+18,-0.0007142997346818447,0.0034855271223932505,-0.0016346469055861235
1.7275292405231997e+18,-0.00021297333296388388,0.0002758000046014786,-0.001168922521173954
1.7275292405322e+18,-0.0009670244762673974,0.003878832096233964,-0.007057530805468559
1.7275292405382e+18,-0.002793964697048068,0.0023977751843631268,-0.0026849177666008472
1.7275292405442002e+18,-0.0009076204150915146,0.00420221546664834,-0.0011960382107645273
1.7275292405532004e+18,-0.0008744760416448116,0.0037574467714875937,-0.002666294341906905
1.7275292405622006e+18,-0.004781246185302734,0.005206813104450703,-0.003188658505678177
1.7275292405712008e+18,6.673019379377365e-05,0.003986726514995098,-0.0032536617945879698
1.727529240580201e+18,-0.004005554597824812,0.005381877534091473,-0.0031105687376111746
1.7275292405892012e+18,-1.702946610748768e-05,0.0025918292813003063,-0.0029232462402433157
1.7275292405982013e+18,-0.0027380979154258966,0.0005367908161133528,-0.0027894466184079647
1.7275292406072015e+18,-0.002664329018443823,0.00872444175183773,-0.0036636085715144873
1.7275292406162017e+18,-0.0008187876082956791,0.004793744534254074,-0.0006481518503278494
1.727529240625202e+18,-0.0038904319517314434,0.007366697769612074,-0.0027746418491005898
1.727529240634202e+18,-0.002460286021232605,0.0014966489979997277,-0.003539443016052246
1.7275292406402022e+18,-0.00045581767335534096,0.0038700164295732975,-0.002230976941064
1.7275292406492024e+18,-0.0033003445714712143,0.0004839043249376118,-0.0009690701263025403
1.7275292406582026e+18,-0.00110484822653234,-0.0007582985563203692,-0.0007405612850561738
1.7275292406672028e+18,-0.004009453114122152,0.0018125015776604414,-0.002087957691401243
1.727529240676203e+18,-0.004636221565306187,0.006318108178675175,-0.004262471571564674
1.7275292406852032e+18,-0.002905248198658228,0.002803441835567355,-0.0021976567804813385
1.7275292406942034e+18,0.000292899610940367,0.004793099593371153,0.0009864354506134987
1.7275292407002035e+18,0.0002805367694236338,0.0017570004565641284,-0.0016175960190594196
1.7275292407062036e+18,-0.0017290693940594792,0.00283513474278152,-0.0027477783150970936
1.7275292407122038e+18,0.0010543435346335173,-0.002634943462908268,-0.0025157034397125244
1.727529240721204e+18,-0.0008596963598392904,-0.0003578916657716036,-0.003148415358737111
1.727529240727204e+18,0.0003318164963275194,0.0033033201470971107,-0.0016853362321853638
1.7275292407392044e+18,0.0009076008573174477,0.0017723035998642445,-0.002452995628118515
1.7275292407482045e+18,-0.0006203532102517784,0.002246222458779812,-0.0014291740953922272
1.7275292407542047e+18,-0.002903028391301632,0.0024227434769272804,-0.0020587891340255737
1.7275292407632049e+18,-0.00016328826313838363,0.0009199678897857666,0.0007721695583313704
1.727529240769205e+18,-0.0025102226063609123,0.00398695794865489,-0.003556491108611226
1.7275292407812052e+18,0.0006938355509191751,0.002993146190419793,-0.0024833576753735542
1.7275292407872054e+18,-0.0016044504009187222,0.0014547413447871804,-0.0017342854989692569
1.7275292407962056e+18,-0.002528069308027625,-0.0005487228045240045,-0.002151225693523884
1.7275292408052058e+18,-0.0016252939822152257,0.0037907573860138655,-0.0026913289912045
1.727529240814206e+18,-0.0033818879164755344,0.002719865646213293,-0.001259448705241084
1.7275292408232061e+18,-0.0032718165311962366,0.0039389547891914845,-0.0027339765802025795
1.7275292408322063e+18,-0.0007019995246082544,0.005624851211905479,-0.0034807894844561815
1.7275292408412065e+18,-0.00218758056871593,0.004040870815515518,-0.0001726637128740549
1.7275292408502067e+18,0.0013500661589205265,0.007000003010034561,-0.0013332106173038483
1.727529240859207e+18,-0.00042700336780399084,0.002877638442441821,-0.004894303623586893
1.727529240865207e+18,-0.00010533013846725225,0.002463875338435173,-0.001988409087061882
1.7275292408742072e+18,-0.00029782066121697426,0.003070620121434331,-0.0007001255871728063
1.7275292408832074e+18,-0.003253102069720626,0.004071269184350967,-0.0029552720952779055
1.7275292408922076e+18,-0.002339583355933428,0.006335071288049221,-0.0006686089327558875
1.7275292408982077e+18,-0.0015218541957437992,0.0027495063841342926,-0.0002548793563619256
1.727529240907208e+18,0.0003694541519507766,0.00650528259575367,-0.003442114219069481
1.727529240916208e+18,0.003485602792352438,0.0038813978899270296,-0.0014078363310545683
1.7275292409252083e+18,0.00658081378787756,0.005135767161846161,-0.00225761067122221
1.7275292409312084e+18,0.00394545728340745,0.006890883203595877,-0.00036185653880238533
1.7275292409402086e+18,0.0028251525945961475,0.0035953654441982508,-0.004046131391078234
1.7275292409492088e+18,-0.0011920914985239506,0.004319167695939541,0.0013729084748774767
1.727529240958209e+18,-0.002558413427323103,-0.001847465056926012,-0.002573726698756218
1.7275292409672092e+18,-0.002172998385503888,0.00043787050526589155,-0.0032267291098833084
1.7275292409762094e+18,-0.0034676529467105865,0.002803700277581811,-0.0011553827207535505
1.7275292409852096e+18,0.002863936126232147,0.0006764871068298817,0.001755670877173543
1.7275292409912097e+18,0.004569556098431349,0.002132561057806015,-0.003049904014915228
1.72752924100021e+18,0.0051399278454482555,0.0029683024622499943,2.3834407329559326e-05
1.72752924100921e+18,0.0014327758690342307,0.003974127117544413,9.247311390936375e-05
1.7275292410182103e+18,-0.0002802256785798818,0.009449318051338196,-0.003337229136377573
1.7275292410272105e+18,-0.0014087933814153075,0.005821726284921169,-0.0024025514721870422
1.7275292410362107e+18,-0.004649939946830273,0.0037897643633186817,0.0007026195526123047
1.727529241045211e+18,-0.0015207792166620493,-0.0007177463266998529,-0.003091253340244293
1.727529241054211e+18,0.003713658545166254,-0.0007215711520984769,-0.0032260988373309374
1.7275292410632113e+18,0.002705893013626337,0.0010094870813190937,-0.0009283636463806033
1.7275292410722115e+18,0.0036419921088963747,-0.00045399845112115145,-0.0037690075114369392
1.7275292410812116e+18,0.0022927343379706144,0.002577156061306596,-0.0027178290765732527
1.7275292410902118e+18,-0.0006086362991482019,-0.0004859016044065356,-0.0006331986514851451
1.727529241099212e+18,-0.00510060740634799,-0.002915338845923543,-0.0006520786555483937
1.7275292411082122e+18,-0.0009951500687748194,-0.0007366593927145004,-0.0017716187285259366
1.7275292411172124e+18,-0.0009514245903119445,-0.0035219090059399605,0.0026850756257772446
1.7275292411262126e+18,0.0008995216339826584,-0.001755117205902934,-0.003588142804801464
1.7275292411352128e+18,0.004195342771708965,-0.001395968021824956,-0.002080680336803198
1.727529241144213e+18,0.005064154975116253,-0.0035569907631725073,0.0013175022322684526
1.7275292411562132e+18,0.0007486207759939134,0.0015172583516687155,-0.003926844336092472
