timestamp,gyro_x,gyro_y,gyro_z
1.72752961789225e+18,0.0018800938269123435,0.0007945064571686089,0.0005174271645955741
1.7275296179012503e+18,-0.000333237781887874,0.00042677455348894,0.0009719889494590461
1.7275296179042504e+18,0.0016748448833823204,0.00035970559110864997,-0.00014285603538155556
1.7275296179102505e+18,-0.0004928963026031852,-0.00022978470951784402,0.0003382787690497935
1.7275296179162506e+18,0.002879286650568247,0.0011204862967133522,0.005626465659588575
1.7275296179192507e+18,0.0004963197861798108,0.0026254376862198114,0.0006767896702513099
1.727529617928251e+18,0.00254107266664505,-0.001466169604100287,0.0006663716631010175
1.727529617931251e+18,0.001698549254797399,-0.0003044128243345767,0.00046019229921512306
1.727529617937251e+18,-1.5156385416048579e-05,0.001794696319848299,-0.00047501313383691013
1.7275296179432512e+18,0.0013956964248791337,-0.0010450836271047592,-0.00047357354196719825
1.7275296179462513e+18,-0.0023706841748207808,-0.0006955634453333914,0.001123296213336289
1.7275296179522514e+18,-4.317599814385176e-05,5.532004070119001e-05,0.000501177622936666
1.7275296179582515e+18,-0.0026583208236843348,0.0010571959428489208,-1.1080324838985689e-05
1.7275296179642516e+18,-0.00186433014459908,-0.0004237287794239819,-2.8168138669570908e-05
1.7275296179702518e+18,0.00011783601075876504,-0.0007170136668719351,0.0019223620183765888
1.727529617976252e+18,0.0003665628901217133,-0.00034979378688149154,-0.0034027299843728542
1.727529617982252e+18,-0.001924799638800323,-0.0002647200017236173,-0.001179430983029306
1.727529617985252e+18,-0.0008790237479843199,-3.7617646739818156e-05,0.0007908760453574359
1.7275296179912522e+18,-0.00016704117297194898,0.0009317207732237875,0.0019491094863042235
1.7275296179972524e+18,-0.00036431115586310625,-0.00035785994259640574,-0.0005930642946623266
1.7275296180032525e+18,-0.0013978108763694763,-0.001844943268224597,-0.0012093986151739955
1.7275296180092526e+18,-0.002277105813845992,0.0018174706492573023,-0.0008448942680843174
1.7275296180122527e+18,-0.0015215949388220906,0.0016904068179428577,0.0003707550640683621
1.7275296180212529e+18,-0.0002831511083059013,0.0017084734281525016,0.0062398239970207214
1.727529618024253e+18,-0.0007318760035559535,0.002652784576639533,0.0011683120392262936
1.727529618030253e+18,-0.0024996032007038593,0.0009214393212459981,-0.0011936217779293656
1.7275296180362532e+18,1.9046457964577712e-05,-0.0007986603304743767,0.001064405427314341
1.7275296180422533e+18,0.00125894823577255,-0.0010662769200280309,0.0014422094682231545
1.7275296180482534e+18,0.0010334787657484412,0.0030889916233718395,0.0002131325745722279
1.7275296180542536e+18,-0.0011272074189037085,0.0020621276926249266,0.0004926883848384023
1.7275296180602537e+18,-0.001289911917410791,-0.0010743866441771388,0.0003346974845044315
1.7275296180662538e+18,-0.00020646105986088514,-0.0014697258593514562,0.0007599227828904986
1.727529618069254e+18,-0.004086426459252834,0.0020157191902399063,0.0024008587934076786
1.727529618075254e+18,-0.0014580368297174573,0.002358008176088333,-0.00016308249905705452
1.7275296180812541e+18,0.0004953989409841597,-0.0008452721522189677,-0.0027019327972084284
1.7275296180842542e+18,0.0003352206840645522,-0.0006099308375269175,0.0007114800973795354
1.7275296180902543e+18,-0.0018588390666991472,-0.0004668124602176249,0.0006045734626241028
1.7275296180962545e+18,-0.0014654842671006918,0.0006832068902440369,-0.0018417020328342915
1.7275296181022546e+18,0.0009187622927129269,-0.0006461638258770108,0.0015870779752731323
1.7275296181052547e+18,0.0005571721121668816,0.0016982618253678083,0.0009566252701915801
1.7275296181112548e+18,0.0006669643917120993,0.001315387198701501,-0.001093916012905538
1.727529618117255e+18,0.00020375604799482971,-0.00042307889088988304,0.00033180005266331136
1.727529618123255e+18,0.0018495841650292277,0.0007349741645157337,0.0004082590457983315
1.7275296181292552e+18,0.0008915633661672473,-0.0007195340003818274,-0.0017100800760090351
1.7275296181352553e+18,-0.001656567445024848,-0.000509828794747591,0.001959007466211915
1.7275296181412554e+18,0.0009186926181428134,0.0034521198831498623,-0.0014180453727021813
1.7275296181442555e+18,-0.0007919127820059657,0.0006757092196494341,4.800955139216967e-05
1.7275296181502556e+18,0.0011353453155606985,1.4666446077171713e-05,-0.0006614180165342987
1.7275296181562557e+18,0.0006785507430322468,-0.0005291483830660582,-0.0008435847121290863
1.727529618162256e+18,1.5132161934161559e-05,-0.0009583326755091548,-0.0053394814021885395
1.727529618168256e+18,0.0008901252876967192,-0.0017354023875668645,0.0013119697105139494
1.727529618174256e+18,-0.0006557051092386246,-4.621998959919438e-05,0.0016699101543053985
1.7275296181772562e+18,0.0005680068861693144,0.0007940318901091814,0.0047776647843420506
1.7275296181832563e+18,0.00025274979998357594,-8.713774150237441e-06,0.0011265440843999386
1.7275296181892564e+18,-0.0020859104115515947,0.003020143136382103,0.00017534045036882162
1.7275296181952566e+18,0.00031345977913588285,0.0015796729130670428,-0.00016492506256327033
1.7275296182042568e+18,0.003712266916409135,-0.0006871172809042037,0.001108017866499722
1.727529618210257e+18,-0.0010259711416438222,6.604639202123508e-05,0.0014587268233299255
1.727529618213257e+18,0.0010943865636363626,0.0018636249005794525,0.001660773647017777
1.727529618219257e+18,-0.0011568744666874409,0.00017858555656857789,0.004627719987183809
1.7275296182252572e+18,0.0016591607127338648,-0.001042649382725358,-0.000598588609136641
1.7275296182312573e+18,-0.002625449560582638,-0.0007350920932367444,-0.0008657310390844941
1.7275296182372575e+18,0.0006144575891084969,-0.00047449578414671123,-0.0005865433486178517
1.7275296182432576e+18,0.0025199383962899446,-0.0030411197803914547,0.002706628292798996
1.7275296182492577e+18,-0.0013035242445766926,-0.0009179084445349872,0.0011591267539188266
1.7275296182552579e+18,7.894909504102543e-05,-0.0006960360333323479,0.001796998200006783
1.727529618261258e+18,0.003154406324028969,0.001084078336134553,0.0003474458062555641
1.727529618267258e+18,0.001897767186164856,-0.0001479453349020332,-0.000715631409548223
1.7275296182732582e+18,-0.0007329335785470903,2.671724905667361e-05,-0.00018881102732848376
1.7275296182792584e+18,-0.0031748716719448566,-0.00204608216881752,-0.0007636621594429016
1.7275296182852585e+18,0.0007442049100063741,-0.0001317240239586681,-0.0008363563101738691
1.7275296182882586e+18,-0.0007011113921180367,0.0005714492872357368,0.000665149709675461
1.7275296182942587e+18,-0.0017204198520630598,-0.002134863752871752,0.00013045543164480478
1.7275296183002588e+18,0.001404254580847919,0.004493451677262783,0.0014601621078327298
1.727529618306259e+18,0.0016833472764119506,0.0007703187293373048,-0.0010645219590514898
1.727529618312259e+18,-0.0010772069217637181,-0.0010871023405343294,-0.00012659269850701094
1.7275296183182592e+18,0.0001695373939583078,-0.0005543484585359693,0.0003310923057142645
1.7275296183242593e+18,-0.00316526647657156,-0.0023925588466227055,0.0004219870315864682
1.7275296183302595e+18,0.001899773022159934,-0.0001755609264364466,0.0008341141510754824
1.7275296183332595e+18,0.000448681297712028,-0.002777349203824997,-0.002456239890307188
1.7275296183392596e+18,-0.0004339381994213909,0.0007838162709958851,-0.00080997368786484
1.7275296183452598e+18,2.8982576623093337e-05,-0.00011536557576619089,0.00036722238291986287
1.72752961835126e+18,-0.0007839082973077893,0.0003152453573420644,0.0007841426995582879
1.72752961835726e+18,0.0010137052740901709,0.0006678454810753465,-9.905445767799392e-05
1.72752961836026e+18,-0.0002496836241334677,0.002148560481145978,0.00018403316789772362
1.7275296183662602e+18,-0.0007512534502893686,-1.0085090252687223e-05,-0.001568082021549344
1.7275296183722604e+18,0.00017892463074531406,-0.00018507202912587672,-0.0006581039051525295
1.7275296183782605e+18,-0.002270863391458988,0.0006061478634364903,0.002942281309515238
1.7275296183842606e+18,0.000415138085372746,0.00028347852639853954,-0.003062511794269085
1.7275296183902607e+18,-0.0011812057346105576,-0.00020411396690178663,-0.00040848180651664734
1.7275296183962609e+18,0.00040981327765621245,0.0010939103085547686,-0.0004798504232894629
1.727529618399261e+18,0.0006670425063930452,0.00146802410017699,-0.0003964930947404355
1.727529618405261e+18,0.0015091757522895932,-0.0017421640222892165,0.0008907077135518193
1.7275296184112612e+18,4.9683036195347086e-05,-0.00047316119889728725,-0.0005802442319691181
1.7275296184172613e+18,-0.0002780793874990195,-0.000682598096318543,-0.002082265680655837
1.7275296184202614e+18,0.0006340492400340736,0.0009122053743340075,-0.0006695393822155893
1.7275296184262615e+18,-0.0009094264241866767,-0.0025218746159225702,-0.0016262404387816787
1.7275296184322616e+18,0.0009360469994135201,-0.0018490242073312402,7.613033812958747e-05
1.7275296184352617e+18,-0.0006407494656741619,3.252518945373595e-05,-0.000370631372788921
1.7275296184412618e+18,-0.0019653274212032557,-0.0010551005834713578,-0.0006764371646568179
1.727529618447262e+18,-0.0023776288144290447,0.00022000068565830588,-0.001226928667165339
1.727529618453262e+18,-0.0006506262579932809,-0.0014584057498723269,0.00026306655490770936
1.7275296184562621e+18,0.001875531510449946,0.0021714044269174337,0.00012813786452170461
1.7275296184622623e+18,-0.001987436320632696,0.0013502293732017279,-0.00040048148366622627
1.7275296184682624e+18,-0.0011886799475178123,0.0026528111193329096,0.0002866722352337092
1.7275296184742625e+18,-0.0009452349622733891,0.001613673404790461,0.0015786063158884645
1.7275296184772626e+18,0.0028169071301817894,0.0038253774400800467,-0.001303467433899641
1.7275296184832627e+18,0.00013362745812628418,7.937815098557621e-05,0.0015367156593129039
1.7275296184892628e+18,0.0007146907737478614,-0.00012166563101345673,-0.0005853601032868028
1.727529618492263e+18,-0.001405533985234797,0.00018265108519699425,-0.0015628673136234283
1.727529618498263e+18,0.0018265270628035069,-0.0005239840247668326,9.519324521534145e-05
1.7275296185042632e+18,0.0033897566609084606,-0.002345786429941654,0.0007928661070764065
1.7275296185072632e+18,-0.003742686938494444,0.002019657753407955,0.00128777080681175
1.7275296185132634e+18,-0.00029887925484217703,0.0027781007811427116,-0.00128900574054569
1.7275296185192635e+18,-0.00014276964066084474,0.0016000596806406975,-0.00020384727395139635
1.7275296185252636e+18,-0.0017165279714390635,-0.0007494934252463281,-0.00035543119884096086
1.7275296185312637e+18,0.0007118832436390221,0.0005355712492018938,-0.0016356125706806779
1.7275296185342638e+18,-0.0009291471797041595,-0.00016965945542324334,0.0012277584755793214
1.727529618540264e+18,0.002828079741448164,-0.00048712565330788493,-0.0007514217868447304
1.727529618546264e+18,-0.00015254643221851438,0.0038091393653303385,-0.0021873963996767998
1.7275296185522642e+18,0.0022645271383225918,-0.0006942473701201379,0.00033237450406886637
1.7275296185552643e+18,-0.00033606556826271117,-0.0013593699550256133,0.0020194838289171457
1.7275296185612644e+18,-0.0004047586699016392,-0.0034473128616809845,0.0007564162369817495
1.7275296185672645e+18,-0.0029525584541261196,0.000637620803900063,-0.0004700321005657315
1.7275296185732646e+18,-0.001467560650780797,0.00196153880096972,-0.0002691971603780985
1.7275296185792648e+18,-0.002372395945712924,-0.000483847368741408,-0.0007186820148490369
1.7275296185822648e+18,-0.001992836594581604,0.001437149359844625,-0.0003122317139059305
1.727529618588265e+18,-0.00012838182738050818,-0.0005468411254696548,0.00043306784937158227
1.727529618594265e+18,0.0002071296621579677,0.001324366545304656,-0.0013318228302523494
1.7275296185972652e+18,-0.0017606117762625217,-0.0010259808041155338,0.00022167127463035285
1.7275296186032653e+18,2.1030880816397257e-05,0.00010779073636513203,-0.0008604814065620303
1.7275296186092654e+18,0.0021391569171100855,-0.0026731521356850863,-0.00010829843085957691
1.7275296186152655e+18,0.0014319854089990258,4.842628550250083e-05,0.0012824113946408033
1.7275296186182656e+18,-0.00098033354151994,-0.0027568701189011335,0.00031277473317459226
1.7275296186242657e+18,-0.00022183250985108316,0.0009691010927781463,-0.0014896000502631068
1.7275296186302659e+18,0.00023547712771687657,-0.00020491337636485696,0.0013767181662842631
1.727529618636266e+18,-0.000540885841473937,0.001167227397672832,-0.0012951222015544772
1.727529618642266e+18,0.001173869939520955,-0.0026340140029788017,-0.0019479377660900354
1.7275296186482662e+18,7.211705815279856e-05,0.001839406555518508,0.0016065100207924843
1.7275296186542664e+18,-0.0005623550969175994,0.000814691127743572,-0.000385906983865425
1.7275296186572664e+18,0.0038233452942222357,-0.001159645733423531,-0.00037589026032947004
1.7275296186632666e+18,0.0006947026122361422,0.0014367987168952823,-0.0022541426587849855
1.7275296186692667e+18,-0.0003860797150991857,-0.002061057835817337,0.0012389423791319132
1.7275296186722668e+18,-0.0014615323161706328,-0.000624554231762886,-0.00044026284012943506
1.727529618678267e+18,-0.0035036366898566484,0.0005594082758761942,4.2002982809208333e-05
1.727529618684267e+18,0.0014459979720413685,0.0009910856606438756,-0.001103649497963488
1.7275296186902671e+18,0.0015161811606958508,-0.001434947713278234,0.0012396982638165355
1.7275296186932672e+18,0.0022585445549339056,-6.670127913821489e-05,-0.0012768770102411509
1.7275296186992673e+18,0.003733489429578185,-0.0006603249348700047,0.002743570366874337
1.7275296187052675e+18,0.0011070335749536753,-0.0008592759259045124,0.00017696552095003426
1.7275296187082675e+18,-0.00027591202524490654,0.00033146896748803556,0.0010085133835673332
1.7275296187142676e+18,0.00013376076822169125,-0.0019407434156164527,-0.00020989793119952083
1.7275296187202678e+18,-0.0014962592395022511,0.0021296117920428514,0.0025203425902873278
1.727529618726268e+18,-0.0007620489923283458,0.0012270761653780937,0.0006667996640317142
1.727529618729268e+18,-0.000441219424828887,9.987269004341215e-05,0.001042420626617968
1.727529618735268e+18,0.0005420595407485962,0.00036271102726459503,0.0030343900434672832
1.7275296187412682e+18,-0.0004850740951951593,-0.0015119524905458093,0.0023184246383607388
1.7275296187472684e+18,-0.0009693801985122263,0.001014039502479136,0.003439642023295164
1.7275296187502684e+18,-0.0010398091981187463,0.0008143238956108689,-0.0003215466276742518
1.7275296187562685e+18,0.0004659421683754772,0.00013092253357172012,-4.202438867650926e-05
1.7275296187622687e+18,-0.00014546273450832814,-0.0005670995451509953,-0.002644582884386182
1.7275296187682688e+18,0.0007765821064822376,0.0015313592739403248,0.0015904110623523593
1.7275296187712689e+18,-4.931286093778908e-05,-0.0011036734795197845,-0.0019274259684607387
1.727529618777269e+18,-0.0022433921694755554,0.0004330000083427876,0.0007377570727840066
1.727529618783269e+18,0.0014975840458646417,0.0008323803776875138,0.0008452420588582754
1.7275296187892692e+18,0.001320675597526133,-0.0025174375623464584,-0.0010699111735448241
1.7275296187922693e+18,-0.00043921201722696424,0.0007308374624699354,-0.0011224752524867654
1.7275296187982694e+18,-0.0008476375951431692,-0.0013362078461796045,-0.0003782541607506573
1.7275296188042696e+18,-0.00036356106284074485,-0.0009350998443551362,0.00030104289180599153
1.7275296188102697e+18,-0.0005725591327063739,-0.001548294210806489,-0.0008715051808394492
1.7275296188132698e+18,0.0006817847024649382,0.001050348044373095,-0.0005226476932875812
1.72752961881927e+18,0.0006710400339215994,0.0012919149594381452,-0.0005703062633983791
1.72752961882527e+18,0.0012194698210805655,-0.0011583528248593211,0.00011768613330787048
1.7275296188312701e+18,0.0014242363395169377,0.000550194876268506,-0.0021704528480768204
1.7275296188372703e+18,0.0016769442008808255,0.0022478385362774134,0.0009093194967135787
1.7275296188402703e+18,0.0018318876391276717,-0.0006899242871440947,0.0018833971116691828
1.7275296188462705e+18,-0.0009470863733440638,0.0023010186851024628,-0.001192933996208012
1.7275296188522706e+18,0.0019655381329357624,0.0003542443155311048,-0.0020627148915082216
1.7275296188582707e+18,-0.00013962810044176877,0.0007923971279524267,0.001067606033757329
1.7275296188642708e+18,0.0010314843384549022,0.0002900298568420112,-0.0005737979663535953
1.727529618867271e+18,-0.0008381094085052609,-0.0019571897573769093,-0.0011834946926683187
1.727529618873271e+18,-0.0001874134613899514,-0.0024655249435454607,-0.0009281628299504519
1.7275296188792712e+18,0.0033409702591598034,0.001334451138973236,0.0008568221237510443
1.7275296188852713e+18,-0.000911853217985481,0.00043444891343824565,0.0012471356894820929
1.7275296188912714e+18,0.0005474251811392605,-0.00091215455904603,0.002413182519376278
1.7275296188942715e+18,-0.0006818901747465134,-0.00026626515318639576,7.753248792141676e-05
1.7275296189002716e+18,-0.000469434104161337,0.0017314584692940116,0.0013805804774165154
1.7275296189062717e+18,-0.0004680194251704961,-0.0003455552796367556,0.00023641886946279556
1.727529618912272e+18,1.0428144378238358e-05,0.0012435178505256772,0.00020879342628177255
1.727529618915272e+18,-0.0013254801742732525,-0.0002478802343830466,0.001498356694355607
1.727529618921272e+18,3.181553620379418e-05,0.00027340048109181225,-0.0018798895180225372
1.7275296189272722e+18,0.001664534560404718,0.002032375195994973,0.00017140856652986258
1.7275296189332723e+18,0.0006679564830847085,5.6322820455534384e-05,0.0005645398632623255
1.7275296189392724e+18,-0.0013781357556581497,-0.0006431470974348485,-2.759501694526989e-05
1.7275296189422725e+18,-0.0006307316944003105,-0.0020379081834107637,0.0009214141173288226
1.7275296189482726e+18,0.0004853626014664769,0.0017087459564208984,-0.000680680270306766
1.7275296189542728e+18,0.0014571783831343055,0.0005234659183770418,-0.002693774178624153
1.727529618960273e+18,0.001672692014835775,-0.0018549122614786029,-0.002058274345472455
1.727529618963273e+18,-0.0034151223953813314,-3.439611828071065e-05,-0.0015026836190372705
1.727529618969273e+18,-0.00048357280320487916,-0.0006233493331819773,0.0003186221874784678
1.7275296189752732e+18,0.0004085363179910928,-0.0005062849377281964,0.0024920462165027857
1.7275296189812733e+18,-0.00178000726737082,0.002069016918540001,0.00010854582797037438
1.7275296189872735e+18,-0.0010766317136585712,-0.0005885296268388629,0.0003857215924654156
1.7275296189902735e+18,-0.0032908418215811253,-0.0020858626812696457,-0.0004805862554349005
1.7275296189962737e+18,-0.0008085478912107646,0.00022923172218725085,-0.002601051004603505
1.7275296190022738e+18,0.0012139873579144478,0.0007723654853180051,0.0025178329087793827
1.727529619008274e+18,-0.001073680934496224,0.001684687682427466,0.0036534101236611605
1.727529619014274e+18,-0.0024992297403514385,-0.000501869770232588,0.0007428080425597727
1.727529619017274e+18,-0.0025524883531033993,0.004100112710148096,0.002402970101684332
1.7275296190232742e+18,-0.0036820396780967712,-0.00020882846729364246,0.0044845775701105595
1.7275296190292744e+18,0.001825147308409214,0.0009983853669837117,0.0004530102596618235
1.7275296190352745e+18,-0.0007120315567590296,-0.0023019055370241404,-0.0030886768363416195
1.7275296190412746e+18,0.00024016354291234165,0.001720709609799087,-0.0003627460973802954
1.7275296190442747e+18,-0.0009867807384580374,0.0010522707598283887,-0.00025238009402528405
1.7275296190502748e+18,0.0009133496787399054,-0.0010120976949110627,0.0012552498374134302
1.727529619056275e+18,-0.0021790468599647284,-0.0001287519553443417,-0.0004399000317789614
1.727529619062275e+18,0.0003867353079840541,-0.00022665564029011875,-0.0006679975194856524
1.7275296190652751e+18,0.0027243182994425297,-0.0011201746528968215,-0.0009200572385452688
1.7275296190712753e+18,-0.002588589210063219,-0.0009472903329879045,-0.0013516296166926622
1.7275296190772754e+18,0.00012211802823003381,0.0019288512412458658,-0.000782066723331809
1.7275296190832755e+18,0.00011885799904121086,0.0013560393126681447,0.0012102944310754538
1.7275296190862756e+18,-0.0003504783380776644,0.0007325903279706836,-0.001440983614884317
1.7275296190922757e+18,0.0006241293740458786,-0.002107680542394519,-0.0002487137680873275
1.7275296190982758e+18,-0.0005422425456345081,0.0004289108037482947,0.0015142818447202444
1.727529619104276e+18,0.0002460014948155731,-0.0001239529374288395,0.0002859298256225884
1.727529619107276e+18,-0.00036400099634192884,-0.0010218210518360138,-0.0012678183848038316
1.7275296191132762e+18,-0.0007797576254233718,0.00018156725855078548,-0.001093184226192534
1.7275296191192763e+18,0.0007928291452117264,6.380939885275438e-05,-0.0005240811151452363
1.7275296191252764e+18,0.0022170369047671556,0.0007209400064311922,0.0018909599166363478
1.7275296191282765e+18,-0.0016577723436057568,0.001610511215403676,-0.0014058786910027266
1.7275296191342766e+18,-0.0013920492492616177,0.0024858228862285614,-0.0005181425949558616
1.7275296191402767e+18,-0.003014372894540429,0.0008519602124579251,0.0006989770336076617
1.7275296191462769e+18,0.001352410763502121,-0.00019196170615032315,0.0037078780587762594
1.727529619149277e+18,0.002761303912848234,-0.00150298944208771,0.00020592493820004165
1.727529619155277e+18,-0.0007844101055525243,-0.001602313481271267,-0.0013799970038235188
1.7275296191612772e+18,0.00036776112392544746,0.0007799968007020652,-0.0009979556780308485
1.7275296191642772e+18,-0.0012588892132043839,0.0010471772402524948,0.00031640383531339467
1.7275296191702774e+18,-0.00033119175350293517,0.0003083209739997983,-0.00047994323540478945
1.7275296191762775e+18,0.0010332070523872972,-0.0005905651487410069,-0.0013059573248028755
1.7275296191822776e+18,-0.0009228502167388797,-0.0005419432418420911,-0.0006911496166139841
1.7275296191852777e+18,-0.0006326173315756023,0.0013189114397391677,-0.0011958654504269361
1.7275296191912778e+18,0.00032142180134542286,-0.002589561976492405,-0.0009138511959463358
1.727529619197278e+18,-0.0018533491529524326,0.0008966507157310843,0.0030162481125444174
1.727529619203278e+18,-0.0011134393280372024,0.0037751412019133568,0.0034042554907500744
1.7275296192062781e+18,0.002927761059254408,-0.0017054252093657851,0.003057163907214999
1.7275296192122783e+18,-0.0015726552810519934,0.0014926418662071228,0.00014466105494648218
1.7275296192182784e+18,-0.0006009300705045462,-0.0011155655374750495,0.001801972510293126
1.7275296192242785e+18,0.0009156129672192037,0.001165115158073604,-0.002865459071472287
1.7275296192272786e+18,0.0005839418736286461,-0.0013088304549455643,0.0004937121411785483
1.7275296192332787e+18,0.00194807059597224,-0.0025004963390529156,0.002197930356487632
1.7275296192392788e+18,0.00011707958037732169,0.002470121718943119,0.0010783912148326635
1.727529619245279e+18,0.0008880278328433633,-0.0002658906450960785,-0.0023156548850238323
1.727529619248279e+18,0.0016057243337854743,0.0026818872429430485,-0.001702138571999967
1.7275296192542792e+18,0.0014220348093658686,-5.6993176258401945e-06,-0.0003492110117804259
1.7275296192602793e+18,0.0006476510316133499,0.00012629730917979032,0.003684625495225191
1.7275296192662794e+18,-0.0009833064395934343,-0.0010017602471634746,-0.0004990104353055358
1.7275296192692795e+18,-0.0010823655175045133,5.608744686469436e-05,0.0023454774636775255
1.7275296192752796e+18,0.0004903049557469785,-0.0015430874191224575,-0.0012625682866200805
1.7275296192812797e+18,-0.0006474560941569507,0.0017996059032157063,0.001044480362907052
1.7275296192872799e+18,0.0018691773293539882,0.0005960689159110188,-0.0023534782230854034
1.72752961929328e+18,-0.0006861284491606057,-0.0017288820818066597,-0.0009091843385249376
1.72752961929628e+18,0.002177488524466753,-0.003340032184496522,0.0015850439667701721
1.7275296193022802e+18,-0.0006507252692244947,0.00041883933590725064,-0.00071562803350389
1.7275296193082803e+18,0.002681065583601594,-0.0017070757457986474,0.0016174920601770282
1.7275296193142804e+18,-0.0021602236665785313,0.0020104784052819014,0.0022034882567822933
1.7275296193172805e+18,-0.0029285636264830828,-0.0009631368448026478,-0.0008315968443639576
1.7275296193232806e+18,0.002836669562384486,0.0006346477312035859,-0.0009006359032355249
1.7275296193292808e+18,0.0013000452890992165,-0.0024913328234106302,0.0005250833928585052
1.727529619335281e+18,0.00015882914885878563,-0.0013208281015977263,-0.0010974648175761104
1.727529619338281e+18,9.688522550277412e-05,-0.0008424292900599539,0.0008722325437702239
1.727529619344281e+18,-0.0008047576411627233,-0.000583689077757299,-0.0028940686024725437
1.7275296193502812e+18,-0.0010872186394408345,0.0031518908217549324,-0.0022470932453870773
1.7275296193562813e+18,0.002481397008523345,-0.0003911015228368342,0.000840637949295342
1.7275296193592814e+18,-0.0023636766709387302,-0.0022785768378525972,0.0004844696377404034
1.7275296193652815e+18,-0.0021491581574082375,-0.0010020819026976824,-0.0009910098742693663
1.7275296193712817e+18,0.001266050967387855,0.0010282685980200768,-0.0007402383489534259
1.7275296193772818e+18,0.0017005478730425239,0.002743971301242709,0.00028714790823869407
1.7275296193802819e+18,-0.0018072943203151226,-0.0008419790538027883,-0.0008745142258703709
1.727529619386282e+18,-0.00044133519986644387,0.0013604136183857918,-0.0012243735836818814
1.727529619392282e+18,-0.0012591785052791238,0.0007927250117063522,-0.0007741352892480791
1.7275296193982822e+18,-0.0021103532053530216,0.0017041594255715609,0.0033873687498271465
1.7275296194012823e+18,0.0006186977261677384,-0.0015795654617249966,0.00047509215073660016
1.7275296194072824e+18,0.0011305644875392318,-0.0007729929639026523,0.0014298104215413332
1.7275296194132826e+18,0.0012302967952564359,0.0005320669733919203,0.0020524696446955204
1.7275296194192827e+18,-0.002765095792710781,-0.000165513702086173,-0.0016821423778310418
1.7275296194252828e+18,0.0008743862272240222,-0.0011642026947811246,-0.0019937732722610235
1.727529619428283e+18,-0.0010664404835551977,0.0008753620786592364,0.00013256023521535099
1.727529619434283e+18,-0.002826941665261984,0.0010323202004656196,-0.0002849790034815669
1.7275296194402831e+18,-0.0004044912930112332,0.001548124710097909,0.0020949379540979862
1.7275296194432832e+18,0.00013316913100425154,0.0017413486493751407,0.001443549059331417
1.7275296194492833e+18,0.0018845064332708716,-0.0015976266004145145,-0.002943214727565646
1.7275296194552835e+18,-0.0013991022715345025,-0.0005206611822359264,-0.002689385088160634
1.7275296194612836e+18,-0.001630390645004809,-0.0006490735104307532,0.00026775081641972065
1.7275296194642836e+18,-0.0018793755443766713,0.0005920326220802963,0.0007320347358472645
1.7275296194702838e+18,-0.00023543136194348335,0.0020564631558954716,-0.00020995612430851907
1.727529619476284e+18,0.0015535886632278562,-0.0010058515472337604,0.0014814845053479075
1.727529619479284e+18,0.001275208662264049,-0.0006266681593842804,-0.00015889765927568078
1.727529619485284e+18,0.0002701746707316488,-0.0011068196035921574,-0.00014588405610993505
1.7275296194912842e+18,-0.00137513957452029,0.0021182980854064226,0.0008867658325470984
1.7275296194972844e+18,-0.0019031376577913761,0.0005152358789928257,-0.0031122516375035048
1.7275296195032845e+18,0.0017507695592939854,-0.004086263943463564,0.0020508563611656427
1.7275296195062845e+18,0.0020225276239216328,-0.0017749383114278316,0.0001500874786870554
1.7275296195122847e+18,0.0018981894245371222,9.090318053495139e-05,-0.00289335148409009
1.7275296195182848e+18,-0.0013402799377217889,-0.0003994973376393318,-0.002206675475463271
1.727529619524285e+18,0.0016564946854487062,-7.755155820632353e-05,-0.0026167291216552258
1.727529619530285e+18,-0.0013710971688851714,9.46856671362184e-05,0.004343634471297264
1.727529619533285e+18,-0.002312661148607731,-0.0013436643639579415,0.00506847957149148
1.7275296195392852e+18,-0.000949040288105607,0.0015931840753182769,0.00018017982074525207
1.7275296195452854e+18,0.0027942631859332323,0.002571427496150136,-0.001031529507599771
1.7275296195512855e+18,0.00018235700554214418,0.001140654319897294,-0.0021351485047489405
1.7275296195572856e+18,0.0018997198203578591,0.00033956803963519633,-0.0051299394108355045
1.7275296195602857e+18,-0.0010839927708730102,0.0015923788305372,-6.705927080474794e-05
1.7275296195662858e+18,0.0018790226895362139,0.001235301955603063,0.0008874717750586569
1.727529619572286e+18,0.0005478147650137544,-0.0011303991777822375,-0.0004586338181979954
1.727529619578286e+18,-0.0026888041757047176,-0.0012683204840868711,0.0029015280306339264
1.7275296195812861e+18,-0.0029728268273174763,0.0008585245814174414,0.0009285247651860118
1.7275296195872863e+18,-0.0020287898369133472,0.002168618142604828,0.0008451108005829155
1.7275296195932864e+18,0.0018331543542444706,0.0014108808245509863,0.0016141856322064996
1.7275296195962865e+18,-0.0037798432167619467,-8.022088877623901e-05,0.0004055527679156512
1.7275296196022866e+18,-0.0014622642192989588,0.0008922191918827593,-0.0006792368949390948
1.7275296196082867e+18,-0.0017599246930330992,-0.00013367639621719718,0.0011072646593675017
1.7275296196142868e+18,-0.0010380727471783757,0.00042759423376992345,-0.0013428354868665338
1.727529619620287e+18,-0.001307928585447371,-0.00030572342802770436,0.0009421089198440313
1.727529619626287e+18,0.0012007831828668714,9.155106818070635e-05,3.162724897265434e-05
1.7275296196292872e+18,0.004167510196566582,-0.0005353376036509871,0.0017967030871659517
1.7275296196352873e+18,0.00406004348769784,0.0004941824008710682,-0.0003127238596789539
1.7275296196412874e+18,0.003025583690032363,0.001432238146662712,-0.00011147864279337227
1.7275296196442875e+18,-0.0007159048109315336,-0.001493766438215971,0.00020102447888348252
1.7275296196502876e+18,0.003894812660291791,0.001610846258699894,-0.001845305087044835
1.7275296196562877e+18,-6.025068068993278e-05,-0.00104988319799304,-0.0010024027433246374
1.727529619662288e+18,0.00279119866900146,-0.0005609250511042774,0.0002544643357396126
1.727529619668288e+18,-0.0026838253252208233,0.00016830599633976817,0.0013017362216487527
1.727529619674288e+18,-0.0020134111400693655,0.0007781768799759448,2.076983764709439e-05
1.7275296196772882e+18,-0.0005703260540030897,3.130494224024005e-05,0.0016092404257506132
1.7275296196832883e+18,-0.0005453015910461545,0.0006238072528503835,-0.0026957790832966566
1.7275296196892884e+18,0.0013818591833114624,0.0021333310287445784,-0.001786407781764865
1.7275296196952886e+18,0.00015281696687452495,-0.0029467050917446613,0.0019712888170033693
1.7275296196982886e+18,-0.0022372156381607056,0.0004972494789399207,0.0008051468757912517
1.7275296197042888e+18,-0.0009252356830984354,-0.003464997513219714,-0.0026430420111864805
1.727529619710289e+18,0.009825322777032852,-0.012660190463066101,-0.0002193641266785562
1.727529619716289e+18,0.02603095769882202,-0.027120107784867287,0.0014547620667144656
1.727529619719289e+18,0.03157484531402588,-0.034341372549533844,-0.0009236272308044136
1.7275296197252892e+18,0.04464595764875412,-0.051021989434957504,0.001304867211729288
1.7275296197312893e+18,0.057684276252985,-0.06272068619728088,-0.0012483159080147743
1.7275296197372895e+18,0.06538066267967224,-0.07620833069086075,0.0013751558726653457
1.7275296197402895e+18,0.06769989430904388,-0.07793427258729935,0.0012657766928896308
1.7275296197462897e+18,0.06814594566822052,-0.0794404000043869,7.649051258340478e-05
1.7275296197522898e+18,0.06355786323547363,-0.0758579820394516,-0.0014612470986321568
1.72752961975829e+18,0.05754326656460762,-0.07152439653873444,0.0019223097478970885
1.72752961976429e+18,0.048276253044605255,-0.06924037635326385,-0.0003021631855517626
1.72752961976729e+18,0.04782680794596672,-0.06498624384403229,-0.0013766251504421234
1.7275296197732902e+18,0.042294807732105255,-0.0642402246594429,0.0016124655958265066
1.7275296197792904e+18,0.04085027053952217,-0.06282009184360504,0.000979302218183875
1.7275296197822904e+18,0.04121541976928711,-0.06465594470500946,0.0005639481823891401
1.7275296197882906e+18,0.043724432587623596,-0.06656870990991592,0.0019169843290001154
1.7275296197942907e+18,0.051500353962183,-0.07001257687807083,0.0013463255017995834
1.7275296198002908e+18,0.05821448937058449,-0.07033491879701614,0.0012608052929863334
1.727529619803291e+18,0.05801696702837944,-0.07324118167161942,9.640876669436693e-05
1.727529619809291e+18,0.05926301330327988,-0.07079434394836426,0.0022908456157892942
1.7275296198152911e+18,0.05786910280585289,-0.06717881560325623,-0.001984648872166872
1.7275296198212913e+18,0.05196293070912361,-0.06585607677698135,-0.0015806544106453657
1.7275296198272914e+18,0.04720783233642578,-0.05770975723862648,0.0016777494456619024
1.7275296198302915e+18,0.04027077555656433,-0.05598653480410576,0.002942540217190981
1.7275296198362916e+18,0.03141406551003456,-0.05064792186021805,0.002602581400424242
1.7275296198422917e+18,0.027437405660748482,-0.04740171134471893,0.00129008200019598
1.7275296198482918e+18,0.02568703703582287,-0.04557863250374794,0.0010423071216791868
1.727529619851292e+18,0.02491084672510624,-0.046085234731435776,0.0012146331137046218
1.727529619857292e+18,0.025123855099081993,-0.0401357039809227,0.0021062749437987804
1.7275296198632922e+18,0.022656738758087158,-0.04058954492211342,0.003166134236380458
1.7275296198692923e+18,0.028195353224873543,-0.03598752245306969,0.001776179182343185
1.7275296198722924e+18,0.02613767422735691,-0.0348559208214283,0.003154684090986848
1.7275296198782925e+18,0.024485938251018524,-0.03268659487366676,0.0018215663731098175
1.7275296198842926e+18,0.022909363731741905,-0.029888954013586044,0.0018342341063544154
1.7275296198902927e+18,0.019811632111668587,-0.023192673921585083,0.004003326408565044
1.7275296198932928e+18,0.01574539951980114,-0.02402287721633911,0.0010962554952129722
1.727529619899293e+18,0.012109750881791115,-0.0191109050065279,0.00119867199100554
1.727529619905293e+18,0.010469898581504822,-0.017834248021245003,0.0009538228623569012
1.7275296199112932e+18,0.004991339985281229,-0.0125126326456666,0.004192757420241833
1.7275296199142932e+18,0.0007299605058506131,-0.01374500896781683,0.002485225209966302
1.7275296199202934e+18,-0.0027793399058282375,-0.009874377399682999,0.001640289556235075
1.7275296199262935e+18,-0.0030082722660154104,-0.00774401193484664,0.0010597244836390018
1.7275296199292936e+18,-0.0019399347947910428,-0.004843229427933693,0.002729506231844425
1.7275296199352937e+18,-0.003619386814534664,-0.0037618710193783045,0.002019838197156787
1.7275296199412938e+18,-0.0007286042673513293,0.0007686022436246276,0.0024735471233725548
1.727529619947294e+18,-0.001807100372388959,0.0019715873058885336,0.0012014489620923996
1.727529619950294e+18,-0.00020848389249294996,0.00418452313169837,0.0049485256895422935
1.7275296199562941e+18,-0.005731320008635521,0.007072316017001867,0.0038685582112520933
1.7275296199622943e+18,-0.004750268068164587,0.010462403297424316,0.002357371849939227
1.7275296199682944e+18,-0.008396148681640625,0.01102876104414463,0.0055663008242845535
1.7275296199712945e+18,-0.009028556756675243,0.011937515810132027,0.0036544818431138992
1.7275296199772946e+18,-0.015431233681738377,0.01571737788617611,0.0012172737624496222
1.7275296199832947e+18,-0.018238836899399757,0.016703523695468903,0.004510741215199232
1.7275296199892948e+18,-0.02223161980509758,0.018938569352030754,0.00211081700399518
1.727529619992295e+18,-0.01986360363662243,0.018027424812316895,0.004143944475799799
1.727529619998295e+18,-0.022423284128308296,0.021501945331692696,0.008037161082029343
1.7275296200042952e+18,-0.02565227821469307,0.02096664533019066,-0.0016483168583363295
1.7275296200072952e+18,-0.02130967564880848,0.024096224457025528,0.005712031852453947
1.7275296200132954e+18,-0.016534898430109024,0.027358289808034897,0.0046639046631753445
1.7275296200192955e+18,-0.017544711008667946,0.028254972770810127,0.004572410602122545
1.7275296200252956e+18,-0.015363876707851887,0.034492019563913345,0.0033998358994722366
1.7275296200312957e+18,-0.014842191711068153,0.0333891361951828,0.0039334967732429504
1.7275296200372959e+18,-0.017732875421643257,0.033975351601839066,0.006296385545283556
1.727529620043296e+18,-0.018572688102722168,0.03265392780303955,0.0026835547760128975
1.727529620046296e+18,-0.023257208988070488,0.03486688807606697,0.001293789828196168
1.7275296200522962e+18,-0.025614291429519653,0.03418176248669624,0.005436334293335676
1.7275296200582963e+18,-0.026999743655323982,0.03444337472319603,0.0033228034153580666
1.7275296200642964e+18,-0.027255823835730553,0.037249937653541565,0.0024757045321166515
1.7275296200672965e+18,-0.028504468500614166,0.03642017021775246,0.0020603551529347897
1.7275296200732966e+18,-0.0248788520693779,0.03666107356548309,0.0036378882359713316
1.7275296200792968e+18,-0.023395594209432602,0.03694402426481247,0.0053636459633708
1.727529620085297e+18,-0.018449701368808746,0.03486739471554756,0.004611976444721222
1.727529620091297e+18,-0.021699443459510803,0.03532646223902702,0.007105422206223011
1.727529620094297e+18,-0.01924361288547516,0.03585101291537285,0.003097410313785076
1.7275296201032973e+18,-0.014620780944824219,0.03723350912332535,0.004856625106185675
1.7275296201062973e+18,-0.017949413508176804,0.034350767731666565,0.005487515591084957
1.7275296201122975e+18,-0.01823909766972065,0.033554669469594955,0.002974244300276041
1.7275296201182976e+18,-0.019441641867160797,0.034746479243040085,0.004388372413814068
1.7275296201242977e+18,-0.019250253215432167,0.03350615128874779,0.003832416608929634
1.7275296201272978e+18,-0.02171551063656807,0.034121908247470856,0.0058951904065907
1.727529620133298e+18,-0.022126927971839905,0.031581051647663116,0.0033279117196798325
1.727529620139298e+18,-0.02369057945907116,0.0340266153216362,0.004190217703580856
1.7275296201452982e+18,-0.022880632430315018,0.030106553807854652,0.004757737275213003
1.7275296201482982e+18,-0.018738549202680588,0.02952287718653679,0.005546769592911005
1.7275296201542984e+18,-0.019576633349061012,0.032057564705610275,0.00608627125620842
1.7275296201602985e+18,-0.01595989428460598,0.0298689603805542,0.0066848015412688255
1.7275296201662986e+18,-0.018333494663238525,0.030127020552754402,0.005947354715317488
1.7275296201692987e+18,-0.01728166826069355,0.03131667152047157,0.0016530684661120176
1.7275296201752988e+18,-0.01668056659400463,0.03183235973119736,0.004858055617660284
1.727529620181299e+18,-0.015735207125544548,0.029081154614686966,0.002710317960008979
1.727529620187299e+18,-0.016157347708940506,0.027371229603886604,0.0035606645978987217
1.7275296201932992e+18,-0.017609521746635437,0.02728634513914585,0.0014691115356981754
1.7275296201962993e+18,-0.017746608704328537,0.029354531317949295,0.005921076983213425
1.7275296202022994e+18,-0.019397281110286713,0.027409890666604042,0.006515198387205601
1.7275296202082995e+18,-0.018736107274889946,0.024342961609363556,0.0059075974859297276
1.7275296202142996e+18,-0.01987307146191597,0.024608422070741653,0.004369467496871948
1.7275296202172997e+18,-0.01786406710743904,0.025233659893274307,0.0025144703686237335
1.7275296202232998e+18,-0.017765572294592857,0.024681339040398598,0.004650718066841364
1.7275296202293e+18,-0.01502323616296053,0.02265314571559429,0.005980090703815222
1.7275296202353e+18,-0.01516193151473999,0.021940825507044792,0.005503131542354822
1.7275296202383002e+18,-0.01415870152413845,0.020606672391295433,0.006669413764029741
1.7275296202443003e+18,-0.012255187146365643,0.020187154412269592,0.0033232513815164566
1.7275296202503004e+18,-0.013668172061443329,0.02146700769662857,0.005033961031585932
1.7275296202563005e+18,-0.01228753849864006,0.021500106900930405,0.004877676256000996
1.7275296202593006e+18,-0.010882723145186901,0.02142050303518772,0.007178051862865686
1.7275296202653007e+18,-0.012279143556952477,0.021654754877090454,0.005415408872067928
1.7275296202713009e+18,-0.012487773783504963,0.021345602348446846,0.0038279301952570677
1.727529620277301e+18,-0.01880587451159954,0.017641304060816765,0.0035802179481834173
1.727529620280301e+18,-0.017881810665130615,0.019898129627108574,0.004719296004623175
1.7275296202893012e+18,-0.015599915757775307,0.016723262146115303,0.003313264809548855
1.7275296202923013e+18,-0.017135271802544594,0.01829632557928562,0.0054900189861655235
1.7275296202983014e+18,-0.013686618767678738,0.018428480252623558,0.006698620039969683
1.7275296203043016e+18,-0.013017874211072922,0.017436353489756584,0.004583992529660463
1.7275296203103017e+18,-0.011683928780257702,0.01660972647368908,0.004566786345094442
1.7275296203133018e+18,-0.006674745120108128,0.01760919950902462,0.005232237279415131
1.727529620319302e+18,-0.008189309388399124,0.013685856014490128,0.0064593469724059105
1.727529620325302e+18,-0.005779447965323925,0.016876444220542908,0.003956893924623728
1.7275296203313021e+18,-0.007037493400275707,0.01611987128853798,0.002581928391009569
1.7275296203373023e+18,-0.007550136186182499,0.016143379732966423,0.005092404782772064
1.7275296203403023e+18,-0.010084479115903378,0.012059668079018593,0.00408261688426137
1.7275296203463025e+18,-0.009854123927652836,0.015922190621495247,0.00289778970181942
1.7275296203523026e+18,-0.010801387950778008,0.016790974885225296,0.002356582786887884
1.7275296203583027e+18,-0.01171435508877039,0.013074787333607674,0.006313508376479149
1.7275296203643028e+18,-0.013696301728487015,0.014553222805261612,0.00306110130622983
1.727529620370303e+18,-0.009469062089920044,0.014526047743856907,0.004153092857450247
1.727529620373303e+18,-0.012866387143731117,0.013320302590727806,0.0022177747450768948
1.7275296203793032e+18,-0.0102161206305027,0.012164486572146416,0.0042632282711565495
1.7275296203853033e+18,-0.008306106552481651,0.013753242790699005,0.004414448980242014
1.7275296203913034e+18,-0.00757226999849081,0.010357150807976723,0.004436018411070108
1.7275296203973036e+18,-0.00492246774956584,0.012351350858807564,0.003466919995844364
1.7275296204003036e+18,-0.00943506695330143,0.012883983552455902,0.0036196233704686165
1.7275296204063037e+18,-0.008182107470929623,0.011914688162505627,0.0057467385195195675
1.727529620412304e+18,-0.007238483987748623,0.011377905495464802,0.00552796758711338
1.727529620418304e+18,-0.007062437478452921,0.010139725171029568,0.002935208613052964
1.727529620421304e+18,-0.008419224992394447,0.016124218702316284,0.00393611891195178
1.7275296204273042e+18,-0.007411096710711718,0.011623337864875793,0.0009424923919141293
1.7275296204333043e+18,-0.00968695618212223,0.01288283709436655,0.0032239160500466824
1.7275296204363044e+18,-0.008824853226542473,0.013254853896796703,0.0005984148010611534
1.7275296204423045e+18,-0.007664734497666359,0.01193331554532051,0.005463872104883194
1.7275296204483046e+18,-0.0047371722757816315,0.011157002300024033,-0.0003514564596116543
1.7275296204543048e+18,-0.0032684116158634424,0.006820885930210352,0.0028722055722028017
1.727529620463305e+18,-0.00438527250662446,0.005354025401175022,0.0013159969821572304
1.7275296204723052e+18,-0.0018938274588435888,0.005484799388796091,0.005701763555407524
1.7275296204783053e+18,-0.0059046014212071896,0.00466193538159132,0.004484119825065136
1.7275296204873055e+18,-0.004378465469926596,0.007041447795927525,0.0029528141021728516
1.7275296204933056e+18,-0.001798383193090558,0.005080420523881912,0.004076594486832619
1.7275296205023058e+18,-0.0046525136567652225,0.006799385882914066,0.0072018541395664215
1.727529620508306e+18,-0.003319568932056427,0.010157514363527298,0.0037930782418698072
1.727529620517306e+18,-0.005734402686357498,0.007821152918040752,0.004343952983617783
1.7275296205233062e+18,-0.007082783151417971,0.005618802737444639,0.0027639721520245075
1.7275296205293064e+18,-0.007597463205456734,0.00842861458659172,0.0042701601050794125
1.7275296205323064e+18,-0.005378694739192724,0.007826154120266438,0.004072708543390036
1.7275296205383066e+18,-0.0048260437324643135,0.00621531717479229,0.002280056243762374
1.7275296205443067e+18,-0.0038992061745375395,0.007890773005783558,0.00177136086858809
1.7275296205503068e+18,-0.006294360850006342,0.005822054576128721,0.0005975629901513457
1.727529620556307e+18,-0.006482265889644623,0.00663723424077034,0.0016178353689610958
1.727529620562307e+18,-0.0040061138570308685,0.006925424560904503,0.0018435539677739143
1.7275296205683072e+18,-0.005858095828443766,0.005640323273837566,-0.0011026468127965927
1.7275296205743073e+18,-0.004981186240911484,0.006438233889639378,0.0012703447137027979
1.7275296205803075e+18,-0.006249177735298872,0.0052728476002812386,0.000171530875377357
1.7275296205863076e+18,-0.003991446457803249,0.008716517128050327,-0.0018618941539898515
1.7275296205923077e+18,-0.008665800094604492,0.009242730215191841,0.0016827158397063613
1.7275296205983078e+18,-0.0062117623165249825,0.006325303576886654,0.002398831769824028
1.727529620601308e+18,-0.004959820304065943,0.008271564729511738,0.0015290353912860155
1.727529620607308e+18,-0.0031980699859559536,0.006887432653456926,-0.0015878028934821486
1.7275296206133082e+18,-0.00013115908950567245,0.00949278473854065,0.0025946323294192553
1.7275296206193083e+18,-0.0036416356451809406,0.009425977244973183,0.0005888942396268249
1.7275296206253084e+18,-0.005037898663431406,0.00878864899277687,-0.0028899649623781443
1.7275296206313085e+18,-0.005162374582141638,0.006022208370268345,-0.002401286270469427
1.7275296206373087e+18,-0.006940431892871857,0.007289136294275522,0.0012966045178472996
1.7275296206433088e+18,-0.007263121195137501,0.005168294534087181,0.0013347233179956675
1.727529620649309e+18,-0.00688512809574604,0.00942561961710453,0.0017033678013831377
1.727529620655309e+18,-0.005713136866688728,0.0066043841652572155,0.00035120118991471827
1.7275296206613092e+18,-0.0023452225141227245,0.008825170807540417,-0.0006506832432933152
1.7275296206673093e+18,-0.005373269319534302,0.005890010856091976,0.002318392740562558
1.7275296206733094e+18,-0.0038899853825569153,0.00796511396765709,0.0012082201428711414
1.7275296206793096e+18,-0.005486162379384041,0.0077881659381091595,-0.0006694815238006413
1.7275296206853097e+18,-0.0035285698249936104,0.00717383436858654,-0.0006857439875602722
1.7275296206883098e+18,-0.004663231782615185,0.007139126770198345,0.004479666240513325
1.72752962069431e+18,-0.0033123381435871124,0.008095132187008858,0.0003321342810522765
1.72752962070031e+18,-0.006013878155499697,0.005927224177867174,0.0033364337868988514
1.7275296207063101e+18,-0.006344135385006666,0.006517903879284859,0.0003877792041748762
1.7275296207123103e+18,-0.005877325311303139,0.004171983804553747,-0.0009786599548533559
1.7275296207183104e+18,-0.0033889501355588436,0.003986693453043699,-0.0016224270220845938
1.7275296207243105e+18,-0.004577646963298321,0.007112115155905485,0.0025413143448531628
1.7275296207303107e+18,-0.0034821536391973495,0.008580700494349003,-0.0009997928282245994
1.7275296207333107e+18,-0.00074343616142869,0.0068923309445381165,0.0004405737272463739
1.7275296207393108e+18,-0.006764622405171394,0.006552804261445999,-0.00040046992944553494
1.727529620745311e+18,-0.0031881462782621384,0.008329267613589764,-0.000618646910879761
1.727529620751311e+18,-0.0059052580036222935,0.007586016785353422,0.00023964728461578488
1.7275296207573112e+18,-0.004459885414689779,0.01052861474454403,-0.00030710460850968957
1.7275296207633114e+18,-0.00432435842230916,0.00949071440845728,-0.0023849273566156626
1.7275296207693115e+18,-0.0032001486979424953,0.007359081879258156,-0.0013086316175758839
1.7275296207753116e+18,-0.0008766010869294405,0.007645018398761749,-0.0015417954418808222
1.7275296207813117e+18,-0.0007569657173007727,0.006147268693894148,-0.0009563976200297475
1.7275296207873119e+18,-0.004274472594261169,0.004793860483914614,-0.0014764254447072744
1.727529620796312e+18,-0.0035832002758979797,0.003087232820689678,-0.000768284488003701
1.7275296207993121e+18,-0.0020389393903315067,0.0053724609315395355,-0.0029484336264431477
1.7275296208053123e+18,-0.0024112649261951447,0.003933460917323828,0.0017994873924180865
1.7275296208113124e+18,-0.003719919826835394,0.004087033681571484,8.425489068031311e-05
1.7275296208173125e+18,-0.004048102535307407,0.004134418908506632,-0.003004041500389576
1.7275296208203126e+18,-0.0036895382218062878,0.002791652688756585,-0.004318673629313707
1.7275296208263127e+18,-0.0034438027068972588,0.004798067733645439,-0.0020454933401197195
1.7275296208323128e+18,-0.002010159892961383,0.0059863305650651455,-0.000314992677886039
1.727529620838313e+18,-0.0024876913521438837,0.005770289804786444,9.840249549597502e-05
1.727529620844313e+18,0.0006469734944403172,0.0068347943015396595,0.0006986453663557768
1.7275296208473132e+18,0.0003151006530970335,0.008549140766263008,-0.0032297815196216106
1.7275296208533133e+18,-0.005350782535970211,0.004836518317461014,-0.0018863752484321594
1.7275296208593134e+18,-0.0049762665294110775,0.0076743680983781815,0.0012858479749411345
1.7275296208653135e+18,-0.0062666661106050014,0.0011524406727403402,-0.001822078600525856
1.7275296208683136e+18,-0.0031336857937276363,0.003924078773707151,0.0005243845516815782
1.7275296208743137e+18,-0.006669135298579931,0.004491864703595638,-0.004059808794409037
1.7275296208803139e+18,-0.0048296344466507435,0.002315584570169449,-0.0014841377269476652
1.727529620886314e+18,-0.006473982706665993,0.0026560185942798853,0.001224782201461494
1.727529620889314e+18,-0.00584862194955349,0.004232044331729412,-0.0032117473892867565
1.7275296208953142e+18,-0.0037363229785114527,0.005216245073825121,-0.002362433820962906
1.7275296209013143e+18,-0.005554423201829195,0.004753832705318928,-0.0013487112009897828
1.7275296209073144e+18,-0.0031923926435410976,0.0056672124192118645,-0.0026923893019557
1.7275296209103145e+18,0.00043917441507801414,0.005529578775167465,-0.0028483299538493156
1.7275296209163146e+18,0.001928276615217328,0.0018529192311689258,-0.003332741092890501
1.7275296209223148e+18,0.0019205764401704073,0.004336918704211712,-0.0022813156247138977
1.7275296209253148e+18,0.0010658114915713668,0.0027913833037018776,-0.001230838824994862
1.727529620931315e+18,0.0010050719138234854,0.0013959177304059267,-0.0028324397280812263
1.727529620937315e+18,-0.004121294245123863,0.0014661094173789024,-0.0024063787423074245
1.7275296209403151e+18,-0.0017395317554473877,0.0016319124260917306,-0.0032391289714723825
1.7275296209463153e+18,-0.00646877009421587,0.00037745735608041286,-0.002456145826727152
1.7275296209523154e+18,-0.007703486829996109,0.0023896624334156513,0.0030269930139184
1.7275296209583155e+18,-0.0060844747349619865,0.0020812770817428827,-0.0009964670753106475
1.7275296209643156e+18,-0.004048221278935671,0.0037496667355298996,-0.002076635602861643
1.7275296209673157e+18,-0.007771615404635668,0.002701497869566083,-0.0005433943588286638
1.7275296209733158e+18,-0.003024179022759199,0.006341727450489998,-0.0009549300302751362
1.727529620979316e+18,-0.0012065856717526913,0.0017965480219572783,0.003268424654379487
1.727529620985316e+18,0.0014534029178321362,0.004281136207282543,0.00217974791303277
1.7275296209883162e+18,0.002031703945249319,0.005354370456188917,-0.0034809845965355635
1.7275296209943163e+18,0.0013351045781746507,-0.0006221167277544737,-0.00156824488658458
1.7275296210003164e+18,0.000869554583914578,0.0040755122900009155,-0.0015654838643968105
1.7275296210063165e+18,-9.317844524048269e-05,0.0017474800115451217,-0.002378923585638404
1.7275296210093166e+18,-0.003067240584641695,0.00042188388761132956,-0.0025187660939991474
1.7275296210153167e+18,-0.003127234522253275,0.0036579498555511236,-0.0020547211170196533
1.7275296210213169e+18,-0.002363148145377636,0.0045042745769023895,-0.0010376181453466415
1.727529621027317e+18,-0.003906596451997757,0.007110290694981813,0.0011647024657577276
1.727529621033317e+18,-0.004979537799954414,0.006813908461481333,0.0001292361121159047
1.7275296210393172e+18,-0.006660017650574446,0.007270383648574352,-0.00040426888153888285
1.7275296210423173e+18,-0.005265281535685062,0.005307833198457956,-0.0013841618783771992
1.7275296210483174e+18,-0.0016302410513162613,0.0076396409422159195,-0.00044450032874010503
1.7275296210543176e+18,-0.002765763783827424,0.0046537574380636215,-0.001900382456369698
1.7275296210573176e+18,-0.001283634570427239,0.0036087362095713615,-0.00032328380621038377
1.7275296210633178e+18,0.00026485673151910305,0.002187620848417282,0.00040977090247906744
1.727529621069318e+18,-0.0010212080087512732,0.0018288728315383196,-0.000789737852755934
1.727529621075318e+18,-0.0004858488100580871,0.00515842717140913,-0.0015229231212288141
1.7275296210813181e+18,-0.0011102783028036356,0.0018058950081467628,0.0009022731683216989
1.7275296210843182e+18,-0.0005468626040965319,0.0010606119176372886,-0.0010960634099319577
1.7275296210903183e+18,-0.0009628755506128073,0.0028679592069238424,-0.00030073782545514405
1.7275296210963185e+18,-0.004618138074874878,0.001366400858387351,0.0012912193778902292
1.7275296211023186e+18,-0.005824394058436155,0.002179341856390238,4.9527501687407494e-05
1.7275296211083187e+18,-0.001046250807121396,0.003881916869431734,0.003105154959484935
1.7275296211113188e+18,-0.00294031435623765,0.002911484567448497,0.0015051037771627307
1.727529621117319e+18,-0.00395171856507659,0.00131857895758003,0.0004401070182211697
1.727529621123319e+18,-0.0018902512965723872,0.0027609551325440407,0.0006775738438591361
1.7275296211293192e+18,0.0015419295523315668,0.0018966563511639833,0.0023703554179519415
1.7275296211323192e+18,-0.0011538065737113357,-0.0017227071803063154,0.0030871322378516197
1.7275296211383194e+18,0.00010139074584003538,0.002460992895066738,0.0004773922555614263
1.7275296211443195e+18,-0.000882830994669348,-0.0005577284609898925,0.0006739608943462372
1.7275296211503196e+18,0.0009304999839514494,-0.0021494829561561346,0.0011774690356105566
1.7275296211563197e+18,0.0024262848310172558,-0.0027646617963910103,0.0028895786963403225
1.72752962116232e+18,0.003998018801212311,-0.0012592055136337876,0.0003153032739646733
1.72752962116532e+18,-0.0009922586614266038,0.0011149629717692733,0.0018445332534611225
1.72752962117132e+18,0.0005207533831708133,0.0028794461395591497,0.002914237789809704
1.7275296211773202e+18,-0.0006315878708846867,-0.0036225258372724056,0.0012895575491711497
1.7275296211833203e+18,-0.00019441702170297503,0.0003122095367871225,-9.968812810257077e-05
1.7275296211863204e+18,0.0003781101549975574,-0.0017835275502875447,-0.0024705920368433
1.7275296211923205e+18,0.001247662352398038,-0.0006875606486573815,0.0009928649524226785
1.7275296211983206e+18,0.0013869256945326924,-0.0019056074088439345,-0.0008963515283539891
1.7275296212043208e+18,-8.095672819763422e-05,-0.001273054862394929,0.000756450230255723
1.7275296212073208e+18,-0.0008922677370719612,0.00010317214764654636,0.0008399884682148695
1.727529621213321e+18,-0.0007984420517459512,-0.00028393365209922194,0.0026884705293923616
1.727529621219321e+18,-0.001248844200745225,3.311835462227464e-05,-0.00045267725363373756
1.7275296212253212e+18,-0.002733633853495121,-0.001165519468486309,-0.0017312911804765463
1.7275296212313213e+18,-0.0038361495826393366,0.0014850758016109467,0.002476983703672886
1.7275296212373215e+18,-0.00254513556137681,-0.0030663125216960907,-0.0017678197473287582
1.7275296212403215e+18,-0.0011928437743335962,-0.0047120023518800735,0.003182708751410246
1.7275296212463217e+18,-0.00150397140532732,-0.0007845079526305199,0.002102319151163101
1.7275296212523218e+18,0.0006802846910431981,-0.00549524649977684,0.00037457802682183683
1.727529621258322e+18,-0.0006671856972388923,-0.00252934661693871,-0.0020372725557535887
1.727529621261322e+18,0.0010627463925629854,-0.0009828612674027681,0.0033443053252995014
1.727529621267322e+18,0.0009260381339117885,-0.00022208242444321513,0.002702379133552313
1.7275296212733222e+18,-0.0022952118888497353,0.00019365307525731623,-0.0016853716224431992
1.7275296212793224e+18,-0.0006958534941077232,4.086285480298102e-05,0.0012541045434772968
1.7275296212823224e+18,-0.0038686597254127264,-0.0010364842601120472,0.0030593674164265394
1.7275296212883226e+18,-0.0027781319804489613,0.0027652655262500048,0.001062852330505848
1.7275296212943227e+18,-0.003723961068317294,0.0010218345560133457,-1.2762495316565037e-05
1.7275296212973228e+18,-0.005655850283801556,-0.0008328509284183383,0.00036005035508424044
1.727529621303323e+18,-0.0024220841005444527,-0.001607464742846787,0.0015691446606069803
1.727529621309323e+18,-0.005394031293690205,-0.0010790254455059767,0.0005716134910471737
1.7275296213153231e+18,-0.003414781764149666,-0.0017152721993625164,0.0010000074980780482
1.7275296213213233e+18,-0.004146019462496042,-0.0047714002430438995,7.381575414910913e-05
1.7275296213243233e+18,-0.004273740109056234,-0.0010861323680728674,0.001436829101294279
1.7275296213303235e+18,-0.002807842567563057,-0.0017431308515369892,-0.001257132738828659
1.7275296213363236e+18,-0.000555237871594727,0.00022965576499700546,-0.0005724679213017225
1.7275296213423237e+18,-0.0023923444095999002,-0.002245136769488454,0.0018879653653129935
1.7275296213453238e+18,-0.000652786809951067,-0.00018096210260409862,-0.0005866085994057357
1.727529621351324e+18,-0.002484274795278907,-0.00017841250519268215,0.0001990208402276039
1.727529621357324e+18,-0.002059719990938902,0.001758924569003284,0.0033188655506819487
1.7275296213633242e+18,-0.0032040048390626907,0.0008365021203644574,0.00037183507811278105
1.7275296213663242e+18,-0.005827956832945347,-8.065576548688114e-05,0.0016363891772925854
1.7275296213723244e+18,-0.0048014638014137745,0.00030449265614151955,0.0002725857775658369
1.7275296213783245e+18,-0.003969001583755016,-0.002204323885962367,0.00241651339456439
1.7275296213843246e+18,-0.0025802841410040855,-0.004174564033746719,-0.002275850623846054
1.7275296213903247e+18,-0.00295447651296854,-0.0008182299789041281,-0.0002616564743220806
1.7275296213933248e+18,-0.001633347012102604,-0.0008723196806386113,0.0007805420318618417
1.727529621399325e+18,-0.0073907566256821156,-0.002658769953995943,0.00030017836252227426
1.727529621405325e+18,-0.0010915582533925772,-0.0030723705422133207,-0.0004372046096250415
1.727529621408325e+18,-0.0021569430828094482,-0.0036429972387850285,-0.0004992119502276182
1.7275296214143252e+18,-0.003443370573222637,0.0017721920739859343,0.0024777292273938656
1.7275296214203254e+18,-0.004122475627809763,0.0006232116720639169,0.0016103843227028847
1.7275296214263255e+18,-0.006517283618450165,-0.0003595163580030203,0.003928914666175842
1.7275296214323256e+18,-0.00453511718660593,0.00011795858154073358,-0.0009319885866716504
1.7275296214353257e+18,-0.0007330693770200014,0.0022853463888168335,0.00040873937541618943
1.7275296214413258e+18,-0.0011717814486473799,0.0018698645289987326,0.000665600411593914
1.727529621447326e+18,-0.0012718334328383207,-0.0006253443425521255,0.0007028165273368359
1.727529621453326e+18,-0.004043574444949627,-0.0029162915889173746,0.003004301805049181
1.7275296214563261e+18,-0.0026815743185579777,-0.0028077729512006044,0.00020680262241512537
1.7275296214623263e+18,-0.0018630087142810225,-0.0021338071674108505,-0.00016424304340034723
1.7275296214683264e+18,-0.0019822409376502037,-0.0023697575088590384,0.0020225539337843657
1.7275296214743265e+18,-0.0012148999376222491,0.002800316084176302,0.0006744038546457887
1.7275296214773266e+18,-0.0028364721219986677,-0.0006944473134353757,0.002118772594258189
1.7275296214833267e+18,-0.002209821715950966,0.0003283349797129631,0.003610848682001233
1.7275296214893268e+18,0.0017830518772825599,0.0029123863205313683,0.0007802730542607605
1.727529621495327e+18,-0.0039438409730792046,0.004151336848735809,0.000988779473118484
1.727529621498327e+18,-0.00046542694326490164,-0.0007275711977854371,0.0031532077118754387
1.7275296215043272e+18,0.0009177986066788435,-0.00014205515617504716,-0.0015116448048502207
1.7275296215103273e+18,-0.00239086477085948,0.0005542199942283332,0.0032939501106739044
1.7275296215133274e+18,-0.0006005215691402555,-0.0011653810506686568,0.0018833877984434366
1.7275296215193275e+18,0.00017791229765862226,-0.004404504783451557,0.0007594004273414612
1.7275296215253276e+18,-0.0022142943926155567,-0.002445677760988474,0.002767527475953102
1.7275296215313277e+18,-0.0037827298510819674,-0.0017463553231209517,0.00418084068223834
1.7275296215343278e+18,-0.0021982123143970966,-0.0018152454867959023,0.0022421099711209536
1.727529621540328e+18,0.0016031641280278563,4.816229920834303e-05,-0.0012009800411760807
1.727529621546328e+18,-0.0008925453294068575,0.0005994345992803574,0.0022984102834016085
1.7275296215493281e+18,-0.0010465558152645826,0.0022563585080206394,0.0011776800965890288
1.7275296215553283e+18,0.00038255384424701333,0.00214624241925776,0.0023167021572589874
1.7275296215613284e+18,0.001105878734961152,0.0008757618488743901,0.0009642790537327528
1.7275296215673285e+18,-0.00221234536729753,0.0016629458405077457,0.0007622718112543225
1.7275296215703286e+18,0.0026350398547947407,-0.0011457140790298581,0.0023315821308642626
1.7275296215763287e+18,-0.0011218832805752754,-0.0012495741248130798,0.003420153632760048
1.7275296215823288e+18,-0.0028492615092545748,-0.0027728891000151634,0.0007222519489005208
1.727529621588329e+18,0.0013443974312394857,-0.005047844722867012,-0.0002999468706548214
1.727529621594329e+18,-0.0027387868613004684,-0.005792243871837854,0.0030216227751225233
1.7275296215973292e+18,0.00031028687953948975,-0.005719306413084269,0.003054996021091938
1.7275296216033293e+18,-0.0028628299478441477,-0.005534981843084097,0.002551135839894414
1.7275296216093294e+18,0.0005246521905064583,-0.003630617633461952,0.0014029868179932237
1.7275296216153295e+18,0.00017074111383408308,-0.002133097732439637,0.004406849853694439
1.7275296216213297e+18,0.0005213236436247826,-0.0042952122166752815,0.0018964658956974745
1.7275296216243297e+18,-0.0008422012906521559,0.001495668664574623,0.0007425087969750166
1.7275296216303299e+18,0.00046326284063979983,0.0011791503056883812,0.0027307383716106415
1.72752962163633e+18,0.0013339667348191142,0.0007303433958441019,0.0017967787571251392
1.72752962164233e+18,0.0027060704305768013,-0.0009210894349962473,0.004503204487264156
1.7275296216453302e+18,0.0014098712708801031,-0.0015479701105505228,0.0019062862265855074
1.7275296216513303e+18,0.0020922874100506306,0.0008740641642361879,0.004464942496269941
1.7275296216573304e+18,-0.0010747627820819616,0.0001948534045368433,0.006286597345024347
1.7275296216603305e+18,0.004708063323050737,-0.004607755225151777,0.0067337267100811005
1.7275296216663306e+18,0.00223713181912899,-0.0042672548443078995,0.003687795251607895
1.7275296216723308e+18,0.007415258325636387,-0.002568942727521062,0.0034932191483676434
1.727529621678331e+18,0.007237926125526428,-0.0032593244686722755,0.002703276230022311
1.727529621681331e+18,0.0017307130619883537,-0.0034752865321934223,0.0032394416630268097
1.727529621687331e+18,0.004514756612479687,-0.0031869388185441494,0.004103503655642271
1.7275296216933312e+18,0.0024520112201571465,-0.003551145549863577,0.004813554231077433
1.7275296216993313e+18,0.004629258997738361,-0.007060331758111715,0.0014637724962085485
1.7275296217053315e+18,0.0004394015995785594,-0.001895745052024722,0.003426510142162442
1.7275296217083315e+18,0.001621426548808813,-9.132898412644863e-05,0.005702526308596134
1.7275296217143316e+18,0.0003586870152503252,-0.0026061839889734983,0.0031364362221211195
1.7275296217203318e+18,0.0015886534238234162,-0.00025502219796180725,0.004765227437019348
1.7275296217233318e+18,0.0031200130470097065,0.00020066672004759312,0.004782812669873238
1.727529621729332e+18,0.004189806059002876,-0.0026997083332389593,0.00310668651945889
1.727529621735332e+18,0.002300932304933667,-0.00267395144328475,0.005024433135986328
1.7275296217413322e+18,0.00740447361022234,-0.003098249202594161,-0.00021932297386229038
1.7275296217443323e+18,0.0019034184515476227,-0.003998869098722935,0.005140211433172226
1.7275296217503324e+18,0.005920735653489828,-0.004068667069077492,0.0017409881111234426
1.7275296217563325e+18,0.002060783328488469,-0.0074479891918599606,-0.00022096210159361362
1.7275296217623327e+18,0.00470607029274106,-0.00830785185098648,0.0040065511129796505
1.7275296217653327e+18,0.004690986126661301,-0.0036868955940008163,0.0034555059392005205
1.7275296217713329e+18,0.0013739409623667598,-0.003647411009296775,0.0034513319842517376
1.727529621777333e+18,-0.0013236531522125006,-0.003797577228397131,0.0036456577945500612
1.727529621783333e+18,0.00031667196890339255,-0.0019827792420983315,0.0030319690704345703
1.7275296217863332e+18,0.0023950531613081694,-0.006273792125284672,0.0037375763058662415
1.7275296217923333e+18,0.0005233675474300981,-0.004391605034470558,0.004037575796246529
1.7275296217983334e+18,-0.00010276376269757748,-0.004185195546597242,0.0013025829102844
1.7275296218043336e+18,-0.00024601060431450605,-0.0035638557747006416,0.0026482760440558195
1.7275296218103337e+18,0.0016478374600410461,-0.00589573010802269,0.006083534099161625
1.7275296218133338e+18,0.0034222258254885674,-0.006848081015050411,0.0048835682682693005
1.727529621819334e+18,0.0020557877141982317,-0.007022062782198191,0.00249121873639524
1.727529621825334e+18,0.0032006846740841866,-0.006293225102126598,0.00461183488368988
1.7275296218313341e+18,0.004941794089972973,-0.005292818415910006,0.0016887085512280464
1.7275296218343342e+18,0.0009141415357589722,-0.008352517150342464,0.004999059252440929
1.7275296218403343e+18,0.0037390016950666904,-0.0073313284665346146,0.0044950200244784355
1.7275296218463345e+18,0.0018025784520432353,-0.00423382967710495,0.002532979706302285
1.7275296218493345e+18,0.001159192994236946,-0.004720479249954224,0.0034747631289064884
1.7275296218553347e+18,0.005731371231377125,-0.002596463542431593,0.002769067883491516
1.7275296218613348e+18,0.0034945074003189802,-0.0017559195403009653,0.003326983656734228
1.727529621867335e+18,0.003893771208822727,-0.0023773428983986378,0.0020298808813095093
1.727529621873335e+18,-0.0005712464917451143,-0.00012522726319730282,0.00409673759713769
1.727529621876335e+18,0.0014852663734927773,-0.0028180317021906376,0.00279732933267951
1.7275296218823352e+18,-0.0007437905296683311,-0.0010714069940149784,0.0020659042056649923
1.7275296218883354e+18,-0.0012227536644786596,-0.0036663240753114223,0.0050537679344415665
1.7275296218943355e+18,0.0021404060535132885,-0.003157304134219885,0.0034048997331410646
1.7275296218973356e+18,-0.002841186709702015,-0.00117991934530437,0.0028151278384029865
1.7275296219033357e+18,-0.003644515061751008,-0.003313511610031128,0.0031451082322746515
1.7275296219093358e+18,-0.0007562407408840954,-0.0018873342778533697,0.00396896805614233
1.727529621915336e+18,0.000367782631656155,0.0006090063252486289,0.006405071821063757
1.727529621921336e+18,-0.0010320249712094665,0.0005654168198816478,0.0027376969810575247
1.727529621924336e+18,0.000995277427136898,0.0001023917575366795,-0.00036621768958866596
1.7275296219303363e+18,0.002493122825399041,0.006240553222596645,0.004504046868532896
1.7275296219363364e+18,0.0009636562317609787,0.0010444403160363436,0.0032961878459900618
1.7275296219423365e+18,-0.00352057465352118,0.0004007117822766304,0.002454490400850773
1.7275296219453366e+18,-0.002363923704251647,0.0021452470682561398,0.003283956553786993
1.7275296219513367e+18,-0.0009503663750365376,0.00031279350514523685,0.00431218184530735
1.7275296219573368e+18,-0.0048708985559642315,0.0015224399976432323,0.004494542255997658
1.727529621963337e+18,-0.004311884753406048,-0.003053787862882018,0.001198615413159132
1.727529621969337e+18,-0.002743398305028677,-0.0034231371246278286,0.003239569952711463
1.7275296219723372e+18,-0.0031192912720143795,-0.0019328594207763672,0.0005864533595740795
1.7275296219783373e+18,-0.0047011603601276875,-0.002044000430032611,0.002595443744212389
1.7275296219843374e+18,-0.005509673617780209,-0.0009577404707670212,0.002957463264465332
1.7275296219873375e+18,-0.0030181778129190207,0.003615898545831442,0.004899989813566208
1.7275296219933376e+18,-0.00025219604140147567,0.0015937642892822623,0.0044851223938167095
1.7275296219993377e+18,-0.00019121315563097596,0.0034592889714986086,0.0038268044590950012
1.7275296220053379e+18,0.00208814674988389,0.0015571489930152893,2.0853476598858833e-05
1.727529622011338e+18,0.0019400932360440493,0.0013697282411158085,0.0012393968645483255
1.727529622014338e+18,0.0014280832838267088,-0.0005629463703371584,0.0019141648663207889
1.7275296220203382e+18,0.0023523643612861633,0.0010823066113516688,0.0033294339664280415
1.7275296220293384e+18,-0.0031730174086987972,-0.005419452674686909,0.0031926105730235577
1.7275296220323384e+18,2.611416857689619e-05,-0.0021897689439356327,0.0014411265728995204
1.7275296220383386e+18,-0.0028201632667332888,-0.0024607654195278883,0.0012424713931977749
1.7275296220443387e+18,-0.0048654875718057156,0.00011780776549130678,-0.0003458455903455615
1.7275296220503388e+18,-0.003338057780638337,0.00017477359506301582,0.002023652195930481
1.727529622056339e+18,-0.0019997635390609503,-0.0008573133964091539,-0.0020702111069113016
1.727529622062339e+18,0.0009202636429108679,0.000131112989038229,-0.009353326633572578
1.7275296220653391e+18,0.0015206339303404093,0.004154615104198456,-0.015751132741570473
1.7275296220713393e+18,0.005420296918600798,0.004048405680805445,-0.024049483239650726
1.7275296220773394e+18,0.005104214884340763,0.004499403294175863,-0.022797318175435066
1.7275296220833395e+18,0.005342922173440456,0.005020606331527233,-0.02523990534245968
1.7275296220893396e+18,0.008253736421465874,0.004107818007469177,-0.024853121489286423
1.7275296220923397e+18,0.007159478031098843,0.003220656421035528,-0.0240388885140419
1.7275296220983398e+18,0.00573062663897872,0.00019118422642350197,-0.022754132747650146
1.72752962210434e+18,0.0029040516819804907,0.0017324183136224747,-0.03071134351193905
1.72752962211034e+18,0.0018283650279045105,-0.0005845761625096202,-0.02655218355357647
1.7275296221163402e+18,0.002517721615731716,0.0008715513395145535,-0.025602439418435097
1.7275296221223404e+18,0.0019861215259879827,0.0025424931664019823,-0.029302585870027542
1.7275296221253404e+18,0.0017272698460146785,0.003240817692130804,-0.02734673023223877
1.7275296221313405e+18,0.004417585674673319,0.0005379454232752323,-0.028228728100657463
1.7275296221373407e+18,0.00614181999117136,0.006814564578235149,-0.03132746368646622
1.7275296221433408e+18,0.007438491098582745,0.005420641973614693,-0.02954486384987831
1.727529622149341e+18,0.007352028973400593,0.006972556002438068,-0.03205575793981552
1.727529622155341e+18,0.004764872137457132,0.004087940789759159,-0.030683010816574097
1.727529622158341e+18,0.00745819229632616,0.0037438920699059963,-0.031163539737462997
1.7275296221643412e+18,0.007772075943648815,0.002460007555782795,-0.03211075812578201
1.7275296221703414e+18,0.004116627853363752,0.004785720258951187,-0.028749436140060425
1.7275296221763415e+18,0.0015271019656211138,0.0025891319382935762,-0.02956935577094555
1.7275296221823416e+18,0.002375583630055189,0.0035665060859173536,-0.029932701960206032
1.7275296221883418e+18,0.003434724872931838,0.003450198797509074,-0.032034408301115036
1.7275296221913418e+18,0.00017095240764319897,0.00764897745102644,-0.02678358368575573
1.727529622197342e+18,0.006615622900426388,0.0036839975509792566,-0.03207673504948616
1.727529622203342e+18,0.006186274811625481,0.004468144848942757,-0.029122665524482727
1.7275296222093422e+18,0.006774024572223425,0.0025346141774207354,-0.03141006827354431
1.7275296222153423e+18,0.009495323523879051,0.0013523180969059467,-0.030720243230462074
1.7275296222183424e+18,0.008306323550641537,-0.0001452333526685834,-0.031082624569535255
1.7275296222243425e+18,0.0046394458040595055,0.0034262079279869795,-0.028734080493450165
1.7275296222303427e+18,0.004299018997699022,-0.0013124296674504876,-0.030779175460338593
1.7275296222363428e+18,0.0034713619388639927,-0.003501100931316614,-0.031247179955244064
1.727529622242343e+18,0.005420137196779251,-0.0007546085398644209,-0.027942482382059097
1.727529622248343e+18,0.00357002392411232,-0.0003489800728857517,-0.03111071139574051
1.727529622251343e+18,0.008329732343554497,-0.0004732258094009012,-0.03139745816588402
1.7275296222573432e+18,0.010534865781664848,-0.002608935348689556,-0.0298269335180521
1.7275296222633434e+18,0.005836686119437218,-0.00016992783639580011,-0.02920091524720192
1.7275296222693435e+18,0.00777897285297513,-0.0009778878884389997,-0.02554808370769024
1.7275296222753436e+18,0.008314761333167553,-0.0034876326099038124,-0.026293011382222176
1.7275296222783437e+18,0.005884275306016207,-0.0028485467191785574,-0.02687971666455269
1.7275296222843438e+18,0.004623372573405504,-0.003029958577826619,-0.026595795527100563
1.727529622290344e+18,0.002180499490350485,-0.006769996602088213,-0.023627879098057747
1.727529622296344e+18,0.005410338751971722,-0.007560109719634056,-0.026950672268867493
1.7275296222993441e+18,0.0032847016118466854,-0.006059326697140932,-0.02444741502404213
1.7275296223053443e+18,0.0011571900686249137,-0.008273417130112648,-0.020775873214006424
1.7275296223113444e+18,0.0010140271624550223,-0.00717527698725462,-0.01964181289076805
1.7275296223173445e+18,0.0035560457035899162,-0.005913460161536932,-0.018580693751573563
1.7275296223203446e+18,0.0023751985281705856,-0.00957744661718607,-0.021124394610524178
1.7275296223263447e+18,0.003533958923071623,-0.007070060353726149,-0.01797863282263279
1.7275296223323448e+18,0.002456372370943427,-0.00630037160590291,-0.018827924504876137
1.727529622338345e+18,0.00017287395894527435,-0.007812799885869026,-0.015507499687373638
1.727529622344345e+18,0.006259175483137369,-0.006938843056559563,-0.01754523627460003
1.7275296223503452e+18,0.004214403219521046,-0.005880513694137335,-0.01183976698666811
1.7275296223563453e+18,0.0013804998015984893,-0.006330061238259077,-0.013223039917647839
1.7275296223623455e+18,0.0006356904050335288,-0.005198363214731216,-0.015053268522024155
1.7275296223683456e+18,-0.003338811919093132,-0.0079242754727602,-0.010360140353441238
1.7275296223743457e+18,-0.003936219494789839,-0.007144586183130741,-0.0092896968126297
1.7275296223773458e+18,-0.003645366756245494,-0.012142332270741463,-0.010847244411706924
1.727529622383346e+18,-0.008116807788610458,-0.005742490757256746,-0.006998254451900721
1.727529622389346e+18,-0.005039547104388475,-0.004119325894862413,-0.004478628747165203
1.7275296223953462e+18,-0.0018584072822704911,-0.006044937297701836,-0.003859227057546377
1.7275296224013463e+18,-0.0019872128032147884,-0.005708012729883194,-0.004720668774098158
1.7275296224073464e+18,-0.00010290629870723933,-0.0016550363507121801,0.000944359228014946
1.7275296224133466e+18,0.001075226697139442,-0.006073175463825464,0.0018081797752529383
1.7275296224163466e+18,-0.0007288052001968026,-0.00509181572124362,0.0034666568972170353
1.7275296224253468e+18,-0.00042090623173862696,-0.005488494411110878,0.006657294929027557
1.727529622431347e+18,-0.0009804057190194726,-0.004470281768590212,0.005387912504374981
1.727529622434347e+18,-0.001736297970637679,-0.005127741955220699,0.0067432112991809845
1.7275296224403471e+18,-0.00039686064701527357,-0.004795850720256567,0.00658376794308424
1.7275296224463473e+18,-0.0026400708593428135,-0.005082695744931698,0.011990033090114594
1.7275296224523474e+18,-0.00033589708618819714,-0.005685846321284771,0.0109407939016819
1.7275296224583475e+18,-0.0008576043182983994,-0.005484149791300297,0.014531511813402176
1.7275296224643476e+18,0.0005279430188238621,-0.005357422400265932,0.014433695003390312
1.7275296224703478e+18,-0.002535078674554825,-0.007174038793891668,0.012948467396199703
1.727529622476348e+18,-0.0009298633085563779,-0.0020826663821935654,0.01824524812400341
1.727529622482348e+18,-0.0003057444700971246,-0.004389515146613121,0.021143117919564247
1.7275296224883482e+18,-0.0012184529332444072,-0.002588014816865325,0.02558775432407856
1.7275296224943483e+18,0.00039362022653222084,-0.004091009497642517,0.02425352856516838
1.7275296225003484e+18,0.002259264001622796,-0.005261353217065334,0.026456136256456375
1.7275296225063485e+18,-0.003357713809236884,-0.009074998088181019,0.02651391178369522
1.7275296225123487e+18,-0.0005642520263791084,-0.006870990619063377,0.029370037838816643
1.7275296225183488e+18,0.001215541735291481,-0.009495447389781475,0.03200650215148926
1.727529622524349e+18,0.0027899974957108498,-0.0058280956000089645,0.03418439254164696
1.727529622530349e+18,0.001324278418906033,-0.009448383003473282,0.03649440035223961
1.7275296225363492e+18,-0.00020800007041543722,-0.003952999599277973,0.03790604695677757
1.7275296225423493e+18,-0.002125207334756851,-0.00548196816816926,0.04126361012458801
1.7275296225483494e+18,-0.0006862308364361525,-0.004222308285534382,0.04426107555627823
1.7275296225543496e+18,-0.0018074919935315847,-0.005780827719718218,0.04340178519487381
1.7275296225603497e+18,-0.0036110307555645704,-0.008270694874227047,0.04469982534646988
1.7275296225633498e+18,-0.001546780695207417,-0.008804144337773323,0.04493497312068939
1.72752962256935e+18,0.0008231520187109709,-0.007642769254744053,0.048415590077638626
1.72752962257535e+18,0.00354046025313437,-0.007317842449992895,0.050195932388305664
1.7275296225813501e+18,-0.000711844302713871,-0.007432540878653526,0.04794870316982269
1.7275296225873503e+18,-0.00014045985881239176,-0.004154166206717491,0.05289190635085106
1.7275296225933504e+18,-0.00022973830346018076,-0.005943757016211748,0.05341970920562744
1.7275296225963505e+18,-0.00022050482220947742,-0.0027618289459496737,0.05726388096809387
1.7275296226023506e+18,-0.0028346036560833454,-0.006533126812428236,0.05758198723196983
1.7275296226083507e+18,-0.000739542068913579,-0.00222226744517684,0.05707142502069473
1.7275296226143508e+18,-0.0007436976884491742,-0.0033385404385626316,0.05872077867388725
1.727529622620351e+18,-0.003249887842684984,-0.005658440291881561,0.06037276238203049
1.727529622623351e+18,0.0019771454390138388,-0.005805329419672489,0.058992668986320496
1.7275296226293512e+18,0.0006497995927929878,-0.004175044596195221,0.06309139728546143
1.7275296226353513e+18,0.0039511313661932945,-0.005576880183070898,0.06274891644716263
1.7275296226413514e+18,0.005805970169603825,-0.005602947436273098,0.0655304417014122
1.7275296226473516e+18,0.004121783655136824,-0.0062881940975785255,0.06683708727359772
1.7275296226503516e+18,0.003007067134603858,-0.005707898177206516,0.06640584766864777
1.7275296226563517e+18,0.002190351951867342,-0.005018377676606178,0.06853704899549484
1.727529622662352e+18,-0.0004775144625455141,-0.004248888697475195,0.06771231442689896
1.727529622668352e+18,-0.004579148255288601,-0.002620079554617405,0.0674988180398941
1.727529622671352e+18,-0.0025168543215841055,-0.003281055483967066,0.06681232899427414
1.7275296226773522e+18,-0.0046178121119737625,-0.0036654118448495865,0.07089612632989883
1.7275296226833523e+18,-0.0004218444228172302,-0.004379958380013704,0.07180450856685638
1.7275296226893524e+18,0.0008175481343641877,-0.0018267082050442696,0.07280172407627106
1.7275296226953526e+18,0.004499275702983141,-0.004554975777864456,0.07344600558280945
1.7275296226983526e+18,0.0019256549421697855,-0.0017849551513791084,0.07633861899375916
1.7275296227043528e+18,0.005342906340956688,-0.007200143299996853,0.07753512263298035
1.727529622710353e+18,0.00690041109919548,-0.0026179973501712084,0.0787075012922287
1.727529622716353e+18,0.006440320983529091,-0.002751576714217663,0.07856854051351547
1.727529622719353e+18,0.004623928107321262,-0.0020475098863244057,0.07827161997556686
1.7275296227253532e+18,0.0006574124563485384,0.0010038742329925299,0.07940688729286194
1.7275296227313533e+18,3.8406404200941324e-05,-0.0001124617992900312,0.07811601459980011
1.7275296227343534e+18,-5.2271876484155655e-05,0.0012213769368827343,0.08161213994026184
1.7275296227403535e+18,-0.002433418994769454,0.0018814156064763665,0.08245400339365005
1.7275296227463537e+18,-0.005994119681417942,0.0031488309614360332,0.08166603744029999
1.7275296227493537e+18,-0.005403853952884674,0.0031832975801080465,0.08077026903629303
1.7275296227553539e+18,-0.0028238834347575903,-4.0244776755571365e-05,0.08535942435264587
1.727529622761354e+18,-0.001325385645031929,-0.0002567509072832763,0.08553993701934814
1.727529622767354e+18,0.0027122185565531254,0.0011784783564507961,0.0894014984369278
1.7275296227703542e+18,0.0023967716842889786,0.0008341257344000041,0.08469746261835098
1.7275296227763543e+18,0.003890171879902482,0.00032700394513085485,0.090725377202034
1.7275296227823544e+18,0.0004630922921933234,-0.00036249932600185275,0.08765807002782822
1.7275296227883546e+18,0.0013928969856351614,0.0017035622149705887,0.09263371676206589
1.7275296227913546e+18,-0.0003830147907137871,0.0005574863753281534,0.09040310978889465
1.7275296227973548e+18,-0.0051805926486849785,-0.0021258036140352488,0.08825525641441345
1.727529622803355e+18,-0.0027737675700336695,-0.0011186792980879545,0.09150879830121994
1.727529622809355e+18,-0.005971021018922329,-0.0008516644593328238,0.09478054940700531
1.727529622812355e+18,-0.0058193267323076725,9.418290574103594e-05,0.09236923605203629
1.7275296228183552e+18,-0.002264502225443721,0.0010522749507799745,0.09409990161657333
1.7275296228243553e+18,-0.0002854298800230026,0.0008980795973911881,0.09516633301973343
1.7275296228303555e+18,-0.004639726132154465,0.0014436693163588643,0.095412977039814
1.7275296228333555e+18,0.0005168176721781492,0.0022913007996976376,0.09756941348314285
1.7275296228393556e+18,0.001376745873130858,0.0038849995471537113,0.09610025584697723
1.7275296228453558e+18,0.0015590027906000614,1.1174706742167473e-05,0.09744349122047424
1.727529622851356e+18,-0.001281512901186943,0.0036206538788974285,0.09499113261699677
1.727529622854356e+18,-0.002997663803398609,0.0005232030525803566,0.0973970964550972
1.727529622860356e+18,-0.003468708135187626,0.0005549959605559707,0.10032325983047485
1.7275296228663562e+18,-0.0063718147575855255,-0.00039658870082348585,0.1001558005809784
1.7275296228723564e+18,-0.005997209344059229,0.00443181861191988,0.10098595917224884
1.7275296228753564e+18,-0.00275786011479795,0.0018774406053125858,0.10160337388515472
1.7275296228813565e+18,-0.0013210640754550695,0.001562751829624176,0.10035533457994461
1.7275296228873567e+18,-5.291357956593856e-05,-0.002561117522418499,0.10241398215293884
1.7275296228933568e+18,0.00123041111510247,-0.0006520875031128526,0.10346316546201706
1.7275296228963569e+18,0.00231267511844635,0.00029401888605207205,0.1074356958270073
1.727529622902357e+18,0.005442165769636631,-0.001478288322687149,0.10159111768007278
1.727529622908357e+18,0.004286499228328466,-0.001987695461139083,0.1033206582069397
1.7275296229143572e+18,0.006152274087071419,-0.001994557213038206,0.10484010726213455
1.7275296229173573e+18,0.0033738496713340282,-0.0026271885726600885,0.10720542073249817
1.7275296229233574e+18,0.0037256390787661076,0.0011205573100596666,0.10777764767408371
1.7275296229293576e+18,0.0016828146763145924,-0.0026480131782591343,0.10563741624355316
1.7275296229353577e+18,0.0013082404620945454,-0.000874298857524991,0.10791309177875519
1.7275296229383578e+18,0.0015507813077419996,-0.005240973085165024,0.1086764708161354
1.727529622944358e+18,-0.0021822918206453323,-0.0042798398062586784,0.10973881185054779
1.727529622950358e+18,-0.0017329691909253597,-0.0008636622224003077,0.10870139300823212
1.7275296229563581e+18,0.002858228050172329,-0.006361371837556362,0.10814299434423447
1.7275296229623583e+18,0.00022327015176415443,-0.004482693038880825,0.11308307200670242
1.7275296229683584e+18,0.002601059153676033,-0.003424491034820676,0.11133275926113129
1.7275296229713585e+18,0.004976141732186079,-0.005695801228284836,0.107915960252285
1.7275296229773586e+18,0.002608606591820717,-0.002756301313638687,0.11106076091527939
1.7275296229833587e+18,0.002784059150144458,-0.008676234632730484,0.11224617063999176
1.7275296229863588e+18,0.004582466557621956,-0.006406073458492756,0.11159265041351318
1.727529622992359e+18,0.002339547034353018,-0.002430967753753066,0.1140972375869751
1.727529622998359e+18,-0.0011768650729209185,-0.00503663532435894,0.11394966393709183
1.7275296230043592e+18,-0.002568352036178112,-0.005097309593111277,0.11483883112668991
1.7275296230103593e+18,-0.0067281825467944145,-0.00499742804095149,0.11479660123586655
1.7275296230133594e+18,-0.005083844996988773,-0.0014733178541064262,0.11064410209655762
1.7275296230193595e+18,-0.010825995355844498,-0.003890219610184431,0.11416419595479965
1.7275296230253596e+18,-0.005139265209436417,-0.0038233937229961157,0.114090196788311
1.7275296230313597e+18,-0.0038406779058277607,-0.004160604439675808,0.11539842933416367
1.7275296230373599e+18,-0.0015405898448079824,-0.0020416085608303547,0.11495666950941086
1.72752962304336e+18,-0.0030174399726092815,-0.005204501561820507,0.11269784718751907
1.72752962304636e+18,-0.004216143861413002,-0.003072921419516206,0.11634116619825363
1.7275296230523602e+18,-0.0011226717615500093,-0.00325304944999516,0.11552892625331879
1.7275296230583603e+18,-0.003658134490251541,-0.004417458549141884,0.11352535337209702
1.7275296230643604e+18,-0.0034332862123847008,-0.002213379368185997,0.11526360362768173
1.7275296230673605e+18,-0.002651832066476345,-0.0037819831632077694,0.11574893444776535
1.7275296230733606e+18,-0.0032587149180471897,-0.0030027618631720543,0.11376157402992249
1.7275296230793608e+18,-0.005226082634180784,-0.003651813603937626,0.11746169626712799
1.727529623085361e+18,-0.008740870282053947,-0.005942243151366711,0.11398346722126007
1.727529623091361e+18,-0.004846650641411543,-0.005766188260167837,0.11517226696014404
1.727529623094361e+18,-0.00514700124040246,-0.006046709604561329,0.11307011544704437
1.7275296231003612e+18,-0.004661595448851585,-0.006642571184784174,0.11369633674621582
1.7275296231063613e+18,-0.0008310230914503336,-0.003215889213606715,0.11319024115800858
1.7275296231123615e+18,0.001608744845725596,-0.003184332512319088,0.11083154380321503
1.7275296231183616e+18,0.0019073223229497671,-0.0019052590942010283,0.114366315305233
1.7275296231213617e+18,-0.0017238168511539698,-0.0010899390326812863,0.11055578291416168
1.7275296231273618e+18,-0.002028524875640869,9.914464317262173e-05,0.11454227566719055
1.727529623133362e+18,0.0021220436319708824,-0.001060916343703866,0.11344891041517258
1.727529623139362e+18,-0.00292798038572073,-0.004023163579404354,0.11192858964204788
1.7275296231453622e+18,-5.5234646424651146e-05,-0.002912139520049095,0.10873658955097198
1.7275296231483622e+18,-0.0034671041648834944,-0.0006084144115447998,0.11123787611722946
1.7275296231543624e+18,-0.0034067975357174873,-0.004483851604163647,0.11308377981185913
1.7275296231603625e+18,-0.000951282330788672,-0.003624426666647196,0.10912299901247025
1.7275296231633626e+18,-0.001362709212116897,-0.005835250951349735,0.10969042778015137
1.7275296231693627e+18,-0.0020808519329875708,-0.006114745978266001,0.10872011631727219
1.7275296231753628e+18,0.002487017773091793,-0.006069835741072893,0.1106051355600357
1.727529623181363e+18,0.0034550323616713285,-0.005499591585248709,0.10970643907785416
1.727529623184363e+18,0.006710235960781574,-0.0038060322403907776,0.10755009949207306
1.7275296231903631e+18,0.002656076103448868,-0.001433836412616074,0.10711970925331116
1.7275296231963633e+18,0.0011400638613849878,-0.0027525487821549177,0.10590127855539322
1.7275296232023634e+18,0.005212495569139719,0.00236056512221694,0.10618726909160614
1.7275296232083635e+18,-0.0011242381297051907,-0.000928796362131834,0.10405776649713516
1.7275296232113636e+18,-0.00011986633762717247,-0.0010259414557367563,0.10594633221626282
1.7275296232173637e+18,-0.001515261479653418,-0.0025266895536333323,0.10595348477363586
1.7275296232233638e+18,0.0010077317710965872,-0.005055180750787258,0.10594157874584198
1.727529623226364e+18,-0.0019727491308003664,-0.008432005532085896,0.10286106169223785
1.727529623232364e+18,-0.00041117530781775713,-0.006882812827825546,0.10059522837400436
1.7275296232383642e+18,0.0017369899433106184,-0.009262421168386936,0.10209707170724869
1.7275296232443643e+18,0.005084371659904718,-0.0076659019105136395,0.10253273695707321
1.7275296232503644e+18,0.0034409817308187485,-0.008961512707173824,0.10316213220357895
1.7275296232533645e+18,0.0038007814437150955,-0.005551825277507305,0.10005947947502136
1.7275296232593646e+18,0.006278177723288536,-0.006425854284316301,0.1018160730600357
1.7275296232653647e+18,0.008682717569172382,-0.008439344353973866,0.09350742399692535
1.7275296232713649e+18,0.012082120403647423,-0.008492833934724331,0.09721699357032776
1.727529623274365e+18,0.015211667865514755,-0.009966867044568062,0.0972668007016182
1.727529623280365e+18,0.018355656415224075,-0.0153192188590765,0.09490326792001724
1.7275296232863652e+18,0.02274012193083763,-0.02106563374400139,0.09322143346071243
1.7275296232923653e+18,0.028835732489824295,-0.024600621312856674,0.09555330127477646
1.7275296232983654e+18,0.024372994899749756,-0.026228617876768112,0.09068835526704788
1.7275296233013655e+18,0.026765869930386543,-0.029910858720541,0.08985662460327148
1.7275296233073656e+18,0.02648559957742691,-0.027823898941278458,0.08729922026395798
1.7275296233133658e+18,0.02018801122903824,-0.028524963185191154,0.08575113117694855
1.727529623319366e+18,0.020490851253271103,-0.023861447349190712,0.08448987454175949
1.727529623322366e+18,0.02180861495435238,-0.029250580817461014,0.08338939398527145
1.727529623328366e+18,0.017721960321068764,-0.024226495996117592,0.08657501637935638
1.7275296233343662e+18,0.023420173674821854,-0.031660303473472595,0.08022256195545197
1.7275296233403663e+18,0.021056290715932846,-0.030906930565834045,0.08301492035388947
1.7275296233433664e+18,0.02397056110203266,-0.026940762996673584,0.0824025571346283
1.7275296233493665e+18,0.027188559994101524,-0.028747433796525,0.08036714047193527
1.7275296233553667e+18,0.032129570841789246,-0.030498068779706955,0.07976226508617401
1.7275296233613668e+18,0.02832724340260029,-0.033347807824611664,0.07990175485610962
1.7275296233643668e+18,0.03216920420527458,-0.031684067100286484,0.07634208351373672
1.727529623370367e+18,0.02889290824532509,-0.03322013095021248,0.07812827080488205
1.727529623376367e+18,0.026485607028007507,-0.030970830470323563,0.0774262472987175
1.7275296233823672e+18,0.022490477189421654,-0.03192349895834923,0.0765443667769432
1.7275296233883674e+18,0.02140169031918049,-0.031698793172836304,0.07679034769535065
1.7275296233943675e+18,0.012869216501712799,-0.028025340288877487,0.07465176284313202
1.7275296233973676e+18,0.015873834490776062,-0.02916814759373665,0.07433497160673141
1.7275296234033677e+18,0.016493549570441246,-0.026784023270010948,0.07140514254570007
1.7275296234093678e+18,0.018787913024425507,-0.02599314972758293,0.07229343801736832
1.727529623415368e+18,0.02204589731991291,-0.023623090237379074,0.07029946148395538
1.727529623418368e+18,0.01900418847799301,-0.025291793048381805,0.07030154019594193
1.727529623424368e+18,0.020057057961821556,-0.02506313845515251,0.06659848988056183
1.7275296234303683e+18,0.018607966601848602,-0.025340024381875992,0.06499138474464417
1.7275296234363684e+18,0.016829445958137512,-0.0252552293241024,0.0662153959274292
1.7275296234393684e+18,0.015972724184393883,-0.022659538313746452,0.06460297107696533
1.7275296234453686e+18,0.01228334754705429,-0.021775810047984123,0.06177644431591034
1.7275296234513687e+18,0.010646088980138302,-0.01848290115594864,0.06396405398845673
1.7275296234573688e+18,0.011799147352576256,-0.018201211467385292,0.06339415907859802
1.727529623460369e+18,0.009543520398437977,-0.017440473660826683,0.06405568867921829
1.727529623466369e+18,0.006545241456478834,-0.015976527705788612,0.06218519061803818
1.7275296234723692e+18,0.007639638148248196,-0.015148421749472618,0.061555761843919754
1.7275296234783693e+18,0.0048769088461995125,-0.012738450430333614,0.060838643461465836
1.7275296234843694e+18,0.003899220610037446,-0.016197161749005318,0.053835779428482056
1.7275296234873695e+18,0.0037392701487988234,-0.014194461517035961,0.055595990270376205
1.7275296234933696e+18,0.00503505626693368,-0.012739422731101513,0.0528654046356678
1.7275296234993697e+18,0.004005224909633398,-0.011807002127170563,0.05683092027902603
1.7275296235053699e+18,0.006026729010045528,-0.00913036148995161,0.05148504301905632
1.72752962350837e+18,0.003331915009766817,-0.012899236753582954,0.057288724929094315
1.72752962351437e+18,0.001558882649987936,-0.012831796891987324,0.053993262350559235
1.7275296235203702e+18,0.003452766453847289,-0.009327479638159275,0.05318928137421608
1.7275296235263703e+18,-0.0036044581793248653,-0.00788090005517006,0.0533752366900444
1.7275296235323704e+18,-0.003868316300213337,-0.007468754891306162,0.04983652010560036
1.7275296235353705e+18,-0.0017076111398637295,-0.005962998140603304,0.0522257499396801
1.7275296235413706e+18,-0.0036353745963424444,-0.005247232969850302,0.04784836992621422
1.7275296235473708e+18,-0.004399206023663282,-0.005790867377072573,0.051298223435878754
1.727529623553371e+18,-0.005350262857973576,-0.006132468581199646,0.049354612827301025
1.727529623556371e+18,-0.00728577421978116,-0.00445768004283309,0.04799719527363777
1.727529623562371e+18,-0.002501008566468954,-0.007058021612465382,0.04614970460534096
1.7275296235683712e+18,-0.006565054878592491,-0.0034331558272242546,0.04814168065786362
1.7275296235713713e+18,-0.0022622442338615656,-0.0031850524246692657,0.04471023008227348
1.7275296235773714e+18,-0.0063604689203202724,-0.0020704271737486124,0.044378478080034256
1.7275296235833715e+18,-0.009318853728473186,-0.0020666499622166157,0.04358302056789398
1.7275296235893716e+18,-0.006122279912233353,-0.002422109479084611,0.04567449912428856
1.7275296235953718e+18,-0.007641911972314119,0.00036252610152587295,0.04307498037815094
1.7275296235983718e+18,-0.00758456951007247,-0.00044318113941699266,0.040708284825086594
1.727529623604372e+18,-0.00792114157229662,0.0009687817073427141,0.04357251152396202
1.727529623610372e+18,-0.009234045632183552,0.002810051431879401,0.04142671450972557
1.7275296236163722e+18,-0.010312080383300781,0.0007495647296309471,0.04252994805574417
1.7275296236193723e+18,-0.007832685485482216,0.003982733003795147,0.040301598608493805
1.7275296236253724e+18,-0.008152512833476067,0.0012942319735884666,0.03800375387072563
1.7275296236313725e+18,-0.005021057091653347,0.00350760854780674,0.03804402053356171
1.7275296236373727e+18,-0.006335316225886345,0.003311439184471965,0.040236689150333405
1.7275296236403727e+18,-0.004709795117378235,0.0019937106408178806,0.03874286264181137
1.7275296236463729e+18,-0.008954068645834923,0.004822761286050081,0.037209369242191315
1.727529623652373e+18,-0.007595461327582598,0.004764532204717398,0.03862030804157257
1.727529623658373e+18,-0.005384195130318403,0.0038726218044757843,0.036539845168590546
1.7275296236643732e+18,-0.006234515458345413,0.0037369702477008104,0.03777344897389412
1.7275296236673733e+18,-0.0100546358153224,0.00591782433912158,0.038003161549568176
1.7275296236733734e+18,-0.007777323946356773,0.004201179835945368,0.036337800323963165
1.7275296236793736e+18,-0.007529251743108034,0.004328958690166473,0.03427482396364212
1.7275296236853737e+18,-0.007485018111765385,0.003719873959198594,0.034027814865112305
1.7275296236913738e+18,-0.0117135439068079,0.0041556828655302525,0.034112874418497086
1.727529623694374e+18,-0.008539731614291668,0.006694503594189882,0.03174659237265587
1.727529623700374e+18,-0.009140992537140846,0.0068722437135875225,0.03210396692156792
1.7275296237063741e+18,-0.007197118364274502,0.006105578970164061,0.03240470215678215
1.7275296237123743e+18,-0.005632460583001375,0.007181407883763313,0.030420644208788872
1.7275296237153743e+18,-0.007057385053485632,0.00611085444688797,0.03267404064536095
1.7275296237213745e+18,-0.007325827144086361,0.00852169655263424,0.03156660869717598
1.7275296237273746e+18,-0.0032656199764460325,0.006337280385196209,0.03362664580345154
1.7275296237333747e+18,-0.005672281142324209,0.00963210966438055,0.026512475684285164
1.7275296237393748e+18,-0.004076005890965462,0.00837667379528284,0.02611665427684784
1.727529623742375e+18,-0.009228628128767014,0.012022973969578743,0.029949551448225975
1.727529623748375e+18,-0.009332374669611454,0.008815431036055088,0.028612451627850533
1.7275296237543752e+18,-0.008118563331663609,0.006872641853988171,0.02673606015741825
1.7275296237573752e+18,-0.008925450965762138,0.00695202499628067,0.03016742132604122
1.7275296237633754e+18,-0.007981432601809502,0.008287496864795685,0.02725924178957939
1.7275296237693755e+18,-0.008761720731854439,0.0069969091564416885,0.02301372028887272
1.7275296237753756e+18,-0.003451429307460785,0.008373058401048183,0.02504725567996502
1.7275296237783757e+18,-0.005133087281137705,0.008651791140437126,0.021092545241117477
1.7275296237843758e+18,-0.0070373862981796265,0.007433784194290638,0.02465290017426014
1.727529623790376e+18,-0.0012371944030746818,0.006757117807865143,0.02637764997780323
1.727529623796376e+18,-0.003261617152020335,0.006404935382306576,0.02035466954112053
1.7275296237993761e+18,-0.0034953043796122074,0.01000109314918518,0.023243900388479233
1.7275296238053763e+18,-0.002523896750062704,0.007874589413404465,0.022561252117156982
1.7275296238113764e+18,-0.006070416886359453,0.006190151907503605,0.024344241246581078
1.7275296238173765e+18,-0.0033460957929491997,0.008179020136594772,0.02363823726773262
1.7275296238233766e+18,-0.004155661910772324,0.004245253745466471,0.023680131882429123
1.7275296238263767e+18,-0.004037641920149326,0.004941947292536497,0.02083864063024521
1.7275296238323768e+18,-0.006093836389482021,-0.0007014134898781776,0.019041426479816437
1.727529623838377e+18,-0.006494966335594654,0.002290582051500678,0.020229019224643707
1.727529623844377e+18,-0.004490564577281475,0.003954842686653137,0.01835578866302967
1.7275296238503772e+18,-0.0031247080769389868,0.0021290029399096966,0.01999633014202118
1.7275296238563773e+18,-0.003589468076825142,0.0036257647443562746,0.020158452913165092
1.7275296238593774e+18,-0.0028139816131442785,0.0043130116537213326,0.021319089457392693
1.7275296238653775e+18,-0.0012783627025783062,0.005295542534440756,0.02038196288049221
1.7275296238713777e+18,-0.00039904669392853975,0.0017981685232371092,0.018110208213329315
1.7275296238773778e+18,0.0010489674750715494,0.0019467417150735855,0.02013499103486538
1.7275296238803779e+18,0.0007020377088338137,0.00016404245980083942,0.019491804763674736
1.727529623886378e+18,0.0001551733585074544,0.002692317822948098,0.019106687977910042
1.727529623892378e+18,-0.0012631728313863277,-0.000596824917010963,0.016259532421827316
1.7275296238983782e+18,-0.003023589262738824,0.00236327713355422,0.017060430720448494
1.7275296239043784e+18,-0.002261448185890913,-0.002435895148664713,0.014196265488862991
1.7275296239103785e+18,-0.0031709056347608566,-0.00021508894860744476,0.018404193222522736
1.7275296239133786e+18,-0.003418238367885351,-0.002506190910935402,0.01696859672665596
1.7275296239193787e+18,-0.004316204227507114,-0.0029731658287346363,0.01680123060941696
1.727529623928379e+18,0.0006609162082895637,0.00421844981610775,0.015165531076490879
1.727529623937379e+18,0.001897585578262806,0.0019189147278666496,0.015649214386940002
1.7275296239463793e+18,-0.0004701011348515749,0.0005016805953346193,0.014357097446918488
1.7275296239553795e+18,0.0006704756524413824,0.0027886321768164635,0.012120108120143414
1.7275296239643796e+18,-0.0017591612413525581,0.002491680206730962,0.016632111743092537
1.7275296239733798e+18,-0.003043616423383355,-0.0009714722400531173,0.0168253555893898
1.72752962398238e+18,-0.0065817153081297874,0.001547228079289198,0.012631329707801342
1.7275296239913802e+18,-0.006413246039301157,0.0015696242917329073,0.016453638672828674
1.7275296240003804e+18,-0.006141542457044125,0.004252060316503048,0.012354645878076553
1.7275296240093806e+18,-0.0023929171729832888,0.005742991808801889,0.011558757163584232
1.7275296240153807e+18,-0.005878070369362831,0.010602524504065514,0.010325079783797264
1.727529624024381e+18,-0.003026797203347087,0.0047175223007798195,0.012788362801074982
1.727529624033381e+18,-0.0037091125268489122,0.007751942612230778,0.008892065845429897
1.7275296240393812e+18,-0.0047577195800840855,0.0038864663802087307,0.009513553231954575
1.7275296240513815e+18,-0.006831299979239702,0.0033672316931188107,0.01073919702321291
1.7275296240573816e+18,-0.007373930886387825,0.0061995284631848335,0.012488555163145065
1.7275296240663818e+18,-0.004556935280561447,0.009829087182879448,0.00958523340523243
1.727529624075382e+18,-0.006004375405609608,0.012664237059652805,0.010248412378132343
1.7275296240843822e+18,-0.002580375410616398,0.01396920345723629,0.009509315714240074
1.7275296240933824e+18,-0.0011860220693051815,0.010125047527253628,0.00915863923728466
1.7275296240993825e+18,-0.001558514661155641,0.006434089969843626,0.010025441646575928
1.7275296241083827e+18,-0.0013303770683705807,0.009236612357199192,0.007650664541870356
1.727529624117383e+18,-0.0026707397773861885,0.008232762105762959,0.008070549927651882
1.727529624126383e+18,-0.005248816683888435,0.00653911754488945,0.008961214683949947
1.7275296241353833e+18,-0.0034597450867295265,0.007911503314971924,0.007459476124495268
1.7275296241443835e+18,-0.0029532741755247116,0.010927719064056873,0.005149567034095526
1.7275296241533837e+18,-0.002133646048605442,0.00904078409075737,0.0072100721299648285
1.727529624162384e+18,-0.0004970886511728168,0.006306716240942478,0.004640836268663406
1.727529624171384e+18,-0.004113526549190283,0.007190722040832043,0.006498604081571102
1.7275296241803843e+18,-0.004810118116438389,0.010655329562723637,0.0023814705200493336
1.7275296241893844e+18,-0.002657526172697544,0.007843204773962498,0.007431803271174431
1.7275296241983846e+18,-0.003822755767032504,0.0074562798254191875,0.006710896734148264
1.7275296242073848e+18,-0.0029931769240647554,0.005450023338198662,0.005468565970659256
1.727529624216385e+18,-2.0743580535054207e-05,0.004536845255643129,0.005189117975533009
1.7275296242253852e+18,-0.0012043913593515754,0.006309878081083298,0.0044449446722865105
1.7275296242343854e+18,-0.00230580591596663,0.006368803326040506,0.004401555750519037
1.7275296242433856e+18,-0.004796684719622135,0.005335781257599592,0.005618153139948845
1.7275296242523858e+18,-0.0019525191746652126,0.008867875672876835,0.005615611560642719
1.727529624261386e+18,-0.004713885020464659,0.012192617170512676,0.003233276540413499
1.7275296242703862e+18,-0.005276193842291832,0.00512932613492012,0.004054933320730925
1.7275296242793864e+18,-0.003723978064954281,0.00786462239921093,0.003921653144061565
1.7275296242883866e+18,-0.0016090152785182,0.004451638553291559,0.00446275295689702
1.7275296243003868e+18,-0.0003962709743063897,0.009813304990530014,0.0018453767988830805
1.727529624309387e+18,-0.0021182256750762463,0.007610550615936518,0.0019423699704930186
1.7275296243153871e+18,0.00013588392175734043,0.006454874761402607,0.004968642257153988
1.7275296243243873e+18,-0.0021520471200346947,0.007824513129889965,0.001329854130744934
1.7275296243333875e+18,0.002034498378634453,0.006229409947991371,0.0016725168097764254
1.7275296243453878e+18,-0.0013878422323614359,0.005126063246279955,0.0011059190146625042
1.727529624354388e+18,0.0012729545123875141,0.006583679001778364,0.0011171292280778289
1.727529624360388e+18,0.0004460609925445169,0.007647851947695017,4.461035132408142e-07
1.7275296243693883e+18,-0.00023888942087069154,0.006899056490510702,0.0006202724180184305
1.7275296243813885e+18,-0.0008466856088489294,0.0062448675744235516,0.0032108016312122345
1.7275296243903887e+18,0.0010334523394703865,0.0034819641150534153,0.00047658366383984685
1.727529624399389e+18,-0.0003421969013288617,0.003311865497380495,-0.0006691134767606854
1.727529624408389e+18,0.0017809778219088912,0.0037090934347361326,0.0023242859169840813
1.7275296244173893e+18,0.00202022772282362,0.004908465780317783,-0.0007793669356033206
1.7275296244233894e+18,-0.0002820355584844947,0.003971779253333807,0.0013801995664834976
1.7275296244323896e+18,0.0016867368249222636,0.002142427023500204,-0.0008382350788451731
1.7275296244413898e+18,-0.004130604211241007,0.001245403429493308,-0.0009808988543227315
1.72752962445039e+18,1.541036181151867e-05,0.004359813407063484,-0.0027926843613386154
1.7275296244593902e+18,-0.003301183693110943,0.002825540490448475,-0.001100239809602499
1.7275296244683904e+18,0.0025650705210864544,0.0031331833451986313,-1.2887932825833559e-05
1.7275296244773906e+18,-0.00031220295932143927,0.005369117017835379,-0.00036587342037819326
1.7275296244863908e+18,0.0029829416889697313,0.0022577783092856407,-0.0014462030958384275
1.727529624495391e+18,-0.0007272983784787357,0.0035855420865118504,-0.0014420181978493929
1.7275296245043912e+18,-0.0030964810866862535,0.0025000565219670534,-0.0010066855465993285
1.7275296245103913e+18,-0.00422119814902544,0.004681698977947235,0.0008590099168941379
1.7275296245193915e+18,-0.0023178851697593927,0.0026403930969536304,-0.00042277423199266195
1.7275296245253916e+18,-0.0037559906486421824,0.003837957512587309,-0.0007498266058973968
1.7275296245343918e+18,-0.00013023498468101025,0.003596018999814987,-0.00042950938222929835
1.727529624543392e+18,-0.0015724627301096916,0.0023766683880239725,-0.002548279706388712
1.7275296245523922e+18,0.00039635159191675484,0.0036755644250661135,-0.002491057850420475
1.7275296245613924e+18,0.0009545828215777874,0.0064791347831487656,-0.003349264618009329
1.7275296245703926e+18,0.0007395018474198878,0.002154379617422819,-0.0029537437949329615
1.7275296245793928e+18,0.00136291841045022,0.00542583130300045,-0.0029009473510086536
1.727529624585393e+18,-0.0017951197223737836,0.0026936926878988743,-0.0034740692935884
1.727529624594393e+18,-0.003230806440114975,0.0022492092102766037,-0.0031863106414675713
1.7275296246033933e+18,-0.004301625769585371,0.002405639970675111,-0.0018760394304990768
1.7275296246153935e+18,-0.0030398666858673096,0.0013008916284888983,-0.0034108117688447237
1.7275296246243937e+18,-0.0028730682097375393,0.0034887418150901794,-0.0026547324378043413
1.727529624633394e+18,-0.004237229935824871,0.003795008175075054,-0.0011490719625726342
1.727529624642394e+18,0.0019250089535489678,0.003367835655808449,-0.0009822538122534752
1.7275296246513943e+18,-0.0012846949975937605,0.0032805800437927246,-0.0027313220780342817
1.7275296246603945e+18,-0.00014433288015425205,0.0028707673773169518,3.0508963391184807e-05
1.7275296246693947e+18,-0.004114177543669939,0.0047823647037148476,-0.0023064734414219856
1.727529624678395e+18,-0.0015175978187471628,0.003092200728133321,-0.004303371533751488
1.727529624687395e+18,-0.0022517440374940634,0.0019777235575020313,-0.0034626019187271595
1.7275296246963953e+18,0.0007598010124638677,0.005078816786408424,-0.001595409237779677
1.7275296247053955e+18,0.001054906053468585,0.0037818406708538532,-0.002876696642488241
1.7275296247143956e+18,0.002084976527839899,0.0017671745736151934,-0.005340867210179567
1.7275296247233958e+18,0.0010228814790025353,0.006319367326796055,-0.00759448017925024
1.727529624732396e+18,-0.0006299273227341473,0.005164214875549078,-0.003692334983497858
1.7275296247413962e+18,-0.0017304273787885904,0.005034673493355513,-0.0005019949749112129
1.7275296247503964e+18,-0.0005711993435397744,0.0026262300089001656,-0.0012333322083577514
1.7275296247563965e+18,-0.0025595715269446373,0.00155309506226331,-0.0037914353888481855
1.7275296247653967e+18,-0.001574946567416191,0.0036303880624473095,-0.004888433031737804
1.727529624777397e+18,0.0010588441509753466,0.0029387406539171934,-0.002594530349597335
1.727529624783397e+18,-0.0005059422692283988,0.005229684989899397,-0.004622564651072025
1.7275296247923973e+18,0.003343747230246663,0.0019400010351091623,8.81438609212637e-05
1.7275296248013975e+18,-0.0006997586460784078,0.006751862820237875,-0.003252731403335929
1.7275296248103977e+18,-0.0005624786717817187,0.0071248216554522514,-0.0007327769417315722
1.727529624819398e+18,-0.0007705246098339558,0.007663525640964508,-0.003681918140500784
1.727529624828398e+18,-0.001492917537689209,0.005620354786515236,-0.002604600740596652
1.7275296248373983e+18,-0.0007408953970298171,0.008955536410212517,-0.004178974311798811
1.7275296248463985e+18,0.0011096386006101966,0.007907281629741192,-0.0034846519120037556
1.7275296248553987e+18,-0.00010874355211853981,0.008194620721042156,-0.005143317393958569
1.7275296248643988e+18,0.0006106713553890586,0.009426623582839966,-0.0029497419018298388
1.727529624873399e+18,-0.0011422059033066034,0.008922896347939968,-0.0030052890069782734
1.7275296248823992e+18,-0.0012779663084074855,0.01025871466845274,-0.002548085991293192
1.7275296248913994e+18,-0.0007314898539334536,0.008471821434795856,-0.0026404396630823612
1.7275296249003996e+18,-0.0022310500498861074,0.007413845509290695,-0.004767958540469408
1.7275296249093998e+18,0.0003137910971418023,0.010048795491456985,-0.0025305869057774544
1.7275296249184e+18,-0.003169488627463579,0.006605038419365883,-0.0015810320619493723
1.7275296249304003e+18,-0.0010015498846769333,0.006920005194842815,-0.006643830332905054
1.7275296249364004e+18,-0.0018232185393571854,0.0075438558124005795,-0.0024573509581387043
1.7275296249454006e+18,-0.0029509696178138256,0.006413883995264769,-0.0038358510937541723
1.7275296249544008e+18,-0.0022820276208221912,0.012598235160112381,-0.006695280782878399
1.727529624966401e+18,-0.0034938377793878317,0.007791970390826464,-0.0042129079811275005
1.7275296249754012e+18,-0.0003814722876995802,0.007913155481219292,-0.004342998843640089
1.7275296249844014e+18,-9.920622687786818e-05,0.009175654500722885,-0.003406644333153963
1.7275296249934016e+18,-0.003763497807085514,0.007392076309770346,-0.0039112865924835205
1.7275296250024018e+18,-0.000571650976780802,0.007025898899883032,-0.004604796413332224
1.727529625011402e+18,-0.003398243337869644,0.004714854061603546,-0.0029169456101953983
1.7275296250204022e+18,-0.002544538350775838,0.004552013706415892,-0.004941457882523537
1.7275296250294024e+18,-0.003349055303260684,0.003944150637835264,-0.005186531692743301
1.7275296250384026e+18,-0.0013986334670335054,0.004138978198170662,-0.003995249047875404
1.7275296250474028e+18,-0.0011324887163937092,0.005952605977654457,-0.004240145441144705
1.727529625053403e+18,0.002919253893196583,0.00656508281826973,-0.002976096933707595
1.727529625062403e+18,0.002329757437109947,0.007715797517448664,-0.004097338765859604
1.7275296250714033e+18,-0.0013022880302742124,0.006294532213360071,-0.005567852407693863
1.7275296250804035e+18,-0.0010810036910697818,0.006710444577038288,-0.004397808574140072
1.7275296250894036e+18,-0.00521466601639986,0.007466588634997606,-0.0030636880546808243
1.7275296250984038e+18,-0.003417999017983675,0.0067255753092467785,-0.004195875488221645
1.727529625107404e+18,0.0030574395786970854,0.0035708334762603045,-0.006144355051219463
1.7275296251164042e+18,3.8841390050947666e-05,0.0022455849684774876,-0.003707940224558115
1.7275296251254044e+18,-0.0002481667324900627,0.005969826597720385,-0.005556080024689436
1.7275296251344046e+18,0.004037960898131132,0.006772349588572979,-0.0043640704825520515
1.7275296251434048e+18,-6.5248459577560425e-06,0.003267320804297924,-0.0016140989027917385
1.727529625152405e+18,9.974197018891573e-05,0.004710635170340538,-0.005666306242346764
1.7275296251614052e+18,0.004309851210564375,0.0055913738906383514,-0.004578439984470606
1.7275296251704054e+18,-0.000926201231777668,0.0050885737873613834,-0.0040437099523842335
1.7275296251794056e+18,0.003089425852522254,0.006694353185594082,-0.005150786601006985
1.7275296251884058e+18,0.002419364405795932,0.00693419948220253,-0.006743781268596649
1.727529625194406e+18,0.0022822243627160788,0.007751901168376207,-0.0030495235696434975
1.7275296252064061e+18,0.004029721021652222,0.004188630264252424,-0.0025464645586907864
1.7275296252154063e+18,0.0013759923167526722,0.0032567400485277176,-0.004549854435026646
1.7275296252244065e+18,0.0053328583016991615,0.00134003022685647,-0.006350682117044926
1.7275296252334067e+18,0.0026038414798676968,0.0029630730859935284,-0.005218852311372757
1.727529625242407e+18,0.0016986323753371835,0.00399806397035718,-0.004928844515234232
1.727529625251407e+18,0.003857752773910761,0.004174508154392242,-0.003676449414342642
1.7275296252604073e+18,0.0007109048310667276,0.0028099394403398037,-0.0037838234566152096
1.7275296252694075e+18,0.003063063370063901,0.006384421605616808,-0.005143554415553808
1.7275296252784077e+18,0.0028660756070166826,0.002127797808498144,-0.0032399664632976055
1.7275296252874079e+18,0.0012775000650435686,-2.410123124718666e-05,-0.0037415768019855022
1.727529625296408e+18,0.005054491106420755,0.0030537527054548264,-0.005157271400094032
1.7275296253054083e+18,0.0037819796707481146,-0.00033484678715467453,-0.007481202483177185
1.7275296253144084e+18,0.005088246427476406,0.0022906369995325804,-0.005863839760422707
1.7275296253234086e+18,0.0027848854660987854,0.0051053534261882305,-0.006133622024208307
1.7275296253324088e+18,0.0014567651087418199,0.006649462040513754,-0.003223193809390068
1.727529625338409e+18,0.006867127493023872,0.005789498332887888,-0.004440272692590952
1.7275296253474092e+18,0.005504677537828684,0.003134788479655981,-0.003931346815079451
1.7275296253564093e+18,0.00731425266712904,-0.0003482383908703923,-0.0030180735047906637
1.7275296253654095e+18,0.00580843910574913,0.0008566726464778185,-0.005411513149738312
1.7275296253744097e+18,0.005157369654625654,6.003089947625995e-05,-0.005599000491201878
1.72752962538641e+18,-0.0019468506798148155,-4.4804648496210575e-05,-0.004119613207876682
1.72752962539241e+18,0.003539798315614462,0.0007371032843366265,-0.007567078806459904
1.7275296254014103e+18,0.005276731215417385,0.001406534225679934,-0.0074288509786129
1.7275296254134106e+18,0.00467838067561388,-0.0005989992059767246,-0.0033589426893740892
1.7275296254194107e+18,0.007027223706245422,0.0021097171120345592,-0.005529699847102165
1.727529625428411e+18,0.004751126281917095,0.0014352715807035565,-0.004330507479608059
1.727529625437411e+18,0.006135943345725536,0.002571206307038665,-0.0030556698329746723
1.7275296254464113e+18,0.0021002409048378468,0.00200371234677732,-0.0054041435942053795
1.7275296254554115e+18,0.0029894676990807056,-0.0009077471913769841,-0.0029113320633769035
1.7275296254644116e+18,0.0012691523879766464,0.004008754622191191,-0.0036992982495576143
1.7275296254734118e+18,-0.0008292412385344505,0.00045220612082630396,-0.0021267717238515615
1.727529625482412e+18,0.0011567252222448587,0.001036474946886301,-0.004405942279845476
1.7275296254914122e+18,0.0005754542071372271,0.0010138513753190637,-0.006924581713974476
1.7275296255004124e+18,0.006606192793697119,0.002436351031064987,-0.0056624384596943855
1.7275296255094126e+18,0.006506165023893118,0.003977423999458551,-0.0029034982435405254
1.7275296255184128e+18,0.006621761247515678,0.0035323486663401127,-0.006404414307326078
1.727529625527413e+18,0.003447333350777626,0.0037210111040621996,-0.0021698775235563517
1.7275296255364132e+18,-0.002464702120050788,0.0007487598340958357,-0.004049836192280054
1.7275296255454134e+18,0.001599528593942523,0.002579781459644437,-0.0045824614353477955
1.7275296255544136e+18,0.0018161298939958215,0.002846377668902278,-0.004194971639662981
1.7275296255634138e+18,0.0032132042106240988,0.0016619652742519975,-0.0036002248525619507
1.727529625572414e+18,0.006978586316108704,0.0018025834579020739,-0.004020745400339365
1.7275296255814141e+18,0.004529951140284538,0.0017046406865119934,-0.003589247353374958
1.7275296255904143e+18,0.002365278545767069,0.0014838386559858918,-0.003723351750522852
1.7275296255994145e+18,0.0046249027363955975,-0.00046638958156108856,-0.004575587343424559
1.7275296256084147e+18,0.0002501651179045439,0.0009123049676418304,-0.004737096838653088
1.727529625617415e+18,0.0023750998079776764,0.0019828304648399353,-0.003452202770859003
1.727529625626415e+18,0.003812112845480442,0.0013908898690715432,-0.0039228955283761024
1.7275296256354153e+18,0.0022766930051147938,0.004553460981696844,-0.004401355050504208
1.7275296256444155e+18,0.004652464762330055,0.0035484544932842255,-0.0043776980601251125
1.7275296256534157e+18,0.00616531353443861,0.0010771246161311865,-0.0032080672681331635
1.727529625662416e+18,0.0031456847209483385,0.003996005281805992,-0.0069223977625370026
1.727529625671416e+18,0.00039373082108795643,0.004011007025837898,-0.006557378452271223
1.7275296256804163e+18,-0.0010155071504414082,0.0050416374579072,-0.005178211722522974
1.7275296256894164e+18,0.0009275875054299831,0.0055937254801392555,-0.004503720439970493
1.7275296256984166e+18,0.004042214713990688,0.0033379257656633854,-0.004253032151609659
1.7275296257074168e+18,0.004517110530287027,-0.0001373507548123598,-0.007836058735847473
1.727529625716417e+18,0.004963234066963196,0.003981646150350571,-0.00864437036216259
1.7275296257254172e+18,0.0037600223440676928,0.0011474525090306997,-0.0038409922271966934
1.7275296257344174e+18,0.002768439706414938,0.0009207336697727442,-0.006193793378770351
1.7275296257434176e+18,0.001685761846601963,0.002151740249246359,-0.0027907039038836956
1.7275296257524178e+18,0.0012499346630647779,0.005915626883506775,-0.0010315049439668655
1.727529625761418e+18,-9.359670366393402e-05,0.0033291697036474943,-0.004645783919841051
1.7275296257704182e+18,0.0005664440104737878,0.004168749786913395,-0.005702607333660126
1.7275296257794184e+18,-0.003256305819377303,0.0015929900109767914,-0.0037426543422043324
1.7275296257884186e+18,-0.0026544607244431973,0.0020854955073446035,-0.0043834177777171135
1.7275296257974188e+18,-0.000859202875290066,0.001894171815365553,-0.00742908101528883
1.727529625806419e+18,0.0021223376970738173,0.0035582659766077995,-0.00413200119510293
1.7275296258154191e+18,0.005790400318801403,0.006449886132031679,-0.0047856662422418594
1.7275296258244193e+18,0.00021195737645030022,0.006884441711008549,-0.006521179340779781
1.7275296258334195e+18,0.0024956448469311,0.004959741607308388,-0.005810337141156197
1.7275296258424197e+18,0.0038591031916439533,-0.0018936628475785255,-0.004994653165340424
1.72752962585142e+18,0.004534994717687368,-0.0010553881293162704,-0.00527280243113637
1.72752962586042e+18,0.0013584746047854424,5.0613482017070055e-05,-0.005522154271602631
1.7275296258694203e+18,0.0029224378522485495,0.0012493953108787537,-0.006070252973586321
1.7275296258784205e+18,0.00454729562625289,0.004145848099142313,-0.006207168567925692
1.7275296258874207e+18,0.0033870935440063477,0.0061292946338653564,-0.00513574481010437
1.7275296258964209e+18,0.0027488484047353268,0.002686046529561281,-0.0038787261582911015
1.727529625905421e+18,0.002653469331562519,0.003925188910216093,-0.0027196588926017284
1.7275296259144212e+18,0.002026955597102642,0.003162000561133027,-0.006200316362082958
1.7275296259234214e+18,0.0025639603845775127,0.0003854348324239254,-0.004738043528050184
1.7275296259324216e+18,0.0031642778776586056,0.0031421734020113945,-0.0056032948195934296
1.7275296259414218e+18,0.003713988931849599,-0.00330000976100564,-0.007729603908956051
1.727529625950422e+18,0.003508931025862694,0.0041157035157084465,-0.001688726944848895
1.7275296259594222e+18,0.0003187693655490875,0.002584045520052314,-0.0052552493289113045
1.7275296259684224e+18,0.000552275450900197,0.0038619646802544594,-0.0033422252163290977
1.7275296259744225e+18,0.0036550876684486866,0.0015101154567673802,-0.005595955532044172
1.7275296259834227e+18,0.00048788386629894376,0.0029413120355457067,-0.006270423997193575
1.7275296259894228e+18,0.0019897636957466602,0.001997828483581543,-0.005775257013738155
1.727529625995423e+18,-0.0005995915271341801,-0.00031511823181062937,-0.003437525127083063
1.7275296260044232e+18,-0.0018247399711981416,0.0017464683623984456,-0.0034827699419111013
1.7275296260164234e+18,-0.0011210445081815124,0.0024948986247181892,-0.002295257756486535
1.7275296260254236e+18,0.003360699163749814,0.00164548319298774,-0.004323039669543505
1.7275296260314237e+18,0.003866225481033325,0.0011498110834509134,-0.0063517410308122635
1.727529626043424e+18,0.002543464070186019,0.003070300677791238,-0.0046051000244915485
