timestamp,accel_x,accel_y,accel_z
1.7294985721201165e+18,0.029388679191470146,0.03969535231590271,-9.800863265991211
1.7294985721291167e+18,0.0390213318169117,-0.11529321223497391,-9.79461669921875
1.7294985721351168e+18,-0.016011985018849373,-0.010453608818352222,-9.829726219177246
1.729498572144117e+18,0.07084634900093079,0.0006420653080567718,-9.877128601074219
1.729498572150117e+18,0.012293769046664238,0.02900688163936138,-9.830580711364746
1.7294985721591173e+18,-0.0480850525200367,-0.008107379078865051,-9.805557250976562
1.7294985721681175e+18,-0.027063781395554543,0.0075352005660533905,-9.841567993164062
1.7294985721741176e+18,-0.051847994327545166,-0.01425502635538578,-9.713542938232422
1.7294985721831178e+18,0.04755036160349846,0.04403139278292656,-9.819438934326172
1.729498572192118e+18,0.08466870337724686,0.036638613790273666,-9.858097076416016
1.7294985721981181e+18,0.035667307674884796,0.01965910941362381,-9.764633178710938
1.7294985722071183e+18,-0.08707427978515625,0.014715293422341347,-9.782308578491211
1.7294985722161185e+18,0.0033626954536885023,0.03914271667599678,-9.829010009765625
1.7294985722221187e+18,0.03771258518099785,0.05191167816519737,-9.814580917358398
1.7294985722311188e+18,-0.026746263727545738,0.07248549908399582,-9.835563659667969
1.729498572240119e+18,0.05047350749373436,0.015010407194495201,-9.846511840820312
1.7294985722491192e+18,0.0888093113899231,-0.04238208010792732,-9.781142234802246
1.7294985722581194e+18,0.008045727387070656,-0.010028679855167866,-9.86862850189209
1.7294985722671196e+18,-0.03544666990637779,0.019879881292581558,-9.834399223327637
1.7294985722761198e+18,-0.043679580092430115,0.007362717762589455,-9.819544792175293
1.72949857228212e+18,0.01721714250743389,0.02794162556529045,-9.856391906738281
1.72949857229112e+18,0.019347434863448143,-0.061004456132650375,-9.866619110107422
1.7294985723001203e+18,-0.033745791763067245,-0.015188771300017834,-9.795512199401855
1.7294985723061204e+18,0.06362143158912659,-0.026445884257555008,-9.785755157470703
1.7294985723151206e+18,-0.0067874896340072155,-0.03532252088189125,-9.894721984863281
1.7294985723211208e+18,-0.04650166258215904,-0.04939979687333107,-9.75970458984375
1.729498572330121e+18,-0.012221046723425388,-0.07515106350183487,-9.880002975463867
1.7294985723391212e+18,-0.07036026567220688,-0.044482674449682236,-9.756031036376953
1.7294985723451213e+18,0.012854306027293205,0.021952498704195023,-9.800230026245117
1.7294985723541215e+18,-0.0905630812048912,0.07084354013204575,-9.816296577453613
1.7294985723631217e+18,0.0016837181756272912,-0.019109396263957024,-9.846280097961426
1.7294985723691218e+18,0.03418339043855667,-0.012949149124324322,-9.83413314819336
1.729498572378122e+18,-0.021493908017873764,-0.0921635553240776,-9.73923397064209
1.7294985723871222e+18,0.05501443147659302,0.0032468242570757866,-9.864933013916016
1.7294985723931223e+18,0.013730267062783241,-0.04013917222619057,-9.873880386352539
1.7294985724021225e+18,-0.01169807929545641,-0.010768434964120388,-9.821531295776367
1.7294985724081226e+18,0.019922252744436264,0.02969779260456562,-9.840177536010742
1.7294985724171228e+18,0.05461527034640312,-0.013721819035708904,-9.796968460083008
1.729498572426123e+18,0.04853077605366707,0.03609566390514374,-9.850740432739258
1.7294985724321231e+18,0.02808823063969612,0.01173707377165556,-9.817596435546875
1.7294985724411233e+18,-0.024990061298012733,-0.010699289850890636,-9.832551002502441
1.7294985724501235e+18,0.02873063273727894,-0.01975754089653492,-9.766450881958008
1.7294985724561236e+18,-0.0007597977528348565,-0.04395132139325142,-9.79702091217041
1.7294985724651238e+18,0.007992075756192207,-0.09169909358024597,-9.780345916748047
1.729498572474124e+18,0.06002531200647354,0.06940864026546478,-9.777472496032715
1.7294985724801242e+18,-0.019335662946105003,-0.09113216400146484,-9.846389770507812
1.7294985724891244e+18,0.058174390345811844,-0.021549828350543976,-9.736346244812012
1.7294985724981245e+18,-0.11477860063314438,-0.018566148355603218,-9.847471237182617
1.7294985725041247e+18,0.013593797571957111,-0.05201731622219086,-9.87049674987793
1.7294985725131249e+18,-0.043335311114788055,0.06207636743783951,-9.818094253540039
1.729498572519125e+18,-0.03382064774632454,0.060900311917066574,-9.85750675201416
1.7294985725281252e+18,0.039611317217350006,-0.03936310485005379,-9.802351951599121
1.7294985725371254e+18,-0.021843882277607918,0.010972635820508003,-9.820281982421875
1.7294985725431255e+18,0.024724600836634636,-0.021958336234092712,-9.82998275756836
1.7294985725521257e+18,-0.03853391483426094,0.02934330143034458,-9.789826393127441
1.729498572561126e+18,0.03609968349337578,-0.04248756170272827,-9.829960823059082
1.729498572570126e+18,-0.06918764859437943,-0.05473065376281738,-9.779457092285156
1.7294985725791263e+18,0.0737096294760704,0.005858058109879494,-9.831621170043945
1.7294985725851264e+18,0.025292720645666122,0.053274158388376236,-9.793448448181152
1.7294985725941266e+18,0.02424093522131443,-0.014388267882168293,-9.784036636352539
1.7294985726001267e+18,0.019434910267591476,0.06246251240372658,-9.84506607055664
1.729498572609127e+18,0.030676554888486862,-0.03127576783299446,-9.848749160766602
1.729498572618127e+18,0.05609605461359024,0.00670732231810689,-9.793132781982422
1.7294985726241272e+18,-0.06338346749544144,0.07080978155136108,-9.8502836227417
1.7294985726331274e+18,0.0015340531244874,0.02351471222937107,-9.758977890014648
1.7294985726421276e+18,-0.0009523252374492586,0.0078057837672531605,-9.8757963180542
1.7294985726481277e+18,-0.013396598398685455,-0.007449697237461805,-9.789871215820312
1.729498572657128e+18,-0.026609722524881363,0.07994095981121063,-9.854913711547852
1.729498572663128e+18,-0.0251553263515234,-0.03488703817129135,-9.72468090057373
1.7294985726721283e+18,-0.0007917945040389895,0.01104961708188057,-9.797769546508789
1.7294985726811284e+18,-0.08684780448675156,0.013902009464800358,-9.765625
1.7294985726871286e+18,-0.02065221220254898,-0.01046051550656557,-9.846372604370117
1.7294985726961288e+18,0.02978072315454483,-0.07011184841394424,-9.82287883758545
1.729498572705129e+18,-0.015291284769773483,-0.029340986162424088,-9.864317893981934
1.729498572711129e+18,0.012989860959351063,-0.008468295447528362,-9.83315658569336
1.7294985727171292e+18,-0.014546440914273262,0.09088055044412613,-9.808252334594727
1.7294985727261294e+18,0.015077322721481323,-0.023973368108272552,-9.856246948242188
1.7294985727321295e+18,0.015505519695580006,0.042177457362413406,-9.872282028198242
1.7294985727411297e+18,-0.06177213042974472,0.04222865030169487,-9.896608352661133
1.72949857275013e+18,0.008446346037089825,-0.003344970755279064,-9.790474891662598
1.72949857275913e+18,-0.10972421616315842,0.014765813946723938,-9.847992897033691
1.7294985727651302e+18,0.019762210547924042,0.018340758979320526,-9.86378002166748
1.7294985727741304e+18,-0.07051651179790497,0.0043334499932825565,-9.859345436096191
1.7294985727801306e+18,-0.07786709815263748,0.05960498005151749,-9.79055118560791
1.7294985727891308e+18,-0.029670419171452522,0.077455073595047,-9.847091674804688
1.729498572798131e+18,-0.016371825709939003,-0.006678672507405281,-9.79536247253418
1.729498572804131e+18,0.07696452736854553,0.05460801720619202,-9.86081600189209
1.7294985728131313e+18,0.012578342109918594,0.03859277069568634,-9.779685974121094
1.7294985728191314e+18,-0.0011822935193777084,0.030290784314274788,-9.8927583694458
1.7294985728281316e+18,-0.0013634158531203866,-0.009041632525622845,-9.779945373535156
1.7294985728341317e+18,0.05812203511595726,0.00264551374129951,-9.863670349121094
1.729498572843132e+18,0.07909318059682846,-0.0004331665113568306,-9.8351411819458
1.729498572852132e+18,0.01224605180323124,0.01936398260295391,-9.775959968566895
1.7294985728581322e+18,-0.03388253599405289,0.045179422944784164,-9.80353832244873
1.7294985728671324e+18,-0.01152676809579134,0.02313486486673355,-9.810436248779297
1.7294985728761326e+18,-0.0003966311633121222,-0.05221028998494148,-9.780339241027832
1.7294985728851328e+18,-0.011977551504969597,0.000963676196988672,-9.819067001342773
1.729498572891133e+18,-0.04508326202630997,-0.027373265475034714,-9.827362060546875
1.729498572900133e+18,0.06632048636674881,-0.03775758296251297,-9.770917892456055
1.7294985729091333e+18,-0.007558900862932205,-0.0026997218374162912,-9.827631950378418
1.7294985729151334e+18,0.02401896007359028,0.027151038870215416,-9.800180435180664
1.7294985729241336e+18,0.03265891224145889,0.02923021838068962,-9.746212005615234
1.7294985729331338e+18,-0.008903349749743938,-0.07394897937774658,-9.819929122924805
1.729498572942134e+18,0.05691538378596306,0.02383558638393879,-9.885889053344727
1.7294985729481341e+18,0.030861565843224525,0.0323934443295002,-9.805429458618164
1.7294985729571343e+18,0.03587985038757324,-0.019634593278169632,-9.76526165008545
1.7294985729661345e+18,0.036404017359018326,0.0009230461437255144,-9.708502769470215
1.7294985729721347e+18,0.01807890087366104,-0.01762205921113491,-9.879010200500488
1.7294985729811348e+18,0.05454922094941139,-0.0029236620757728815,-9.774849891662598
1.729498572990135e+18,-0.0010512524750083685,-0.010806664824485779,-9.77669906616211
1.7294985729961352e+18,0.07013989984989166,0.07096826285123825,-9.785372734069824
1.7294985730051354e+18,-0.05404050275683403,0.04837075620889664,-9.841034889221191
1.7294985730111355e+18,-0.0047474028542637825,0.019167812541127205,-9.811978340148926
1.7294985730201357e+18,0.009125416167080402,0.02465064451098442,-9.896978378295898
1.729498573029136e+18,0.0619625560939312,0.05768166482448578,-9.869876861572266
1.729498573035136e+18,-0.008190061897039413,0.027862535789608955,-9.780967712402344
1.7294985730441362e+18,0.009250340051949024,-0.10994153469800949,-9.83591365814209
1.7294985730501363e+18,-0.020292097702622414,-0.004905726760625839,-9.716705322265625
1.7294985730591365e+18,-0.010314224287867546,0.001116173341870308,-9.784204483032227
1.7294985730681367e+18,0.10200761258602142,0.0071116560138762,-9.875389099121094
1.729498573077137e+18,0.0005838489742018282,-0.023975418880581856,-9.79664421081543
1.729498573083137e+18,-0.003729271236807108,-0.01909634843468666,-9.836161613464355
1.7294985730921372e+18,0.002705875551328063,-0.02595229633152485,-9.874674797058105
1.7294985731011374e+18,0.026126369833946228,0.015353870578110218,-9.732735633850098
1.7294985731071375e+18,-0.09552541375160217,0.07653902471065521,-9.786359786987305
1.7294985731161377e+18,0.0666717141866684,0.0027681076899170876,-9.778114318847656
1.729498573125138e+18,-0.00781997200101614,-0.138533353805542,-9.731537818908691
1.729498573131138e+18,0.021364275366067886,0.04921405389904976,-9.789183616638184
1.7294985731401382e+18,0.004592677112668753,-0.004026323556900024,-9.797613143920898
1.7294985731461384e+18,-0.02512766607105732,0.04818132892251015,-9.936906814575195
1.7294985731551386e+18,-0.06345947086811066,0.039086513221263885,-9.783634185791016
1.7294985731641388e+18,-0.00012114011769881472,-0.02805006317794323,-9.826857566833496
1.729498573170139e+18,-0.03064114972949028,-0.0464860238134861,-9.783221244812012
1.729498573179139e+18,-0.020696865394711494,-0.003908626269549131,-9.82573413848877
1.7294985731881393e+18,-0.04828931763768196,-0.10876718163490295,-9.881367683410645
1.7294985732001395e+18,-0.06752803921699524,-0.0014278445160016418,-9.81887435913086
1.7294985732091397e+18,0.018141206353902817,-0.021500900387763977,-9.790910720825195
1.7294985732151398e+18,0.0037967709358781576,-0.021425677463412285,-9.811484336853027
1.72949857322414e+18,0.0272822305560112,0.054704394191503525,-9.871563911437988
1.7294985732331402e+18,-0.09578516334295273,0.04699123278260231,-9.833163261413574
1.7294985732421404e+18,-0.03464134782552719,0.022674979642033577,-9.7950439453125
1.7294985732481405e+18,-0.020315028727054596,-0.10149107873439789,-9.768884658813477
1.7294985732571407e+18,0.007832915522158146,0.01789790950715542,-9.786151885986328
1.729498573266141e+18,0.008680521510541439,0.05791258439421654,-9.848188400268555
1.729498573272141e+18,0.028201524168252945,0.020347097888588905,-9.849732398986816
1.7294985732811412e+18,-0.10285492986440659,-0.025081338360905647,-9.802346229553223
1.7294985732901414e+18,0.007422353141009808,0.014972304925322533,-9.783003807067871
1.7294985732961416e+18,0.041086044162511826,-0.09332119673490524,-9.833823204040527
1.7294985733051418e+18,0.0018351748585700989,-0.04318298399448395,-9.782096862792969
1.729498573314142e+18,-0.09350404888391495,0.03855543211102486,-9.891772270202637
1.729498573320142e+18,0.02320406772196293,0.05348088964819908,-9.831671714782715
1.7294985733291423e+18,-0.13984312117099762,-0.020608937367796898,-9.797811508178711
1.7294985733351424e+18,-0.047650232911109924,-0.02073582261800766,-9.834147453308105
1.7294985733441426e+18,-0.014582554809749126,-0.040685512125492096,-9.820959091186523
1.7294985733531428e+18,0.01934739202260971,-0.04254955053329468,-9.801865577697754
1.729498573362143e+18,-0.02742554247379303,0.05589388683438301,-9.778905868530273
1.729498573368143e+18,-0.01784886233508587,-0.004418713040649891,-9.71678352355957
1.7294985733771433e+18,-0.061212945729494095,-0.04935188591480255,-9.757880210876465
1.7294985733861435e+18,0.06197873502969742,0.05791047215461731,-9.851075172424316
1.7294985733951437e+18,0.07109661400318146,0.014751221984624863,-9.856438636779785
1.7294985734011438e+18,-0.0950513631105423,0.012151261791586876,-9.90446949005127
1.729498573410144e+18,-0.09074057638645172,-0.015245321206748486,-9.772456169128418
1.7294985734191442e+18,0.059632182121276855,-0.05217686668038368,-9.854573249816895
1.7294985734251443e+18,0.06071390211582184,-0.09267410635948181,-9.7333345413208
1.7294985734341445e+18,-0.07690289616584778,0.08152662962675095,-9.794858932495117
1.7294985734401446e+18,0.05163700506091118,0.08052346110343933,-9.882580757141113
1.7294985734491448e+18,-0.036404065787792206,-0.08086320757865906,-9.842062950134277
1.729498573458145e+18,0.05570141226053238,0.02186526358127594,-9.780097961425781
1.7294985734641452e+18,-0.03177541121840477,0.03622836619615555,-9.798050880432129
1.7294985734761454e+18,-0.04357527568936348,-0.061264798045158386,-9.82892894744873
1.7294985734821455e+18,-0.05784178525209427,-0.020297590643167496,-9.789959907531738
1.7294985734911457e+18,-0.03568459302186966,-0.01259442139416933,-9.775290489196777
1.729498573500146e+18,0.05755065754055977,-0.00977307092398405,-9.807306289672852
1.729498573506146e+18,0.1186547726392746,-0.008605176582932472,-9.784655570983887
1.7294985735151462e+18,0.017571846023201942,-0.01042049191892147,-9.785917282104492
1.7294985735211464e+18,-0.039604105055332184,0.02913789451122284,-9.804285049438477
1.7294985735301466e+18,-0.08694276958703995,-0.01646384783089161,-9.845645904541016
1.7294985735361467e+18,0.016978813335299492,-0.04572516307234764,-9.73707389831543
1.729498573545147e+18,-0.00237637129612267,-0.045644260942935944,-9.797525405883789
1.729498573551147e+18,0.0041208043694496155,0.011765274219214916,-9.889686584472656
1.7294985735601472e+18,0.04517588019371033,0.02412516251206398,-9.815656661987305
1.7294985735691474e+18,-0.01119228545576334,-0.004443748854100704,-9.719578742980957
1.7294985735751475e+18,0.03954289108514786,-0.049280986189842224,-9.844470977783203
1.7294985735841477e+18,-0.010099374689161777,-0.08003124594688416,-9.864840507507324
1.729498573593148e+18,0.03121737204492092,-0.05929477512836456,-9.810150146484375
1.729498573599148e+18,-0.09366204589605331,-0.003610424231737852,-9.837259292602539
1.7294985736081482e+18,-0.04286445304751396,0.019749687984585762,-9.772953987121582
1.7294985736171484e+18,0.014514955691993237,-0.0016555791953578591,-9.84366512298584
1.7294985736261486e+18,0.003911178559064865,0.01346311904489994,-9.810193061828613
1.7294985736321487e+18,0.11222955584526062,-0.029737597331404686,-9.819197654724121
1.729498573644149e+18,-0.05377018451690674,0.018121784552931786,-9.807066917419434
1.729498573650149e+18,0.01817813515663147,0.018502257764339447,-9.805051803588867
1.7294985736591493e+18,0.10746625065803528,-0.014228037558495998,-9.877889633178711
1.7294985736681495e+18,-0.04059818387031555,0.04860435798764229,-9.82773494720459
1.7294985736741496e+18,0.0005891139735467732,-0.026333292946219444,-9.884688377380371
1.7294985736831498e+18,-0.013370269909501076,-0.03587863966822624,-9.823786735534668
1.72949857368915e+18,0.005928722210228443,0.01801537536084652,-9.809978485107422
1.7294985736981501e+18,0.011188756674528122,-0.028596192598342896,-9.77503776550293
1.7294985737071503e+18,-0.0674479529261589,-0.08208300918340683,-9.724822998046875
1.7294985737131505e+18,-0.051124997437000275,-0.0012619482586160302,-9.798662185668945
1.7294985737221507e+18,0.007809394504874945,-0.060815297067165375,-9.76615047454834
1.7294985737311508e+18,-0.03943941742181778,0.036186277866363525,-9.831291198730469
1.729498573737151e+18,0.04227832704782486,-0.042966265231370926,-9.768396377563477
1.7294985737461512e+18,-0.07823652029037476,-0.019736701622605324,-9.879790306091309
1.7294985737551514e+18,0.027200011536478996,-0.003094220068305731,-9.86015510559082
1.7294985737641516e+18,0.002789814956486225,0.023575151339173317,-9.879644393920898
1.7294985737701517e+18,-0.010447901673614979,0.0016846080543473363,-9.894262313842773
1.729498573779152e+18,-0.05206774175167084,-0.020363494753837585,-9.758294105529785
1.729498573788152e+18,-0.04008091613650322,-0.09987089037895203,-9.791971206665039
1.7294985737941522e+18,0.025681527331471443,0.0357537642121315,-9.854704856872559
1.7294985738031524e+18,-0.07180046290159225,-0.0062150899320840836,-9.803221702575684
1.7294985738121526e+18,-0.05149127170443535,0.08003294467926025,-9.793033599853516
1.7294985738181527e+18,-0.008880902081727982,-0.021300217136740685,-9.745688438415527
1.729498573827153e+18,-0.0245828740298748,-0.007912280969321728,-9.815465927124023
1.729498573833153e+18,-0.012939239852130413,0.019334228709340096,-9.816514015197754
1.7294985738451533e+18,-0.023611195385456085,0.02674105018377304,-9.756650924682617
1.7294985738511534e+18,-0.03410501778125763,0.01511459331959486,-9.809032440185547
1.7294985738601536e+18,-0.016120456159114838,0.01732286438345909,-9.792428016662598
1.7294985738691538e+18,0.020637981593608856,-0.004258793778717518,-9.77942180633545
1.729498573878154e+18,-0.035216741263866425,0.004803736228495836,-9.820449829101562
1.7294985738871542e+18,0.05839724838733673,-0.023041756823658943,-9.774372100830078
1.7294985738931543e+18,0.02871399000287056,0.04150262102484703,-9.818846702575684
1.7294985739021545e+18,0.009229100309312344,-0.01071049552410841,-9.809895515441895
1.7294985739111547e+18,-0.0162812527269125,-0.06335807591676712,-9.888646125793457
1.729498573920155e+18,0.04674709215760231,0.056315746158361435,-9.75295352935791
1.729498573929155e+18,0.050016794353723526,0.029356718063354492,-9.80370807647705
1.7294985739351552e+18,0.03716958686709404,-0.047979965806007385,-9.875432014465332
1.7294985739441554e+18,-0.025224346667528152,-0.009555215947329998,-9.763513565063477
1.7294985739531556e+18,-0.005996548105031252,0.0901675745844841,-9.816821098327637
1.7294985739591557e+18,-0.061444852501153946,-0.025421543046832085,-9.831863403320312
1.729498573968156e+18,0.014275310561060905,-0.06078328937292099,-9.7105073928833
1.729498573977156e+18,-0.10294994711875916,-0.03138391673564911,-9.879250526428223
1.7294985739831562e+18,-0.051993031054735184,0.06939723342657089,-9.754934310913086
1.7294985739921564e+18,-0.01162213645875454,0.0007566518033854663,-9.835573196411133
1.7294985740011566e+18,0.0015649202978238463,-0.021121956408023834,-9.820472717285156
1.7294985740101568e+18,0.057451702654361725,-0.019334327429533005,-9.852141380310059
1.729498574016157e+18,0.018380597233772278,0.040206197649240494,-9.672649383544922
1.729498574025157e+18,-0.019446132704615593,0.09421452134847641,-9.805583953857422
1.7294985740311572e+18,-0.025475263595581055,-0.022661078721284866,-9.788808822631836
1.7294985740401574e+18,0.021434878930449486,0.0572592169046402,-9.825961112976074
1.7294985740491576e+18,0.028032563626766205,0.056427184492349625,-9.8215970993042
1.7294985740551578e+18,0.020619098097085953,-0.0029925310518592596,-9.867372512817383
1.729498574064158e+18,-0.047095563262701035,-0.011882832273840904,-9.815142631530762
1.7294985740731581e+18,0.08741230517625809,0.06439622491598129,-9.826393127441406
1.7294985740821583e+18,-0.06928593665361404,-0.037411268800497055,-9.81968879699707
1.7294985740881585e+18,-0.005595328751951456,0.0344865545630455,-9.912616729736328
1.7294985740971587e+18,0.012211229652166367,0.025078322738409042,-9.86355209350586
1.7294985741061588e+18,0.0002461578696966171,-0.10772471129894257,-9.928937911987305
1.729498574115159e+18,-0.050069410353899,0.03598712384700775,-9.946722984313965
1.7294985741241592e+18,-0.0005175943952053785,-0.0352623350918293,-10.06888484954834
1.7294985741301594e+18,0.0037911897525191307,-0.04209480434656143,-10.027522087097168
1.7294985741391596e+18,0.053957417607307434,-0.037086568772792816,-9.988186836242676
1.7294985741451597e+18,0.025949684903025627,-0.02392718195915222,-10.058008193969727
1.7294985741541599e+18,0.05520254001021385,0.04637986794114113,-10.148056983947754
1.72949857416316e+18,-0.049749523401260376,-0.028841756284236908,-10.079395294189453
1.7294985741691602e+18,0.01217577699571848,-0.04285728186368942,-10.075968742370605
1.7294985741781604e+18,-0.02706616371870041,-0.06484631448984146,-10.099546432495117
1.7294985741841605e+18,-0.0008360547944903374,0.0019413759000599384,-10.203761100769043
1.7294985741931607e+18,-0.06939200311899185,0.05914987623691559,-10.39332103729248
1.729498574202161e+18,-0.05896119028329849,-0.04410846158862114,-10.472195625305176
1.729498574208161e+18,-0.07431542873382568,0.018460096791386604,-10.474048614501953
1.7294985742201613e+18,0.023740489035844803,-0.05871834605932236,-10.51949691772461
1.7294985742261614e+18,0.0867326408624649,-0.025844570249319077,-10.493270874023438
1.7294985742351616e+18,-0.02924451045691967,0.031547315418720245,-10.499506950378418
1.7294985742441618e+18,0.02651248127222061,0.0013615167699754238,-10.464367866516113
1.729498574250162e+18,-0.04566383361816406,0.016651112586259842,-10.469365119934082
1.729498574259162e+18,-0.030952315777540207,0.03323409706354141,-10.499385833740234
1.7294985742681623e+18,-0.054622262716293335,-0.02945074811577797,-10.460700035095215
1.7294985742771625e+18,-0.06406332552433014,-0.0364408865571022,-10.424283981323242
1.7294985742861627e+18,0.008614998310804367,0.01330462098121643,-10.528624534606934
1.729498574295163e+18,-0.006566216703504324,-0.02340119332075119,-10.486749649047852
1.729498574304163e+18,-0.01589280553162098,-0.07471172511577606,-10.448565483093262
1.7294985743101632e+18,0.04255892336368561,0.0224910955876112,-10.55706787109375
1.7294985743191634e+18,0.01238277554512024,0.042799897491931915,-10.572983741760254
1.7294985743281636e+18,-0.03767574205994606,0.05324413627386093,-10.582350730895996
1.7294985743341637e+18,-0.035694316029548645,0.013657204806804657,-10.554710388183594
1.729498574343164e+18,0.04835626482963562,-0.03736453503370285,-10.481277465820312
1.729498574352164e+18,0.03833426535129547,-0.018474794924259186,-10.547335624694824
1.7294985743611643e+18,-0.026281630620360374,0.02276630885899067,-10.556530952453613
1.7294985743671644e+18,0.032730355858802795,0.1095089316368103,-10.585553169250488
1.7294985743761646e+18,-0.04301998391747475,0.033881060779094696,-10.58549690246582
1.7294985743851648e+18,0.05467074736952782,0.029210908338427544,-10.488533973693848
1.729498574394165e+18,0.0077979713678359985,0.018413908779621124,-10.541899681091309
1.7294985744031652e+18,0.01706090196967125,0.018008986487984657,-10.6245698928833
1.7294985744151654e+18,-0.049743350595235825,0.0848328024148941,-10.606891632080078
1.7294985744211656e+18,-0.05546289682388306,0.032184142619371414,-10.558159828186035
1.7294985744301658e+18,-0.058840468525886536,-0.04101542383432388,-10.608969688415527
1.729498574439166e+18,0.07004488259553909,0.02438700944185257,-10.549921989440918
1.7294985744481661e+18,-0.07044604420661926,-0.024290617555379868,-10.573501586914062
1.7294985744571663e+18,-0.08133210241794586,0.005742342676967382,-10.527009010314941
1.7294985744661665e+18,0.03580598905682564,0.10859820991754532,-10.57418155670166
1.7294985744751667e+18,0.06604727357625961,-0.052464768290519714,-10.56014633178711
1.729498574484167e+18,-0.005180206149816513,-0.01757817342877388,-10.588525772094727
1.729498574493167e+18,-0.04989420250058174,-0.028687477111816406,-10.564494132995605
1.7294985745021673e+18,-0.037432894110679626,0.03728663921356201,-10.525960922241211
1.7294985745111675e+18,-0.01712900958955288,-0.13444852828979492,-10.655941009521484
1.7294985745201677e+18,-0.044837795197963715,-0.006530688144266605,-10.627870559692383
1.729498574529168e+18,0.03127701207995415,-0.061361659318208694,-10.579718589782715
1.729498574538168e+18,-0.023442929610610008,0.062192756682634354,-10.509302139282227
1.7294985745441682e+18,0.007679484784603119,-0.018711168318986893,-10.531970024108887
1.7294985745531684e+18,0.03195895254611969,-0.04377086088061333,-10.685940742492676
1.7294985745621686e+18,0.006174336653202772,-0.07489858567714691,-10.591325759887695
1.7294985745711688e+18,0.03588374704122543,-0.027427565306425095,-10.65186595916748
1.729498574580169e+18,-0.0061658285558223724,-0.044075753539800644,-10.63282299041748
1.7294985745891692e+18,-0.009172247722744942,0.06090487912297249,-10.613314628601074
1.7294985745951693e+18,0.025294601917266846,0.018293583765625954,-10.632502555847168
1.7294985746041695e+18,0.007839380763471127,0.07594610005617142,-10.577077865600586
1.7294985746131697e+18,0.004036213271319866,0.10572036355733871,-10.694487571716309
1.7294985746221699e+18,0.025872794911265373,0.023608805611729622,-10.612747192382812
1.72949857462817e+18,0.048195771872997284,-0.022034605965018272,-10.599441528320312
1.7294985746371702e+18,0.022405831143260002,0.005344233475625515,-10.581186294555664
1.7294985746461704e+18,0.0076558347791433334,0.016284329816699028,-10.623396873474121
1.7294985746521705e+18,-0.10835453867912292,-0.0204989742487669,-10.64816665649414
1.7294985746611707e+18,-0.05708210542798042,0.06401035189628601,-10.647799491882324
1.729498574670171e+18,-0.03504711389541626,0.031173614785075188,-10.545005798339844
1.729498574679171e+18,0.026270538568496704,0.09634187072515488,-10.565325736999512
1.7294985746851712e+18,0.0419485941529274,0.05457554757595062,-10.689946174621582
1.7294985746941714e+18,0.0826682522892952,-0.06679071485996246,-10.630447387695312
1.7294985747031716e+18,0.0385819748044014,0.018625151365995407,-10.676785469055176
1.7294985747121718e+18,-0.0616808719933033,-0.017534106969833374,-10.597076416015625
1.729498574718172e+18,-0.0600062757730484,-0.04254293814301491,-10.521869659423828
1.729498574727172e+18,0.014835307374596596,-0.016439350321888924,-10.60977554321289
1.7294985747361723e+18,0.04959112033247948,-0.028708266094326973,-10.603131294250488
1.7294985747451725e+18,-0.047579314559698105,-0.022196803241968155,-10.564711570739746
1.7294985747511726e+18,0.015924090519547462,0.07887441664934158,-10.594772338867188
1.7294985747601728e+18,-0.0021510361693799496,-0.030422450974583626,-10.49486255645752
1.729498574769173e+18,0.0024806468281894922,0.0344606451690197,-10.600687026977539
1.7294985747781732e+18,-0.00469797570258379,0.05280228704214096,-10.630302429199219
1.7294985747841733e+18,-0.011443346738815308,-0.07312698662281036,-10.537784576416016
1.7294985747931735e+18,-0.007075116969645023,0.02122614160180092,-10.619776725769043
1.7294985748021737e+18,-0.020548127591609955,0.03519273176789284,-10.589658737182617
1.729498574811174e+18,0.0108391884714365,-0.004814484156668186,-10.634231567382812
1.729498574817174e+18,0.017965218052268028,0.06443888694047928,-10.700410842895508
1.7294985748261742e+18,-0.06439893692731857,-0.0054275766015052795,-10.557999610900879
1.7294985748321743e+18,-0.023684563115239143,-0.009300315752625465,-10.588674545288086
1.7294985748411745e+18,0.01808558776974678,0.00847733672708273,-10.595121383666992
1.7294985748501747e+18,-0.024122590199112892,-0.07919633388519287,-10.591306686401367
1.729498574859175e+18,0.03686058521270752,-0.028864091262221336,-10.581907272338867
1.729498574865175e+18,-0.04272947460412979,0.053550392389297485,-10.605807304382324
1.7294985748741752e+18,0.02091480977833271,0.019019238650798798,-10.635497093200684
1.7294985748831754e+18,-0.02214641496539116,-0.054354891180992126,-10.526433944702148
1.7294985748891756e+18,-0.028289301320910454,-0.027977721765637398,-10.589144706726074
1.7294985748981757e+18,0.004933026619255543,0.08777319639921188,-10.559462547302246
1.729498574907176e+18,0.0016101012006402016,-0.04346596449613571,-10.616477012634277
1.7294985749161761e+18,0.03220486640930176,0.07237057387828827,-10.593623161315918
1.7294985749251763e+18,0.04087100923061371,-0.01920497603714466,-10.541479110717773
1.7294985749311764e+18,-0.0025272839702665806,-0.020718097686767578,-10.590032577514648
1.7294985749401766e+18,0.010957748629152775,-0.009864541701972485,-10.589753150939941
1.7294985749461768e+18,0.000929730711504817,0.06829698383808136,-10.612091064453125
1.729498574955177e+18,-0.07833331823348999,0.012413505464792252,-10.569379806518555
1.7294985749641772e+18,-0.04364808648824692,0.0673116073012352,-10.623366355895996
1.7294985749731773e+18,0.0320499949157238,0.009724155068397522,-10.640583992004395
1.7294985749821775e+18,0.06430131942033768,0.0507301464676857,-10.624497413635254
1.7294985749911777e+18,-0.01508878543972969,-0.02040526270866394,-10.590983390808105
1.729498575000178e+18,-0.0230365302413702,0.024986233562231064,-10.610142707824707
1.729498575006178e+18,0.02596653252840042,-0.12016914784908295,-10.635862350463867
1.7294985750151782e+18,0.0533270388841629,-0.0003318608505651355,-10.568731307983398
1.7294985750241784e+18,-0.008594641461968422,-0.06951608508825302,-10.636515617370605
1.7294985750331786e+18,-0.09173420816659927,0.008170808665454388,-10.599763870239258
1.7294985750421788e+18,0.01786462590098381,-0.008296958170831203,-10.490303039550781
1.729498575051179e+18,-0.049750201404094696,-0.01105508953332901,-10.581367492675781
1.7294985750601792e+18,0.023415686562657356,-0.051009465008974075,-10.644142150878906
1.7294985750691794e+18,0.04286034405231476,0.03150499239563942,-10.494361877441406
1.7294985750751795e+18,-0.07803505659103394,0.0372113399207592,-10.614785194396973
1.7294985750841797e+18,-0.07434888929128647,-0.045875098556280136,-10.582324981689453
1.72949857509318e+18,0.0031504908110946417,0.025987090542912483,-10.547708511352539
1.72949857510218e+18,-0.03518310934305191,-0.054102472960948944,-10.5634126663208
1.7294985751081802e+18,-0.01149467658251524,0.008454015478491783,-10.582509994506836
1.7294985751171804e+18,-0.00010025827214121819,0.021949881687760353,-10.523615837097168
1.7294985751261806e+18,0.010079748928546906,-0.04791590943932533,-10.519935607910156
1.7294985751351808e+18,0.03292107954621315,0.04467753693461418,-10.610787391662598
1.729498575144181e+18,-0.03622943162918091,-0.04485625773668289,-10.519913673400879
1.7294985751531812e+18,-0.02848108671605587,-0.027159875258803368,-10.551523208618164
1.7294985751591813e+18,0.041855715215206146,0.07806266844272614,-10.6199951171875
1.7294985751681815e+18,0.005515172611922026,-0.0137901920825243,-10.670695304870605
1.7294985751771817e+18,0.037053029984235764,-0.000971908331848681,-10.501203536987305
1.729498575186182e+18,-0.043799981474876404,-0.008782894350588322,-10.635444641113281
1.729498575195182e+18,-0.010294990614056587,0.004882908426225185,-10.523816108703613
1.7294985752041823e+18,-0.038407087326049805,0.010063478723168373,-10.633790969848633
1.7294985752101824e+18,-0.0183758195489645,-0.010197257623076439,-10.439804077148438
1.7294985752191826e+18,-0.04733401536941528,-0.01869881898164749,-10.536826133728027
1.7294985752281828e+18,0.08392882347106934,-0.012462073937058449,-10.602994918823242
1.729498575237183e+18,0.031038181856274605,0.03280859440565109,-10.570924758911133
1.7294985752461832e+18,0.0060020936653018,0.03631842881441116,-10.609457015991211
1.7294985752521833e+18,-0.10788046568632126,-0.0005323083023540676,-10.546005249023438
1.7294985752611835e+18,-0.004399308003485203,-0.050848621875047684,-10.524617195129395
1.7294985752701837e+18,0.06339428573846817,-0.00031700439285486937,-10.58829402923584
1.729498575279184e+18,0.004098657518625259,0.10186506062746048,-10.508927345275879
1.729498575288184e+18,0.012969554401934147,-0.02067427709698677,-10.527129173278809
1.7294985752971843e+18,-0.073255255818367,-0.03612764924764633,-10.582755088806152
1.7294985753031844e+18,-0.005021471064537764,-0.04922596365213394,-10.559377670288086
1.7294985753121846e+18,-0.07342678308486938,0.005425505340099335,-10.5310640335083
1.7294985753211848e+18,0.06197443976998329,0.07393544167280197,-10.561418533325195
1.729498575330185e+18,0.000555428909137845,0.06960142403841019,-10.577911376953125
1.729498575336185e+18,-0.027355792000889778,-0.07624756544828415,-10.523856163024902
1.7294985753451853e+18,-0.0839342251420021,0.005168884061276913,-10.52298641204834
1.7294985753541855e+18,0.00639510340988636,0.016782760620117188,-10.431681632995605
1.7294985753601856e+18,0.04049073904752731,0.011713716201484203,-10.499076843261719
1.7294985753691858e+18,-0.03128736466169357,0.06122037023305893,-10.458133697509766
1.729498575378186e+18,-0.00029774149879813194,0.08779184520244598,-10.476680755615234
1.729498575384186e+18,0.027676815167069435,0.00011770103446906433,-10.492142677307129
1.7294985753931863e+18,0.03691106662154198,-0.042625539004802704,-10.538671493530273
1.7294985754021865e+18,-0.0009476291015744209,-0.01518162526190281,-10.596335411071777
1.7294985754081866e+18,-0.014730689115822315,-0.07169276475906372,-10.605952262878418
1.7294985754171868e+18,-0.07685313373804092,-0.06992574781179428,-10.593230247497559
1.729498575423187e+18,-0.041719093918800354,-0.04242638126015663,-10.551552772521973
1.7294985754321871e+18,0.025953494012355804,-0.06714244931936264,-10.516737937927246
1.7294985754411873e+18,0.07293244451284409,0.016605883836746216,-10.568521499633789
1.7294985754471875e+18,-0.002451888984069228,-0.010456780903041363,-10.489370346069336
1.7294985754561876e+18,0.03864119574427605,-0.04476066306233406,-10.541991233825684
1.7294985754651878e+18,-0.0009724192786961794,0.0017574059311300516,-10.527650833129883
1.729498575471188e+18,-0.012562738731503487,0.023291606456041336,-10.534246444702148
1.7294985754801882e+18,-0.028200212866067886,-0.052771080285310745,-10.514514923095703
1.7294985754891884e+18,0.03323136642575264,-0.0621802918612957,-10.521648406982422
1.7294985754951885e+18,-0.041126687079668045,-0.014213575050234795,-10.548344612121582
1.7294985755041887e+18,-0.07144838571548462,-0.02393617480993271,-10.581740379333496
1.7294985755131889e+18,0.017040109261870384,0.008184647187590599,-10.471529006958008
1.729498575522189e+18,-0.01320161297917366,0.04507448524236679,-10.509310722351074
1.7294985755281892e+18,0.0705166682600975,-0.07214567810297012,-10.51294994354248
1.7294985755371894e+18,0.009783534333109856,0.14242388308048248,-10.419635772705078
1.7294985755431895e+18,-0.07106606662273407,0.013578069396317005,-10.455484390258789
1.7294985755521897e+18,-0.06706273555755615,0.03943829983472824,-10.477997779846191
1.72949857556119e+18,0.00837748497724533,0.07945740967988968,-10.441526412963867
1.72949857557019e+18,0.012311061844229698,0.00442643603309989,-10.351083755493164
1.7294985755761902e+18,-0.08465304225683212,-0.02092805877327919,-10.326836585998535
1.7294985755851904e+18,-0.025590287521481514,0.020110735669732094,-10.27993106842041
1.7294985755941906e+18,0.06366820633411407,0.04245854169130325,-10.351309776306152
1.7294985756001907e+18,-0.002407089341431856,-0.03165815398097038,-10.24131965637207
1.729498575609191e+18,0.03197655454277992,-0.004738141316920519,-10.235245704650879
1.729498575618191e+18,-0.06910471618175507,-0.021205460652709007,-10.200716972351074
1.7294985756271913e+18,0.11290932446718216,-0.00041316653368994594,-10.230546951293945
1.7294985756331914e+18,0.03825145959854126,0.012112410739064217,-10.132614135742188
1.7294985756421916e+18,-0.04979216307401657,0.07408618927001953,-10.159027099609375
1.7294985756511918e+18,-0.13869363069534302,-0.05401391535997391,-10.1459321975708
1.729498575657192e+18,-0.0034651386085897684,0.026160109788179398,-10.11597728729248
1.7294985756661921e+18,0.012022933922708035,-0.06632184982299805,-10.101631164550781
1.7294985756751923e+18,-0.008255158551037312,0.015499947592616081,-10.069406509399414
1.7294985756841925e+18,0.05873309075832367,-0.014975737780332565,-9.943249702453613
1.7294985756901926e+18,0.016833780333399773,0.01172943226993084,-9.916261672973633
1.7294985756991928e+18,-0.02923346869647503,0.03841691091656685,-9.956189155578613
1.729498575708193e+18,-0.03373856842517853,-0.031499601900577545,-9.905064582824707
1.7294985757141932e+18,0.01791168376803398,-0.01320241205394268,-9.999594688415527
1.7294985757231933e+18,0.046441830694675446,0.03832998871803284,-9.910046577453613
1.7294985757321935e+18,-0.05176113173365593,-0.01468039583414793,-9.93471908569336
1.7294985757381937e+18,0.011174697428941727,-0.042746350169181824,-9.83676528930664
1.7294985757471939e+18,-0.02245846763253212,-0.07165879011154175,-9.756943702697754
1.729498575756194e+18,0.008199959993362427,0.018977032974362373,-9.801326751708984
1.7294985757621942e+18,-0.08399605005979538,0.07371968775987625,-9.833845138549805
1.7294985757711944e+18,-0.005347215570509434,-0.023005815222859383,-9.740421295166016
1.7294985757771945e+18,0.004013529978692532,0.004151181783527136,-9.762483596801758
1.7294985757861947e+18,0.0361861027777195,-0.01858389377593994,-9.703930854797363
1.729498575795195e+18,-0.011485852301120758,-0.0218976978212595,-9.697324752807617
1.729498575801195e+18,0.032274503260850906,0.010959452949464321,-9.639429092407227
1.7294985758101952e+18,-0.07270552217960358,0.016327882185578346,-9.651822090148926
1.7294985758191954e+18,0.017275763675570488,-0.03962351009249687,-9.664380073547363
1.7294985758251955e+18,0.042331110686063766,-0.0038153878413140774,-9.655542373657227
1.7294985758341957e+18,0.027684776112437248,-0.01720961555838585,-9.714754104614258
1.729498575843196e+18,-0.02744746208190918,-0.02287689410150051,-9.635415077209473
1.729498575849196e+18,0.022506585344672203,-0.023127270862460136,-9.76862907409668
1.7294985758581962e+18,0.06196434050798416,0.02111561968922615,-9.694035530090332
1.7294985758671964e+18,0.02407155930995941,0.005059379618614912,-9.732522010803223
1.7294985758731965e+18,0.02992537058889866,-0.03536290302872658,-9.675408363342285
1.7294985758821967e+18,-0.0024840040132403374,0.035408440977334976,-9.675649642944336
1.7294985758881969e+18,0.030140135437250137,0.03469875454902649,-9.71521282196045
1.729498575897197e+18,0.01688775233924389,0.06269166618585587,-9.603453636169434
1.7294985759061972e+18,-0.008956718258559704,0.06494291126728058,-9.69284725189209
1.7294985759121974e+18,-0.07067756354808807,-0.032436616718769073,-9.67708683013916
1.7294985759211976e+18,-0.05954909324645996,-0.04864189028739929,-9.597929000854492
1.7294985759301978e+18,0.007702638395130634,-0.008146528154611588,-9.714619636535645
1.729498575936198e+18,-0.06012348085641861,0.07295090705156326,-9.651472091674805
1.729498575945198e+18,-0.02091296762228012,0.0386262983083725,-9.562139511108398
1.7294985759541983e+18,0.02712976187467575,0.007849059998989105,-9.593245506286621
1.7294985759601984e+18,0.012563921511173248,-0.024337580427527428,-9.5888671875
1.7294985759691986e+18,-0.0029983825515955687,0.012713389471173286,-9.597831726074219
1.7294985759781988e+18,-0.05021854490041733,0.041794102638959885,-9.615050315856934
1.729498575984199e+18,-0.014830145984888077,0.056238047778606415,-9.64426326751709
1.729498575993199e+18,-0.02374488115310669,0.04494404420256615,-9.623510360717773
1.7294985760021993e+18,0.05167163163423538,-0.012581712566316128,-9.584593772888184
1.7294985760081994e+18,-0.08020766079425812,-0.04371093213558197,-9.66804313659668
1.7294985760171996e+18,-0.0621749646961689,-0.0068607330322265625,-9.581780433654785
1.7294985760231997e+18,-0.042413849383592606,0.009591792710125446,-9.6790189743042
1.7294985760322e+18,-0.06675388664007187,-0.019753336906433105,-9.715206146240234
1.7294985760382e+18,-0.06774194538593292,-0.004652294330298901,-9.591949462890625
1.7294985760472003e+18,-0.038402002304792404,0.03146670013666153,-9.625879287719727
1.7294985760562004e+18,-0.01129944622516632,-0.029013777151703835,-9.655536651611328
1.7294985760622006e+18,0.07676827162504196,-0.07172437012195587,-9.5752592086792
1.7294985760712008e+18,0.008451629430055618,0.002835835563018918,-9.510597229003906
1.729498576080201e+18,0.024733098223805428,-0.05397050827741623,-9.53384017944336
1.729498576086201e+18,-0.04369193688035011,0.08977867662906647,-9.622644424438477
1.7294985760952013e+18,-0.004623984917998314,-0.06369397044181824,-9.614217758178711
1.7294985761042015e+18,0.0018715830519795418,0.01607394777238369,-9.640426635742188
1.7294985761102016e+18,-0.021598534658551216,0.0025160391815006733,-9.569186210632324
1.7294985761192018e+18,0.00844215415418148,-0.04830285534262657,-9.605242729187012
1.729498576128202e+18,0.02057337947189808,2.0442414097487926e-05,-9.590890884399414
1.7294985761372022e+18,0.07696212828159332,0.010030338540673256,-9.67058277130127
1.7294985761432023e+18,-0.004094470292329788,-0.04244008660316467,-9.636055946350098
1.7294985761522025e+18,0.03452484309673309,-0.0007509867427870631,-9.625960350036621
1.7294985761612027e+18,0.023068493232131004,0.06981319934129715,-9.690949440002441
1.729498576170203e+18,0.09123492985963821,0.030533837154507637,-9.571979522705078
1.729498576176203e+18,-0.009452169761061668,0.04308740422129631,-9.690186500549316
1.7294985761852032e+18,-0.04442039877176285,-0.01129087246954441,-9.680225372314453
1.7294985761942034e+18,0.008076547645032406,-0.017675679177045822,-9.535383224487305
1.7294985762002035e+18,0.015331264585256577,0.05658925324678421,-9.584549903869629
1.7294985762092037e+18,-0.050086017698049545,0.004046321380883455,-9.63747787475586
1.7294985762152038e+18,-0.06199417635798454,-0.01342061161994934,-9.58712387084961
1.729498576224204e+18,-0.06563858687877655,0.11408855020999908,-9.623086929321289
1.7294985762332042e+18,0.023109063506126404,0.05128691717982292,-9.685876846313477
1.7294985762392044e+18,0.015005156397819519,-0.0053587667644023895,-9.577865600585938
1.7294985762482045e+18,0.08071630448102951,0.0011655694106593728,-9.632691383361816
1.7294985762572047e+18,0.03300490230321884,0.017195336520671844,-9.622251510620117
1.7294985762632049e+18,-0.04793170839548111,-0.017212657257914543,-9.62034797668457
1.729498576272205e+18,0.002530653728172183,-0.0051086097955703735,-9.542864799499512
1.7294985762812052e+18,0.03898397460579872,0.046255338937044144,-9.504003524780273
1.7294985762872054e+18,-0.021877489984035492,-0.030994879081845284,-9.560497283935547
1.7294985762962056e+18,-0.02546905167400837,-0.05691465735435486,-9.583434104919434
1.7294985763022057e+18,-0.017580609768629074,-0.04157654568552971,-9.565786361694336
1.729498576311206e+18,0.07988830655813217,-0.10922461748123169,-9.628976821899414
1.729498576317206e+18,-0.044280920177698135,-0.02916550077497959,-9.64457893371582
1.7294985763262062e+18,0.01720215007662773,-0.043784450739622116,-9.652771949768066
1.7294985763352064e+18,-0.0064635202288627625,-0.03215722367167473,-9.54737377166748
1.7294985763412065e+18,-0.08210694789886475,-0.02524127997457981,-9.477304458618164
1.7294985763502067e+18,-0.0061325011774897575,0.0355730876326561,-9.56938648223877
1.729498576359207e+18,0.0009396080859005451,-0.05237741395831108,-9.552298545837402
1.729498576365207e+18,0.11062262207269669,0.04415707662701607,-9.480149269104004
1.7294985763742072e+18,-0.01632099226117134,0.06171610578894615,-9.60053539276123
1.7294985763832074e+18,0.05970640853047371,-6.654486060142517e-05,-9.581171035766602
1.7294985763922076e+18,-0.01720256172120571,0.02118462696671486,-9.585830688476562
1.7294985764042079e+18,-0.03801410645246506,0.037481676787137985,-9.533501625061035
1.729498576410208e+18,-0.040262434631586075,-0.013427171856164932,-9.463058471679688
1.7294985764192082e+18,0.015101752243936062,-0.05254337564110756,-9.556262969970703
1.7294985764282084e+18,-0.019689437001943588,0.015323725529015064,-9.596490859985352
1.7294985764342085e+18,0.011279502883553505,0.014539124444127083,-9.57442569732666
1.7294985764432087e+18,0.01605357974767685,-0.04773006960749626,-9.538983345031738
1.729498576452209e+18,0.005426314193755388,-0.0056434981524944305,-9.510295867919922
1.729498576458209e+18,0.046340759843587875,0.06646378338336945,-9.56181812286377
1.7294985764672092e+18,-0.014852842316031456,0.005872232839465141,-9.489607810974121
1.7294985764762094e+18,-0.07239377498626709,-0.010428888723254204,-9.519706726074219
1.7294985764822095e+18,-0.019594712182879448,0.016810566186904907,-9.578924179077148
1.7294985764912097e+18,-0.04941612854599953,-0.04850392043590546,-9.497062683105469
1.72949857650021e+18,0.015546700917184353,-0.08645781874656677,-9.547362327575684
1.72949857650621e+18,0.023346679285168648,0.034669604152441025,-9.563289642333984
1.7294985765152102e+18,-0.013187147676944733,0.009763600304722786,-9.643190383911133
1.7294985765212104e+18,-0.05049727484583855,-0.01202218048274517,-9.627317428588867
1.7294985765302106e+18,0.08868526667356491,-0.046417687088251114,-9.568244934082031
1.7294985765362107e+18,-0.039641279727220535,0.05936551094055176,-9.4895658493042
1.729498576545211e+18,0.04898789897561073,-0.007605144754052162,-9.439311027526855
1.729498576554211e+18,0.00654962845146656,0.001369354547932744,-9.498605728149414
1.7294985765602112e+18,-0.10562131553888321,0.02809273824095726,-9.527827262878418
1.7294985765692114e+18,-0.02451184391975403,0.001746193040162325,-9.472599029541016
1.7294985765782116e+18,-0.03397393971681595,0.03180081397294998,-9.471681594848633
1.7294985765872118e+18,-0.010677644982933998,0.006097100675106049,-9.481440544128418
1.729498576593212e+18,-0.07958772778511047,0.0424312986433506,-9.517409324645996
1.729498576602212e+18,-0.061779797077178955,0.02748369425535202,-9.528111457824707
1.7294985766112123e+18,-0.048821207135915756,-0.02439912036061287,-9.46257209777832
1.7294985766202125e+18,-0.0033116070553660393,0.04006042331457138,-9.538850784301758
1.7294985766292127e+18,-0.06982835382223129,0.04740039259195328,-9.512605667114258
1.7294985766352128e+18,-0.014109063893556595,0.03230126202106476,-9.478528022766113
1.729498576644213e+18,0.0749264806509018,-0.0405498631298542,-9.529129981994629
1.729498576650213e+18,0.012755880132317543,0.061843033879995346,-9.474108695983887
1.7294985766592133e+18,0.042352959513664246,-0.008266812190413475,-9.55785083770752
1.7294985766682135e+18,-0.08211353421211243,-0.009462119080126286,-9.571954727172852
1.7294985766742136e+18,0.07993700355291367,-0.00012150240945629776,-9.524839401245117
1.7294985766832138e+18,0.09703418612480164,-0.04032404348254204,-9.511277198791504
1.729498576689214e+18,0.019753472879529,0.013598654419183731,-9.505342483520508
1.7294985766982141e+18,-0.03608439490199089,0.05019230395555496,-9.536264419555664
1.7294985767072143e+18,0.012699337676167488,-0.015557659789919853,-9.524377822875977
1.7294985767132145e+18,0.031738296151161194,0.029933853074908257,-9.421599388122559
1.7294985767222147e+18,-0.047097399830818176,0.03294437751173973,-9.457274436950684
1.7294985767312148e+18,0.05364245921373367,-0.00474528456106782,-9.567096710205078
1.729498576737215e+18,-0.027990922331809998,0.04429066926240921,-9.558613777160645
1.7294985767462152e+18,-0.08140517771244049,-0.09642563760280609,-9.5106782913208
1.7294985767552154e+18,0.024986954405903816,0.05949333682656288,-9.473432540893555
1.7294985767642156e+18,0.045110322535037994,-0.013435985893011093,-9.48793888092041
1.7294985767732157e+18,-0.01654525101184845,0.011616894043982029,-9.481385231018066
1.729498576779216e+18,-0.00999821349978447,-0.049660325050354004,-9.518746376037598
1.729498576788216e+18,-0.012807548977434635,0.019462648779153824,-9.453872680664062
1.7294985767972163e+18,0.054268524050712585,-0.042139504104852676,-9.473043441772461
1.7294985768062164e+18,0.06174970418214798,0.049667876213788986,-9.581296920776367
1.7294985768152166e+18,0.05422819033265114,0.043161824345588684,-9.461830139160156
1.7294985768212168e+18,0.003268491942435503,-0.023890452459454536,-9.453070640563965
1.729498576830217e+18,0.013399222865700722,0.043035708367824554,-9.54723834991455
1.7294985768392172e+18,0.017609968781471252,-0.002175671048462391,-9.512726783752441
1.7294985768452173e+18,0.04020064324140549,-0.012093251571059227,-9.476222038269043
1.7294985768542175e+18,-0.02475619874894619,-0.025055717676877975,-9.432893753051758
1.7294985768632177e+18,-0.06042306125164032,0.002491823397576809,-9.534125328063965
1.7294985768692178e+18,0.016368163749575615,-0.0016215326031669974,-9.567957878112793
1.729498576878218e+18,0.0029415825847536325,-0.07546617090702057,-9.45294189453125
1.7294985768872182e+18,0.05200505256652832,-0.07642815262079239,-9.467534065246582
1.7294985768962184e+18,0.019448382779955864,-0.04705781862139702,-9.433504104614258
1.7294985769022185e+18,0.04127565398812294,-0.019016917794942856,-9.440305709838867
1.7294985769112187e+18,-0.05344438925385475,-0.018477246165275574,-9.477422714233398
1.729498576920219e+18,0.0012651757569983602,-0.044472917914390564,-9.4773530960083
1.729498576926219e+18,0.0601278617978096,0.014766348525881767,-9.536580085754395
1.7294985769352192e+18,0.014115957543253899,0.12250551581382751,-9.51817512512207
1.7294985769442194e+18,-0.044518232345581055,-0.00971467886120081,-9.46541690826416
1.7294985769502195e+18,0.11821525543928146,0.00393183808773756,-9.445115089416504
1.7294985769592197e+18,0.033673886209726334,-0.06002284958958626,-9.491287231445312
1.72949857696822e+18,-0.04660515859723091,-0.03142145276069641,-9.483074188232422
1.72949857697422e+18,-0.009751609526574612,0.03624359145760536,-9.471871376037598
1.7294985769832202e+18,0.008718883618712425,-0.020975153893232346,-9.430213928222656
1.7294985769922204e+18,-0.10228484869003296,0.029447738081216812,-9.41757869720459
1.7294985769982205e+18,0.0644526332616806,-0.007929404266178608,-9.487235069274902
1.7294985770072207e+18,-0.001147851929999888,-0.0031891369726508856,-9.464619636535645
1.729498577016221e+18,-0.0084054721519351,-0.04666438326239586,-9.475601196289062
1.729498577025221e+18,-0.01271410845220089,-0.06895313411951065,-9.454055786132812
1.7294985770342213e+18,0.04904286563396454,-0.08825691044330597,-9.42829418182373
1.7294985770432215e+18,0.05566098913550377,-0.046212658286094666,-9.465086936950684
1.7294985770492216e+18,-0.002843922469764948,-0.039287518709897995,-9.476073265075684
1.7294985770582218e+18,0.09464524686336517,0.01977967470884323,-9.504638671875
1.729498577064222e+18,-0.060399606823921204,-0.028236567974090576,-9.47535514831543
1.7294985770732221e+18,0.020869288593530655,0.010405286215245724,-9.477703094482422
1.7294985770822223e+18,-0.017030196264386177,-0.03092447854578495,-9.370361328125
1.7294985770882225e+18,0.06328051537275314,0.027940385043621063,-9.512479782104492
1.7294985770972227e+18,-0.03328943997621536,0.017048710957169533,-9.494043350219727
1.7294985771062228e+18,-0.026189332827925682,-0.07976115494966507,-9.445769309997559
1.729498577112223e+18,-0.04388481378555298,-0.036208294332027435,-9.383554458618164
1.7294985771212232e+18,0.022028544917702675,0.027117686346173286,-9.493623733520508
1.7294985771272233e+18,-0.017344942316412926,0.020331650972366333,-9.402833938598633
1.7294985771362235e+18,-0.005295401439070702,-0.0007513329037465155,-9.49565601348877
1.7294985771422236e+18,-0.07495997101068497,-0.007534125819802284,-9.465954780578613
1.7294985771512238e+18,-0.023436157032847404,-0.02448149397969246,-9.467048645019531
1.729498577160224e+18,0.0041575669310987,0.02224155329167843,-9.409843444824219
1.7294985771692242e+18,0.06273938715457916,0.011096672154963017,-9.403543472290039
1.7294985771752243e+18,-0.04314078018069267,-0.056655801832675934,-9.397855758666992
1.7294985771842245e+18,-0.045170947909355164,-0.0010195410577580333,-9.462632179260254
1.7294985771932247e+18,0.032404810190200806,0.025820693001151085,-9.397414207458496
1.7294985771992248e+18,-0.0397089421749115,0.0056985667906701565,-9.411062240600586
1.729498577208225e+18,-0.12733277678489685,-0.09032123535871506,-9.451664924621582
1.7294985772172252e+18,0.012031017802655697,-0.048422377556562424,-9.357059478759766
1.7294985772232253e+18,0.01766199618577957,-0.0402287021279335,-9.345833778381348
1.7294985772322255e+18,-0.07357840240001678,0.043804097920656204,-9.321533203125
1.7294985772412257e+18,-0.08841975033283234,-0.002327914349734783,-9.286867141723633
1.7294985772472259e+18,0.020444123074412346,0.07309956848621368,-9.315160751342773
1.729498577256226e+18,-0.01165327150374651,-0.011747286655008793,-9.248030662536621
1.7294985772652262e+18,-0.004301360808312893,0.04135839641094208,-9.288858413696289
1.7294985772742264e+18,-0.011231104843318462,-0.029716763645410538,-9.193922996520996
1.7294985772802266e+18,0.06659670174121857,0.05493821203708649,-9.08914852142334
1.7294985772892268e+18,-0.05829855427145958,-0.022419223561882973,-9.168317794799805
1.729498577298227e+18,0.07918150722980499,0.08167676627635956,-9.14559555053711
1.729498577304227e+18,-0.015857797116041183,0.012506174854934216,-9.105090141296387
1.7294985773132273e+18,0.042799144983291626,-0.03363363444805145,-9.085530281066895
1.7294985773222275e+18,-0.022639188915491104,-0.047106191515922546,-9.099822044372559
1.7294985773282276e+18,0.01225073542445898,-0.03940490633249283,-9.095998764038086
1.7294985773372278e+18,0.019083460792899132,-0.03189501166343689,-8.967634201049805
1.729498577346228e+18,4.888331750407815e-05,-0.049628548324108124,-8.939529418945312
1.7294985773552282e+18,0.02104775235056877,0.01889863982796669,-8.951537132263184
1.7294985773612283e+18,-0.007501632906496525,-0.03668929636478424,-8.927725791931152
1.7294985773702285e+18,-0.04602009803056717,-0.02125626616179943,-8.998525619506836
1.7294985773792287e+18,0.03786404803395271,0.05371681600809097,-8.870323181152344
1.7294985773852288e+18,0.009877822361886501,-0.060298092663288116,-8.878728866577148
1.729498577394229e+18,-0.013885504566133022,0.024246549233794212,-8.85840892791748
1.7294985774032292e+18,-0.013801836408674717,-0.05283338204026222,-8.813981056213379
1.7294985774122294e+18,-0.028077147901058197,0.0006535064894706011,-8.681920051574707
1.7294985774182295e+18,-0.031144438311457634,0.014007913880050182,-8.783215522766113
1.7294985774302298e+18,-0.03386395052075386,-0.006047447212040424,-8.7317476272583
1.72949857743923e+18,0.0021973946131765842,-0.003720873733982444,-8.715444564819336
1.72949857744523e+18,-0.004303763620555401,0.007835782133042812,-8.652256965637207
1.7294985774542303e+18,-0.0791856199502945,0.0022792306262999773,-8.584364891052246
1.7294985774632305e+18,0.019662611186504364,0.009422868490219116,-8.61912727355957
1.7294985774722307e+18,-0.048811543732881546,-0.0494723841547966,-8.67902660369873
1.7294985774812308e+18,-0.016970572993159294,-0.017359526827931404,-8.601289749145508
1.729498577490231e+18,0.09400307387113571,0.0006859051063656807,-8.65358829498291
1.7294985774962312e+18,-0.05459703877568245,0.0239904522895813,-8.715514183044434
1.7294985775052314e+18,-0.0020910422317683697,0.015218707732856274,-8.73011302947998
1.7294985775112315e+18,-0.023055333644151688,0.030625706538558006,-8.645978927612305
1.7294985775202317e+18,-0.03238244727253914,-0.014601598493754864,-8.677885055541992
1.729498577529232e+18,0.027848882600665092,-0.0015686978586018085,-8.676003456115723
1.729498577535232e+18,-0.017128843814134598,0.03206704184412956,-8.77589225769043
1.7294985775442322e+18,0.062054041773080826,-0.02315627969801426,-8.71091079711914
1.7294985775532324e+18,-0.019567208364605904,0.0038206211756914854,-8.714341163635254
1.7294985775592325e+18,0.0231291763484478,-0.0052774581126868725,-12.121522903442383
1.7294985775682327e+18,-0.05792981758713722,0.014656865037977695,-15.507380485534668
1.729498577577233e+18,0.005423450376838446,-0.020335085690021515,-15.951956748962402
1.729498577586233e+18,0.07095808535814285,0.07784084230661392,-16.103681564331055
1.7294985775922332e+18,0.033089447766542435,-0.04447589069604874,-16.06432342529297
1.7294985776012334e+18,-0.03516695275902748,0.03295768424868584,-16.101356506347656
1.7294985776102336e+18,0.01692459173500538,-0.019843678921461105,-15.955493927001953
1.7294985776162337e+18,-0.005876362789422274,-0.0466560423374176,-15.972588539123535
1.729498577625234e+18,-0.0040543037466704845,-0.0009634235175326467,-15.723200798034668
1.729498577634234e+18,-0.0063238684087991714,-0.006554918363690376,-15.653063774108887
1.7294985776402342e+18,-0.022153137251734734,-0.009000880643725395,-15.646583557128906
1.7294985776492344e+18,-0.03143204748630524,-0.013918625190854073,-15.468832015991211
1.7294985776552346e+18,0.03264031186699867,0.03503279387950897,-15.454752922058105
1.7294985776642348e+18,0.017178205773234367,-0.0674034133553505,-15.2427978515625
1.729498577673235e+18,0.01723480224609375,-0.014976476319134235,-15.161911964416504
1.7294985776822351e+18,-0.029855329543352127,0.05024224519729614,-15.044354438781738
1.7294985776882353e+18,-0.016353299841284752,-0.030790124088525772,-14.842168807983398
1.7294985776972355e+18,0.009394904598593712,-0.07245153933763504,-14.785924911499023
1.7294985777032356e+18,0.05781804397702217,-0.031341928988695145,-14.679234504699707
1.7294985777122358e+18,-0.004763156175613403,0.019544538110494614,-14.635210037231445
1.729498577721236e+18,-0.027718279510736465,0.0053140632808208466,-14.554365158081055
1.729498577727236e+18,-0.04216949641704559,-0.015114134177565575,-14.423266410827637
1.7294985777362363e+18,0.05009235441684723,-0.028672251850366592,-14.339945793151855
1.7294985777482365e+18,0.041840583086013794,-0.04052206128835678,-14.085996627807617
1.7294985777542367e+18,0.11246179789304733,-0.0010114673059433699,-14.116724967956543
1.7294985777632369e+18,-0.0166318342089653,-0.012349480763077736,-13.989819526672363
1.729498577772237e+18,3.571540582925081e-05,-0.013988257385790348,-13.862186431884766
1.7294985777782372e+18,-0.07569221407175064,0.06075819581747055,-13.755378723144531
1.7294985777902374e+18,0.012602871283888817,0.04984602704644203,-13.635563850402832
1.7294985778022377e+18,-0.045701853930950165,-0.054352663457393646,-13.554987907409668
1.729498577811238e+18,-0.025611048564314842,0.004700575489550829,-13.55789566040039
1.729498577820238e+18,-0.014761225320398808,-0.04327189177274704,-13.398740768432617
1.7294985778262382e+18,-0.02327468991279602,-0.0007373086991719902,-13.26814079284668
1.7294985778352384e+18,0.03727934509515762,0.021805189549922943,-13.281798362731934
1.7294985778442386e+18,-0.03458832576870918,-0.07762536406517029,-13.1708984375
1.7294985778502387e+18,-0.07245691120624542,-0.004648302681744099,-13.04455852508545
1.729498577859239e+18,0.0016549448482692242,0.02404935285449028,-13.024773597717285
1.729498577865239e+18,-0.06903962045907974,0.00014374780585058033,-12.996315002441406
1.7294985778742392e+18,-0.025503316894173622,-0.030732547864317894,-12.929594039916992
1.7294985778832394e+18,-0.00945102795958519,-0.023713868111371994,-12.880440711975098
1.7294985778892396e+18,0.03704722225666046,-0.007623938377946615,-12.788617134094238
1.7294985778982397e+18,-0.020578380674123764,0.03206849843263626,-12.78847885131836
1.72949857790724e+18,0.03169121593236923,0.014548378065228462,-12.648229598999023
1.72949857791324e+18,0.021692980080842972,0.10188586264848709,-12.618016242980957
1.7294985779222403e+18,0.017653875052928925,-0.0015171390259638429,-12.635882377624512
1.7294985779312404e+18,-0.020747609436511993,0.050072081387043,-12.493836402893066
1.7294985779372406e+18,-0.03296581655740738,-0.04241203889250755,-12.450210571289062
1.7294985779462408e+18,0.010299351066350937,-0.028543168678879738,-12.410843849182129
1.729498577952241e+18,0.0526062548160553,-0.014068322256207466,-12.362014770507812
1.729498577961241e+18,-0.04914191737771034,-0.04629514366388321,-12.345528602600098
1.7294985779702413e+18,0.024191375821828842,-0.01370158325880766,-12.258624076843262
1.7294985779762414e+18,0.0848931148648262,-0.032057322561740875,-12.270910263061523
1.7294985779852416e+18,0.014609124511480331,-0.0007790189702063799,-12.109209060668945
1.7294985779912417e+18,-0.011953070759773254,0.032592516392469406,-12.17421817779541
1.729498578000242e+18,-0.04418637230992317,0.031971924006938934,-12.08993148803711
1.729498578009242e+18,-0.07075165212154388,0.022324804216623306,-12.09342098236084
1.7294985780152422e+18,-0.006778139155358076,0.015644963830709457,-12.03357219696045
1.7294985780242424e+18,0.024223363026976585,0.03374189883470535,-11.967428207397461
1.7294985780332426e+18,-0.04775825887918472,-0.033120959997177124,-11.879151344299316
1.7294985780422428e+18,-0.014847291633486748,0.06248877942562103,-11.844810485839844
1.729498578048243e+18,-0.06634677946567535,-0.05591234937310219,-11.866654396057129
1.7294985780572431e+18,0.09298492223024368,-0.07882846146821976,-11.714014053344727
1.7294985780662433e+18,0.00751679390668869,-0.013893578201532364,-11.702394485473633
1.7294985780752435e+18,0.02868044190108776,-0.028132176026701927,-11.70055103302002
1.7294985780812436e+18,-0.09803276509046555,-0.015027960762381554,-11.733979225158691
1.7294985780902438e+18,0.06207987666130066,0.055697325617074966,-11.613609313964844
1.729498578099244e+18,-0.003825888969004154,0.012767638079822063,-11.61481761932373
1.7294985781082442e+18,-0.0070640514604747295,-0.041738469153642654,-11.550885200500488
1.7294985781142444e+18,0.062171660363674164,0.04557233676314354,-11.612258911132812
1.7294985781232445e+18,-0.04072480648756027,0.008318955078721046,-11.448325157165527
1.7294985781322447e+18,0.0007135285995900631,0.014477018266916275,-11.424226760864258
1.7294985781382449e+18,-0.05182082951068878,0.03654132038354874,-11.403409004211426
1.729498578147245e+18,0.036820657551288605,0.00912382174283266,-11.43696403503418
1.7294985781562452e+18,0.020574050024151802,-0.006141308695077896,-11.358296394348145
1.7294985781682455e+18,-0.025125902146100998,-0.006479016970843077,-11.408247947692871
1.7294985781772457e+18,0.0016244766302406788,0.050702258944511414,-11.24470043182373
1.7294985781832458e+18,-0.019706781953573227,0.028379980474710464,-11.24873161315918
1.729498578192246e+18,-0.09480305761098862,0.000175020337337628,-11.135344505310059
1.7294985782012462e+18,-0.03785838186740875,0.0012210214044898748,-11.207195281982422
1.7294985782102464e+18,0.010379933752119541,-0.00021530198864638805,-11.167905807495117
1.7294985782162465e+18,0.07442567497491837,0.026125293225049973,-11.13683032989502
1.7294985782252467e+18,-0.08618564158678055,-0.047819897532463074,-11.065311431884766
1.729498578234247e+18,-0.06891901046037674,-0.016317250207066536,-11.113285064697266
1.729498578243247e+18,-0.08402964472770691,-0.013208531774580479,-11.013555526733398
1.7294985782492472e+18,0.054218169301748276,-0.029065189883112907,-11.052555084228516
1.7294985782582474e+18,0.02472296543419361,0.05576770752668381,-11.002464294433594
1.7294985782672476e+18,-0.041012413799762726,0.014549309387803078,-11.007633209228516
1.7294985782732477e+18,0.10917741060256958,0.01076496671885252,-10.957075119018555
1.729498578282248e+18,-0.019054878503084183,0.024921081960201263,-10.9541015625
1.729498578291248e+18,-0.0540144219994545,0.06584635376930237,-10.913422584533691
1.7294985782972483e+18,-0.03160463646054268,0.06269298493862152,-10.935770034790039
1.7294985783062484e+18,0.03080902062356472,-0.023422766476869583,-10.823131561279297
1.7294985783152486e+18,0.09779535979032516,-0.012873602099716663,-10.922564506530762
1.7294985783242488e+18,-0.03406291455030441,0.007282336708158255,-10.808649063110352
1.729498578333249e+18,0.036349277943372726,-0.07459180057048798,-10.778894424438477
1.7294985783392492e+18,-0.006685487926006317,0.012954015284776688,-10.698238372802734
1.7294985783512494e+18,-0.005362045951187611,0.02239283360540867,-10.712319374084473
1.7294985783602496e+18,0.034661173820495605,-0.14210423827171326,-10.753105163574219
1.7294985783692498e+18,0.023078501224517822,0.0670664981007576,-10.77569580078125
1.72949857837525e+18,-0.07072669267654419,-0.04477931559085846,-10.702414512634277
1.72949857838425e+18,-0.032727934420108795,0.025595445185899734,-10.72498607635498
1.7294985783932503e+18,-0.008277397602796555,-0.052441082894802094,-10.744576454162598
1.7294985783992504e+18,-0.054262854158878326,-0.017115022987127304,-10.640640258789062
1.7294985784082506e+18,-0.08266719430685043,0.0016428986564278603,-10.67169189453125
1.7294985784172508e+18,0.04757644236087799,0.06423933804035187,-10.62351131439209
1.729498578423251e+18,-0.010634470731019974,0.018208304420113564,-10.576521873474121
1.7294985784322511e+18,0.03823380917310715,0.04615863785147667,-10.621847152709961
1.7294985784412513e+18,-0.046037688851356506,0.04365338385105133,-10.55069351196289
1.7294985784502515e+18,0.0030907890759408474,-0.023888589814305305,-10.601136207580566
1.7294985784562516e+18,-0.009870383888483047,0.005666665732860565,-10.529290199279785
1.7294985784652518e+18,-0.01931370608508587,-0.006853670813143253,-10.573405265808105
1.729498578471252e+18,0.11376243829727173,-0.06042817607522011,-10.485013008117676
1.7294985784802522e+18,0.04920904338359833,0.08749295771121979,-10.535552024841309
1.7294985784892524e+18,-0.06241779029369354,-0.05413094162940979,-10.506978034973145
1.7294985784982525e+18,-0.0012667818227782845,0.05306864157319069,-10.50898551940918
1.7294985785042527e+18,0.0666622743010521,0.06807854771614075,-10.467676162719727
1.7294985785132529e+18,0.03615060821175575,-0.026014186441898346,-10.45175838470459
1.729498578522253e+18,0.044277794659137726,-0.016802089288830757,-10.397564888000488
1.7294985785282532e+18,-0.03780015930533409,-0.0002379833022132516,-10.397505760192871
1.7294985785372534e+18,-0.015654176473617554,-0.037757616490125656,-10.460845947265625
1.7294985785432535e+18,-0.043602313846349716,0.020014267414808273,-10.453490257263184
1.7294985785522537e+18,-0.029909074306488037,0.01871575601398945,-10.349992752075195
1.729498578561254e+18,-0.05085228383541107,0.022964414209127426,-10.31406021118164
1.729498578570254e+18,-0.047963157296180725,0.07163499295711517,-10.383522987365723
1.7294985785762542e+18,0.007137542124837637,-0.02933213673532009,-10.387733459472656
1.7294985785852544e+18,-0.04248013719916344,0.04773753881454468,-10.329842567443848
1.7294985785912545e+18,0.015379879623651505,0.044833842664957047,-10.313787460327148
1.7294985786002547e+18,-0.06604176014661789,-0.03877793997526169,-10.334299087524414
1.729498578609255e+18,0.014884443953633308,0.025230560451745987,-10.388936996459961
1.729498578618255e+18,-0.06263885647058487,-0.08122660219669342,-10.246447563171387
1.7294985786242552e+18,-0.017226003110408783,0.003971961326897144,-10.269806861877441
1.7294985786332554e+18,0.03758487477898598,-0.010390503332018852,-10.246767044067383
1.7294985786422556e+18,-0.03373543918132782,0.06884057074785233,-10.207140922546387
1.7294985786482557e+18,-0.0867164358496666,-0.0020924878772348166,-10.248390197753906
1.729498578657256e+18,-0.005166417919099331,-0.010247803293168545,-10.257798194885254
1.7294985786662561e+18,0.014522275887429714,0.0031661945395171642,-10.231842041015625
1.7294985786752563e+18,-0.015077443793416023,-0.005370660685002804,-10.195503234863281
1.7294985786812564e+18,0.020525723695755005,-0.0033373588230460882,-10.222041130065918
1.7294985786902566e+18,-0.019303297623991966,-0.07861112803220749,-10.14293098449707
1.7294985786992568e+18,-0.03296804800629616,-0.026094235479831696,-10.112841606140137
1.729498578708257e+18,0.045786455273628235,0.059175800532102585,-10.245660781860352
1.7294985787172572e+18,0.016466688364744186,0.029543638229370117,-10.119330406188965
1.7294985787232573e+18,0.00032916979398578405,0.006592215970158577,-10.17616081237793
1.7294985787322575e+18,-0.031942639499902725,-0.007936257869005203,-10.09345817565918
1.7294985787412577e+18,-0.018546905368566513,0.0402088388800621,-10.086187362670898
1.729498578750258e+18,0.022337405011057854,-0.0061538005247712135,-10.092195510864258
1.729498578759258e+18,-0.039259932935237885,0.005192147567868233,-9.99337387084961
1.7294985787682583e+18,-0.003176764352247119,0.0791725367307663,-10.141311645507812
1.7294985787742584e+18,0.03800489380955696,-0.004381122067570686,-10.071479797363281
1.7294985787832586e+18,-0.011854664422571659,0.041309960186481476,-10.065545082092285
1.7294985787922588e+18,0.016002053394913673,-0.04127771034836769,-10.070683479309082
1.729498578801259e+18,0.008081464096903801,0.12972907721996307,-10.079954147338867
1.7294985788102592e+18,-0.06826744973659515,-0.01744876056909561,-10.028010368347168
1.7294985788162593e+18,0.05577392876148224,-0.02058958075940609,-10.095114707946777
1.7294985788252595e+18,0.037636395543813705,0.0211404487490654,-10.09358024597168
1.7294985788342597e+18,0.01994706504046917,-0.022153213620185852,-10.071439743041992
1.72949857884326e+18,0.0032139169052243233,0.033101730048656464,-10.089727401733398
1.72949857885226e+18,-0.02010723203420639,0.020370785146951675,-10.030529022216797
1.7294985788612603e+18,-0.030575109645724297,0.03658995032310486,-10.025678634643555
1.7294985788672604e+18,0.013452720828354359,-0.016562234610319138,-10.007208824157715
1.7294985788762606e+18,-0.01949688419699669,-0.035863034427165985,-10.014383316040039
1.7294985788852608e+18,-0.029084142297506332,0.008662721142172813,-9.986148834228516
1.729498578894261e+18,0.03683358430862427,-0.0348116010427475,-10.050652503967285
1.7294985789032612e+18,-0.019619904458522797,-0.049167510122060776,-10.071439743041992
1.7294985789122614e+18,-0.003235534066334367,-0.018918490037322044,-10.049605369567871
1.7294985789182615e+18,-0.016875095665454865,-0.024892549961805344,-9.941088676452637
1.7294985789272617e+18,0.07766809314489365,0.04723978042602539,-9.997694969177246
1.729498578936262e+18,0.04766529053449631,-0.05475275218486786,-9.887402534484863
1.729498578945262e+18,-0.048374421894550323,0.027259090915322304,-9.924185752868652
1.7294985789512622e+18,-0.06081903353333473,-0.0010081300279125571,-9.92513370513916
1.7294985789602624e+18,0.0421830415725708,0.051362261176109314,-9.958076477050781
1.7294985789692626e+18,0.009016671217978,0.010231579653918743,-9.92733383178711
1.7294985789752627e+18,0.021308109164237976,-0.004404155537486076,-9.86850357055664
1.729498578984263e+18,0.03420262783765793,0.05502709373831749,-9.993638038635254
1.729498578993263e+18,-0.03326025977730751,0.052788518369197845,-9.997922897338867
1.7294985789992632e+18,0.07173675298690796,0.004826580174267292,-9.906423568725586
1.7294985790082634e+18,-0.046761032193899155,-0.03900327906012535,-9.951459884643555
1.7294985790172636e+18,-0.07092514634132385,-0.006262675859034061,-9.843328475952148
1.7294985790262638e+18,0.03493218123912811,-0.020423322916030884,-9.882547378540039
1.729498579035264e+18,-0.002445110585540533,-0.021635770797729492,-9.834604263305664
1.729498579041264e+18,0.06425836682319641,-0.0032553018536418676,-9.94605541229248
1.7294985790502643e+18,0.07919029891490936,0.05382385849952698,-9.7818603515625
1.7294985790562644e+18,0.0024214554578065872,-0.057109247893095016,-9.96884536743164
1.7294985790652646e+18,0.08642728626728058,0.0175518449395895,-9.85046100616455
1.7294985790742648e+18,0.002353883348405361,-0.007984989322721958,-9.927483558654785
1.729498579080265e+18,0.04613567888736725,-0.014256495982408524,-9.879949569702148
1.7294985790892652e+18,0.034062013030052185,0.06501149386167526,-9.845298767089844
1.7294985790982653e+18,0.021569423377513885,0.04645891860127449,-9.889787673950195
1.7294985791072655e+18,-0.009585714899003506,-0.06250284612178802,-9.797669410705566
1.7294985791132657e+18,0.012516966089606285,0.061569131910800934,-9.89017105102539
1.7294985791222659e+18,0.01904512569308281,-0.016552360728383064,-9.879603385925293
1.729498579131266e+18,-0.008700159378349781,0.05807024985551834,-9.83265209197998
1.7294985791402662e+18,-0.03141474723815918,0.005121988244354725,-9.824088096618652
1.7294985791462664e+18,-0.0069023915566504,-0.024846794083714485,-9.762033462524414
1.7294985791552666e+18,0.05496756359934807,-0.007885017432272434,-9.810647964477539
1.7294985791642668e+18,-0.06981644034385681,-0.015738777816295624,-9.78469181060791
1.729498579170267e+18,-0.015360073186457157,-0.041713468730449677,-9.782124519348145
1.729498579179267e+18,0.0198975820094347,0.02556616999208927,-9.829935073852539
1.7294985791882673e+18,0.012338030152022839,-0.08445414900779724,-9.848392486572266
1.7294985791942674e+18,-0.03940218314528465,-0.08703210949897766,-9.77354621887207
1.7294985792032676e+18,0.05057767778635025,0.03664437308907509,-9.776219367980957
1.7294985792122678e+18,-0.02727164514362812,-0.10130710154771805,-9.838093757629395
1.729498579218268e+18,0.012131980620324612,0.07785707712173462,-9.905364036560059
1.729498579227268e+18,-0.008036908693611622,-0.0065936679020524025,-9.740005493164062
1.7294985792362683e+18,0.03233680501580238,-0.011287247762084007,-9.780498504638672
1.7294985792452685e+18,-0.03406887128949165,-0.007616444956511259,-9.801406860351562
1.7294985792512686e+18,-0.02336033247411251,-0.006603804882615805,-9.803750038146973
1.7294985792602688e+18,-0.005276313982903957,0.06448619067668915,-9.808382034301758
1.729498579269269e+18,-0.04531151056289673,-0.011571766808629036,-9.739118576049805
1.729498579275269e+18,0.010168161243200302,-0.019601715728640556,-9.791343688964844
1.7294985792842693e+18,-0.06526366621255875,-0.07105294615030289,-9.824936866760254
1.7294985792932695e+18,-0.12711332738399506,-0.024083366617560387,-9.827033996582031
1.7294985792992696e+18,0.009774215519428253,-0.006309970747679472,-9.778916358947754
1.7294985793082698e+18,0.048281945288181305,-0.0696960911154747,-9.784415245056152
1.72949857931727e+18,-0.016909006983041763,0.005541997961699963,-9.738622665405273
1.7294985793232701e+18,0.023086078464984894,-0.001422307570464909,-9.726764678955078
1.7294985793322703e+18,-0.016937322914600372,-0.08098718523979187,-9.84192943572998
1.7294985793412705e+18,0.020573312416672707,0.06700926274061203,-9.740961074829102
1.7294985793502707e+18,-0.01901000738143921,0.036574047058820724,-9.73962116241455
1.7294985793562708e+18,0.034053072333335876,0.0869842991232872,-9.788237571716309
1.729498579365271e+18,-0.010918773710727692,0.03702549263834953,-9.74756145477295
1.7294985793742712e+18,0.00013735576067119837,0.03521498665213585,-9.799365997314453
1.7294985793832714e+18,0.06342601776123047,-0.06130685657262802,-9.869202613830566
1.7294985793922716e+18,-0.05912239849567413,-0.018946833908557892,-9.743903160095215
1.7294985793982717e+18,-0.031137045472860336,-0.09516194462776184,-9.835664749145508
1.729498579407272e+18,-0.03928770869970322,0.056548070162534714,-9.811907768249512
1.7294985794162721e+18,-0.0318000428378582,-0.09224390983581543,-9.821686744689941
1.7294985794252723e+18,-0.034780509769916534,-0.020857583731412888,-9.70053768157959
1.7294985794342725e+18,0.032865989953279495,0.006045278627425432,-9.807820320129395
1.7294985794432727e+18,-0.07101082056760788,0.012963039800524712,-9.759611129760742
1.7294985794492728e+18,-0.06653833389282227,-0.04555517062544823,-9.748367309570312
1.729498579458273e+18,-0.04787475988268852,-0.04972727224230766,-9.799625396728516
1.7294985794672732e+18,-0.041006624698638916,-0.03778452053666115,-9.832508087158203
1.7294985794762734e+18,-0.08840209990739822,-0.010201893746852875,-9.703145027160645
1.7294985794822735e+18,-0.009646784514188766,0.00695501733571291,-9.737775802612305
1.7294985794912737e+18,0.026070479303598404,0.02267252653837204,-9.690801620483398
1.729498579500274e+18,-0.004524318967014551,-0.030249333009123802,-9.674013137817383
1.729498579506274e+18,-0.08700153231620789,-0.007260894402861595,-9.813272476196289
1.7294985795152742e+18,-0.12489785999059677,0.021737542003393173,-9.72006607055664
1.7294985795242744e+18,-0.027718691155314445,0.0031992190051823854,-9.761238098144531
1.7294985795302746e+18,-0.02605500817298889,0.02172117307782173,-9.813983917236328
1.7294985795392748e+18,-0.0443522185087204,-0.0538918562233448,-9.803779602050781
1.729498579548275e+18,-0.008921926841139793,-0.03535741940140724,-9.675188064575195
1.729498579554275e+18,0.031863998621702194,-0.0027559201698750257,-9.74091911315918
1.7294985795632753e+18,0.08316290378570557,0.0018072838429361582,-9.709976196289062
1.7294985795722755e+18,0.03684994950890541,-0.045936111360788345,-9.72484016418457
1.7294985795812756e+18,-0.030786879360675812,-0.01679982617497444,-9.7195405960083
1.7294985795872758e+18,0.021609332412481308,0.0062267472967505455,-9.763497352600098
1.729498579596276e+18,-0.020022347569465637,-0.018514251336455345,-9.838518142700195
1.7294985796052762e+18,0.0264259222894907,-0.0028447359800338745,-9.761752128601074
1.7294985796112763e+18,0.02474881336092949,-0.028236038982868195,-9.809057235717773
1.7294985796202765e+18,0.027994804084300995,-0.06721073389053345,-9.79090690612793
1.7294985796292767e+18,0.025234181433916092,0.021944114938378334,-9.857404708862305
1.7294985796352768e+18,0.07377247512340546,0.011009279638528824,-9.896808624267578
1.729498579644277e+18,-0.03635838255286217,-0.018770897760987282,-9.909031867980957
1.7294985796532772e+18,0.020121464505791664,-0.024823635816574097,-9.903539657592773
1.7294985796592773e+18,0.02715812437236309,-0.019108496606349945,-9.897887229919434
1.7294985796682775e+18,0.018268298357725143,0.003148668212816119,-9.82197093963623
1.7294985796772777e+18,-0.060921840369701385,-0.045591406524181366,-9.840543746948242
1.7294985796832778e+18,-0.015387131832540035,-0.022629715502262115,-9.82827377319336
1.729498579692278e+18,0.00152474211063236,0.011166483163833618,-9.812336921691895
1.7294985797012782e+18,-0.017051447182893753,-0.13367052376270294,-9.850637435913086
1.7294985797102784e+18,-0.003040119307115674,0.020767949521541595,-9.833695411682129
1.7294985797162785e+18,-0.0026137123350054026,-0.000585529487580061,-9.818347930908203
1.7294985797252787e+18,-0.07260546833276749,0.022870775312185287,-9.791223526000977
1.729498579734279e+18,-0.0123196542263031,0.005092067644000053,-9.805717468261719
1.729498579740279e+18,-0.0018046447075903416,-0.021027667447924614,-9.78590202331543
1.7294985797492792e+18,0.020540665835142136,0.003561915596947074,-9.80213451385498
1.7294985797582794e+18,-0.001262896228581667,-0.03226980194449425,-9.852325439453125
1.7294985797642796e+18,-0.018349146470427513,0.08404363691806793,-9.826257705688477
1.7294985797732797e+18,-0.022405600175261497,-0.04006918892264366,-9.727771759033203
1.72949857978228e+18,0.03820246830582619,-0.010813238099217415,-9.752083778381348
1.72949857978828e+18,-0.042014941573143005,-0.04060078039765358,-9.819013595581055
1.7294985797972803e+18,0.06036180257797241,-0.04392872005701065,-9.819700241088867
1.7294985798062804e+18,-0.01106803584843874,-0.060124825686216354,-9.79379940032959
1.7294985798212808e+18,0.08452163636684418,0.009855447337031364,-9.784587860107422
1.729498579830281e+18,0.05924428626894951,0.05121328681707382,-9.768613815307617
1.7294985798392812e+18,0.016277680173516273,-0.02664361335337162,-9.78834342956543
1.7294985798482813e+18,-0.05012837052345276,0.04429464787244797,-9.644572257995605
1.7294985798572815e+18,0.04753692075610161,0.009362511336803436,-9.67435073852539
1.7294985798632817e+18,-0.006995211821049452,0.030273206532001495,-9.795398712158203
1.7294985798722819e+18,0.03229931369423866,0.011148393154144287,-9.763040542602539
1.729498579881282e+18,-0.021682891994714737,-0.0188737902790308,-9.72457504272461
1.7294985798872822e+18,0.011845906265079975,0.04801969975233078,-9.751669883728027
1.7294985798962824e+18,-0.03529367595911026,-0.017163433134555817,-9.776549339294434
1.7294985799052826e+18,-0.07688932120800018,-0.022912248969078064,-9.72220230102539
1.7294985799112827e+18,-0.024514080956578255,0.04173813760280609,-9.711719512939453
1.729498579920283e+18,-0.004431195557117462,0.0189343448728323,-9.751640319824219
1.729498579929283e+18,0.004454644862562418,-0.06072627007961273,-9.789294242858887
1.7294985799352832e+18,-0.054677318781614304,-0.005678202025592327,-9.767773628234863
1.7294985799442834e+18,0.08567611128091812,-0.0300289299339056,-9.768105506896973
1.7294985799502835e+18,0.03324170783162117,0.024947086349129677,-9.785780906677246
1.7294985799592837e+18,0.010632994584739208,0.039315808564424515,-9.63868236541748
1.7294985799652838e+18,-0.003856826573610306,-0.018030431121587753,-9.718448638916016
1.729498579974284e+18,-0.04342537373304367,-0.016528990119695663,-9.73514461517334
1.7294985799832842e+18,0.030855728313326836,0.010363416746258736,-9.666579246520996
1.7294985799922844e+18,-0.12246543169021606,0.06056882441043854,-9.736433029174805
1.7294985799982845e+18,-0.017723917961120605,0.015723394230008125,-9.78397274017334
1.7294985800072847e+18,0.041695985943078995,-0.035393521189689636,-9.67093276977539
1.729498580016285e+18,0.018230993300676346,-0.02093837782740593,-9.744372367858887
1.729498580022285e+18,-0.051342446357011795,0.026197675615549088,-9.690640449523926
1.7294985800312852e+18,0.06316377967596054,0.04564131423830986,-9.791916847229004
1.7294985800432855e+18,0.0017445534467697144,-0.0016703499713912606,-9.716302871704102
1.7294985800522857e+18,0.01674851030111313,0.040337201207876205,-9.768739700317383
1.729498580061286e+18,-0.0059069301933050156,0.021324653178453445,-9.829075813293457
1.729498580067286e+18,0.0650339350104332,-0.06923973560333252,-9.823002815246582
1.7294985800762862e+18,-0.017410041764378548,0.06982001662254333,-9.717960357666016
1.7294985800822863e+18,-0.020729493349790573,-0.002629244700074196,-9.734439849853516
1.7294985800912865e+18,0.0278797447681427,0.002359468024224043,-9.67540168762207
1.7294985801062868e+18,0.016934532672166824,0.08651234209537506,-9.786138534545898
1.729498580115287e+18,-0.010912345722317696,-0.002336877165362239,-9.746527671813965
1.7294985801242872e+18,-0.046605613082647324,-0.046638600528240204,-9.753824234008789
1.7294985801302874e+18,-0.017605582252144814,0.03831006586551666,-9.71390438079834
1.7294985801392876e+18,-0.025296207517385483,0.05772978067398071,-9.784757614135742
1.7294985801452877e+18,0.025714147835969925,-0.006432603113353252,-9.754683494567871
1.7294985801542879e+18,0.016770146787166595,0.014033683575689793,-9.745553970336914
1.729498580163288e+18,0.009155474603176117,0.016737695783376694,-9.676124572753906
1.7294985801722883e+18,3.0821553082205355e-05,-0.032748814672231674,-9.81694507598877
1.7294985801782884e+18,-0.0006656483747065067,-0.029165910556912422,-9.780817985534668
1.7294985801872886e+18,0.03917934000492096,-0.037776846438646317,-9.803793907165527
1.7294985801932887e+18,0.0008812777232378721,0.11189432442188263,-9.723158836364746
1.729498580202289e+18,0.01703527756035328,-0.05887483432888985,-9.712700843811035
1.729498580211289e+18,-0.01628430001437664,-0.08510883897542953,-9.74881362915039
1.7294985802232893e+18,-0.022442925721406937,-0.07640612870454788,-9.803497314453125
1.7294985802352896e+18,-0.023819420486688614,0.044028982520103455,-9.758230209350586
1.7294985802412897e+18,-0.03121781535446644,0.046751730144023895,-9.73135757446289
1.72949858025029e+18,0.02578088641166687,-0.011027272790670395,-9.760452270507812
1.72949858025629e+18,0.0009252483723685145,0.0398518368601799,-9.786466598510742
1.7294985802652902e+18,0.01305072009563446,-0.08982475847005844,-9.771167755126953
1.7294985802742904e+18,0.0017554473597556353,-0.07661152631044388,-9.661669731140137
1.7294985802802906e+18,-0.0058862995356321335,-0.03822125494480133,-9.799736976623535
1.7294985802892908e+18,-0.02464411035180092,0.0075933369807899,-9.728225708007812
1.729498580298291e+18,-0.01629166305065155,0.06591968238353729,-9.815842628479004
1.729498580304291e+18,-0.04269601032137871,0.011998905800282955,-9.774048805236816
1.7294985803132913e+18,0.05739147961139679,0.024702437222003937,-9.733591079711914
1.7294985803222915e+18,-0.010218389332294464,-0.007020252291113138,-9.700804710388184
1.7294985803282916e+18,-0.001958464737981558,-0.011384127661585808,-9.695134162902832
1.7294985803372918e+18,0.009988008067011833,-0.011126464232802391,-9.771931648254395
1.729498580346292e+18,0.052096523344516754,0.018118180334568024,-9.77855110168457
1.7294985803552922e+18,-0.006418699398636818,0.002489361446350813,-9.74020767211914
1.7294985803612923e+18,-0.09234558045864105,-0.014779896475374699,-9.708773612976074
1.7294985803702925e+18,0.02284868434071541,0.0754166767001152,-9.713704109191895
1.7294985803792927e+18,0.003175962483510375,-0.028021275997161865,-9.799797058105469
1.7294985803852928e+18,0.012278402224183083,0.0175867211073637,-9.726423263549805
1.729498580394293e+18,-0.07598735392093658,0.10271663218736649,-9.668352127075195
1.7294985804032932e+18,0.03735359013080597,-0.004707852844148874,-9.750317573547363
1.7294985804092933e+18,-0.007626833859831095,0.0011626372579485178,-9.718101501464844
1.7294985804182935e+18,0.03425466641783714,-0.00033444134169258177,-9.79738712310791
1.7294985804272937e+18,0.004736575298011303,-0.05413999408483505,-9.758974075317383
1.729498580436294e+18,0.04308663308620453,-0.01174924336373806,-9.740204811096191
1.729498580442294e+18,-0.04381093382835388,-0.013256017118692398,-9.686727523803711
1.7294985804512942e+18,-0.01760287582874298,0.061113134026527405,-9.807382583618164
1.7294985804602944e+18,-0.006892538629472256,-0.0535677894949913,-9.778244018554688
1.7294985804662945e+18,0.06082526594400406,0.016510477289557457,-9.757596015930176
1.7294985804752947e+18,-0.04601090028882027,-0.012317744083702564,-9.775344848632812
1.729498580484295e+18,-0.07020284980535507,0.021367887035012245,-9.815600395202637
1.729498580493295e+18,-0.027457740157842636,0.016012869775295258,-9.713654518127441
1.7294985805052954e+18,0.026715939864516258,-0.049472879618406296,-9.740100860595703
1.7294985805112955e+18,-0.1153288185596466,-0.04411204159259796,-9.74618148803711
1.7294985805202957e+18,-0.016415830701589584,-0.02613150142133236,-9.822260856628418
1.729498580529296e+18,0.0075520724058151245,0.03689654916524887,-9.740467071533203
1.729498580538296e+18,0.04155458137392998,0.019985541701316833,-9.71854019165039
1.7294985805442962e+18,-0.020456712692975998,-0.027201877906918526,-9.781214714050293
1.7294985805532964e+18,-0.06550503522157669,-0.019017156213521957,-9.740720748901367
1.7294985805622966e+18,-0.03204641863703728,0.06355509161949158,-9.759499549865723
1.7294985805712968e+18,-0.0038192556239664555,-0.06595449894666672,-9.69731330871582
1.729498580580297e+18,0.017050456255674362,0.039476364850997925,-9.794567108154297
1.729498580586297e+18,-0.0161955077201128,0.020934676751494408,-9.789759635925293
1.7294985805952973e+18,-0.025700079277157784,0.004231918603181839,-9.628256797790527
1.7294985806042975e+18,-0.02014411985874176,0.023166578263044357,-9.772126197814941
1.7294985806162977e+18,-0.012478861957788467,0.01867114007472992,-9.677510261535645
1.729498580628298e+18,-0.031072840094566345,-0.09048492461442947,-9.770750999450684
1.7294985806372982e+18,0.035188354551792145,0.09575656801462173,-9.746004104614258
1.7294985806432983e+18,0.011163966730237007,0.002393231028690934,-9.764558792114258
1.7294985806522985e+18,-0.022534584626555443,-0.06155123934149742,-9.877277374267578
1.7294985806612987e+18,0.0028605638071894646,-0.0020201464649289846,-9.740832328796387
1.7294985806672988e+18,-0.004484196659177542,-0.015520423650741577,-9.75320816040039
1.729498580676299e+18,0.020529335364699364,0.054643016308546066,-9.730448722839355
1.7294985806852992e+18,0.08454813808202744,-0.026124967262148857,-9.747077941894531
1.7294985806942994e+18,0.0304446779191494,-0.06813540309667587,-9.789031028747559
1.7294985807002995e+18,-0.01911943033337593,0.012177986092865467,-9.708610534667969
1.7294985807092997e+18,0.027758996933698654,-0.03934316337108612,-9.776501655578613
1.7294985807152998e+18,-0.0134896170347929,-0.003977497108280659,-9.745550155639648
1.7294985807243e+18,-0.022823799401521683,-0.0015856529353186488,-9.757851600646973
1.7294985807333002e+18,0.006967075634747744,0.026576125994324684,-9.805120468139648
1.7294985807393004e+18,-0.02513040602207184,-0.07987818866968155,-9.758522033691406
1.7294985807483005e+18,0.02965940721333027,-0.011492334306240082,-9.780415534973145
1.7294985807573007e+18,0.06959874927997589,0.08019457757472992,-9.80124568939209
1.729498580766301e+18,-0.03786692023277283,-0.042337238788604736,-9.730714797973633
1.729498580772301e+18,0.004016547463834286,0.004717869684100151,-9.743151664733887
1.7294985807813012e+18,0.05639117211103439,-0.06773203611373901,-9.753816604614258
1.7294985807903014e+18,0.030982237309217453,0.015763238072395325,-9.677425384521484
1.7294985807963016e+18,0.008277948014438152,0.04494461044669151,-9.774068832397461
1.7294985808053018e+18,0.04286513850092888,0.03745662048459053,-9.712359428405762
1.729498580814302e+18,-0.03863578289747238,0.05859828367829323,-9.790155410766602
1.7294985808233021e+18,0.02580639161169529,-0.014460338279604912,-9.718901634216309
1.7294985808293023e+18,-6.658419442828745e-05,-0.010972305200994015,-9.725550651550293
1.7294985808383025e+18,0.0017253541154786944,0.06338530778884888,-9.843623161315918
1.7294985808473027e+18,-0.043308328837156296,-0.054726120084524155,-9.697463035583496
1.7294985808533028e+18,-0.047728415578603745,0.0478367879986763,-9.721111297607422
1.729498580862303e+18,-0.00016874140419531614,-0.03190978989005089,-9.705172538757324
1.729498580868303e+18,0.012849640101194382,0.052814893424510956,-9.839752197265625
1.7294985808773033e+18,0.025127163156867027,0.03144856169819832,-9.694580078125
1.7294985808833034e+18,0.02224518358707428,0.006785055622458458,-9.755812644958496
1.7294985808923036e+18,0.011596549302339554,-0.03638340160250664,-9.718936920166016
1.7294985809013038e+18,0.10985922068357468,-0.020831119269132614,-9.75330924987793
1.729498580907304e+18,0.05252000689506531,-0.02186550386250019,-9.790142059326172
1.7294985809163041e+18,-0.018279921263456345,0.051360733807086945,-9.773977279663086
1.7294985809253043e+18,-0.011280650272965431,0.004531861282885075,-9.721063613891602
1.7294985809343045e+18,-0.04905807971954346,-0.0159082543104887,-9.777656555175781
1.7294985809403046e+18,-0.06304124742746353,-0.06430263817310333,-9.808622360229492
1.7294985809493048e+18,0.0024088560603559017,0.04904107004404068,-9.753055572509766
1.729498580955305e+18,-0.03488997370004654,-0.03289676457643509,-9.684776306152344
1.7294985809643052e+18,0.0047876122407615185,0.009404017589986324,-9.787829399108887
1.7294985809733053e+18,-0.0355960838496685,0.045905012637376785,-9.78470516204834
1.7294985809823055e+18,-0.013161053881049156,0.058409567922353745,-9.83890151977539
1.7294985809883057e+18,-0.05125538632273674,0.05482790246605873,-9.76705265045166
1.7294985809973059e+18,-0.034867171198129654,-0.013736751861870289,-9.69264030456543
1.729498581006306e+18,7.864832878112793e-05,-0.0009519614977762103,-9.779374122619629
1.7294985810123062e+18,-0.017489345744252205,0.02429852820932865,-9.794726371765137
1.7294985810213064e+18,0.018298881128430367,-0.06383620947599411,-9.722140312194824
1.7294985810303066e+18,0.01668965071439743,0.02489701472222805,-9.810933113098145
1.7294985810363067e+18,0.002400800120085478,-0.007777214050292969,-9.759952545166016
1.729498581045307e+18,-0.0034384692553430796,-0.05113418027758598,-9.788050651550293
1.729498581054307e+18,-0.000904221145901829,-0.0422307550907135,-9.764606475830078
1.7294985810603072e+18,0.060427356511354446,-0.0030850423499941826,-9.769952774047852
1.7294985810693074e+18,-0.03566918149590492,0.01483970694243908,-9.801026344299316
1.7294985810783076e+18,-0.04209759458899498,-0.06494122743606567,-9.830824851989746
1.7294985810873078e+18,0.012012750841677189,-0.034121960401535034,-9.829626083374023
1.729498581096308e+18,0.023294394835829735,-0.025892959907650948,-9.812211036682129
1.729498581102308e+18,-0.01182605791836977,-0.12257924675941467,-9.771095275878906
1.7294985811113083e+18,0.043797124177217484,0.0371987521648407,-9.780730247497559
1.7294985811203085e+18,-0.03793134540319443,-0.004020529333502054,-9.795801162719727
1.7294985811263086e+18,0.03532925620675087,-0.04891713708639145,-9.793149948120117
1.7294985811353088e+18,-0.02827652543783188,0.03964085131883621,-9.747076988220215
1.729498581141309e+18,0.042492423206567764,-0.015542260371148586,-9.812054634094238
1.729498581150309e+18,0.016308225691318512,0.01976846344769001,-9.767770767211914
1.7294985811593093e+18,-0.08517813682556152,0.055211182683706284,-9.8245267868042
1.7294985811653094e+18,0.03893769904971123,-0.02786414325237274,-9.831289291381836
1.7294985811743096e+18,0.02826325036585331,-0.04174365848302841,-9.852823257446289
1.7294985811833098e+18,0.014949964359402657,0.006723716855049133,-9.779169082641602
1.72949858118931e+18,-0.04629341512918472,0.03538350760936737,-9.733579635620117
1.7294985811983101e+18,0.09500252455472946,0.0282440222799778,-9.826831817626953
1.7294985812073103e+18,-0.02401440590620041,-0.013942696154117584,-9.761899948120117
1.7294985812133105e+18,-0.024434486404061317,0.08215074986219406,-9.757834434509277
1.7294985812223107e+18,0.06640611588954926,-0.0034392457455396652,-9.791213989257812
1.7294985812313108e+18,0.10945040732622147,-0.03323962911963463,-9.747176170349121
1.729498581237311e+18,-0.015273054130375385,0.051506802439689636,-9.82133960723877
1.7294985812463112e+18,-0.003033084562048316,4.662742139771581e-05,-9.835410118103027
1.7294985812523113e+18,-0.00967254675924778,-0.009041182696819305,-9.797382354736328
1.7294985812613115e+18,0.11864670366048813,0.03698401525616646,-9.81295108795166
1.7294985812703117e+18,0.04484442248940468,0.0167084950953722,-9.721420288085938
1.729498581279312e+18,-0.03620552644133568,0.0364614799618721,-9.719764709472656
1.729498581285312e+18,-0.03365611284971237,0.009864347986876965,-9.742583274841309
1.7294985812973123e+18,0.02188156731426716,0.03482707962393761,-9.784652709960938
1.7294985813033124e+18,0.011701665818691254,0.0484936460852623,-9.771263122558594
1.7294985813123126e+18,-0.07173887640237808,-0.023406559601426125,-9.753808975219727
1.7294985813183127e+18,-0.008403041400015354,-0.04049995541572571,-9.69074535369873
1.729498581327313e+18,0.009012306109070778,-0.007742424961179495,-9.70116901397705
1.729498581336313e+18,0.0015903373714536428,0.003524188883602619,-9.786145210266113
1.7294985813423132e+18,-0.08167082071304321,0.03868548944592476,-9.792068481445312
1.7294985813513134e+18,-0.004819565452635288,-0.03236716240644455,-9.776728630065918
1.7294985813603136e+18,-0.012191402725875378,0.0345304012298584,-9.78282356262207
1.7294985813663137e+18,-0.13790331780910492,0.019699452444911003,-9.693147659301758
1.729498581375314e+18,0.03375696390867233,0.058753278106451035,-9.76945972442627
1.729498581381314e+18,-0.0026366272941231728,0.06747012585401535,-9.834455490112305
1.7294985813903142e+18,-0.05259839817881584,-0.05241947993636131,-9.729769706726074
1.7294985813993144e+18,-0.044556308537721634,-0.03787210211157799,-9.817279815673828
1.7294985814053146e+18,-0.010280045680701733,-0.04594254866242409,-9.736679077148438
1.7294985814143148e+18,0.04697917774319649,0.013615378178656101,-9.726062774658203
1.729498581423315e+18,-0.0475594662129879,0.04158003255724907,-9.807887077331543
1.729498581429315e+18,0.004105724394321442,0.009393821470439434,-9.766168594360352
1.7294985814383153e+18,-0.0024056918919086456,-0.011707734316587448,-9.750801086425781
1.7294985814473155e+18,0.0571635477244854,-0.011896493844687939,-9.698687553405762
1.7294985814533156e+18,-0.004709294997155666,-0.04689193516969681,-9.810245513916016
1.7294985814623158e+18,0.009015824645757675,-0.0064154500141739845,-9.754595756530762
1.729498581471316e+18,0.08958504348993301,0.015086008235812187,-9.795371055603027
1.729498581477316e+18,-0.01867004856467247,-0.04812278971076012,-9.839075088500977
1.7294985814863163e+18,0.008925437927246094,0.0532766655087471,-9.782503128051758
1.7294985814953165e+18,-0.02129155769944191,-0.004121844656765461,-9.846664428710938
1.7294985815013166e+18,0.06164474040269852,-0.01914733648300171,-9.773727416992188
1.7294985815103168e+18,0.05145246535539627,0.0018802896374836564,-9.745591163635254
1.729498581519317e+18,-0.0013049517292529345,-0.007446288131177425,-9.734405517578125
1.729498581525317e+18,0.10143227130174637,0.011023592203855515,-9.791524887084961
1.7294985815343173e+18,-0.027539366856217384,-0.019890865311026573,-9.748278617858887
1.7294985815403174e+18,0.00683745788410306,0.03466073051095009,-9.771031379699707
1.7294985815493176e+18,0.04633333534002304,0.011132982559502125,-9.81671142578125
1.7294985815583178e+18,0.033759284764528275,-0.09363055974245071,-9.77687931060791
1.729498581564318e+18,0.06895726919174194,-0.0008301101624965668,-9.823479652404785
1.7294985815733181e+18,0.0011622513411566615,0.033124543726444244,-9.783233642578125
1.7294985815793183e+18,0.057257529348134995,0.009163660928606987,-9.707529067993164
1.7294985815883185e+18,-0.0760754719376564,-0.020237328484654427,-9.819066047668457
1.7294985815973187e+18,-0.008706627413630486,0.03753436729311943,-9.715652465820312
1.7294985816033188e+18,-0.04801507666707039,0.02823946252465248,-9.8102388381958
1.729498581612319e+18,-0.0054616546258330345,0.07818293571472168,-9.769460678100586
1.7294985816213192e+18,0.0019782036542892456,-0.057094551622867584,-9.759173393249512
1.7294985816303194e+18,0.030659887939691544,0.02347920835018158,-9.763484001159668
1.7294985816363195e+18,-0.08774886280298233,0.05455920845270157,-9.72494125366211
1.7294985816453197e+18,0.020150192081928253,-0.006175674498081207,-9.8157320022583
1.7294985816543199e+18,0.04049469158053398,-0.025699913501739502,-9.784908294677734
1.72949858166332e+18,0.09509962052106857,0.0023670089431107044,-9.76994514465332
1.7294985816753203e+18,0.011097626760601997,-0.09969637542963028,-9.77877426147461
1.7294985816843205e+18,0.05543074384331703,-0.037646397948265076,-9.88039779663086
1.7294985816933207e+18,0.07826743274927139,0.03146345168352127,-9.795106887817383
1.729498581702321e+18,0.003428155556321144,-0.020832009613513947,-9.776190757751465
1.729498581708321e+18,0.009784956462681293,-0.0511062815785408,-9.81900405883789
1.7294985817203213e+18,0.005826386623084545,0.06358776241540909,-9.792396545410156
1.7294985817263214e+18,-0.05216734856367111,-0.007329561281949282,-9.784774780273438
1.7294985817413217e+18,0.12221169471740723,-0.060669295489788055,-9.747963905334473
1.729498581750322e+18,0.05702567845582962,0.011094028130173683,-9.819511413574219
1.729498581759322e+18,0.03546951711177826,-0.06873602420091629,-9.884074211120605
1.7294985817653222e+18,0.023873142898082733,0.0008206723141483963,-9.833379745483398
1.7294985817743224e+18,-0.04734048247337341,-0.01104685477912426,-9.77761459350586
1.7294985817863227e+18,0.0603816993534565,-0.032156866043806076,-9.826448440551758
1.7294985817923228e+18,0.04426218196749687,-0.046656060963869095,-9.80999755859375
1.729498581801323e+18,0.051955290138721466,-0.004012213088572025,-9.79257583618164
1.7294985818103232e+18,-0.043666161596775055,-0.04258441925048828,-9.846142768859863
1.7294985818163233e+18,-0.06294500082731247,-0.0790034607052803,-9.838722229003906
1.7294985818253235e+18,-0.038156554102897644,0.04647801071405411,-9.833574295043945
1.7294985818313236e+18,0.037657056003808975,0.04901000112295151,-9.79488468170166
1.7294985818403238e+18,-0.07645153254270554,-0.055450450628995895,-9.8248291015625
1.729498581846324e+18,0.011771850287914276,0.1063135489821434,-9.812204360961914
1.7294985818553242e+18,0.005036225076764822,0.022788800299167633,-9.81994342803955
1.7294985818643244e+18,-0.045754171907901764,-0.03273420408368111,-9.789179801940918
1.7294985818703245e+18,0.04016723856329918,0.06500300019979477,-9.7946138381958
1.7294985818793247e+18,-0.06386155635118484,0.014476479962468147,-9.732157707214355
1.7294985818883249e+18,0.07214972376823425,-0.07225591689348221,-9.719612121582031
1.729498581894325e+18,0.026892391964793205,-0.032964613288640976,-9.763821601867676
1.7294985819033252e+18,0.021219773218035698,0.056521303951740265,-9.753308296203613
1.7294985819123254e+18,-0.07832016795873642,0.01452975906431675,-9.730319023132324
1.7294985819213256e+18,-0.0011292094131931663,0.03608330339193344,-9.715014457702637
1.7294985819303258e+18,0.025610201060771942,-0.0006586498930118978,-9.781147003173828
1.729498581939326e+18,-0.044921088963747025,-0.05830959230661392,-9.85902214050293
1.7294985819483261e+18,0.04990353435277939,-0.056769441813230515,-9.732163429260254
1.7294985819543263e+18,0.005580678582191467,0.006670620292425156,-9.775795936584473
1.7294985819633265e+18,-0.000230502468184568,-0.06860998272895813,-9.774590492248535
1.7294985819723267e+18,-0.0748041570186615,0.016809841617941856,-9.817976951599121
1.7294985819783268e+18,0.03580401465296745,-0.015481945127248764,-9.766644477844238
1.729498581987327e+18,0.08146998286247253,-0.06282038241624832,-9.746894836425781
1.729498581993327e+18,-0.03368335962295532,-0.005036037415266037,-9.76361083984375
1.7294985820023273e+18,0.04086755961179733,0.029462721198797226,-9.732172012329102
1.7294985820113275e+18,0.04129086434841156,0.04355168342590332,-9.74022102355957
1.7294985820203277e+18,0.06256231665611267,0.027398977428674698,-9.743087768554688
1.7294985820263278e+18,0.049166034907102585,0.058920104056596756,-9.725611686706543
1.729498582035328e+18,-0.04195979982614517,-0.023333080112934113,-9.761842727661133
1.7294985820443282e+18,0.01747720316052437,-0.04706365987658501,-9.859298706054688
1.7294985820533284e+18,-0.0073185996152460575,0.03225996717810631,-9.795619010925293
1.7294985820593285e+18,0.03697582334280014,-0.03590410202741623,-9.763091087341309
1.7294985820683287e+18,0.0432133823633194,-0.024089550599455833,-9.832799911499023
1.729498582077329e+18,0.13227172195911407,-0.0012708407593891025,-9.844212532043457
1.729498582083329e+18,-0.007374468259513378,0.0030644044745713472,-9.724236488342285
1.7294985820923292e+18,-0.04917043074965477,-0.025316685438156128,-9.817956924438477
1.7294985820983293e+18,0.01489601656794548,-0.04095754399895668,-9.763683319091797
1.7294985821073295e+18,0.030303433537483215,-0.006539833266288042,-9.799221992492676
1.7294985821163297e+18,0.014058285392820835,-0.07873155176639557,-9.831483840942383
1.72949858212533e+18,-0.027948599308729172,0.002532318700104952,-9.869723320007324
1.7294985821373302e+18,0.0507163479924202,0.007223375141620636,-9.795299530029297
1.7294985821463304e+18,0.045986149460077286,-0.04434293136000633,-9.779707908630371
1.7294985821553306e+18,-0.018575673922896385,0.062390901148319244,-9.778332710266113
1.7294985821613307e+18,-0.008351963013410568,-0.031066151335835457,-9.79675006866455
1.729498582170331e+18,-0.02365196868777275,-0.026527803391218185,-9.791047096252441
1.729498582176331e+18,-0.03972109034657478,0.05360100790858269,-9.740622520446777
1.7294985821853312e+18,-0.021988000720739365,-0.03502829372882843,-9.867899894714355
1.7294985821943314e+18,-0.01476171426475048,0.04725460335612297,-9.763060569763184
1.7294985822003315e+18,0.046442706137895584,-0.01315884105861187,-9.799304008483887
1.7294985822093317e+18,0.03213585168123245,-0.026987310498952866,-9.862126350402832
1.7294985822153318e+18,-0.013307029381394386,0.011005740612745285,-9.872044563293457
1.729498582224332e+18,-0.06837751716375351,0.014182539656758308,-9.838860511779785
1.7294985822303322e+18,-0.013092393055558205,-0.019662950187921524,-9.811558723449707
1.7294985822393324e+18,0.05224199965596199,0.024358054623007774,-9.834587097167969
1.7294985822483325e+18,0.02083367295563221,-0.040676914155483246,-9.726999282836914
1.7294985822543327e+18,0.08971722424030304,-0.00997469387948513,-9.874436378479004
1.7294985822633329e+18,0.007298645097762346,-0.0025451434776186943,-9.766743659973145
1.729498582272333e+18,-0.05688164383172989,-0.0015518892323598266,-9.81535816192627
1.7294985822813332e+18,-0.08630482107400894,-0.03228054940700531,-9.748281478881836
1.7294985822873334e+18,-0.0682828351855278,-0.03360268846154213,-9.758459091186523
1.7294985822963336e+18,0.026131808757781982,-0.03634974732995033,-9.842499732971191
1.7294985823023337e+18,0.080101877450943,0.0007762846653349698,-9.787659645080566
1.729498582311334e+18,-0.013144684955477715,0.037479426711797714,-9.83678913116455
1.729498582317334e+18,0.023499393835663795,0.009985042735934258,-9.752081871032715
1.7294985823263342e+18,-0.037666235119104385,0.022826047614216805,-9.682075500488281
1.7294985823353344e+18,0.01825820282101631,0.006740174256265163,-9.78995132446289
1.7294985823413345e+18,-0.004548036493360996,0.0791829526424408,-9.82248592376709
1.7294985823503347e+18,-0.052076153457164764,-0.047780878841876984,-9.813929557800293
1.729498582359335e+18,-0.062432631850242615,0.05219370126724243,-9.745518684387207
1.729498582365335e+18,-0.08776362985372543,-0.043294765055179596,-9.774327278137207
1.7294985823743352e+18,-0.030922580510377884,-0.06202946975827217,-9.759230613708496
1.7294985823803354e+18,0.010624170303344727,0.003168812720105052,-9.752549171447754
1.7294985823893356e+18,-0.02110130526125431,-0.0007710233330726624,-9.889385223388672
1.7294985823983357e+18,0.01739520952105522,0.02049827389419079,-9.752410888671875
1.7294985824043359e+18,0.06723473966121674,-0.024327818304300308,-9.776416778564453
1.729498582413336e+18,0.009760705754160881,0.06380023807287216,-9.793479919433594
1.7294985824193362e+18,-0.008703053928911686,0.035020917654037476,-9.703542709350586
1.7294985824283364e+18,0.02156572975218296,-0.008304406888782978,-9.803205490112305
1.7294985824373366e+18,-0.02958924137055874,-0.0027238663751631975,-9.750283241271973
1.7294985824463368e+18,0.050909437239170074,-0.0019725754391402006,-9.879365921020508
1.729498582452337e+18,-0.0152052603662014,-0.06144227087497711,-9.739076614379883
1.729498582461337e+18,-0.04333110526204109,-0.010616105049848557,-9.745752334594727
1.7294985824703373e+18,0.07115130871534348,0.03911594673991203,-9.816380500793457
1.7294985824763374e+18,0.08463449776172638,-0.020758597180247307,-9.800131797790527
1.7294985824883377e+18,0.0039214761927723885,0.08900943398475647,-9.796586990356445
1.7294985824973379e+18,-0.0029386794194579124,-0.00021514625404961407,-9.837615966796875
1.729498582506338e+18,0.034999702125787735,0.0005505593144334853,-9.80613899230957
1.7294985825123382e+18,-0.029468752443790436,-0.046885088086128235,-9.792947769165039
1.7294985825213384e+18,-0.024570204317569733,0.0436578094959259,-9.775116920471191
1.7294985825303386e+18,0.04435786232352257,0.032187700271606445,-9.808653831481934
1.7294985825393388e+18,0.01062789186835289,-0.019870517775416374,-9.84005355834961
1.729498582545339e+18,0.033416975289583206,0.07562433183193207,-9.790788650512695
1.729498582554339e+18,-0.02640187181532383,-0.020281504839658737,-9.818238258361816
1.7294985825633393e+18,-0.05147502198815346,-0.030988024547696114,-9.739847183227539
1.7294985825723395e+18,0.037544067949056625,-0.028329025954008102,-9.832488059997559
1.7294985825813396e+18,0.11372678726911545,-0.00880140345543623,-9.773191452026367
1.7294985825873398e+18,0.017648136243224144,0.07296119630336761,-9.732976913452148
1.72949858259634e+18,-0.012969665229320526,0.0015141376061365008,-9.70750904083252
1.72949858260234e+18,-0.01835937239229679,0.041530855000019073,-9.807075500488281
1.7294985826113403e+18,-0.06124483048915863,-0.012509020045399666,-9.780512809753418
1.7294985826203405e+18,0.06967451423406601,-0.020200306549668312,-9.771361351013184
1.7294985826293407e+18,0.009495886042714119,0.033126454800367355,-9.703619956970215
1.7294985826353408e+18,-0.02460615709424019,0.005137234926223755,-9.849918365478516
1.729498582644341e+18,0.04279743880033493,0.00037119496846571565,-9.839607238769531
1.7294985826533412e+18,0.046775173395872116,0.026527106761932373,-9.771799087524414
1.7294985826593413e+18,0.026642175391316414,-0.025583993643522263,-9.811705589294434
1.7294985826683415e+18,-0.005751403048634529,-0.058740805834531784,-9.79945182800293
1.7294985826773417e+18,0.056892603635787964,0.004609527066349983,-9.867542266845703
1.7294985826833418e+18,0.10300243645906448,0.054337650537490845,-9.792692184448242
1.729498582692342e+18,0.05942486599087715,0.052745625376701355,-9.77597713470459
1.7294985827013422e+18,-0.04167218878865242,0.0166468545794487,-7.952998161315918
1.7294985827073423e+18,0.03946862742304802,-0.05419260635972023,-6.366212844848633
1.7294985827163425e+18,-0.035973094403743744,0.0045011937618255615,-5.403586387634277
1.7294985827253427e+18,-0.0723811462521553,-0.00605050940066576,-5.359137535095215
1.729498582734343e+18,0.10024721920490265,0.023634621873497963,-5.326074600219727
1.729498582740343e+18,-0.0339123010635376,0.006010027136653662,-5.421815872192383
1.7294985827493432e+18,0.03426042199134827,-0.03108075261116028,-5.519843101501465
1.7294985827583434e+18,0.00274834968149662,0.008443577215075493,-5.247727394104004
1.7294985827673436e+18,-0.002464640885591507,0.03832698613405228,-5.217909336090088
1.7294985827763438e+18,-0.017859969288110733,0.08392584323883057,-5.134400367736816
1.729498582785344e+18,-0.01667754538357258,0.020404305309057236,-5.257815837860107
1.729498582791344e+18,0.04939141869544983,-0.025989074259996414,-5.277166843414307
1.7294985828003443e+18,0.03559630736708641,0.05985838547348976,-5.515593528747559
1.7294985828093445e+18,0.037104226648807526,0.10374583303928375,-5.59002161026001
1.7294985828153446e+18,-0.005668776109814644,0.09158813208341599,-5.25835657119751
1.7294985828243448e+18,0.05137637257575989,0.0409863218665123,-5.360563278198242
1.729498582833345e+18,0.059381283819675446,0.050215061753988266,-5.505734443664551
1.7294985828423452e+18,-0.014442451298236847,0.08840899169445038,-5.48606014251709
1.7294985828483453e+18,0.05865436792373657,0.009437527507543564,-5.419844627380371
1.7294985828573455e+18,-0.025318529456853867,0.00784660130739212,-5.534013271331787
1.7294985828633457e+18,0.07175704836845398,0.08695334196090698,-5.6387834548950195
1.7294985828723459e+18,0.07560497522354126,0.027299480512738228,-5.7513108253479
1.729498582881346e+18,-0.03079170733690262,0.013036233372986317,-4.786708354949951
1.7294985828873462e+18,0.0029468340799212456,-0.002352040261030197,-4.514765739440918
1.7294985828963464e+18,0.0032797730527818203,0.02987525425851345,-4.3737568855285645
1.7294985829053466e+18,-0.0787137821316719,0.14472895860671997,-4.288318157196045
1.7294985829113467e+18,0.04464934393763542,-0.003432556986808777,-4.308070182800293
1.729498582920347e+18,-0.01906355656683445,0.06858979165554047,-4.438449859619141
1.729498582929347e+18,-0.041794683784246445,0.09114551544189453,-4.508161544799805
1.7294985829353472e+18,-0.03941231220960617,-0.03708118200302124,-4.762334823608398
1.7294985829443474e+18,0.009767396375536919,-0.020066626369953156,-4.82097053527832
1.7294985829533476e+18,0.0406065471470356,0.05961491912603378,-4.9244890213012695
1.7294985829623478e+18,0.03392668068408966,-0.11030162125825882,-5.19966459274292
1.729498582968348e+18,0.007041718810796738,-0.005369470454752445,-5.36303186416626
1.729498582977348e+18,-0.04886258393526077,-0.01662692241370678,-5.415661811828613
1.7294985829863483e+18,0.09835086017847061,0.042185455560684204,-5.492233753204346
1.7294985829953485e+18,-0.08212099224328995,-0.0913950651884079,-5.655463218688965
1.7294985830013486e+18,0.055194176733493805,0.018140114843845367,-5.719385623931885
1.7294985830103488e+18,-0.04889228567481041,-0.008124707266688347,-5.901340484619141
1.729498583019349e+18,-0.005485472269356251,0.05557327717542648,-5.925089359283447
1.7294985830283492e+18,0.016042469069361687,-0.016251884400844574,-6.092785358428955
1.7294985830343493e+18,-0.03026401996612549,-0.02253253571689129,-6.076816082000732
1.7294985830433495e+18,0.06318394839763641,0.06297188997268677,-6.305123329162598
1.7294985830523497e+18,-0.09080630540847778,-0.033947840332984924,-6.392412185668945
1.72949858306135e+18,-0.0065574487671256065,0.005227335728704929,-6.524011611938477
1.72949858306735e+18,-0.006839089095592499,0.0915990099310875,-6.586050987243652
1.7294985830763502e+18,0.024697639048099518,0.03062066063284874,-6.597807884216309
1.7294985830853504e+18,-0.07690420001745224,0.02434317208826542,-6.792982578277588
1.7294985830943506e+18,0.0739864856004715,-0.034005340188741684,-6.904026031494141
1.7294985831033508e+18,0.023515816777944565,0.021687161177396774,-6.98740291595459
1.729498583109351e+18,-0.02769756130874157,0.026356283575296402,-7.130281925201416
1.729498583118351e+18,0.02663188800215721,0.012327082455158234,-7.103054523468018
1.7294985831273513e+18,0.07883433252573013,0.022437898442149162,-7.152135372161865
1.7294985831363515e+18,0.0017492645420134068,-0.07909605652093887,-7.198334217071533
1.7294985831483517e+18,-0.03763967379927635,-0.00326516292989254,-7.423894882202148
1.729498583157352e+18,0.018408993259072304,0.036139678210020065,-7.381633758544922
1.7294985831663521e+18,0.013069886714220047,-0.005045384168624878,-7.477095127105713
1.7294985831723523e+18,0.004192737862467766,0.019917761906981468,-7.559578895568848
1.7294985831813524e+18,-0.09680316597223282,0.016680922359228134,-7.532878398895264
1.7294985831903526e+18,-0.035735368728637695,0.035097721964120865,-7.711419582366943
1.7294985831963528e+18,0.0015526278875768185,0.019824793562293053,-7.743858814239502
1.729498583205353e+18,-0.026518424972891808,0.010189564898610115,-7.833471775054932
1.7294985832143532e+18,-0.09774903953075409,0.033783845603466034,-7.736574649810791
1.7294985832233533e+18,0.048899583518505096,-0.013918098993599415,-7.865945339202881
1.7294985832323535e+18,0.008680245839059353,-0.06462330371141434,-8.021591186523438
1.7294985832413537e+18,-0.009465672075748444,-0.03565748780965805,-7.945626258850098
1.7294985832473539e+18,0.004592478275299072,0.019725410267710686,-8.046319961547852
1.729498583256354e+18,0.007838425226509571,-0.06929176300764084,-8.128498077392578
1.7294985832653542e+18,-0.018512383103370667,-0.04213705286383629,-8.169618606567383
1.7294985832743544e+18,-0.07260829210281372,-0.06318406015634537,-8.218077659606934
1.7294985832803546e+18,-0.05753936618566513,-0.00916922464966774,-8.261370658874512
1.7294985832893548e+18,0.006405126303434372,-0.055546753108501434,-8.378585815429688
1.729498583298355e+18,-0.09103990346193314,-0.00015417905524373055,-8.395313262939453
1.729498583304355e+18,0.02440200001001358,0.0350678376853466,-8.332711219787598
1.7294985833133553e+18,-0.027912136167287827,-0.024072634056210518,-8.416110038757324
1.7294985833223555e+18,0.032641373574733734,-0.04021386802196503,-8.413151741027832
1.7294985833283556e+18,0.04106714203953743,0.02502935193479061,-8.527411460876465
1.7294985833373558e+18,0.003799265716224909,-0.03952493518590927,-8.510401725769043
1.729498583346356e+18,-0.023945540189743042,0.013054542243480682,-8.579602241516113
1.7294985833553562e+18,0.05943341553211212,-0.010119779966771603,-8.636756896972656
1.7294985833613563e+18,-0.033053427934646606,0.03223341703414917,-8.759445190429688
1.7294985833703565e+18,0.012135283090174198,0.012288657948374748,-8.658661842346191
1.7294985833793567e+18,0.025522293522953987,0.077593594789505,-8.715261459350586
1.7294985833853568e+18,-0.04180482029914856,-0.005066170822829008,-8.749791145324707
1.729498583394357e+18,-0.0006583312060683966,0.002740756142884493,-8.698236465454102
1.7294985834033572e+18,0.0033346647396683693,-0.06026467680931091,-8.78189754486084
1.7294985834093573e+18,-0.007497585378587246,-0.07287552207708359,-8.72901725769043
1.7294985834183575e+18,0.09209385514259338,-0.07412800937891006,-8.858041763305664
1.7294985834273577e+18,-0.021734973415732384,-0.0544012151658535,-8.865251541137695
1.7294985834333578e+18,-0.016712438315153122,-0.013037044554948807,-8.803235054016113
1.729498583445358e+18,0.01320933923125267,0.03235378488898277,-8.936283111572266
1.7294985834513582e+18,-0.040432583540678024,-0.012493319809436798,-8.960049629211426
1.7294985834603584e+18,-0.06011947989463806,-0.013970399275422096,-8.959877014160156
1.7294985834723587e+18,-0.028233474120497704,-0.027701426297426224,-9.007368087768555
1.7294985834813588e+18,0.045823290944099426,-0.024826638400554657,-8.975325584411621
1.729498583487359e+18,-0.038195595145225525,-0.03717472404241562,-8.97004508972168
1.7294985834963592e+18,0.03445151075720787,0.1064973771572113,-9.0350923538208
1.7294985835053594e+18,-0.0664103552699089,0.08189227432012558,-9.14460563659668
1.7294985835143596e+18,-0.030715424567461014,0.020463714376091957,-9.117597579956055
1.7294985835233597e+18,0.012023030780255795,-0.019031846895813942,-9.168438911437988
1.72949858352936e+18,0.001622629351913929,0.01046699658036232,-9.130329132080078
1.72949858353836e+18,0.022326773032546043,0.022837664932012558,-9.159795761108398
1.7294985835473603e+18,0.0028251707553863525,0.01926105096936226,-9.12649154663086
1.7294985835533604e+18,0.023794088512659073,0.038466159254312515,-9.21474552154541
1.7294985835623606e+18,0.016700876876711845,0.043488968163728714,-9.158374786376953
1.7294985835713608e+18,0.03430137410759926,0.015423845499753952,-9.23361873626709
1.729498583577361e+18,-0.039922550320625305,0.07177332788705826,-9.279011726379395
1.729498583586361e+18,-0.004930489230901003,-0.007395938038825989,-9.294986724853516
1.7294985835953613e+18,-0.03558645024895668,0.0011178134009242058,-9.374960899353027
1.7294985836013614e+18,-0.01879214309155941,-0.030010614544153214,-9.39222240447998
1.7294985836103616e+18,0.007238537073135376,0.040150754153728485,-9.347609519958496
1.7294985836193618e+18,0.06807749718427658,0.0846901684999466,-9.2573881149292
1.729498583625362e+18,0.02456343173980713,0.016267510131001472,-9.318954467773438
1.729498583634362e+18,-0.02127239480614662,0.018940383568406105,-9.342355728149414
1.7294985836433623e+18,0.06671617925167084,0.03096301481127739,-9.385116577148438
1.7294985836523625e+18,-0.015481127426028252,0.08149005472660065,-9.351784706115723
1.7294985836613627e+18,0.0082011129707098,0.013818509876728058,-9.378311157226562
1.729498583670363e+18,-0.05022260546684265,0.04278295859694481,-9.356935501098633
1.729498583679363e+18,0.038544926792383194,0.004011970013380051,-9.474715232849121
1.7294985836853632e+18,0.10945598036050797,-0.03910314291715622,-9.33674144744873
1.7294985836943634e+18,-0.025683138519525528,0.014301116578280926,-9.3735990524292
1.7294985837033636e+18,0.05873439088463783,0.02326020412147045,-9.474383354187012
1.7294985837123638e+18,-0.02500978484749794,0.06368516385555267,-9.459575653076172
1.729498583721364e+18,0.03675674647092819,0.0803472250699997,-9.490565299987793
1.729498583727364e+18,0.04211331158876419,0.09909820556640625,-9.465198516845703
1.7294985837363643e+18,-0.04737551137804985,0.00783989392220974,-9.506084442138672
1.7294985837453645e+18,-0.005294035188853741,0.01745584048330784,-9.496088027954102
1.7294985837543647e+18,-0.06752477586269379,0.08075013756752014,-9.566119194030762
1.7294985837633649e+18,0.029805345460772514,-0.023054800927639008,-9.540257453918457
1.729498583769365e+18,0.036146871745586395,-0.004794348031282425,-9.599555015563965
1.7294985837783652e+18,0.05425718054175377,0.021269064396619797,-9.49767780303955
1.7294985837873654e+18,-0.0053868480026721954,0.036089882254600525,-9.558883666992188
1.7294985837963656e+18,-0.040088020265102386,0.009187594056129456,-9.60769271850586
1.7294985838053658e+18,-0.009759625419974327,0.046117521822452545,-9.582331657409668
1.729498583811366e+18,-0.02385624498128891,0.05371595919132233,-9.50879955291748
