timestamp,accel_x,accel_y,accel_z
1.7294923315969882e+18,-0.008514381013810635,0.043485917150974274,-9.802034378051758
1.7294923316029883e+18,0.02046930603682995,0.017010997980833054,-9.848748207092285
1.7294923316089884e+18,0.03954053297638893,-0.010874943807721138,-9.773592948913574
1.7294923316149885e+18,0.0372898243367672,0.003764220979064703,-9.773615837097168
1.7294923316209887e+18,0.07644400745630264,-0.030017932876944542,-9.731429100036621
1.7294923316269888e+18,0.04117526113986969,-0.08287093788385391,-9.79630184173584
1.729492331632989e+18,0.02692624367773533,-0.014737643301486969,-9.809584617614746
1.729492331638989e+18,-0.023959437385201454,0.06686094403266907,-9.779390335083008
1.729492331641989e+18,0.0510023832321167,0.0403263121843338,-9.816575050354004
1.7294923316479892e+18,0.008469199761748314,0.002406393876299262,-9.854894638061523
1.7294923316539894e+18,-0.025668319314718246,-0.02237992361187935,-9.864280700683594
1.7294923316599895e+18,-0.018611174076795578,-0.03271893784403801,-9.773911476135254
1.7294923316659896e+18,-0.018562883138656616,0.03374779224395752,-9.806305885314941
1.7294923316719898e+18,-0.09283877909183502,0.028128569945693016,-9.74451732635498
1.72949233167799e+18,0.08779759705066681,0.044318098574876785,-9.812934875488281
1.72949233168399e+18,-0.003957491368055344,-0.025318635627627373,-9.741676330566406
1.7294923316899901e+18,0.06479375064373016,-0.05148161202669144,-9.800546646118164
1.7294923316959903e+18,0.0283044520765543,-0.032299600541591644,-9.808323860168457
1.7294923316989903e+18,-0.030507370829582214,0.03507890924811363,-9.8599214553833
1.7294923317049905e+18,0.027135932818055153,0.05544646829366684,-9.84067440032959
1.7294923317109906e+18,0.04470990225672722,-0.025423510000109673,-9.76558780670166
1.7294923317139907e+18,0.04479191079735756,0.021676190197467804,-9.827533721923828
1.7294923317199908e+18,-0.03027111478149891,-0.03507176414132118,-9.894478797912598
1.729492331725991e+18,-0.01365896500647068,-0.022379066795110703,-9.819353103637695
1.729492331731991e+18,-0.04513221234083176,0.057847317308187485,-9.81629467010498
1.729492331734991e+18,-0.03800101950764656,-0.06016797944903374,-9.796863555908203
1.7294923317409912e+18,-0.05088874697685242,0.04532821103930473,-9.817092895507812
1.7294923317469914e+18,-0.02462710812687874,0.021498873829841614,-9.800867080688477
1.7294923317529915e+18,0.02339043840765953,-0.047604650259017944,-9.834297180175781
1.7294923317589916e+18,0.005477177910506725,0.005420716013759375,-9.80541706085205
1.7294923317649917e+18,0.0610370859503746,0.028410160914063454,-9.77334213256836
1.7294923317709919e+18,-0.04355313628911972,-0.07079638540744781,-9.796998977661133
1.729492331776992e+18,-0.013818229548633099,0.017990553751587868,-9.796001434326172
1.7294923317829921e+18,-0.02557791955769062,-0.01447314117103815,-9.72377872467041
1.7294923317859922e+18,-0.015109089203178883,0.025216972455382347,-9.82902717590332
1.7294923317919923e+18,-0.035451631993055344,0.014845918864011765,-9.776640892028809
1.7294923318009925e+18,0.04656309634447098,-0.003974236082285643,-9.785186767578125
1.7294923318039926e+18,-0.06441965699195862,0.012792114168405533,-9.838532447814941
1.7294923318099927e+18,0.03016938455402851,0.01597057282924652,-9.818819046020508
1.729492331818993e+18,0.034130584448575974,0.020169515162706375,-9.832732200622559
1.729492331821993e+18,0.04553717002272606,-0.09529814124107361,-9.840324401855469
1.729492331827993e+18,0.01943383738398552,0.02197912707924843,-9.789783477783203
1.7294923318339932e+18,-0.0008256724686361849,0.05819132179021835,-9.85123062133789
1.7294923318399933e+18,-0.03806499019265175,0.04113646224141121,-9.799306869506836
1.7294923318429934e+18,0.0817718654870987,0.02246045507490635,-9.840980529785156
1.7294923318489935e+18,0.03405410051345825,-0.020757265388965607,-9.71401596069336
1.7294923318549937e+18,-0.004731324501335621,-0.008908739313483238,-9.884383201599121
1.7294923318609938e+18,-0.009075012989342213,-0.10673490911722183,-9.80466365814209
1.729492331866994e+18,-0.03657395392656326,0.029496613889932632,-9.803352355957031
1.729492331869994e+18,-0.008542544208467007,-0.050437893718481064,-9.75935173034668
1.729492331875994e+18,0.058733291923999786,0.03884369507431984,-9.78252124786377
1.7294923318819942e+18,-0.04331235587596893,-0.004377823788672686,-9.817094802856445
1.7294923318879944e+18,-0.004783665295690298,0.053241223096847534,-9.815535545349121
1.7294923318939945e+18,0.05098520591855049,-0.08568070828914642,-9.823811531066895
1.7294923318969946e+18,-0.021880904212594032,-0.00889154989272356,-9.73770809173584
1.7294923319029947e+18,-0.06618442386388779,6.552172999363393e-05,-9.755982398986816
1.7294923319089948e+18,0.06451153755187988,0.0011019713710993528,-9.85815715789795
1.729492331914995e+18,0.015530203469097614,-0.01066305860877037,-9.895467758178711
1.729492331920995e+18,-0.04889270290732384,-0.035808369517326355,-9.899335861206055
1.7294923319269952e+18,0.00010931013821391389,-0.03134243190288544,-9.735639572143555
1.7294923319329953e+18,-0.09229937940835953,0.07495300471782684,-9.868630409240723
1.7294923319389955e+18,-0.06523196399211884,0.016034448519349098,-9.73996353149414
1.7294923319449956e+18,-0.057264573872089386,0.07251258939504623,-9.796042442321777
1.7294923319479956e+18,-0.019709095358848572,0.07604733109474182,-9.839628219604492
1.7294923319539958e+18,0.007306833751499653,-0.0649256557226181,-9.814655303955078
1.729492331959996e+18,0.026782499626278877,-0.009121295996010303,-9.776698112487793
1.729492331962996e+18,0.03959968313574791,-0.05258980020880699,-9.822446823120117
1.7294923319719962e+18,0.0789928063750267,-0.06550021469593048,-9.849870681762695
1.7294923319749962e+18,0.03556985780596733,-0.0440535806119442,-9.802604675292969
1.7294923319809964e+18,-0.02617616020143032,-0.01756926439702511,-9.773075103759766
1.7294923319869965e+18,0.011186149902641773,0.0456726998090744,-9.806612014770508
1.7294923319929966e+18,0.07582735270261765,-0.04224606603384018,-9.846386909484863
1.7294923319989967e+18,-0.008616139180958271,-0.0004339405568316579,-9.827058792114258
1.7294923320049969e+18,-0.021726934239268303,0.05430930480360985,-9.809378623962402
1.729492332010997e+18,-0.0128935556858778,-0.04008409008383751,-9.80712890625
1.729492332016997e+18,-0.02677694708108902,0.04570690169930458,-9.801631927490234
1.7294923320199972e+18,-0.0068094744347035885,-0.06063086539506912,-9.7454252243042
1.7294923320259973e+18,-0.020601995289325714,0.004873102065175772,-9.890216827392578
1.7294923320319974e+18,0.0005611375090666115,0.07201405614614487,-9.74740982055664
1.7294923320379976e+18,-0.08894741535186768,-0.06622582674026489,-9.77746295928955
1.7294923320439977e+18,0.029728077352046967,0.061950258910655975,-9.862153053283691
1.7294923320469978e+18,-0.006507717538625002,-0.04261917993426323,-9.85068416595459
1.729492332052998e+18,0.01158152800053358,0.07997982203960419,-9.794510841369629
1.729492332058998e+18,-0.033717844635248184,0.04022923484444618,-9.837430953979492
1.7294923320649981e+18,-0.042556390166282654,0.026230502873659134,-9.830893516540527
1.7294923320709983e+18,0.02628089301288128,0.06489447504281998,-9.846644401550293
1.7294923320769984e+18,-0.014365131966769695,-0.023951508104801178,-9.7881441116333
1.7294923320829985e+18,0.0032449322752654552,0.05598178878426552,-9.777606964111328
1.7294923320859986e+18,0.07124069333076477,0.11190182715654373,-9.851034164428711
1.7294923320919987e+18,0.001772423624061048,-0.03428664430975914,-9.840803146362305
1.7294923320979988e+18,-0.013375069946050644,-0.05396873131394386,-9.760066986083984
1.729492332103999e+18,-0.017163921147584915,-0.035917509347200394,-9.794096946716309
1.729492332109999e+18,0.015107446350157261,-0.03855825960636139,-9.829879760742188
1.7294923321129992e+18,0.028174743056297302,-0.035487402230501175,-9.778960227966309
1.7294923321189993e+18,-0.039558883756399155,-0.009352652356028557,-9.82895278930664
1.7294923321249994e+18,0.08005701750516891,0.014621361158788204,-9.788283348083496
1.7294923321309996e+18,0.030519817024469376,0.020208191126585007,-9.769330024719238
1.7294923321369997e+18,0.04048759862780571,-0.007989094592630863,-9.804014205932617
1.7294923321429998e+18,-0.01471350621432066,0.11310683190822601,-9.796480178833008
1.729492332149e+18,-0.03240032121539116,0.002804946154356003,-9.77877140045166
1.729492332152e+18,0.030625376850366592,0.09948048740625381,-9.825124740600586
1.729492332158e+18,-0.026180967688560486,-0.0022586712148040533,-9.743468284606934
1.7294923321640003e+18,-0.03352237120270729,-0.006529169622808695,-9.849494934082031
1.7294923321700004e+18,0.04807119444012642,0.05362232029438019,-9.758255004882812
1.7294923321760005e+18,-0.012960011139512062,0.007923551835119724,-9.780335426330566
1.7294923321820006e+18,-0.054094020277261734,0.03771115839481354,-9.868916511535645
1.7294923321880008e+18,-0.058516621589660645,-0.02882966585457325,-9.820769309997559
1.729492332194001e+18,0.01631956547498703,0.06853014975786209,-9.833772659301758
1.729492332200001e+18,0.14992286264896393,0.06180056557059288,-9.899494171142578
1.7294923322060012e+18,-0.003638230497017503,0.0960162952542305,-9.843805313110352
1.7294923322120013e+18,-0.015113657340407372,0.018100624904036522,-9.810857772827148
1.7294923322180014e+18,-0.0395023375749588,0.03160741180181503,-9.806026458740234
1.7294923322210015e+18,0.0862148255109787,-0.029439501464366913,-9.718097686767578
1.7294923322270016e+18,-0.04233170300722122,-0.024632053449749947,-9.832841873168945
1.7294923322330017e+18,0.023362670093774796,-0.02352510206401348,-9.832358360290527
1.7294923322390019e+18,-0.02241417020559311,0.048735592514276505,-9.811179161071777
1.729492332242002e+18,-0.017845550552010536,-0.02614998072385788,-9.85064697265625
1.729492332248002e+18,0.044784776866436005,0.043421003967523575,-9.875442504882812
1.7294923322540022e+18,0.030754711478948593,-0.02373790182173252,-9.886940002441406
1.7294923322600023e+18,-0.02313080057501793,0.0802442729473114,-9.9629487991333
1.7294923322660024e+18,-0.03893414884805679,-0.034653108566999435,-9.913339614868164
1.7294923322720026e+18,-0.0013595600612461567,-0.01853134296834469,-10.1088228225708
1.7294923322750026e+18,-0.0010711620561778545,0.003018560353666544,-10.074466705322266
1.7294923322840028e+18,0.023731987923383713,0.04863971471786499,-9.976600646972656
1.729492332290003e+18,-0.06934144347906113,0.09375197440385818,-10.156354904174805
1.729492332296003e+18,-0.03812588006258011,-0.017062239348888397,-10.1598539352417
1.7294923322990031e+18,0.03022744320333004,-0.03663477301597595,-10.190634727478027
1.7294923323050033e+18,-0.020429421216249466,0.08803865313529968,-10.21714973449707
1.7294923323110034e+18,-0.058218419551849365,0.001074998639523983,-10.276412963867188
1.7294923323170035e+18,-0.022835619747638702,-0.01664120703935623,-10.30993938446045
1.7294923323230036e+18,-0.012939292006194592,-0.011290628463029861,-10.306975364685059
1.7294923323260037e+18,-0.054448194801807404,0.03648141399025917,-10.34037971496582
1.7294923323320038e+18,-0.10948275029659271,0.051767319440841675,-10.305868148803711
1.729492332338004e+18,-0.05614191293716431,-0.06479983776807785,-10.38713550567627
1.729492332344004e+18,0.016496004536747932,0.024861672893166542,-10.396029472351074
1.7294923323500042e+18,-0.002777441404759884,0.019968150183558464,-10.51613712310791
1.7294923323560044e+18,0.03605125844478607,0.051136940717697144,-10.45742130279541
1.7294923323620045e+18,-0.0253896526992321,-0.018329523503780365,-10.532787322998047
1.7294923323680046e+18,-0.09357289224863052,0.03291565179824829,-10.560550689697266
1.7294923323740047e+18,-0.002170155057683587,0.03960975632071495,-10.510594367980957
1.7294923323800049e+18,-0.03470148146152496,0.14481276273727417,-10.542966842651367
1.729492332386005e+18,-0.008463343605399132,-0.023803772404789925,-10.66045093536377
1.7294923323950052e+18,-0.026317771524190903,-0.08577140420675278,-10.668755531311035
1.7294923324040054e+18,-0.06351032108068466,-0.029084406793117523,-10.678037643432617
1.7294923324100055e+18,0.031910236924886703,0.03383561596274376,-10.694473266601562
1.7294923324190057e+18,-0.04171987622976303,0.0136624276638031,-10.695371627807617
1.7294923324250058e+18,0.010288494639098644,0.026109596714377403,-10.751843452453613
1.729492332431006e+18,-0.04380028694868088,0.017604630440473557,-10.858561515808105
1.7294923324400061e+18,0.07579199969768524,-0.008012339472770691,-10.90523910522461
1.7294923324460063e+18,0.052037257701158524,-0.015696905553340912,-10.795736312866211
1.7294923324550065e+18,0.026908736675977707,-0.0013212885241955519,-10.918192863464355
1.7294923324610066e+18,0.0063275243155658245,-0.013080725446343422,-10.946134567260742
1.7294923324700068e+18,0.03574829548597336,-0.006220896262675524,-10.939064979553223
1.729492332479007e+18,-0.01770874857902527,0.008925668895244598,-10.920492172241211
1.729492332485007e+18,-0.03647176921367645,0.03662502020597458,-10.98804759979248
1.7294923324940073e+18,-0.019354036077857018,-0.01322904322296381,-11.04076862335205
1.7294923325030075e+18,-0.03162148967385292,0.04309268668293953,-11.015909194946289
1.7294923325120077e+18,0.009468192234635353,-0.06530477851629257,-11.152263641357422
1.7294923325180078e+18,-0.02129611186683178,0.027905961498618126,-11.07447338104248
1.729492332530008e+18,0.0346977561712265,0.00037648947909474373,-11.149859428405762
1.7294923325390083e+18,-0.08451663702726364,0.02676936611533165,-11.176288604736328
1.7294923325510085e+18,-0.09850886464118958,-0.050352342426776886,-11.221212387084961
1.7294923325600087e+18,-0.01725524291396141,-0.03601058945059776,-11.240042686462402
1.7294923325660088e+18,-0.06059208884835243,0.029980428516864777,-11.277219772338867
1.729492332575009e+18,-0.006415850482881069,0.05653303489089012,-11.39005184173584
1.7294923325840092e+18,-0.03714330494403839,0.033748559653759,-11.273308753967285
1.7294923325960095e+18,-0.008053055964410305,0.027691759169101715,-11.307212829589844
1.7294923326050097e+18,-0.009558540768921375,0.05033307895064354,-11.319419860839844
1.7294923326140099e+18,0.01670755445957184,-0.0010613859631121159,-11.432193756103516
1.72949233262001e+18,-0.04394536465406418,-0.05030059069395065,-11.496335983276367
1.7294923326290102e+18,0.05582347512245178,-0.046865858137607574,-11.490679740905762
1.7294923326380104e+18,0.004249385092407465,-0.02199660986661911,-11.404885292053223
1.7294923326470106e+18,0.007300696335732937,-0.034403156489133835,-11.356550216674805
1.7294923326560108e+18,-0.006607786752283573,-0.010621055960655212,-11.41555404663086
1.729492332662011e+18,0.13505573570728302,0.005796121433377266,-11.483020782470703
1.729492332671011e+18,0.04564888775348663,0.050267644226551056,-11.44021987915039
1.7294923326770112e+18,0.06332539767026901,-0.0449308343231678,-11.535242080688477
1.7294923326830113e+18,-0.043234456330537796,-0.02286374196410179,-11.563405990600586
1.7294923326920115e+18,0.017950505018234253,0.01448063738644123,-11.619712829589844
1.7294923326980116e+18,-0.009657287038862705,0.004093828611075878,-11.511399269104004
1.7294923327070118e+18,0.01877153292298317,-0.01897522248327732,-11.563385009765625
1.729492332713012e+18,0.0648498386144638,0.010131346061825752,-11.609566688537598
1.7294923327220122e+18,-0.07874496281147003,-0.07924863696098328,-11.61153507232666
1.7294923327280123e+18,-0.08067367225885391,-0.0961121991276741,-11.628983497619629
1.7294923327340124e+18,-0.06571619212627411,0.02025262638926506,-11.685964584350586
1.7294923327400125e+18,0.023559672757983208,-0.051653340458869934,-11.670419692993164
1.7294923327460127e+18,-0.036130085587501526,-0.09323062002658844,-11.648811340332031
1.7294923327550129e+18,0.020942488685250282,0.043244995176792145,-11.622159957885742
1.729492332761013e+18,-0.1004200428724289,-0.033674802631139755,-11.747840881347656
1.729492332767013e+18,0.05442989245057106,-0.021848175674676895,-11.714284896850586
1.7294923327760133e+18,-0.02967561036348343,-0.020679103210568428,-11.747269630432129
1.7294923327850135e+18,-0.005029931198805571,0.025307850912213326,-11.651001930236816
1.7294923327910136e+18,0.08905719220638275,0.02070700190961361,-11.747693061828613
1.7294923328000138e+18,0.005864559207111597,0.08257311582565308,-11.761650085449219
1.729492332806014e+18,-0.04175318777561188,-0.010692079551517963,-11.83150577545166
1.7294923328150141e+18,0.06772799044847488,-0.022844625636935234,-11.8600492477417
1.7294923328210143e+18,0.04647397994995117,-0.008197122253477573,-11.710212707519531
1.7294923328270144e+18,-0.04198256880044937,0.013806301169097424,-11.671384811401367
1.7294923328360146e+18,-0.11373656988143921,0.03797772526741028,-11.842474937438965
1.7294923328420147e+18,0.016195744276046753,0.02234129048883915,-11.826796531677246
1.7294923328480148e+18,0.060029104351997375,0.0030886908061802387,-11.80760383605957
1.729492332857015e+18,0.017021771520376205,0.02227115072309971,-11.744379043579102
1.7294923328630152e+18,-0.10725446790456772,-0.012120210565626621,-11.799758911132812
1.7294923328690153e+18,-0.047201309353113174,0.030434412881731987,-11.87574577331543
1.7294923328750154e+18,0.06238623335957527,-0.060597144067287445,-11.803143501281738
1.7294923328840156e+18,-0.05081627517938614,0.0537320040166378,-11.835509300231934
1.7294923328930158e+18,0.030534125864505768,0.004166536033153534,-11.851785659790039
1.729492332902016e+18,-0.02762732282280922,0.01831602305173874,-11.77524471282959
1.7294923329110162e+18,-0.022724024951457977,-0.003570710541680455,-11.858469009399414
1.7294923329170163e+18,0.01076619140803814,-0.0159783735871315,-11.852058410644531
1.7294923329230164e+18,0.0004980777739547193,0.00797212217003107,-11.856181144714355
1.7294923329290166e+18,0.08510211110115051,-0.08940514177083969,-11.82991886138916
1.7294923329380168e+18,0.013315944001078606,0.052712034434080124,-11.923723220825195
1.729492332944017e+18,-0.009418433532118797,0.04691506177186966,-11.909095764160156
1.729492332950017e+18,-0.013023815117776394,0.0549335703253746,-11.970112800598145
1.7294923329560172e+18,0.002294121542945504,0.038087256252765656,-11.896773338317871
1.7294923329650173e+18,-0.04542192444205284,-0.00429381662979722,-11.912199020385742
1.7294923329710175e+18,-0.02187706157565117,0.03523743525147438,-11.924247741699219
1.7294923329770176e+18,-0.02162143960595131,-0.05272264778614044,-11.909125328063965
1.7294923329860178e+18,0.022638818249106407,-0.0001256836112588644,-11.859417915344238
1.729492332992018e+18,-0.06498193740844727,-0.023792264983057976,-11.955168724060059
1.729492333001018e+18,-0.03231420740485191,-0.044850848615169525,-12.019501686096191
1.7294923330070182e+18,-0.01412911619991064,0.013258829712867737,-11.979827880859375
1.7294923330160184e+18,0.03528214618563652,0.04379242658615112,-12.031559944152832
1.7294923330220186e+18,0.020652197301387787,-0.01956215314567089,-11.89954662322998
1.7294923330280187e+18,0.03331553190946579,0.022452471777796745,-11.99666690826416
1.7294923330340188e+18,0.05224553123116493,0.004618138074874878,-11.949772834777832
1.729492333040019e+18,-0.00999953132122755,-0.10465019196271896,-12.001212120056152
1.729492333043019e+18,-0.023463457822799683,-0.007640026975423098,-11.957910537719727
1.7294923330520192e+18,0.06248118355870247,-0.025893649086356163,-11.99898910522461
1.7294923330580193e+18,-0.030933380126953125,-0.04859161376953125,-12.004487991333008
1.7294923330640195e+18,-0.04322944954037666,-0.006213395390659571,-12.019552230834961
1.7294923330700196e+18,-0.0021423795260488987,-0.018645349889993668,-11.964997291564941
1.7294923330760197e+18,0.0009434996754862368,0.005881630815565586,-11.932656288146973
1.7294923330820198e+18,-0.01510077714920044,0.0023836251348257065,-12.075419425964355
1.72949233308802e+18,-0.0062604621052742004,-0.037136178463697433,-11.977615356445312
1.72949233309402e+18,0.043929412961006165,-0.05744015425443649,-12.050299644470215
1.7294923331000202e+18,0.02307850867509842,0.054453350603580475,-12.102116584777832
1.7294923331060204e+18,-0.04784175008535385,0.030269362032413483,-12.043330192565918
1.7294923331120205e+18,0.026737365871667862,-0.008127277716994286,-11.980566024780273
1.7294923331180206e+18,-0.0020567202009260654,0.0006395779782906175,-11.893974304199219
1.7294923331240207e+18,-0.08073890209197998,-0.07840574532747269,-12.05764102935791
1.7294923331300209e+18,-0.020759306848049164,0.03130090981721878,-12.046793937683105
1.729492333136021e+18,-0.06934695690870285,0.05791434645652771,-12.031190872192383
1.729492333139021e+18,-0.02649097889661789,0.01016922201961279,-11.978474617004395
1.7294923331450212e+18,-0.020624909549951553,-0.07916810363531113,-11.995369911193848
1.7294923331510213e+18,-0.018595494329929352,-0.014637511223554611,-12.093863487243652
1.7294923331570214e+18,-0.03024991601705551,0.009585632011294365,-12.06646728515625
1.7294923331630216e+18,0.04514281451702118,0.006843561306595802,-12.043813705444336
1.7294923331660216e+18,0.04410523921251297,-0.021290568634867668,-11.976503372192383
1.7294923331720218e+18,0.001775404904037714,-0.013246532529592514,-11.977574348449707
1.729492333178022e+18,0.03151364624500275,0.014587904326617718,-11.973998069763184
1.729492333184022e+18,-0.04591972753405571,0.007431676611304283,-11.948738098144531
1.7294923331900221e+18,-0.01741192676126957,0.033200379461050034,-12.020386695861816
1.7294923331990223e+18,0.05803869664669037,-0.05720217525959015,-12.020476341247559
1.7294923332050225e+18,0.04890128970146179,-0.00746240234002471,-12.037947654724121
1.7294923332110226e+18,0.0008703010389581323,-0.022354615852236748,-12.052412986755371
1.7294923332170227e+18,-0.12864838540554047,-0.024091651663184166,-11.980497360229492
1.7294923332230228e+18,0.06638132035732269,0.000842551002278924,-12.018936157226562
1.729492333229023e+18,0.03774557262659073,0.026432251557707787,-11.994513511657715
1.729492333232023e+18,-0.01476217433810234,0.024321112781763077,-11.947798728942871
1.7294923332380232e+18,0.001907610916532576,0.0025043869391083717,-12.042136192321777
1.7294923332440233e+18,-0.0268484428524971,-0.0003678054781630635,-11.998083114624023
1.7294923332500234e+18,0.0002646238717716187,0.04240880161523819,-12.032496452331543
1.7294923332560236e+18,-0.04620407894253731,0.0003556186566129327,-11.99202823638916
1.7294923332590236e+18,-0.006396988406777382,0.017913252115249634,-12.027920722961426
1.7294923332650237e+18,0.007120986469089985,0.023258447647094727,-12.052278518676758
1.7294923332710239e+18,0.010337235406041145,0.07509468495845795,-11.977005004882812
1.729492333277024e+18,-0.018262799829244614,-0.018115026876330376,-12.078953742980957
1.7294923332830241e+18,0.01960870996117592,0.032606951892375946,-11.949761390686035
1.7294923332920243e+18,-0.03255589306354523,-0.03481341153383255,-11.976840019226074
1.7294923332980244e+18,0.009984761476516724,0.0009605736704543233,-11.998291015625
1.7294923333010245e+18,-0.06522996723651886,-0.0030636785086244345,-12.0486421585083
1.7294923333070246e+18,-0.04385039210319519,0.008016852661967278,-12.045842170715332
1.7294923333130248e+18,0.023298349231481552,-0.019930046051740646,-11.96862506866455
1.729492333319025e+18,1.0922085493803024e-05,-0.05202050507068634,-11.950794219970703
1.729492333322025e+18,0.032876789569854736,0.040819182991981506,-12.031169891357422
1.729492333328025e+18,0.010918453335762024,0.08948266506195068,-12.02414321899414
1.7294923333370253e+18,-0.0689460039138794,-0.026813676580786705,-11.994391441345215
1.7294923333430254e+18,0.0024837420787662268,-0.018871255218982697,-12.026896476745605
1.7294923333490255e+18,0.14477252960205078,0.010876155458390713,-12.014062881469727
1.7294923333550257e+18,0.04538799077272415,0.04494987428188324,-12.006828308105469
1.7294923333610258e+18,-0.06868526339530945,-0.002641802653670311,-12.049386978149414
1.729492333367026e+18,-0.0036976332776248455,0.04539515823125839,-12.03264045715332
1.729492333373026e+18,-0.04279542341828346,-0.05980454012751579,-12.094608306884766
1.7294923333790262e+18,-0.022568516433238983,0.06622511893510818,-12.039793968200684
1.7294923333850263e+18,-0.012477935291826725,-0.04608035460114479,-11.958436012268066
1.7294923333940265e+18,-0.019217297434806824,-0.017082946375012398,-12.027579307556152
1.7294923334000266e+18,-0.012736957520246506,0.016588687896728516,-11.892165184020996
1.7294923334090268e+18,0.061708010733127594,0.03627925366163254,-12.02409839630127
1.729492333415027e+18,0.11240052431821823,0.048077959567308426,-11.98732852935791
1.729492333421027e+18,-0.020790964365005493,0.013123875483870506,-12.04016399383545
1.7294923334270272e+18,-0.06421463936567307,-0.057869840413331985,-11.9996337890625
1.7294923334330273e+18,0.05313710868358612,-0.011079235002398491,-12.024528503417969
1.7294923334390275e+18,0.05792505666613579,-0.04423286393284798,-12.033774375915527
1.7294923334450276e+18,-0.06674446165561676,0.06765720248222351,-11.96812915802002
1.7294923334510277e+18,0.018513619899749756,0.0003191475407220423,-12.015023231506348
1.7294923334570278e+18,-0.11640341579914093,-0.031838417053222656,-11.879512786865234
1.729492333463028e+18,-0.08748415112495422,-0.0009143615025095642,-11.822021484375
1.729492333469028e+18,0.03371970355510712,0.039761923253536224,-11.889379501342773
1.7294923334750282e+18,0.018493473529815674,0.028853323310613632,-11.819690704345703
1.7294923334810284e+18,0.014922408387064934,0.08250866830348969,-11.78685474395752
1.7294923334870285e+18,-0.06256633996963501,-0.02987702377140522,-11.817767143249512
1.7294923334930286e+18,0.03295975178480148,0.08824849128723145,-11.762248992919922
1.7294923334990287e+18,0.04053535684943199,-0.007984383031725883,-11.73819351196289
1.7294923335050289e+18,-0.018986202776432037,0.03722149878740311,-11.679206848144531
1.729492333511029e+18,-0.044867366552352905,0.014215265400707722,-11.685562133789062
1.729492333517029e+18,-0.06162458285689354,0.026796970516443253,-11.605310440063477
1.7294923335230292e+18,-0.03181760758161545,0.04132257401943207,-11.642431259155273
1.7294923335290294e+18,0.04985997453331947,-0.028761375695466995,-11.674469947814941
1.7294923335380296e+18,-0.0019736611284315586,0.03542235121130943,-11.516192436218262
1.7294923335440297e+18,0.002244851551949978,0.0775374248623848,-11.534494400024414
1.7294923335500298e+18,-0.06217985600233078,-0.051861412823200226,-11.470378875732422
1.72949233355603e+18,0.01684836484491825,-0.024385984987020493,-11.490090370178223
1.72949233356203e+18,-0.002938569523394108,-0.12238609790802002,-11.456154823303223
1.7294923335710303e+18,-0.02933131530880928,0.023379147052764893,-11.428610801696777
1.7294923335800305e+18,-0.06235023960471153,-0.009637681767344475,-11.371999740600586
1.7294923335890307e+18,-0.054980285465717316,0.019451027736067772,-11.343865394592285
1.7294923335950308e+18,0.038893382996320724,0.0006977992015890777,-11.226253509521484
1.729492333604031e+18,0.031711213290691376,-0.02372092381119728,-11.24082088470459
1.729492333610031e+18,0.0255243219435215,-0.0914754718542099,-11.271456718444824
1.7294923336160312e+18,0.054733697324991226,0.014186660759150982,-11.229302406311035
1.7294923336250314e+18,0.04918850585818291,-0.02049589715898037,-11.153192520141602
1.7294923336310316e+18,0.016909196972846985,-0.04880492016673088,-11.205179214477539
1.7294923336370317e+18,-0.00385649548843503,-0.01734311692416668,-11.184208869934082
1.7294923336430318e+18,0.034350618720054626,0.07324545085430145,-11.156137466430664
1.729492333649032e+18,0.010569592006504536,-0.05966370925307274,-11.05887508392334
1.729492333658032e+18,0.049814462661743164,-0.04818006977438927,-11.116785049438477
1.7294923336640323e+18,0.04340464249253273,0.03738384693861008,-11.1022367477417
1.7294923336700324e+18,0.005200088024139404,0.04810043051838875,-11.041559219360352
1.7294923336760325e+18,0.04100971668958664,-0.018629752099514008,-11.01684284210205
1.7294923336820326e+18,0.025406286120414734,-0.04606223851442337,-11.039217948913574
1.7294923336880328e+18,0.03602031245827675,-0.05049635097384453,-10.949308395385742
1.729492333694033e+18,0.030316650867462158,-0.015679266303777695,-10.996271133422852
1.729492333703033e+18,0.01514912024140358,-0.011342408135533333,-10.981097221374512
1.7294923337090332e+18,-0.028209645301103592,0.013850994408130646,-10.920938491821289
1.7294923337150333e+18,0.04792444780468941,0.06321006268262863,-10.915533065795898
1.7294923337210335e+18,0.0019528392003849149,0.0386735238134861,-10.962886810302734
1.7294923337270336e+18,-0.025584019720554352,0.038705457001924515,-10.932042121887207
1.7294923337330337e+18,-0.005423118360340595,0.04072161018848419,-10.910322189331055
1.7294923337390339e+18,-0.05514470487833023,-0.04031864181160927,-10.884236335754395
1.729492333748034e+18,0.09935083985328674,0.03432952240109444,-10.878058433532715
1.7294923337540342e+18,0.0007850918336771429,0.06969153881072998,-10.793514251708984
1.7294923337600343e+18,-0.059196166694164276,-0.009807701222598553,-10.84834098815918
1.7294923337660344e+18,-0.02070281095802784,0.018242355436086655,-10.813117027282715
1.7294923337720346e+18,-0.009214282035827637,0.029331058263778687,-10.867901802062988
1.7294923337780347e+18,-0.0025769390631467104,-0.003486163215711713,-10.782934188842773
1.7294923337840348e+18,0.005830465815961361,0.062274616211652756,-10.7662935256958
1.729492333793035e+18,-0.03984736651182175,-0.09375012665987015,-10.72800350189209
1.7294923337990351e+18,0.018882812932133675,0.019239414483308792,-10.824295043945312
1.7294923338050353e+18,0.05612383410334587,0.06404314935207367,-10.746861457824707
1.7294923338140355e+18,0.02434646338224411,0.036099404096603394,-10.685376167297363
1.7294923338230356e+18,0.04595428705215454,-0.05122358351945877,-10.660323143005371
1.7294923338290358e+18,-0.010792149230837822,-0.026479003950953484,-10.690340042114258
1.729492333835036e+18,0.0216660276055336,0.07380255311727524,-10.672840118408203
1.729492333844036e+18,-0.02313993126153946,-0.03244975209236145,-10.639327049255371
1.7294923338500362e+18,-0.04594799876213074,-0.0010179036762565374,-10.59660530090332
1.7294923338590364e+18,0.009133001789450645,0.03356042504310608,-10.671897888183594
1.7294923338650365e+18,0.005425202194601297,0.0310235396027565,-10.641708374023438
1.7294923338710367e+18,-0.11105238646268845,-0.023627664893865585,-10.562735557556152
1.7294923338800369e+18,-0.0028252999763935804,-0.011167355813086033,-10.585904121398926
1.729492333886037e+18,-0.0476454496383667,0.12033899128437042,-10.53865909576416
1.7294923338950372e+18,0.026201728731393814,0.004320135805755854,-10.461747169494629
1.7294923338980372e+18,-0.0001286058104597032,0.04865053668618202,-10.57170581817627
1.7294923339070374e+18,-0.01193825714290142,-0.025040458887815475,-10.475106239318848
1.7294923339130376e+18,-0.03368638455867767,0.03873641416430473,-10.484045028686523
1.7294923339190377e+18,-0.1265464723110199,0.06080438569188118,-10.51626205444336
1.7294923339250378e+18,0.040211185812950134,-0.022028028964996338,-10.445155143737793
1.729492333934038e+18,-0.017124615609645844,0.00843750685453415,-10.448287963867188
1.7294923339400381e+18,-0.0036018560640513897,-0.012969641014933586,-10.484993934631348
1.7294923339460383e+18,-0.02090483531355858,0.010424772277474403,-10.469755172729492
1.7294923339520384e+18,-0.048258379101753235,0.06103868409991264,-10.478106498718262
1.7294923339580385e+18,0.054071489721536636,-0.0381510891020298,-10.430681228637695
1.7294923339640387e+18,-0.02071620151400566,-0.0043188417330384254,-10.517070770263672
1.7294923339700388e+18,-0.02496511861681938,-0.019886000081896782,-10.44568920135498
1.729492333976039e+18,0.05099192634224892,-0.06479911506175995,-10.427472114562988
1.729492333985039e+18,0.0024434071965515614,0.02747124619781971,-10.374829292297363
1.7294923339910392e+18,-0.003041393356397748,-0.03913810849189758,-10.395295143127441
1.7294923339970394e+18,0.06968358904123306,0.008185000158846378,-10.483591079711914
1.7294923340060396e+18,-0.004570072051137686,-0.0003798016987275332,-10.418233871459961
1.7294923340150397e+18,0.06363439559936523,-0.07267478853464127,-10.3804931640625
1.7294923340180398e+18,-0.05846425145864487,0.05798995867371559,-10.301165580749512
1.72949233402404e+18,-0.04340161383152008,-0.011958039365708828,-10.385765075683594
1.7294923340330401e+18,0.029962249100208282,-0.07199200242757797,-10.290108680725098
1.7294923340390403e+18,0.028212683275341988,0.03519762307405472,-10.361610412597656
1.7294923340420403e+18,-0.0025458543095737696,-0.03220359608530998,-10.290558815002441
1.7294923340510405e+18,-0.01528281718492508,0.09447004646062851,-10.276053428649902
1.7294923340570406e+18,0.0015800066757947206,-0.03259342163801193,-10.214348793029785
1.7294923340630408e+18,-0.035775817930698395,0.03991498425602913,-10.306905746459961
1.729492334069041e+18,-0.0314922034740448,-0.06808594614267349,-10.266339302062988
1.729492334075041e+18,0.03439578786492348,0.01499438937753439,-10.25474739074707
1.7294923340840412e+18,0.0024614138528704643,-0.025172624737024307,-10.289214134216309
1.7294923340900413e+18,0.08343014121055603,0.04517380893230438,-10.319185256958008
1.7294923340960415e+18,0.012239105999469757,0.018437882885336876,-10.318581581115723
1.7294923341020416e+18,-0.057888783514499664,-0.07238448411226273,-10.294784545898438
1.7294923341080417e+18,0.031356003135442734,0.041240353137254715,-10.198110580444336
1.7294923341140419e+18,0.019360031932592392,-0.05793111026287079,-10.296282768249512
1.729492334120042e+18,0.03214900940656662,-0.016109351068735123,-10.209186553955078
1.729492334126042e+18,0.035597432404756546,-0.028132222592830658,-10.264739990234375
1.7294923341320422e+18,-0.013091404922306538,-0.09112836420536041,-10.210542678833008
1.7294923341380424e+18,-0.020800355821847916,0.08076349645853043,-10.202637672424316
1.7294923341470426e+18,-0.06063114106655121,0.054208360612392426,-10.25697135925293
1.7294923341500426e+18,-0.03650710731744766,0.01655021496117115,-10.205367088317871
1.7294923341560428e+18,-0.03885258734226227,-0.012594634667038918,-10.268121719360352
1.729492334165043e+18,0.008225444704294205,-0.0517377033829689,-10.156379699707031
1.729492334171043e+18,-0.00742112472653389,-0.012991776689887047,-10.24574089050293
1.7294923341770432e+18,0.03711787983775139,0.006104335188865662,-10.155196189880371
1.7294923341830433e+18,0.04445318877696991,-0.00020066311117261648,-10.205058097839355
1.7294923341890435e+18,0.029916726052761078,0.05405636504292488,-10.085184097290039
1.7294923341950436e+18,0.012898821383714676,0.008211716078221798,-10.16822338104248
1.7294923342010437e+18,-0.007631449960172176,-0.03147527948021889,-10.12914752960205
1.7294923342070438e+18,0.01696489378809929,-0.01213063858449459,-10.159342765808105
1.729492334213044e+18,0.01998770795762539,0.02696235477924347,-10.125423431396484
1.729492334219044e+18,0.004716584924608469,0.07891499996185303,-10.127373695373535
1.7294923342250442e+18,0.009619718417525291,-0.006450728978961706,-10.066255569458008
1.7294923342310444e+18,-0.029949693009257317,0.013228217139840126,-10.093672752380371
1.7294923342370445e+18,0.05006442219018936,-0.029541898518800735,-10.082320213317871
1.7294923342400445e+18,-0.003255926538258791,0.021335912868380547,-10.060288429260254
1.7294923342490447e+18,-0.051835447549819946,0.010411843657493591,-10.14365005493164
1.7294923342550449e+18,-0.02863944321870804,0.0242844820022583,-10.066070556640625
1.729492334261045e+18,-0.07387121766805649,0.08410285413265228,-10.162576675415039
1.729492334267045e+18,-0.002932510804384947,0.08716677129268646,-10.083587646484375
1.7294923342730452e+18,0.004540757741779089,-0.0113444235175848,-10.040261268615723
1.7294923342790454e+18,-0.013716467656195164,0.03125112131237984,-10.207419395446777
1.7294923342850455e+18,-0.027645720168948174,-0.019188815727829933,-10.155435562133789
1.7294923342910456e+18,0.011183185502886772,0.05272787809371948,-10.145499229431152
1.7294923342970458e+18,0.04004047065973282,-0.01959945075213909,-10.075773239135742
1.729492334303046e+18,-0.04736362025141716,0.005666960030794144,-10.077731132507324
1.729492334309046e+18,-0.06389311701059341,0.043925072997808456,-10.006800651550293
1.7294923343150461e+18,-0.03939421474933624,0.022281363606452942,-10.047991752624512
1.7294923343210463e+18,0.0016594541957601905,-0.019083157181739807,-10.104470252990723
1.7294923343270464e+18,0.012828374281525612,0.007357654627412558,-10.02740478515625
1.7294923343360466e+18,0.026993710547685623,0.019246067851781845,-10.030817985534668
1.7294923343420467e+18,0.01775532402098179,-0.05404338613152504,-10.009088516235352
1.7294923343450468e+18,-0.05336237698793411,-0.00851895660161972,-10.023824691772461
1.729492334351047e+18,-0.07899382710456848,-0.04416021704673767,-10.030600547790527
1.729492334357047e+18,-0.010034678503870964,0.0318615585565567,-10.044508934020996
1.7294923343630472e+18,-0.010665996931493282,-0.0462765172123909,-10.028128623962402
1.7294923343690473e+18,0.036921706050634384,0.051430460065603256,-10.044095039367676
1.7294923343750474e+18,-0.05563753843307495,-0.004239242058247328,-10.05070972442627
1.7294923343810476e+18,0.07089874148368835,0.014430254697799683,-9.981416702270508
1.7294923343870477e+18,0.0019135854672640562,0.08155900239944458,-10.077016830444336
1.7294923343930478e+18,0.006520719733089209,0.0024718488566577435,-9.942214012145996
1.729492334399048e+18,0.011197036132216454,0.06498917937278748,-10.055013656616211
1.729492334405048e+18,0.057208351790905,0.007871599867939949,-10.007381439208984
1.7294923344110482e+18,0.028026431798934937,0.012277656234800816,-9.987316131591797
1.7294923344200484e+18,-0.02691437117755413,-0.10219878703355789,-9.951519966125488
1.7294923344260485e+18,0.05776812881231308,-0.017010042443871498,-9.91688346862793
1.7294923344290486e+18,-0.1058892235159874,-0.009223932400345802,-10.014472961425781
1.7294923344350487e+18,0.0072275190614163876,0.04075662046670914,-10.000900268554688
1.7294923344410488e+18,0.005682060029357672,-0.011353766545653343,-10.02051067352295
1.729492334447049e+18,-0.05236641690135002,0.024060910567641258,-9.914950370788574
1.7294923344560492e+18,0.020548978820443153,0.06504373252391815,-10.018403053283691
1.7294923344590492e+18,-0.11900739371776581,-0.011597858741879463,-9.951456069946289
1.7294923344650493e+18,0.054014597088098526,0.038681525737047195,-9.894726753234863
1.7294923344710495e+18,-0.0017155884997919202,-0.05542515590786934,-9.987639427185059
1.7294923344770496e+18,-0.02587777189910412,-0.03571484610438347,-9.945121765136719
1.7294923344800497e+18,0.0012124339118599892,-0.03896845877170563,-10.025129318237305
1.7294923344860498e+18,-0.05624503642320633,-0.016427157446742058,-9.921368598937988
1.72949233449505e+18,0.06676182150840759,-0.020950952544808388,-10.056666374206543
1.72949233450105e+18,-0.006799507886171341,-0.016853230074048042,-9.995221138000488
1.7294923345070502e+18,0.025532007217407227,-0.018426459282636642,-9.921859741210938
1.7294923345130504e+18,-0.0056999181397259235,-0.07168714702129364,-9.923422813415527
1.7294923345190505e+18,0.05819840356707573,-0.0030352959875017405,-9.878593444824219
1.7294923345220506e+18,-0.0526617206633091,0.009701220318675041,-9.898252487182617
1.7294923345280507e+18,-0.0008203777833841741,0.05550524592399597,-9.934295654296875
1.7294923345340508e+18,0.014160213991999626,-0.01343571487814188,-9.940537452697754
1.729492334540051e+18,0.06113233044743538,0.06691621989011765,-9.861878395080566
1.729492334546051e+18,0.052524421364068985,0.04496752470731735,-9.963144302368164
1.7294923345520512e+18,0.06560303270816803,-0.057300157845020294,-9.958121299743652
1.7294923345580513e+18,-0.03154956176877022,-0.004532375372946262,-9.89340591430664
1.7294923345640515e+18,-0.024992767721414566,-0.02243664488196373,-9.95467758178711
1.7294923345700516e+18,0.05435868725180626,0.06726457923650742,-9.910279273986816
1.7294923345760517e+18,0.016766412183642387,0.008578160777688026,-9.950289726257324
1.7294923345820518e+18,-0.036485377699136734,0.025953369215130806,-9.966785430908203
1.729492334591052e+18,-0.007451982703059912,0.07371003925800323,-9.898691177368164
1.7294923345970522e+18,-0.02034495398402214,0.0910191684961319,-9.91079044342041
1.7294923346030523e+18,-0.006910849362611771,-0.03023487702012062,-9.883800506591797
1.7294923346090524e+18,0.01689288392663002,0.029027195647358894,-9.981866836547852
1.7294923346150525e+18,-0.019218813627958298,0.029823360964655876,-9.887804985046387
1.7294923346210527e+18,0.0036566483322530985,0.045548975467681885,-9.933341979980469
1.7294923346270528e+18,0.07290978729724884,0.044135238975286484,-9.896819114685059
1.729492334633053e+18,-0.0019182829419150949,0.03694165498018265,-9.857181549072266
1.729492334639053e+18,-0.0026644954923540354,-0.000847830786369741,-9.926109313964844
1.7294923346450532e+18,0.006814503576606512,0.026971541345119476,-9.92127799987793
1.7294923346510533e+18,-0.05552831292152405,0.007855317555367947,-9.943658828735352
1.7294923346570534e+18,-0.04292745143175125,0.057077668607234955,-9.885185241699219
1.7294923346630536e+18,-0.022074170410633087,0.009307916276156902,-9.899246215820312
1.7294923346690537e+18,-0.02548525668680668,-0.002351938048377633,-9.839850425720215
1.7294923346750538e+18,0.00017595005920156837,-0.012700644321739674,-9.847683906555176
1.729492334684054e+18,-0.012151435017585754,-0.04977821558713913,-9.864873886108398
1.7294923346900541e+18,-0.016661394387483597,-0.016524937003850937,-9.941720008850098
1.7294923346930542e+18,-0.06591831147670746,-0.009045315906405449,-9.915648460388184
1.7294923346990543e+18,0.01590687781572342,0.03488986939191818,-9.849960327148438
1.7294923347050545e+18,0.03733938932418823,0.03945469483733177,-9.918120384216309
1.7294923347110546e+18,-0.01174270361661911,-0.030136514455080032,-9.883713722229004
1.7294923347170547e+18,-0.0436980314552784,0.01866348646581173,-9.887085914611816
1.729492334726055e+18,0.011563561856746674,0.05634670332074165,-9.832419395446777
1.729492334732055e+18,-0.011614380404353142,-0.05769287422299385,-9.956010818481445
1.7294923347380552e+18,0.027907203882932663,-0.05356534197926521,-9.87098217010498
1.7294923347440553e+18,0.010495022870600224,0.0544411763548851,-9.843315124511719
1.7294923347500554e+18,-0.015945497900247574,-0.055034324526786804,-9.863699913024902
1.7294923347560556e+18,-0.03700917586684227,-0.04008948802947998,-9.836231231689453
1.7294923347620557e+18,0.034187767654657364,0.052183397114276886,-9.879133224487305
1.7294923347680558e+18,0.040818389505147934,-0.10273388028144836,-9.761147499084473
1.729492334774056e+18,-0.017309514805674553,-0.05213279649615288,-9.841753005981445
1.7294923347830561e+18,-0.010416005738079548,0.08655059337615967,-9.842564582824707
1.7294923347890563e+18,0.008390042930841446,0.06623056530952454,-9.80025863647461
1.7294923347950564e+18,-0.09681514650583267,-0.0031819224823266268,-9.813386917114258
1.7294923348040566e+18,0.030204517766833305,0.023782461881637573,-9.792441368103027
1.7294923348070566e+18,-0.00043541297782212496,0.02375701256096363,-9.867148399353027
1.7294923348160568e+18,-0.048808593302965164,-0.0799257829785347,-9.843487739562988
1.729492334822057e+18,-0.00629907613620162,0.04783409461379051,-9.860335350036621
1.729492334828057e+18,-0.020189402624964714,-0.03724610432982445,-9.934399604797363
1.7294923348340572e+18,0.018180854618549347,0.0017171984072774649,-9.805167198181152
1.7294923348430574e+18,0.047993578016757965,-0.017932357266545296,-9.901811599731445
1.7294923348490575e+18,0.02433563396334648,0.012064480222761631,-9.862882614135742
1.7294923348550577e+18,0.022862637415528297,0.02445860207080841,-9.814888000488281
1.7294923348610578e+18,-0.012083658017218113,-0.048013173043727875,-9.794940948486328
1.729492334867058e+18,0.00623023696243763,-0.04303033649921417,-9.862957954406738
1.729492334873058e+18,-0.045788686722517014,0.0167728029191494,-9.815479278564453
1.7294923348790582e+18,-0.0026099977549165487,0.018003270030021667,-9.7863187789917
1.7294923348850583e+18,-0.057316169142723083,-0.046445783227682114,-9.89651870727539
1.7294923348910584e+18,0.08380167931318283,0.06387314200401306,-9.878950119018555
1.7294923348970586e+18,-0.09122031182050705,-0.030374225229024887,-9.892762184143066
1.7294923349060588e+18,-0.007800247985869646,0.011756102554500103,-9.794766426086426
1.7294923349090588e+18,0.019144728779792786,0.09051069617271423,-9.793219566345215
1.729492334915059e+18,-0.016981979832053185,-0.010532674379646778,-9.909369468688965
1.7294923349240591e+18,-0.018647534772753716,0.0014021534007042646,-9.82466983795166
1.7294923349300593e+18,-0.05441608652472496,-0.024157995358109474,-9.813444137573242
1.7294923349360594e+18,-0.011488525196909904,-0.025204915553331375,-9.846036911010742
1.7294923349420595e+18,-0.009767560288310051,-0.04054960235953331,-9.776226997375488
1.7294923349480596e+18,0.024297019466757774,-0.055418822914361954,-9.814432144165039
1.7294923349510597e+18,0.03140503168106079,-0.012994605116546154,-9.821901321411133
1.7294923349570598e+18,-0.009308397769927979,-0.027003347873687744,-9.835147857666016
1.72949233496306e+18,-0.060936979949474335,0.06934650987386703,-9.788132667541504
1.72949233496906e+18,-0.006216346751898527,-0.08504021912813187,-9.830370903015137
1.7294923349750602e+18,0.010891170240938663,-0.05578530207276344,-9.867173194885254
1.7294923349810604e+18,0.009835618548095226,0.013692528009414673,-9.841774940490723
1.7294923349870605e+18,0.01431342214345932,-0.013549776747822762,-9.743562698364258
1.7294923349930606e+18,0.08607172966003418,0.06110624969005585,-9.846923828125
1.7294923350020608e+18,0.026603126898407936,0.07232654839754105,-9.778302192687988
1.729492335008061e+18,-0.08793475478887558,0.001972968690097332,-9.872891426086426
1.729492335014061e+18,0.04251698777079582,-0.04439815506339073,-9.790731430053711
1.7294923350200612e+18,0.0725351870059967,0.03349098563194275,-9.889430046081543
1.7294923350260613e+18,0.027865532785654068,0.08923831582069397,-9.85666561126709
1.7294923350320614e+18,-0.005202782340347767,-0.010437915101647377,-9.788121223449707
1.7294923350350615e+18,-0.031058957800269127,-0.03427792713046074,-9.859929084777832
1.7294923350410616e+18,0.06187153980135918,-0.012410297989845276,-9.822685241699219
1.7294923350470618e+18,-0.015201421454548836,0.02622540481388569,-9.804768562316895
1.729492335053062e+18,0.07334548234939575,0.027796778827905655,-9.81081485748291
1.729492335059062e+18,-0.0521077886223793,0.008111651986837387,-9.779726028442383
1.7294923350650621e+18,-0.06285558640956879,-0.07051941007375717,-9.883809089660645
1.7294923350710623e+18,0.06632138788700104,0.016369976103305817,-9.814125061035156
1.7294923350770624e+18,0.06256131827831268,0.04010195657610893,-9.871492385864258
1.7294923350830625e+18,0.0191348809748888,-0.0034142432268708944,-9.81362247467041
1.7294923350890627e+18,-0.012228203937411308,0.028376277536153793,-9.851943969726562
1.7294923350950628e+18,-0.00916668027639389,-0.04227336496114731,-9.729055404663086
1.729492335101063e+18,0.08522417396306992,0.05798076465725899,-9.765303611755371
1.729492335107063e+18,0.0332304872572422,-0.01581031270325184,-9.75441837310791
1.7294923351130632e+18,-0.01052201259881258,-0.01584225334227085,-9.837631225585938
1.7294923351190633e+18,0.015315706841647625,-0.002819749526679516,-9.751480102539062
1.7294923351250634e+18,-0.007983756251633167,0.02840389870107174,-9.769495964050293
1.7294923351310636e+18,-0.1010170429944992,-0.04085641726851463,-9.774176597595215
1.7294923351370637e+18,-0.006897239945828915,0.044255126267671585,-9.81899642944336
1.7294923351400637e+18,-0.05796489864587784,-0.045758817344903946,-9.778887748718262
1.729492335146064e+18,-0.01556657999753952,-0.0011518647661432624,-9.808439254760742
1.729492335152064e+18,0.05458989366889,-0.06578345596790314,-9.742080688476562
1.729492335158064e+18,-0.022158939391374588,-0.010868409648537636,-9.802608489990234
1.7294923351640643e+18,0.027586303651332855,0.05766784027218819,-9.775228500366211
1.7294923351670643e+18,0.0051930989138782024,0.03980844095349312,-9.806371688842773
1.7294923351730644e+18,0.07339975982904434,0.05571087449789047,-9.736757278442383
1.7294923351790646e+18,-0.028087059035897255,0.052250705659389496,-9.762914657592773
1.7294923351850647e+18,0.04434601217508316,0.05249004065990448,-9.824865341186523
1.7294923351910648e+18,-0.008170477114617825,-0.0030485792085528374,-9.783682823181152
1.729492335197065e+18,0.024122076109051704,-0.036899134516716,-9.82146167755127
1.729492335203065e+18,0.01548429112881422,0.013683898374438286,-9.824224472045898
1.7294923352120653e+18,0.013925757259130478,-0.014748782850801945,-9.800209045410156
1.7294923352180654e+18,0.11384224146604538,-0.05358770862221718,-9.784470558166504
1.7294923352240655e+18,0.04998212307691574,0.03979387879371643,-9.75265884399414
1.7294923352330657e+18,-0.019124062731862068,-0.05183705687522888,-9.70402717590332
1.7294923352390659e+18,-0.034300949424505234,-0.052749305963516235,-9.787671089172363
1.729492335245066e+18,0.016149865463376045,0.07074416428804398,-9.832959175109863
1.729492335251066e+18,-0.011593080125749111,0.005302843637764454,-9.762104034423828
1.7294923352570662e+18,-0.06836871802806854,0.0277735386043787,-9.831056594848633
1.7294923352630664e+18,-0.09529571980237961,0.06797581911087036,-9.878824234008789
1.7294923352690665e+18,0.04724055528640747,0.07479113340377808,-9.757598876953125
1.7294923352780667e+18,0.030578771606087685,0.00846770592033863,-9.752328872680664
1.729492335287067e+18,-0.030235394835472107,-0.035159941762685776,-9.811223983764648
1.729492335296067e+18,-0.03600424900650978,0.05379147455096245,-9.773184776306152
1.7294923353050673e+18,0.04995149001479149,-0.017819548025727272,-9.788450241088867
1.7294923353110674e+18,0.01178933959454298,-0.058194149285554886,-9.837821960449219
1.7294923353170675e+18,-0.07809773087501526,0.06351620703935623,-9.82791805267334
1.7294923353290678e+18,0.055408962070941925,-0.0723092332482338,-9.849688529968262
1.729492335338068e+18,0.020230313763022423,0.04931355640292168,-9.822260856628418
1.729492335344068e+18,0.028987068682909012,0.06440900266170502,-9.753738403320312
1.7294923353500682e+18,0.009232175536453724,-0.022556006908416748,-9.79845905303955
1.7294923353590684e+18,-0.0365646593272686,-0.008065621368587017,-9.829834938049316
1.7294923353650685e+18,-0.04948881268501282,0.033101845532655716,-9.783721923828125
1.7294923353740687e+18,0.060221247375011444,-0.023305892944335938,-9.839364051818848
1.7294923353800689e+18,0.026305360719561577,0.0685538724064827,-9.714011192321777
1.729492335386069e+18,-0.0026636163238435984,0.002250824123620987,-9.799385070800781
1.729492335392069e+18,-0.008757326751947403,-0.06469079107046127,-9.835018157958984
1.7294923354010693e+18,0.0175338052213192,-0.0693637877702713,-9.781890869140625
1.7294923354100695e+18,0.0066506024450063705,0.1571582555770874,-9.77439022064209
1.7294923354160696e+18,0.09348652511835098,-0.032453443855047226,-9.725050926208496
1.7294923354220698e+18,-0.03505953028798103,0.0031798197887837887,-9.753687858581543
1.72949233542807e+18,-0.055230893194675446,-0.03506223484873772,-9.752167701721191
1.72949233543407e+18,-0.04318050295114517,0.03094194270670414,-9.791877746582031
1.7294923354400701e+18,0.00966477021574974,-0.056073255836963654,-9.827908515930176
1.7294923354460703e+18,0.020238058641552925,-0.044002097100019455,-9.785493850708008
1.7294923354550705e+18,0.004125430714339018,-0.03873661160469055,-9.787334442138672
1.7294923354640707e+18,0.011493584141135216,0.057248879224061966,-9.864611625671387
1.7294923354730708e+18,0.07060820609331131,0.02276024781167507,-9.813197135925293
1.729492335479071e+18,0.03615478426218033,-0.017343107610940933,-9.804378509521484
1.7294923354880712e+18,-0.029068924486637115,0.05303279682993889,-9.7710599899292
1.7294923354940713e+18,0.028811167925596237,0.002236731117591262,-9.798643112182617
1.7294923355000714e+18,0.02218424715101719,-0.08085121214389801,-9.816473960876465
1.7294923355060716e+18,0.019116494804620743,0.05326494574546814,-9.770808219909668
1.7294923355120717e+18,-0.022620849311351776,-0.029304135590791702,-9.769848823547363
1.7294923355180718e+18,-0.006959877442568541,-0.0003686927957460284,-9.776618957519531
1.729492335527072e+18,-0.007673298940062523,-0.029815837740898132,-9.792074203491211
1.7294923355330721e+18,0.06909146904945374,0.018250875174999237,-9.850264549255371
1.7294923355390723e+18,-0.01748075895011425,0.015306121669709682,-9.77618408203125
1.7294923355480724e+18,-0.035118140280246735,-0.10241212695837021,-9.7647123336792
1.7294923355540726e+18,-0.10345824062824249,0.04104490205645561,-9.717196464538574
1.7294923355630728e+18,0.07443215698003769,-0.04196934774518013,-9.782429695129395
1.729492335572073e+18,-0.03677946329116821,-0.03511742874979973,-9.82502269744873
1.7294923355810732e+18,0.019087985157966614,0.0017060330137610435,-9.895713806152344
1.7294923355900733e+18,-0.027547650039196014,0.029040135443210602,-9.750105857849121
1.7294923355990735e+18,-0.0029737474396824837,0.00264621339738369,-9.763568878173828
1.7294923356050737e+18,-0.044784367084503174,-0.020750058814883232,-9.782008171081543
1.7294923356140739e+18,-0.05366842821240425,-0.04480726271867752,-9.782488822937012
1.729492335620074e+18,0.05175285041332245,-0.03745739161968231,-9.832901954650879
1.7294923356290742e+18,0.04455487057566643,-0.04794329032301903,-9.832191467285156
1.7294923356350743e+18,0.017840523272752762,-0.007760900538414717,-9.748146057128906
1.7294923356440745e+18,-0.018186919391155243,-0.007622729055583477,-9.798551559448242
1.7294923356530747e+18,0.02363114058971405,0.015954896807670593,-9.763984680175781
1.7294923356590748e+18,-0.009618307463824749,-0.03415524214506149,-9.75809097290039
1.729492335665075e+18,0.059310827404260635,-0.025739366188645363,-9.8484525680542
1.729492335671075e+18,0.0076828100718557835,0.016435060650110245,-9.76248836517334
1.7294923356770752e+18,-0.02607239969074726,0.028936319053173065,-9.828888893127441
1.7294923356830753e+18,0.04529028758406639,-0.022897440940141678,-9.755221366882324
1.7294923356890755e+18,0.03684147819876671,-0.03587833419442177,-9.733255386352539
1.7294923356950756e+18,0.030185503885149956,-0.008276743814349174,-9.828705787658691
1.7294923357010757e+18,-0.056571684777736664,0.02106330730021,-9.727699279785156
1.7294923357040758e+18,-0.02010229602456093,-0.02512320876121521,-9.848559379577637
1.729492335710076e+18,0.017915228381752968,0.018888289108872414,-9.799271583557129
1.729492335716076e+18,-0.00999515037983656,-0.018868278712034225,-9.819062232971191
1.7294923357250762e+18,-0.05279020965099335,-0.06569738686084747,-9.78724479675293
1.7294923357310764e+18,-0.015055768191814423,-0.07212089747190475,-9.802083015441895
1.7294923357340764e+18,-0.08321807533502579,0.0456366166472435,-9.764945983886719
1.7294923357400765e+18,0.03374243527650833,-0.03343026712536812,-9.738899230957031
1.7294923357460767e+18,-0.027794700115919113,-0.0010818552691489458,-9.795589447021484
1.7294923357520768e+18,-0.04536573961377144,0.0025530094280838966,-9.81120777130127
1.7294923357550769e+18,0.025438610464334488,0.05197015404701233,-9.778465270996094
1.729492335761077e+18,0.02566421404480934,-0.05370181053876877,-9.778963088989258
1.729492335767077e+18,-0.02918103337287903,0.08068633079528809,-9.825343132019043
1.7294923357730772e+18,-0.02403399907052517,-0.07513663172721863,-9.745375633239746
1.7294923357790774e+18,-0.07020861655473709,0.030101632699370384,-9.769124984741211
1.7294923357850775e+18,0.022906597703695297,-0.03179433196783066,-9.786931991577148
1.7294923357910776e+18,-0.031206240877509117,-0.0339539460837841,-9.800103187561035
1.7294923358000778e+18,0.0632917657494545,0.06297049671411514,-9.799753189086914
1.729492335806078e+18,0.014245247468352318,0.0056224605068564415,-9.815376281738281
1.7294923358150781e+18,-0.040966667234897614,-0.022254936397075653,-9.792611122131348
1.7294923358210783e+18,-0.06187763065099716,0.012479644268751144,-9.832030296325684
1.7294923358300785e+18,-0.02902703359723091,0.05806850641965866,-9.736567497253418
1.7294923358360786e+18,-0.012063389644026756,0.0006535359425470233,-9.772531509399414
1.7294923358420787e+18,0.04069437459111214,0.0069119129329919815,-9.815658569335938
1.7294923358480788e+18,-0.014223448932170868,0.02671777456998825,-9.897777557373047
1.729492335854079e+18,-0.000499158282764256,0.016313565894961357,-9.827396392822266
1.7294923358630792e+18,0.016699306666851044,0.008806833066046238,-9.721116065979004
1.7294923358690793e+18,0.025741226971149445,0.010881425812840462,-9.78504467010498
1.7294923358750794e+18,-0.031192870810627937,0.01460691262036562,-9.858979225158691
1.7294923358810796e+18,-0.046359602361917496,-0.01349634863436222,-9.737855911254883
1.7294923358900797e+18,0.04936036095023155,0.09651774168014526,-9.724414825439453
1.7294923358930798e+18,0.015985479578375816,-0.0230385921895504,-9.829907417297363
1.72949233590208e+18,-0.06510155647993088,0.027157992124557495,-9.802033424377441
1.72949233590808e+18,-0.10772887617349625,-0.03386561572551727,-9.718695640563965
1.7294923359140803e+18,-3.6920246202498674e-05,-0.1168767437338829,-9.775838851928711
1.7294923359230804e+18,0.07318338006734848,0.06911497563123703,-9.907305717468262
1.7294923359290806e+18,0.009982438758015633,0.058976467698812485,-9.776113510131836
1.7294923359350807e+18,0.009596220217645168,-0.0551205538213253,-9.73546314239502
1.7294923359410808e+18,0.03214617446064949,0.06903792917728424,-9.843817710876465
1.729492335947081e+18,0.03740088641643524,0.019376162439584732,-9.773238182067871
1.729492335953081e+18,-0.0009423292358405888,-0.04962418973445892,-9.808677673339844
1.7294923359620813e+18,0.019441571086645126,0.028707511723041534,-9.79874038696289
1.7294923359680814e+18,0.011743288487195969,-0.061725031584501266,-9.8010892868042
1.7294923359740815e+18,0.013988305814564228,0.0791204646229744,-9.716963768005371
1.7294923359830817e+18,0.014945491217076778,0.02721322327852249,-9.80530071258545
1.7294923359890819e+18,-0.011118847876787186,-0.007695481181144714,-9.806390762329102
1.729492335998082e+18,0.04580029100179672,-0.013040128163993359,-9.857562065124512
1.7294923360040822e+18,0.06868813931941986,0.03701077774167061,-9.833666801452637
1.7294923360130824e+18,-0.019104333594441414,0.016269205138087273,-9.82347583770752
1.7294923360190825e+18,-0.05120227858424187,-0.024522215127944946,-9.84570598602295
1.7294923360250826e+18,0.02761165425181389,0.003711392404511571,-9.797260284423828
1.7294923360310828e+18,-0.06332443654537201,-0.08698025345802307,-9.736348152160645
1.729492336037083e+18,-0.03286832943558693,0.009671168401837349,-9.879347801208496
1.729492336046083e+18,-0.048891425132751465,-0.002219047397375107,-9.857556343078613
1.7294923360520832e+18,0.009903944097459316,0.010196318849921227,-9.809077262878418
1.7294923360580833e+18,-0.021443765610456467,0.02949911542236805,-9.813769340515137
1.7294923360640835e+18,-0.01662314683198929,0.003053454216569662,-9.75277328491211
1.7294923360700836e+18,-0.005273447837680578,0.040224555879831314,-9.820725440979004
1.7294923360730836e+18,-0.00045362714445218444,0.016140880063176155,-9.830206871032715
1.7294923360820838e+18,0.08206848055124283,-0.017444849014282227,-9.820314407348633
1.729492336088084e+18,0.0006194529123604298,0.03742121160030365,-9.769020080566406
1.729492336094084e+18,0.03879714012145996,-0.01009618304669857,-9.835135459899902
1.7294923361030843e+18,0.022040236741304398,0.014594195410609245,-9.727265357971191
1.7294923361060844e+18,0.06261198222637177,-0.026362482458353043,-9.898176193237305
1.7294923361120845e+18,0.03625338152050972,0.007839977741241455,-9.820391654968262
1.7294923361210847e+18,-0.08540862798690796,-0.005299627780914307,-9.82020378112793
1.7294923361270848e+18,0.0378933884203434,0.008883468806743622,-9.792731285095215
1.729492336133085e+18,0.0015827575698494911,0.03260934725403786,-9.85075855255127
1.729492336139085e+18,0.05971790850162506,-0.00812886655330658,-9.808706283569336
1.7294923361450852e+18,0.037863388657569885,0.013875935226678848,-9.776529312133789
1.7294923361510853e+18,-0.010851329192519188,0.03150779753923416,-9.781472206115723
1.7294923361540854e+18,-0.06540050357580185,0.04273686930537224,-9.796263694763184
1.7294923361630856e+18,0.01681414432823658,-0.053268663585186005,-9.830625534057617
1.7294923361690857e+18,-0.042995572090148926,0.04742736741900444,-9.840892791748047
1.7294923361750858e+18,0.04704240709543228,0.008014748804271221,-9.803979873657227
1.729492336181086e+18,-0.020782561972737312,-0.09655052423477173,-9.851598739624023
1.729492336187086e+18,0.05281457677483559,-0.013779436238110065,-9.775585174560547
1.7294923361930862e+18,-0.03032761439681053,0.05930206924676895,-9.804492950439453
1.7294923361990863e+18,-0.03045579232275486,0.011291351169347763,-9.736210823059082
1.7294923362050865e+18,0.046271514147520065,-0.007100486662238836,-9.878265380859375
1.7294923362110866e+18,0.06342247873544693,-0.0388430692255497,-9.765626907348633
1.7294923362170867e+18,-0.021943818777799606,-0.05868088826537132,-9.88648509979248
1.7294923362230868e+18,0.07499819993972778,0.004523975308984518,-9.809638023376465
1.729492336229087e+18,-0.04562508314847946,-0.0045336103066802025,-9.80855655670166
1.729492336235087e+18,-0.0480337031185627,-0.03514213114976883,-9.735050201416016
1.7294923362410872e+18,0.020254164934158325,-0.06236562505364418,-9.815268516540527
1.7294923362500874e+18,-0.015378052368760109,-0.02301219291985035,-9.794729232788086
1.7294923362530875e+18,0.026250161230564117,0.021465720608830452,-9.793404579162598
1.7294923362590876e+18,0.015759725123643875,-0.026835404336452484,-9.726557731628418
1.7294923362650877e+18,-0.0012723031686618924,0.04747866094112396,-9.81472396850586
1.7294923362710879e+18,-0.07555192708969116,0.02343731001019478,-9.766008377075195
1.729492336280088e+18,-0.02140091359615326,-0.021257266402244568,-9.766258239746094
1.7294923362860882e+18,-0.031176399439573288,0.034463852643966675,-9.833637237548828
1.7294923362920883e+18,-0.03212595358490944,0.02288489043712616,-9.851844787597656
1.7294923362980884e+18,-0.09077975898981094,0.024498727172613144,-9.907890319824219
1.7294923363040886e+18,-0.051744405180215836,-0.024793528020381927,-9.854475975036621
1.7294923363100887e+18,-0.017932375892996788,-0.011014129035174847,-9.760415077209473
1.7294923363160888e+18,0.011497246101498604,-0.06998037546873093,-9.879012107849121
1.729492336322089e+18,-0.057273559272289276,0.08427539467811584,-9.752501487731934
1.729492336328089e+18,0.06521641463041306,-0.004738666582852602,-9.807372093200684
1.7294923363340892e+18,0.016247525811195374,-0.02704450488090515,-9.698200225830078
1.7294923363400893e+18,0.031758323311805725,-0.008163298480212688,-9.832059860229492
1.7294923363490895e+18,0.019155336543917656,-0.023528240621089935,-9.793641090393066
1.7294923363550897e+18,-0.012673947960138321,0.006064071319997311,-9.807912826538086
1.7294923363640899e+18,0.06203994154930115,-0.010122310370206833,-9.810356140136719
1.72949233637009e+18,0.019124630838632584,0.030870724469423294,-9.827189445495605
1.72949233637609e+18,0.016580836847424507,-0.014486907050013542,-9.774408340454102
1.7294923363820902e+18,-0.04526452720165253,0.05417483299970627,-9.771817207336426
1.7294923363910904e+18,-0.10071402043104172,-0.05660067871212959,-9.831870079040527
1.7294923364000906e+18,-0.02550363540649414,-0.03273569047451019,-9.770085334777832
1.7294923364030907e+18,-0.003375009633600712,0.019196711480617523,-9.866698265075684
1.729492336412091e+18,0.030783550813794136,0.053227443248033524,-9.815083503723145
1.729492336415091e+18,-0.006865597330033779,-0.07099812477827072,-9.810083389282227
1.729492336421091e+18,0.02311338111758232,-0.08531922101974487,-9.833582878112793
1.7294923364270912e+18,-0.008701492100954056,0.06555512547492981,-9.846733093261719
1.7294923364330913e+18,0.030465688556432724,0.023368682712316513,-9.820842742919922
1.7294923364390915e+18,0.03702981024980545,-0.06508255004882812,-9.825016021728516
1.7294923364450916e+18,0.0075060101225972176,-0.0040762280113995075,-9.824142456054688
1.7294923364510917e+18,-0.01670120470225811,0.043497055768966675,-9.828021049499512
1.729492336460092e+18,0.09976083785295486,0.03969385474920273,-9.798120498657227
1.729492336466092e+18,0.0534033477306366,-0.0170719213783741,-9.749833106994629
1.7294923364720922e+18,0.03380362689495087,-0.025183280929923058,-9.847708702087402
1.7294923364810924e+18,-0.006529678124934435,0.04735688492655754,-9.841468811035156
1.7294923364870925e+18,-0.013267163187265396,0.0450233593583107,-9.810630798339844
1.7294923364930926e+18,-0.08673706650733948,0.05722464993596077,-9.831100463867188
1.7294923364990927e+18,0.03482922539114952,-0.02821788378059864,-9.801738739013672
1.7294923365050929e+18,-0.002626345492899418,-0.03697047382593155,-9.78621768951416
1.729492336511093e+18,-0.07770060002803802,-0.07784631848335266,-9.78452205657959
1.7294923365200932e+18,-0.00471817422658205,-0.1220557689666748,-9.792304992675781
1.7294923365260933e+18,0.08071723580360413,0.0433230921626091,-9.842041015625
1.7294923365320934e+18,0.007542241830378771,0.025253452360630035,-9.796878814697266
1.7294923365410936e+18,0.03071107715368271,0.07537376135587692,-9.772933959960938
1.7294923365470938e+18,-0.021814314648509026,0.06102358549833298,-9.878299713134766
1.729492336553094e+18,0.007286581210792065,0.01754082180559635,-9.807437896728516
1.729492336559094e+18,0.020428869873285294,0.08839837461709976,-9.78760814666748
1.7294923365680942e+18,0.003740322310477495,0.05502760037779808,-9.84885025024414
1.7294923365740943e+18,-0.02855665795505047,0.0022784387692809105,-9.827685356140137
1.7294923365800945e+18,0.04614075645804405,0.04199964553117752,-9.801385879516602
1.7294923365890947e+18,-0.009562930092215538,-0.09421447664499283,-9.73955249786377
1.7294923365950948e+18,0.028025364503264427,-0.016971934586763382,-9.820060729980469
1.729492336601095e+18,-0.0800621286034584,-0.017491906881332397,-9.748513221740723
1.729492336604095e+18,0.01461835578083992,-0.016017498448491096,-9.767044067382812
1.7294923366130952e+18,0.013075754046440125,-0.031063705682754517,-9.835440635681152
1.7294923366190953e+18,-0.019106578081846237,-0.004770777188241482,-9.804560661315918
1.7294923366250954e+18,-0.0722149908542633,0.007056796923279762,-9.865067481994629
1.7294923366310956e+18,0.000791802245657891,-0.06911197304725647,-9.879495620727539
1.7294923366370957e+18,0.05805414915084839,-0.027061404660344124,-9.877215385437012
1.7294923366430958e+18,0.02336365357041359,-0.022177260369062424,-9.840497016906738
1.729492336649096e+18,-0.0006772312335669994,-0.03491392731666565,-9.788474082946777
1.729492336655096e+18,-0.0010994146578013897,0.017452461645007133,-9.854076385498047
1.7294923366610962e+18,-0.002799576846882701,0.01077600009739399,-9.79477596282959
1.7294923366670963e+18,0.054553721100091934,-0.023327995091676712,-9.770169258117676
1.7294923366730964e+18,0.03335695341229439,-0.0018882093718275428,-9.854475021362305
1.7294923366820966e+18,0.012955461628735065,-0.022326545789837837,-9.824480056762695
1.7294923366880968e+18,-0.04345819354057312,-0.050904519855976105,-9.842534065246582
1.729492336694097e+18,0.03740718960762024,-0.04547947272658348,-9.85478687286377
1.729492336700097e+18,-0.03291459381580353,-0.019627215340733528,-9.885370254516602
1.7294923367060972e+18,0.019591372460126877,-0.06889867037534714,-9.891266822814941
1.7294923367120973e+18,0.05168212205171585,0.016994161531329155,-9.824697494506836
1.7294923367210975e+18,0.042082950472831726,-0.04180196300148964,-9.842228889465332
1.7294923367270976e+18,0.019254866987466812,-0.0003193602024111897,-9.866460800170898
1.7294923367330977e+18,0.017229923978447914,0.04428894817829132,-9.780682563781738
1.7294923367390979e+18,-0.008812494575977325,-0.029006464406847954,-9.840494155883789
1.729492336745098e+18,-0.05089419335126877,-0.06770634651184082,-9.807974815368652
1.729492336751098e+18,0.011364437639713287,0.07056716829538345,-9.811047554016113
1.7294923367570982e+18,-0.014360561966896057,-0.0033549151849001646,-9.798789024353027
1.7294923367660984e+18,-0.049705613404512405,0.0157590601593256,-9.77258586883545
1.7294923367720986e+18,0.013324497267603874,0.03801548480987549,-9.837289810180664
1.7294923367780987e+18,0.006659434176981449,0.09651121497154236,-9.795183181762695
1.729492336787099e+18,0.021856460720300674,0.02567780204117298,-9.75169563293457
1.729492336793099e+18,-0.006904800422489643,0.012476726435124874,-9.866924285888672
1.7294923367990991e+18,-0.011059287935495377,-0.07545135915279388,-9.862115859985352
1.7294923368050993e+18,0.020745674148201942,0.024832548573613167,-9.817054748535156
1.7294923368110994e+18,-0.02924870140850544,0.0019112159498035908,-9.811003684997559
1.7294923368200996e+18,-0.05586383491754532,0.003991643898189068,-9.844917297363281
1.7294923368260997e+18,0.01395562756806612,0.004734713118523359,-9.828157424926758
1.7294923368320998e+18,-0.011732920072972775,0.10408540815114975,-9.860939025878906
1.7294923368411e+18,-0.017252735793590546,0.03423367813229561,-9.850931167602539
1.7294923368471002e+18,0.03620457276701927,-0.020902181044220924,-9.851113319396973
1.7294923368531003e+18,0.00476455595344305,-0.03906926512718201,-9.72545337677002
1.7294923368591004e+18,0.02413705363869667,-0.0014253293629735708,-9.817898750305176
1.7294923368651005e+18,-0.03300538659095764,-0.014851760119199753,-9.809028625488281
1.7294923368711007e+18,0.032152727246284485,0.09802903980016708,-9.836322784423828
1.7294923368771008e+18,-0.005277606192976236,0.08037091791629791,-9.83141040802002
1.729492336886101e+18,-0.060723233968019485,-0.02368561550974846,-9.82397747039795
1.729492336892101e+18,0.0012004782911390066,-0.016788935288786888,-9.834208488464355
1.7294923368981012e+18,0.0499069020152092,-0.08293544501066208,-9.869034767150879
1.7294923369041014e+18,-0.013993327505886555,-0.03669849783182144,-9.741361618041992
1.7294923369101015e+18,0.0392136424779892,-0.03603137657046318,-9.828203201293945
1.7294923369161016e+18,-0.0074446299113333225,0.06091722846031189,-9.886308670043945
1.7294923369221018e+18,-0.027565479278564453,-0.04145614057779312,-9.812247276306152
1.729492336928102e+18,0.005929134786128998,-0.0004685554013121873,-9.809176445007324
1.729492336934102e+18,-0.006400642916560173,-0.049777235835790634,-9.814489364624023
1.7294923369401021e+18,-0.10025808960199356,-0.025258544832468033,-9.768073081970215
1.7294923369461023e+18,0.029546739533543587,0.015206912532448769,-9.783645629882812
1.7294923369521024e+18,0.05396310240030289,-0.06075988709926605,-9.780594825744629
1.7294923369581025e+18,-0.00174531654920429,0.018935423344373703,-9.855948448181152
1.7294923369641027e+18,0.01722533069550991,-0.00016222252452280372,-9.819562911987305
1.7294923369701028e+18,0.01996392384171486,-0.042903900146484375,-9.87165355682373
1.729492336976103e+18,0.03566080704331398,0.06073404476046562,-9.816987991333008
1.729492336982103e+18,0.03966927155852318,-0.014285413548350334,-9.770529747009277
1.7294923369881032e+18,-0.05665994808077812,0.030047835782170296,-9.819533348083496
1.7294923369941033e+18,0.0015213950537145138,0.002821570262312889,-9.861363410949707
1.7294923370031035e+18,-0.024776268750429153,-0.011976946145296097,-9.882745742797852
1.7294923370091036e+18,-0.04045593738555908,-0.00995225552469492,-9.787131309509277
1.7294923370151037e+18,0.013417551293969154,-0.0141896428540349,-9.846186637878418
1.7294923370181038e+18,0.05939067527651787,-0.05394040793180466,-9.783711433410645
1.729492337027104e+18,0.05666131153702736,-0.009042920544743538,-9.827903747558594
1.729492337030104e+18,-0.043584421277046204,-0.007840055972337723,-9.824691772460938
1.7294923370361042e+18,0.03658007085323334,-0.03999221324920654,-9.807190895080566
1.7294923370421043e+18,0.0066118692047894,-0.010183979757130146,-9.829710006713867
1.7294923370481044e+18,0.05035178363323212,0.045371513813734055,-9.848861694335938
1.7294923370541046e+18,-0.05141095072031021,-0.00791711825877428,-9.823332786560059
1.7294923370601047e+18,0.06136126071214676,0.017103418707847595,-9.833683967590332
1.7294923370661048e+18,-0.03306065872311592,-0.009847949258983135,-9.83799934387207
1.729492337072105e+18,0.05456731840968132,-0.07602305710315704,-9.77860164642334
1.729492337078105e+18,-0.045888498425483704,-0.02956775575876236,-9.857667922973633
1.7294923370841052e+18,0.06833632290363312,0.05829440429806709,-9.814498901367188
1.7294923370931054e+18,-0.041949234902858734,-0.0004455215239431709,-9.788619041442871
1.7294923370991055e+18,0.05684606358408928,-0.04342954233288765,-9.759574890136719
1.7294923371051057e+18,0.013924672268331051,-0.06147754192352295,-9.889055252075195
1.7294923371081057e+18,-0.05789462849497795,-0.00818305741995573,-9.863189697265625
1.7294923371141059e+18,0.048081159591674805,0.12082564830780029,-9.872737884521484
1.729492337123106e+18,-0.03267805650830269,-0.00383964111097157,-9.819844245910645
1.7294923371291062e+18,-0.07311015576124191,0.035382941365242004,-9.799026489257812
1.7294923371351063e+18,-0.03623669967055321,-0.06980264186859131,-9.777792930603027
1.7294923371411064e+18,0.03159754350781441,0.008554229512810707,-9.795584678649902
1.7294923371471066e+18,-0.03373356908559799,-0.014770343899726868,-9.904641151428223
1.7294923371531067e+18,0.04396429657936096,0.06886465847492218,-9.799427032470703
1.7294923371591068e+18,-0.06412068754434586,0.04276159033179283,-9.818455696105957
1.729492337165107e+18,-0.07043042778968811,0.016919022426009178,-9.778641700744629
1.7294923371741071e+18,-0.03839873522520065,-0.0008906195289455354,-9.791075706481934
1.7294923371801073e+18,-0.026246486231684685,-0.0169907808303833,-9.748605728149414
1.7294923371891075e+18,-4.31372900493443e-05,-0.03892027586698532,-9.781190872192383
1.7294923371951076e+18,0.018277661874890327,-0.025441782549023628,-9.84959602355957
1.7294923372011077e+18,-0.0730007067322731,-0.03379965201020241,-9.892552375793457
1.7294923372071078e+18,0.08613094687461853,-0.010971298441290855,-9.805293083190918
1.729492337213108e+18,0.07584469765424728,-0.043317534029483795,-9.766433715820312
1.729492337219108e+18,0.048673439770936966,0.09725712239742279,-9.827143669128418
1.7294923372251082e+18,-0.016457948833703995,0.02713915891945362,-9.84158992767334
1.7294923372281083e+18,-0.03539222851395607,-0.04021860286593437,-9.858616828918457
1.7294923372341084e+18,-0.05151071399450302,-0.05963468551635742,-9.831912994384766
1.7294923372401085e+18,-0.01798839308321476,-0.030789436772465706,-9.799099922180176
1.7294923372491087e+18,-0.00851447507739067,0.034188129007816315,-9.822447776794434
1.7294923372551089e+18,0.01361929439008236,0.09820465743541718,-9.802570343017578
1.729492337261109e+18,-0.032624829560518265,0.013370586559176445,-9.856513977050781
1.729492337267109e+18,0.010628034360706806,0.015599122270941734,-9.770172119140625
1.7294923372731092e+18,-0.0031498537864536047,0.004672318231314421,-9.792736053466797
1.7294923372821094e+18,-0.028784897178411484,-0.008295739069581032,-9.830286026000977
1.7294923372881096e+18,0.009563266299664974,-0.017211250960826874,-9.854480743408203
1.7294923372941097e+18,0.003016891423612833,0.03900938108563423,-9.822317123413086
1.7294923373001098e+18,0.07897956669330597,-0.024529818445444107,-9.77548885345459
1.72949233730611e+18,0.01267477311193943,-0.049527689814567566,-9.915319442749023
1.72949233731211e+18,-0.02289707586169243,0.06942534446716309,-9.854803085327148
1.7294923373211103e+18,-0.06890963017940521,-0.01691100001335144,-9.860221862792969
1.7294923373301105e+18,-0.050813522189855576,-0.00348561885766685,-9.850773811340332
1.7294923373361106e+18,0.06657973676919937,0.0025546273682266474,-9.860275268554688
1.7294923373451108e+18,0.036504220217466354,0.01591324619948864,-9.87679386138916
1.729492337351111e+18,0.04978395253419876,-0.054097551852464676,-9.784566879272461
1.729492337357111e+18,-0.007989825680851936,-0.02352248504757881,-9.918734550476074
1.7294923373631112e+18,-0.012465658597648144,0.033518653362989426,-9.840831756591797
1.7294923373721114e+18,-0.0463404543697834,-0.0029709525406360626,-9.817699432373047
1.7294923373781115e+18,-0.04202413186430931,0.014059200882911682,-9.902603149414062
1.7294923373871117e+18,-0.047982003539800644,0.017852645367383957,-9.791925430297852
1.729492337396112e+18,-0.030698668211698532,-0.039821967482566833,-9.852627754211426
1.729492337402112e+18,0.0342780165374279,0.07100281864404678,-9.825803756713867
1.7294923374111122e+18,0.0024244925007224083,-0.027115972712635994,-9.761260986328125
1.7294923374171123e+18,-0.0023124641738831997,-0.03654069826006889,-9.802684783935547
1.7294923374261125e+18,0.0186641626060009,0.05183127149939537,-9.793900489807129
1.7294923374291126e+18,-0.027484316378831863,0.07173509895801544,-9.801874160766602
1.7294923374381128e+18,0.012208745814859867,0.021862152963876724,-9.827877044677734
1.729492337444113e+18,0.035280827432870865,0.0006017631385475397,-9.847386360168457
1.729492337450113e+18,-0.05907314643263817,0.007493549957871437,-9.824625015258789
1.7294923374591132e+18,0.007607303559780121,0.05590898171067238,-9.80150318145752
1.7294923374651133e+18,0.016937466338276863,0.012469246052205563,-9.91165542602539
1.7294923374711135e+18,-0.03234865516424179,-0.0013547741109505296,-9.808984756469727
1.7294923374801137e+18,-0.01099828165024519,0.002868404844775796,-9.844326972961426
1.7294923374861138e+18,0.12356920540332794,-0.008400363847613335,-9.891342163085938
1.729492337495114e+18,0.04396822676062584,-0.07736898213624954,-9.860297203063965
1.729492337501114e+18,-0.0353325754404068,0.014706860296428204,-9.8063383102417
1.7294923375071142e+18,-0.005377616733312607,-0.031083067879080772,-9.853550910949707
1.7294923375131144e+18,0.028827112168073654,0.012531373649835587,-9.836749076843262
1.7294923375221146e+18,0.07619393616914749,-0.028360813856124878,-9.808197975158691
1.7294923375281147e+18,0.0010400637984275818,0.04164690151810646,-9.826919555664062
1.729492337537115e+18,0.03179224580526352,-0.03130774572491646,-9.809062957763672
1.729492337543115e+18,0.057681646198034286,0.06685630232095718,-9.863126754760742
1.7294923375491151e+18,-0.001040544593706727,-0.07832992821931839,-9.822896003723145
1.7294923375551153e+18,0.015141253359615803,-0.038944460451602936,-9.872855186462402
1.7294923375641155e+18,0.018000761047005653,-0.04773373529314995,-9.85969066619873
1.7294923375731156e+18,0.1328333467245102,-0.03464769572019577,-9.844135284423828
1.7294923375791158e+18,-0.02664017677307129,0.10450510680675507,-9.86935043334961
1.729492337588116e+18,0.010443875566124916,-0.01697693020105362,-9.835705757141113
1.7294923375971162e+18,0.014492837712168694,-0.002087694127112627,-9.801162719726562
1.7294923376031163e+18,0.009376761503517628,-0.04321184381842613,-9.874957084655762
1.7294923376091164e+18,-0.030918285250663757,0.027566518634557724,-9.887428283691406
1.7294923376181166e+18,-0.0188094861805439,-0.06060175597667694,-9.811335563659668
1.7294923376241167e+18,-0.03950630873441696,0.0919734537601471,-9.857248306274414
1.7294923376301169e+18,0.026431629434227943,-0.04029800370335579,-9.846296310424805
1.729492337636117e+18,0.04274226352572441,0.04726076498627663,-9.797002792358398
1.729492337642117e+18,-0.01343801710754633,-0.00966319814324379,-9.915175437927246
1.7294923376481172e+18,-0.0440092459321022,0.04600374773144722,-9.898538589477539
1.7294923376571174e+18,0.04339798167347908,2.3036933271214366e-05,-9.821582794189453
1.7294923376631176e+18,-0.021768242120742798,0.10028935223817825,-9.812114715576172
1.7294923376691177e+18,-0.0197464507073164,-0.03692460060119629,-9.90012264251709
1.7294923376751178e+18,0.02210703305900097,-0.011467253789305687,-9.808425903320312
1.729492337681118e+18,-0.09413906931877136,0.032645706087350845,-9.87773323059082
1.729492337687118e+18,-0.07007850706577301,0.036422569304704666,-9.882022857666016
1.7294923376961183e+18,0.0005133961676619947,-0.0002955591189675033,-9.928964614868164
1.7294923377021184e+18,0.09123414754867554,0.0065969666466116905,-9.830891609191895
1.7294923377081185e+18,-0.053219374269247055,0.03126039728522301,-9.876614570617676
1.7294923377141187e+18,-0.007109984755516052,0.03339536860585213,-9.823134422302246
1.7294923377231188e+18,0.07182001322507858,-0.04040776565670967,-9.868535995483398
1.729492337729119e+18,-0.022133680060505867,-0.005016494542360306,-9.813319206237793
1.729492337735119e+18,0.01967315934598446,-0.02845092862844467,-9.806405067443848
1.7294923377411192e+18,-0.03032560460269451,-0.009809983894228935,-9.815448760986328
1.7294923377471194e+18,0.004010878037661314,0.0032453835010528564,-9.752967834472656
1.7294923377531195e+18,-0.03270336613059044,0.04392950236797333,-9.862419128417969
1.7294923377621197e+18,-0.008021680638194084,-0.016866153106093407,-9.889769554138184
1.7294923377651197e+18,0.016013184562325478,0.04765801876783371,-9.824944496154785
1.72949233777412e+18,-0.0668998584151268,0.06002172455191612,-9.802241325378418
1.72949233778012e+18,0.016807731240987778,-0.09503588080406189,-9.886856079101562
1.7294923377891203e+18,-0.011335495859384537,-0.01935204304754734,-9.925252914428711
1.7294923377951204e+18,-0.0251910500228405,-0.06482488662004471,-9.948720932006836
1.7294923378011205e+18,0.05503770709037781,0.01981370337307453,-9.858830451965332
1.7294923378101207e+18,0.06912729144096375,-0.008364302106201649,-9.720571517944336
1.7294923378161208e+18,-0.09424678981304169,0.008649523369967937,-9.817708015441895
1.729492337822121e+18,0.04281432926654816,-0.029287956655025482,-9.837788581848145
1.729492337828121e+18,0.11336588859558105,-0.06837117671966553,-9.736224174499512
1.7294923378341212e+18,-0.055672917515039444,-0.05081375688314438,-9.779157638549805
1.7294923378401213e+18,0.005612622015178204,-0.023624802008271217,-9.836069107055664
1.7294923378461215e+18,0.004620452877134085,-0.035608820617198944,-9.824539184570312
1.7294923378521216e+18,-0.05460295081138611,0.06901255995035172,-9.798365592956543
1.7294923378581217e+18,-0.013693263754248619,0.10895244032144547,-9.856371879577637
1.729492337867122e+18,-0.02665591984987259,0.020907137542963028,-9.858863830566406
1.729492337873122e+18,-0.005022438243031502,0.05663536489009857,-9.785093307495117
1.7294923378791222e+18,-0.020414847880601883,-0.006545635871589184,-9.828377723693848
1.7294923378851223e+18,0.03494026139378548,0.04815829545259476,-9.864934921264648
1.7294923378911224e+18,-0.015135975554585457,-0.05484366789460182,-9.836581230163574
1.7294923378971226e+18,-0.020960452035069466,-0.03871304541826248,-9.820971488952637
1.7294923379031227e+18,-0.09954903274774551,0.008423665538430214,-9.83419418334961
1.7294923379091228e+18,-0.1276172250509262,0.004078100901097059,-9.810778617858887
1.729492337918123e+18,-0.023649821057915688,-0.027283910661935806,-9.817988395690918
1.7294923379241231e+18,-0.03481501340866089,0.05823715776205063,-9.776179313659668
1.7294923379301233e+18,0.0015368395252153277,0.013827702961862087,-9.960503578186035
1.7294923379361234e+18,0.029745496809482574,-0.05930992215871811,-9.899609565734863
1.7294923379421235e+18,-0.022121932357549667,-0.056153565645217896,-9.860881805419922
1.7294923379481236e+18,-0.0017229863442480564,0.021966319531202316,-9.809286117553711
1.7294923379571238e+18,0.04923146218061447,0.0002950651687569916,-9.776407241821289
1.729492337963124e+18,0.03973660245537758,0.03874541074037552,-9.75346565246582
1.729492337966124e+18,-0.07318306714296341,-0.018264975398778915,-9.807310104370117
1.7294923379751242e+18,0.023366719484329224,-0.03895512595772743,-9.793858528137207
1.7294923379811244e+18,-0.0648047998547554,-0.006731164176017046,-9.765369415283203
1.7294923379871245e+18,-0.05405734106898308,-0.040708545595407486,-9.853250503540039
1.7294923379931246e+18,-0.06290029734373093,-0.04029727354645729,-9.786734580993652
1.7294923379991247e+18,-0.042763493955135345,-0.0011718992609530687,-9.85651683807373
1.7294923380051249e+18,0.010965977795422077,0.014363511465489864,-9.85252571105957
1.729492338014125e+18,-0.08185850083827972,0.06275103986263275,-9.877373695373535
1.7294923380201252e+18,-0.057157669216394424,0.01927042007446289,-9.851383209228516
1.7294923380261253e+18,-0.024295220151543617,-0.04276923090219498,-9.837357521057129
1.7294923380321254e+18,0.016961630433797836,0.052444636821746826,-9.915339469909668
1.7294923380351255e+18,0.007246246561408043,0.01955423690378666,-9.858781814575195
1.7294923380411256e+18,0.037998851388692856,0.13834375143051147,-9.85724925994873
1.7294923380471258e+18,0.013705696910619736,-0.009796036407351494,-9.792287826538086
1.729492338053126e+18,0.01667412370443344,0.019204044714570045,-9.883880615234375
1.729492338059126e+18,0.006980282254517078,-0.036304935812950134,-9.8492431640625
1.729492338062126e+18,0.016022376716136932,-0.03759996220469475,-9.808847427368164
1.7294923380681262e+18,0.059371478855609894,0.1005287766456604,-9.848433494567871
1.7294923380741263e+18,0.051931232213974,-0.02578570507466793,-9.794866561889648
1.7294923380801265e+18,-0.06349323689937592,-0.06398523598909378,-9.738094329833984
1.7294923380861266e+18,0.017080364748835564,-0.028482863679528236,-9.779269218444824
1.7294923380921267e+18,0.0869637057185173,-0.004525994881987572,-9.833894729614258
1.7294923380981268e+18,0.12140519171953201,0.04308519884943962,-9.830687522888184
1.729492338101127e+18,-0.03376777470111847,-0.06892625987529755,-9.836918830871582
1.729492338107127e+18,-0.021203890442848206,-0.011865761131048203,-9.803503036499023
1.7294923381131272e+18,0.039462026208639145,0.01671711355447769,-9.793072700500488
1.7294923381191273e+18,-0.032623570412397385,0.011928915046155453,-9.830587387084961
1.7294923381221274e+18,0.054576486349105835,0.09022510796785355,-9.876837730407715
1.7294923381281275e+18,0.004376834724098444,-0.017066998407244682,-9.77617359161377
1.7294923381341276e+18,0.047010134905576706,-0.028323287144303322,-9.832085609436035
1.7294923381401277e+18,-0.06197808310389519,-0.04522988945245743,-9.843938827514648
1.729492338146128e+18,-7.592621841467917e-05,-0.01132255420088768,-9.869865417480469
1.729492338152128e+18,-0.029857248067855835,0.0198660995811224,-9.75713062286377
1.729492338158128e+18,-0.022176485508680344,-0.021429408341646194,-9.878994941711426
1.7294923381641283e+18,-0.04671504348516464,0.02662540413439274,-9.844926834106445
1.7294923381701284e+18,-0.008405660279095173,-0.1287088394165039,-9.797266960144043
1.7294923381761285e+18,-0.014845633879303932,0.019870422780513763,-9.773492813110352
1.7294923381851287e+18,-0.08701930195093155,0.02841542661190033,-9.828590393066406
1.7294923381911288e+18,-0.009069152176380157,0.02721630409359932,-9.830105781555176
1.729492338197129e+18,-0.057852085679769516,0.04035825654864311,-9.818120002746582
1.729492338203129e+18,0.055853378027677536,-0.0072533246129751205,-9.809309959411621
1.7294923382121293e+18,-0.020155401900410652,-0.003739746520295739,-9.836505889892578
1.7294923382181294e+18,0.014633215963840485,0.014197786338627338,-9.780433654785156
1.7294923382241295e+18,-0.0892622172832489,0.018553975969552994,-9.844388008117676
1.7294923382301297e+18,0.029167696833610535,0.001449331408366561,-9.812503814697266
1.7294923382391299e+18,-0.04673666134476662,-0.06742077320814133,-9.880998611450195
1.72949233824213e+18,-0.025509346276521683,0.02754085138440132,-9.847103118896484
1.72949233825113e+18,-0.02352193184196949,0.02096065692603588,-9.85107421875
1.7294923382571302e+18,-0.028380723670125008,0.07154478132724762,-9.788366317749023
1.7294923382631304e+18,-0.04630323126912117,-0.020945940166711807,-9.790292739868164
1.7294923382721306e+18,0.04450047016143799,0.017141537740826607,-9.784321784973145
1.7294923382811308e+18,0.03678549826145172,0.04218478500843048,-9.890172004699707
1.729492338287131e+18,0.07050569355487823,0.018272340297698975,-9.874555587768555
1.729492338293131e+18,0.07505424320697784,-0.0018431966891512275,-9.755861282348633
1.7294923383021312e+18,-0.0468507781624794,-0.0035643777810037136,-9.79279613494873
1.7294923383081313e+18,0.024426018819212914,-0.07691459357738495,-9.804286003112793
1.7294923383141315e+18,0.014308527112007141,0.0049632852897048,-9.849167823791504
1.7294923383201316e+18,-0.07209156453609467,-0.004628012888133526,-9.84567642211914
1.7294923383261317e+18,-0.029788687825202942,0.0729132667183876,-9.88762092590332
1.7294923383321318e+18,-0.01495610922574997,-0.029484683647751808,-9.8394775390625
1.729492338338132e+18,0.02408089116215706,0.063198521733284,-9.768241882324219
1.729492338344132e+18,-0.018674355000257492,0.006783111486583948,-9.87038803100586
1.7294923383501322e+18,-0.01663493737578392,0.04446902871131897,-9.780804634094238
1.7294923383561324e+18,0.02865981124341488,0.002358337864279747,-9.8214750289917
1.7294923383621325e+18,-0.02590624801814556,-0.00019722641445696354,-9.851709365844727
1.7294923383681326e+18,0.053258322179317474,0.06956907361745834,-9.82233715057373
1.7294923383741327e+18,0.0279241930693388,-0.07534567266702652,-9.851025581359863
1.729492338383133e+18,0.001407352276146412,-0.07942348718643188,-9.819365501403809
1.729492338389133e+18,0.058105845004320145,0.0024292035959661007,-9.814322471618652
1.7294923383951332e+18,0.02286590449512005,-0.017527196556329727,-9.859878540039062
1.7294923384041334e+18,-0.03790600225329399,-0.028322294354438782,-9.83151626586914
1.7294923384101335e+18,0.055911920964717865,-0.08081381767988205,-9.846088409423828
1.7294923384161336e+18,0.04197351261973381,-0.00460086390376091,-9.813629150390625
1.7294923384251338e+18,0.037585146725177765,0.051892176270484924,-9.788311004638672
1.729492338428134e+18,-0.03720651566982269,-0.05622648447751999,-9.861732482910156
1.729492338434134e+18,-0.0031393421813845634,0.019653672352433205,-9.854225158691406
1.7294923384431342e+18,0.08257203549146652,0.004198686219751835,-9.820189476013184
1.7294923384461343e+18,-0.04628664627671242,-0.052434444427490234,-9.788581848144531
1.7294923384551345e+18,-0.03284940868616104,-0.037694234400987625,-9.794201850891113
1.7294923384611346e+18,-0.026228709146380424,-0.05430488660931587,-9.788785934448242
1.7294923384671347e+18,0.003417602041736245,0.021762963384389877,-9.869068145751953
1.7294923384731348e+18,0.11077720671892166,0.09755340218544006,-9.79507827758789
1.729492338479135e+18,0.05176590010523796,0.05152300000190735,-9.825908660888672
1.729492338485135e+18,0.036988530308008194,0.023144559934735298,-9.853769302368164
1.7294923384911352e+18,-0.04253355786204338,0.018388710916042328,-9.855880737304688
1.7294923385001354e+18,-0.009593107737600803,0.004536723718047142,-9.83306884765625
1.7294923385031355e+18,-0.0049773757345974445,-0.08092740923166275,-9.81479263305664
1.7294923385121357e+18,-0.01178019866347313,-0.0025438740849494934,-9.83374309539795
1.7294923385181358e+18,0.02847997099161148,-0.03129175677895546,-9.888538360595703
1.729492338524136e+18,-0.017321202903985977,0.0882146805524826,-9.880169868469238
1.7294923385331361e+18,-0.08723963052034378,-0.00522349588572979,-9.86995792388916
1.7294923385391363e+18,-0.057857219129800797,-0.026986490935087204,-9.79245662689209
1.7294923385451364e+18,0.043042946606874466,0.058855097740888596,-9.770021438598633
1.7294923385481364e+18,-0.03763343766331673,0.026402855291962624,-9.761839866638184
1.7294923385541366e+18,-0.021906621754169464,0.022794174030423164,-9.745736122131348
1.7294923385601367e+18,0.0806751549243927,-0.018814068287611008,-9.841242790222168
1.729492338569137e+18,0.023370089009404182,-0.05903775244951248,-9.858994483947754
1.729492338575137e+18,0.036106836050748825,-0.029166104272007942,-9.834153175354004
1.7294923385811372e+18,0.09268910437822342,0.011835825629532337,-9.787242889404297
1.7294923385871373e+18,0.02683880180120468,0.003286840161308646,-9.856781959533691
1.7294923385931374e+18,-0.0593707375228405,-0.010622740723192692,-9.81259536743164
1.7294923385991375e+18,-0.03670762479305267,0.025450455024838448,-9.901276588439941
1.7294923386051377e+18,0.016225755214691162,-0.04551055282354355,-9.813627243041992
1.7294923386111378e+18,-0.03407382220029831,0.059738025069236755,-9.819360733032227
1.729492338617138e+18,-0.02722690999507904,-0.00844916794449091,-9.834792137145996
1.729492338623138e+18,0.05480676144361496,-0.018595557659864426,-9.802127838134766
1.7294923386291382e+18,-0.06840858608484268,0.02822435274720192,-9.81162166595459
1.7294923386351383e+18,-0.051239628344774246,0.007361207157373428,-9.783554077148438
1.7294923386381384e+18,-0.0878351479768753,-0.02065042033791542,-9.73279094696045
1.7294923386441385e+18,0.06586524844169617,0.03394777327775955,-9.901336669921875
1.7294923386501386e+18,0.0678352639079094,-0.002822321839630604,-9.84732437133789
1.7294923386561388e+18,-0.032903384417295456,-0.050320014357566833,-9.805962562561035
1.729492338662139e+18,-0.04900917783379555,-0.0628880187869072,-9.79385757446289
1.729492338668139e+18,-0.017127955332398415,0.025743138045072556,-9.807207107543945
1.729492338671139e+18,-0.0485411137342453,-0.06140068173408508,-9.81772232055664
1.7294923386801393e+18,-0.019094523042440414,-0.029283449053764343,-9.794404983520508
1.7294923386861394e+18,0.03946525231003761,0.04965627193450928,-9.78133773803711
1.7294923386921395e+18,0.0017740140901878476,0.0022445665672421455,-9.870797157287598
1.7294923386981396e+18,0.039913713932037354,-0.010344462469220161,-9.860420227050781
1.7294923387011397e+18,0.0912143886089325,0.03689916059374809,-9.834104537963867
1.7294923387071398e+18,-0.016527824103832245,0.05555221065878868,-9.805383682250977
1.72949233871314e+18,0.006492888554930687,-0.07312604784965515,-9.81508731842041
1.72949233871614e+18,-0.026208076626062393,0.012308052740991116,-9.822226524353027
1.7294923387221402e+18,-0.017343681305646896,0.02421005442738533,-9.816527366638184
1.7294923387281403e+18,-0.001770005444996059,-0.12120348960161209,-9.828568458557129
1.7294923387341404e+18,-0.0774417445063591,-0.0033209463581442833,-9.852190971374512
1.7294923387401405e+18,0.023369669914245605,-0.07680186629295349,-9.862898826599121
1.7294923387461407e+18,-0.007103431969881058,-0.0790848508477211,-9.812707901000977
1.7294923387521408e+18,0.008891378529369831,0.09623905271291733,-9.752952575683594
1.7294923387551409e+18,-0.027348939329385757,0.028786713257431984,-9.815329551696777
1.729492338761141e+18,-0.0160046573728323,0.024531854316592216,-9.758712768554688
1.729492338767141e+18,0.01047894824296236,0.029146425426006317,-9.817182540893555
1.7294923387731412e+18,0.05437769368290901,0.018203051760792732,-9.851516723632812
1.7294923387791414e+18,-0.08348886668682098,0.0056340196169912815,-9.74338436126709
1.7294923387851415e+18,0.03326743468642235,-0.03353284299373627,-9.854076385498047
1.7294923387911416e+18,0.024854307994246483,-0.04705147072672844,-9.787552833557129
1.7294923387971418e+18,-0.0232242364436388,0.01680181547999382,-9.893268585205078
1.729492338806142e+18,0.003423987189307809,-0.07393870502710342,-9.804572105407715
1.729492338812142e+18,-0.06305995583534241,0.0010253689251840115,-9.76248550415039
1.7294923388151421e+18,0.06860276311635971,0.01479815412312746,-9.892231941223145
1.7294923388211423e+18,-0.039782799780368805,0.009702583774924278,-9.822014808654785
1.7294923388271424e+18,-0.03863982856273651,0.07370296120643616,-9.807798385620117
1.7294923388331425e+18,-0.020925741642713547,-0.05837798863649368,-9.816594123840332
1.7294923388391427e+18,-0.0060521261766552925,0.002723646117374301,-9.86845588684082
1.7294923388451428e+18,-0.056110184639692307,0.04739478975534439,-9.805793762207031
1.729492338851143e+18,-0.0370224267244339,-0.0648525059223175,-9.849674224853516
1.729492338857143e+18,0.019764363765716553,-0.014838790521025658,-9.865413665771484
1.7294923388661432e+18,-0.009222865104675293,0.004801037255674601,-9.786238670349121
1.7294923388721434e+18,0.039182983338832855,0.06626782566308975,-9.784150123596191
1.7294923388811436e+18,0.04776674136519432,-0.013469667173922062,-9.824148178100586
1.7294923388871437e+18,0.012316110543906689,0.02061682939529419,-9.815825462341309
1.729492338896144e+18,-0.061782900243997574,0.06280873715877533,-9.845852851867676
1.729492338899144e+18,-0.011651432141661644,0.00646230299025774,-9.832923889160156
1.729492338905144e+18,-0.0069860974326729774,-0.057264428585767746,-9.817276954650879
1.7294923389111442e+18,-0.03236963599920273,0.011498752981424332,-9.80475902557373
1.7294923389171443e+18,-0.0327056422829628,-0.017566967755556107,-9.83062744140625
1.7294923389231444e+18,-0.08761747926473618,0.01120183989405632,-9.7746000289917
1.7294923389321446e+18,-0.07573150843381882,0.003714814316481352,-9.810447692871094
1.7294923389411448e+18,-0.04117723926901817,0.050275277346372604,-9.778827667236328
1.729492338947145e+18,-0.06631660461425781,-0.022458359599113464,-9.836421012878418
1.7294923389561452e+18,0.005206762813031673,0.04585828632116318,-9.788926124572754
1.7294923389621453e+18,-0.07162714749574661,-0.006916363257914782,-9.851842880249023
1.7294923389711455e+18,0.012242918834090233,0.03292763605713844,-9.74557876586914
1.7294923389771456e+18,-0.039076779037714005,-0.006594700273126364,-9.804083824157715
1.7294923389831457e+18,-0.023367660120129585,0.017450449988245964,-9.819308280944824
1.7294923389891459e+18,-0.013891274109482765,0.03422499820590019,-9.803324699401855
1.729492338995146e+18,-0.07818044722080231,-0.00409627053886652,-9.773590087890625
1.729492339001146e+18,-0.04437083378434181,0.0024120330344885588,-9.82314395904541
1.7294923390101463e+18,-0.04071164131164551,-0.027025973424315453,-9.855566024780273
1.7294923390161464e+18,0.030967772006988525,0.03503236547112465,-9.766973495483398
1.7294923390221466e+18,-0.024936847388744354,-0.0005424876580946147,-9.830933570861816
1.7294923390281467e+18,0.0594862699508667,-0.07149385660886765,-9.782724380493164
1.7294923390341468e+18,0.024973656982183456,0.03697556257247925,-9.846319198608398
1.729492339040147e+18,-0.028726495802402496,0.02245398610830307,-9.8333101272583
1.729492339046147e+18,-0.015869705006480217,0.0665799081325531,-9.822203636169434
1.7294923390551473e+18,0.002831599675118923,-0.0610656812787056,-9.813292503356934
1.7294923390641475e+18,-0.007699574809521437,-0.07046065479516983,-9.829007148742676
1.7294923390701476e+18,0.009331870824098587,-0.006801567040383816,-9.806527137756348
1.7294923390791478e+18,0.0899052768945694,0.06561434268951416,-9.8456392288208
1.729492339085148e+18,0.04601890593767166,-0.04647204652428627,-9.762212753295898
1.729492339091148e+18,0.017876004800200462,-0.005852831061929464,-9.866132736206055
1.7294923391001482e+18,-0.02218092419207096,0.07503340393304825,-9.842506408691406
1.7294923391061484e+18,0.015390392392873764,-0.009257414378225803,-9.826573371887207
1.7294923391151485e+18,0.016920115798711777,-0.005509494338184595,-9.83872127532959
1.7294923391211487e+18,-0.010748639702796936,0.05988786742091179,-9.869288444519043
1.7294923391301489e+18,0.010057230480015278,-0.03310664743185043,-9.053345680236816
1.729492339136149e+18,0.07875523716211319,0.03917352110147476,-8.302865028381348
1.7294923391451492e+18,-0.006168561056256294,-0.0022752974182367325,-8.106711387634277
1.7294923391511493e+18,0.08887477219104767,0.09381373971700668,-8.11815071105957
1.7294923391631496e+18,0.07793080061674118,-0.03320211544632912,-7.683084487915039
1.7294923391721498e+18,0.03699984773993492,-0.03438946604728699,-7.614889621734619
1.72949233918115e+18,0.11301542818546295,-0.10900147259235382,-7.733686447143555
1.7294923391901501e+18,0.03223508968949318,-0.06206822395324707,-7.692381381988525
1.7294923391961503e+18,0.06898265331983566,-0.027352139353752136,-7.670264720916748
1.7294923392081505e+18,0.1196255087852478,-0.06772859394550323,-7.241661548614502
1.7294923392171507e+18,0.07739749550819397,-0.00535370409488678,-7.299474716186523
1.729492339226151e+18,0.024130258709192276,-0.03580450639128685,-7.1515212059021
1.729492339235151e+18,0.06528856605291367,-0.0781368836760521,-7.164584636688232
1.7294923392411512e+18,0.09710153937339783,-0.002947259694337845,-7.036240577697754
1.7294923392471514e+18,0.05711280554533005,-0.044543758034706116,-7.172770023345947
1.7294923392561516e+18,0.02467895857989788,-0.08225385844707489,-7.22011137008667
1.7294923392651517e+18,0.07044853270053864,0.013126123696565628,-6.969155788421631
1.7294923392711519e+18,0.03781222924590111,-0.07034429907798767,-6.873245716094971
1.729492339277152e+18,0.0324598029255867,-0.060142792761325836,-6.7054524421691895
1.7294923392861522e+18,0.1132306456565857,0.013354234397411346,-6.6405720710754395
1.7294923392951524e+18,-0.03851378709077835,-0.002532830461859703,-6.66458797454834
1.7294923393041526e+18,0.0756557509303093,0.041776418685913086,-6.769542217254639
1.7294923393101527e+18,0.005360439419746399,-0.010288139805197716,-6.843076229095459
1.729492339319153e+18,-0.007654611021280289,-0.0429786816239357,-6.9001665115356445
1.729492339328153e+18,0.011176998727023602,0.05165351182222366,-6.657090187072754
1.7294923393371533e+18,0.04256264492869377,-0.023387566208839417,-6.692586898803711
1.7294923393461535e+18,0.041786275804042816,-0.03215955197811127,-6.767416477203369
1.7294923393551537e+18,-0.041509054601192474,-0.10943739116191864,-6.850635528564453
1.7294923393641539e+18,-0.07518965005874634,0.09014380723237991,-6.893298625946045
1.729492339376154e+18,0.034356266260147095,-0.025237971916794777,-6.742642402648926
1.7294923393851543e+18,0.03307259827852249,-0.012722868472337723,-6.635388374328613
1.7294923393941545e+18,0.018136844038963318,-0.0834120661020279,-6.713998794555664
1.7294923394031547e+18,0.031216636300086975,0.011047972366213799,-6.824478626251221
1.729492339412155e+18,0.033296674489974976,0.03908335044980049,-6.954837322235107
1.729492339421155e+18,0.04784662649035454,-0.050637636333703995,-7.034882545471191
1.7294923394301553e+18,-0.02377408929169178,-0.012220801785588264,-5.518259048461914
1.7294923394361554e+18,0.008011520840227604,-0.0259673073887825,-5.055549144744873
1.7294923394451556e+18,-0.0017672929679974914,0.015736006200313568,-4.940707206726074
1.7294923394511557e+18,-0.025238296017050743,0.07059191912412643,-5.031871795654297
1.7294923394571558e+18,-0.05221913754940033,0.034956347197294235,-5.063103675842285
1.729492339463156e+18,-0.030567634850740433,-0.02490358240902424,-5.166649341583252
1.729492339469156e+18,-0.009942552074790001,-0.006120734382420778,-5.200229167938232
1.7294923394751562e+18,0.08603924512863159,0.03624458983540535,-5.367769241333008
1.7294923394781563e+18,0.03153052181005478,0.04893404245376587,-5.356949806213379
1.7294923394841564e+18,0.00104908412322402,0.004823267459869385,-5.520352840423584
1.7294923394901565e+18,-0.0077816033735871315,0.060172371566295624,-5.586517810821533
1.7294923394961567e+18,-0.015301763080060482,-0.021388456225395203,-5.755227088928223
1.7294923395051569e+18,0.02650504559278488,0.006705082952976227,-5.855672359466553
1.729492339511157e+18,-0.056928642094135284,-0.015668418258428574,-5.9834136962890625
1.729492339517157e+18,0.02367692068219185,0.003945746924728155,-6.016798973083496
1.7294923395231572e+18,-0.03634616360068321,0.029464978724718094,-6.086375713348389
1.7294923395321574e+18,-0.04439723864197731,-0.025448616594076157,-6.213876724243164
1.7294923395381576e+18,-0.027286913245916367,0.027674108743667603,-6.208230018615723
1.7294923395441577e+18,0.011127008125185966,0.004056936129927635,-6.317612648010254
1.7294923395471578e+18,-0.023669593036174774,0.018377281725406647,-6.316874027252197
1.729492339553158e+18,0.028950586915016174,0.042629390954971313,-6.478366374969482
1.729492339559158e+18,-0.060171179473400116,0.0071088410913944244,-6.486695766448975
1.7294923395681582e+18,0.027406465262174606,0.028391564264893532,-6.5979132652282715
1.7294923395741583e+18,0.017420059069991112,0.030580569058656693,-6.754273891448975
1.7294923395801585e+18,-0.05882970988750458,-0.025938313454389572,-6.77048921585083
1.7294923395891587e+18,-0.07056024670600891,-0.009066418744623661,-6.915782928466797
1.7294923395951588e+18,-0.01710248738527298,0.007768430281430483,-7.074840545654297
1.729492339601159e+18,-0.10675530880689621,-0.00719104427844286,-7.082301616668701
1.729492339610159e+18,0.02902347967028618,0.040116991847753525,-7.061099529266357
1.7294923396161592e+18,-0.040656860917806625,-0.005698123015463352,-7.190095901489258
1.7294923396221594e+18,-0.0411154069006443,-0.013667302206158638,-7.187429904937744
1.7294923396281595e+18,-0.04451269656419754,0.01832505874335766,-7.306644439697266
1.7294923396371597e+18,0.08729400485754013,0.0111662233248353,-7.35727596282959
1.7294923396431598e+18,-0.06951932609081268,0.035673949867486954,-7.441371440887451
1.72949233964916e+18,-0.03107093647122383,-0.0961804986000061,-7.489408016204834
1.72949233965516e+18,-0.050500914454460144,0.008130235597491264,-7.473493576049805
1.7294923396611602e+18,-0.0028011584654450417,0.009211312048137188,-7.575263023376465
1.7294923396671603e+18,0.05964905768632889,0.06884816288948059,-7.564271926879883
1.7294923396731604e+18,0.012472938746213913,0.010711725801229477,-7.690220355987549
1.7294923396791606e+18,0.054876137524843216,0.05423770472407341,-7.766875743865967
1.7294923396851607e+18,0.06727857887744904,-0.04307553172111511,-7.759408473968506
1.7294923396911608e+18,0.022534258663654327,-0.039798129349946976,-7.7369256019592285
1.729492339697161e+18,0.09148554503917694,-0.050909340381622314,-7.859449863433838
1.729492339703161e+18,0.013737166300415993,-0.010730566456913948,-7.952844142913818
1.7294923397091612e+18,0.0571136474609375,0.009443312883377075,-7.935328960418701
1.7294923397151613e+18,0.018995869904756546,-0.01047471072524786,-7.934634685516357
1.7294923397211615e+18,0.04587719589471817,0.044811397790908813,-8.011690139770508
1.7294923397241615e+18,0.012754464522004128,0.002969766966998577,-8.075950622558594
1.7294923397331617e+18,-0.02875656820833683,0.10110640525817871,-8.112361907958984
1.7294923397391619e+18,-0.02355986461043358,0.02102701924741268,-8.11186408996582
1.729492339745162e+18,-0.04347635433077812,-0.021528692916035652,-8.198463439941406
1.729492339751162e+18,-0.04308769106864929,-0.03565742075443268,-8.195042610168457
1.7294923397571622e+18,0.02830851450562477,0.05479397997260094,-8.266193389892578
1.7294923397631624e+18,-0.020139172673225403,-0.04188437759876251,-8.255311965942383
1.7294923397691625e+18,-0.042127110064029694,0.057135891169309616,-8.30472183227539
1.7294923397751626e+18,0.0630899965763092,0.07387015223503113,-8.33566665649414
1.7294923397781627e+18,0.04539109393954277,-0.04961095005273819,-8.366100311279297
1.7294923397841628e+18,-0.06296123564243317,0.06273297220468521,-8.322287559509277
1.729492339793163e+18,-0.01375308446586132,-0.018242161720991135,-8.42146110534668
1.7294923397991631e+18,0.006911289878189564,-0.0015984645579010248,-8.472240447998047
1.7294923398051633e+18,-0.01012783870100975,-0.08062155544757843,-8.571273803710938
1.7294923398111634e+18,-0.03303743898868561,0.014706578105688095,-8.454853057861328
1.7294923398171635e+18,0.008237525820732117,-0.020056461915373802,-8.531021118164062
1.7294923398231636e+18,0.0012034091632813215,0.036031268537044525,-8.523416519165039
1.7294923398291638e+18,-0.09922315925359726,-0.013632315210998058,-8.56682014465332
1.7294923398321638e+18,0.04602593556046486,0.035258375108242035,-8.632235527038574
1.729492339841164e+18,-0.007372181862592697,-0.043432608246803284,-8.662452697753906
1.7294923398471642e+18,0.025039460510015488,0.029369834810495377,-8.719000816345215
1.7294923398531643e+18,0.047463301569223404,-0.009775185026228428,-8.827427864074707
1.7294923398591644e+18,-0.026175346225500107,-0.010907732881605625,-8.748799324035645
1.7294923398651645e+18,0.001615594606846571,-0.004463660530745983,-8.812623023986816
1.7294923398711647e+18,-0.05472520738840103,-0.02254219353199005,-8.801103591918945
1.7294923398771648e+18,-0.1183089166879654,0.07068224251270294,-8.779525756835938
1.7294923398801649e+18,0.043646641075611115,0.06101594120264053,-8.819236755371094
1.729492339889165e+18,-0.08189626783132553,-0.02326461859047413,-8.95749568939209
1.7294923398951652e+18,0.023417606949806213,0.05717771500349045,-8.935025215148926
1.7294923399011653e+18,0.003445426933467388,0.002780572045594454,-8.918540000915527
1.7294923399071654e+18,-0.017277928069233894,-0.0016172381583601236,-9.000835418701172
1.7294923399131656e+18,0.016235226765275,-0.041398972272872925,-9.044754028320312
1.7294923399191657e+18,-0.05664891004562378,-0.004339111968874931,-9.011054992675781
1.7294923399251658e+18,0.04571658372879028,-0.09247221797704697,-9.046536445617676
1.729492339931166e+18,-0.021849922835826874,0.05107453465461731,-8.968524932861328
1.729492339937166e+18,-0.03817399591207504,-0.030203888192772865,-9.070578575134277
1.7294923399401661e+18,-0.037527889013290405,0.005426147021353245,-9.041253089904785
1.7294923399461663e+18,-0.03329870104789734,-0.010980812832713127,-9.0892333984375
1.7294923399521664e+18,0.03154977411031723,-0.01793723925948143,-9.096264839172363
1.7294923399581665e+18,-0.03875570744276047,-0.017542868852615356,-9.182729721069336
1.7294923399641667e+18,0.13018184900283813,0.018146157264709473,-9.13074779510498
1.7294923399701668e+18,-0.013873480260372162,-0.05563608556985855,-9.123160362243652
1.729492339976167e+18,0.013391654938459396,-0.0049187904223799706,-9.1064453125
1.729492339982167e+18,-0.024105101823806763,-0.05173887312412262,-9.155266761779785
1.7294923399881672e+18,0.0401250496506691,-0.016523227095603943,-9.238624572753906
1.7294923399941673e+18,0.06676565110683441,0.027136031538248062,-9.191429138183594
1.7294923400001674e+18,0.03672754392027855,0.03763774782419205,-9.260700225830078
1.7294923400091676e+18,0.026683572679758072,-0.0188965555280447,-9.263544082641602
1.7294923400151677e+18,-0.009273268282413483,-0.02462572418153286,-9.24032974243164
1.7294923400211679e+18,-0.007638014853000641,-0.05901198461651802,-9.195310592651367
1.729492340027168e+18,0.07570265978574753,0.0006481893360614777,-9.294821739196777
1.729492340030168e+18,0.02810210920870304,0.038507405668497086,-9.298229217529297
1.7294923400361682e+18,-0.0827927216887474,0.035432349890470505,-9.366995811462402
1.7294923400421683e+18,0.030572351068258286,-0.0028255311772227287,-9.286368370056152
1.7294923400511685e+18,0.03358592838048935,-0.02260405570268631,-9.345365524291992
1.7294923400571686e+18,0.0011371485888957977,0.005098942667245865,-9.246814727783203
1.7294923400601687e+18,0.11705361306667328,-0.00032310280948877335,-9.342799186706543
1.7294923400661688e+18,0.10870421677827835,0.024642176926136017,-9.389362335205078
1.729492340072169e+18,-0.030070170760154724,-0.01776430569589138,-9.348021507263184
1.729492340078169e+18,0.04645032063126564,-0.000782783143222332,-9.329977035522461
1.7294923400811692e+18,-0.0006247572600841522,0.0002607163041830063,-9.429935455322266
1.7294923400901693e+18,0.00424896739423275,-0.08495613932609558,-9.482026100158691
1.7294923400961695e+18,0.06148432195186615,-0.043037816882133484,-9.469121932983398
1.7294923400991695e+18,0.070062056183815,0.017643101513385773,-9.423057556152344
1.7294923401051697e+18,0.04242606833577156,-0.0057019880041480064,-9.513473510742188
1.7294923401111698e+18,0.013508731499314308,0.018201421946287155,-9.495869636535645
1.72949234011717e+18,-0.037319496273994446,-0.08303504437208176,-9.4849214553833
1.72949234012317e+18,0.03563317656517029,-0.03456776216626167,-9.58159065246582
1.7294923401291702e+18,0.021742060780525208,-0.0755763128399849,-9.451753616333008
1.7294923401351703e+18,-0.10181188583374023,0.0049905478954315186,-9.46481704711914
1.7294923401411704e+18,0.052906133234500885,0.04991763085126877,-9.468757629394531
1.7294923401471706e+18,-0.021523114293813705,-0.10487491637468338,-9.442567825317383
1.7294923401531707e+18,0.06916669756174088,-0.0031993575394153595,-9.505992889404297
1.7294923401591708e+18,-0.024630166590213776,0.0005608033388853073,-9.489420890808105
1.729492340165171e+18,0.06695175915956497,0.04030616208910942,-9.513891220092773
1.7294923401741711e+18,0.0477377250790596,-0.024233728647232056,-9.579695701599121
1.7294923401771712e+18,0.10573519766330719,0.024004697799682617,-9.580126762390137
1.7294923401831713e+18,0.08532523363828659,0.0009757634252309799,-9.556378364562988
1.7294923401891715e+18,0.0726546198129654,-0.053147945553064346,-9.63191032409668
1.7294923401981716e+18,0.0048736222088336945,-0.07623555511236191,-9.580673217773438
1.7294923402041718e+18,0.0694785863161087,-0.07761178910732269,-9.612951278686523
1.729492340213172e+18,0.13124853372573853,0.03836521506309509,-9.601171493530273
1.729492340216172e+18,0.025276966392993927,-0.1380464732646942,-9.614335060119629
1.7294923402251722e+18,0.09867966920137405,0.017950136214494705,-9.700360298156738
1.7294923402281723e+18,-0.04354632645845413,-0.0626552551984787,-9.697368621826172
1.7294923402341724e+18,0.15152710676193237,-0.08998265862464905,-9.609416961669922
1.7294923402401725e+18,0.0367632657289505,-0.04022328183054924,-9.643985748291016
1.7294923402491727e+18,0.0858960896730423,-0.12161891162395477,-9.698412895202637
1.729492340258173e+18,0.015315040946006775,-0.009275048971176147,-9.674195289611816
1.729492340264173e+18,0.03408623859286308,-0.03727855160832405,-9.715643882751465
1.7294923402731732e+18,0.015689857304096222,-0.03779420256614685,-9.701403617858887
1.7294923402791734e+18,0.11072269082069397,-0.03786492347717285,-9.719388961791992
1.7294923402881736e+18,0.04304562136530876,0.008835189044475555,-9.689282417297363
1.7294923402971738e+18,0.03820638358592987,-0.06344974040985107,-9.653013229370117
1.729492340306174e+18,0.0027428865432739258,-0.03354472666978836,-9.715826034545898
1.729492340312174e+18,-0.013422518968582153,-0.06823214888572693,-9.73827838897705
1.7294923403211743e+18,0.07640860974788666,-0.05967719107866287,-9.706988334655762
1.7294923403301745e+18,0.10275356471538544,-0.06634931266307831,-9.73694133758545
1.7294923403391747e+18,0.05928144231438637,-0.0018678456544876099,-9.741608619689941
1.7294923403451748e+18,0.06578623503446579,-0.013868384063243866,-9.784634590148926
1.729492340354175e+18,0.00652853399515152,0.001734074205160141,-9.747302055358887
1.729492340360175e+18,0.12773406505584717,-0.0017854012548923492,-9.777362823486328
1.7294923403721754e+18,0.011308040469884872,-0.10396027565002441,-9.742879867553711
1.7294923403781755e+18,0.034697093069553375,-0.021903114393353462,-9.818489074707031
1.7294923403901757e+18,0.10192167013883591,0.008451256901025772,-9.777941703796387
1.729492340399176e+18,0.019429367035627365,-0.04560308903455734,-9.7539701461792
1.729492340408176e+18,0.018333211541175842,-0.08248993754386902,-9.832830429077148
1.7294923404141763e+18,0.024898968636989594,-0.028089527040719986,-9.827116012573242
1.7294923404231764e+18,-0.007411926984786987,0.013171032071113586,-9.848845481872559
1.7294923404321766e+18,0.03258899226784706,-0.041728995740413666,-9.816383361816406
1.7294923404381768e+18,0.00035743415355682373,-0.08959595113992691,-9.919907569885254
1.729492340447177e+18,0.12434890121221542,-0.012008748948574066,-9.864020347595215
1.7294923404561772e+18,0.09825587272644043,-0.060819823294878006,-9.809431076049805
1.7294923404651773e+18,0.03469207510352135,-0.08403007686138153,-9.905081748962402
1.7294923404741775e+18,0.06300604343414307,-0.036341145634651184,-9.834941864013672
1.7294923404831777e+18,0.08491843938827515,-0.11683174222707748,-9.783854484558105
1.729492340492178e+18,0.07993587106466293,-0.022786997258663177,-9.868494033813477
1.729492340501178e+18,0.06569817662239075,-0.016943123191595078,-9.873208045959473
1.7294923405101783e+18,0.13582782447338104,0.0035603418946266174,-9.892919540405273
1.7294923405191785e+18,0.03884829580783844,-0.014449074864387512,-9.786164283752441
1.7294923405281787e+18,0.023763388395309448,-0.047385599464178085,-9.775421142578125
1.729492340537179e+18,-0.006903417408466339,-0.06755754351615906,-9.840953826904297
1.729492340546179e+18,0.05186208337545395,-0.13192227482795715,-9.811661720275879
1.7294923405551793e+18,0.04949268326163292,-0.05876368656754494,-9.914773941040039
1.7294923405641795e+18,0.00282837450504303,-0.10227608680725098,-9.887017250061035
1.7294923405761797e+18,0.044151898473501205,-0.12094786763191223,-9.884172439575195
1.72949234058518e+18,0.055960044264793396,-0.09984970837831497,-9.927464485168457
1.72949234059418e+18,0.03891433775424957,-0.07390469312667847,-9.916732788085938
1.7294923406031803e+18,0.04333341866731644,-0.09746773540973663,-9.882712364196777
1.7294923406121805e+18,0.1021498292684555,-0.06949322670698166,-9.80853271484375
1.7294923406211807e+18,0.031354039907455444,-0.12486680597066879,-9.956153869628906
1.7294923406301809e+18,0.13741716742515564,-0.1298350989818573,-9.920626640319824
1.729492340639181e+18,0.04396605119109154,-0.011456791311502457,-9.918261528015137
1.7294923406481812e+18,0.0913628563284874,-0.06836068630218506,-9.828434944152832
1.7294923406571814e+18,0.09490644931793213,0.03634146600961685,-9.896711349487305
1.7294923406691817e+18,0.03403404355049133,-0.0796993225812912,-9.872812271118164
1.729492340678182e+18,0.03494664654135704,-0.02728237211704254,-9.980865478515625
1.729492340687182e+18,0.12762150168418884,-0.06942001730203629,-10.717543601989746
1.7294923406961823e+18,0.008590854704380035,-0.12418478727340698,-11.47956371307373
1.7294923407051825e+18,0.05096844583749771,-0.06949490308761597,-11.623605728149414
1.7294923407141827e+18,0.13408203423023224,-0.16056740283966064,-11.653571128845215
1.729492340726183e+18,0.07993464916944504,-0.017655599862337112,-11.618249893188477
1.729492340735183e+18,0.005820609629154205,-0.11271807551383972,-11.746623992919922
1.7294923407441833e+18,0.09261786192655563,-0.03164644166827202,-11.730063438415527
1.7294923407531835e+18,0.10442732274532318,-0.09435990452766418,-11.747190475463867
1.7294923407621837e+18,0.037499215453863144,-0.06905744224786758,-11.840230941772461
1.7294923407711839e+18,0.09081269800662994,-0.06015903875231743,-11.728599548339844
1.729492340780184e+18,0.05342631787061691,-0.05794515833258629,-11.75655746459961
1.7294923407891843e+18,0.007761605083942413,-0.07317350804805756,-11.62480640411377
1.7294923407981844e+18,0.03929555416107178,-0.03276566416025162,-11.73465633392334
1.7294923408071846e+18,0.09419368952512741,-0.09724865853786469,-11.771272659301758
1.7294923408161848e+18,0.06798612326383591,0.015796326100826263,-11.7037353515625
1.729492340825185e+18,0.0778084397315979,-0.06341321021318436,-11.782623291015625
1.7294923408341852e+18,0.09024298191070557,-0.019056890159845352,-11.818737030029297
1.7294923408431854e+18,0.15010127425193787,-0.15715453028678894,-11.806068420410156
1.7294923408521856e+18,0.043868184089660645,-0.07310400158166885,-11.782054901123047
1.7294923408641859e+18,0.13213077187538147,-0.10619322210550308,-11.83323860168457
1.729492340873186e+18,0.06478695571422577,-0.02888406440615654,-11.871111869812012
1.7294923408821862e+18,0.14628437161445618,-0.14367277920246124,-11.77324390411377
1.7294923408911864e+18,0.08537619560956955,-0.0693567544221878,-11.89922046661377
1.7294923409001866e+18,0.08319897204637527,-0.10964521020650864,-11.853978157043457
1.7294923409091868e+18,0.04514588043093681,-0.12519384920597076,-11.870099067687988
1.729492340918187e+18,0.001849159598350525,-0.018853910267353058,-11.825331687927246
1.7294923409271872e+18,0.05157647281885147,-0.07990623265504837,-11.937466621398926
1.7294923409361874e+18,0.08159676194190979,-0.04335957020521164,-11.903291702270508
1.7294923409481876e+18,0.08484303206205368,-0.08466404676437378,-11.806242942810059
1.7294923409571878e+18,0.023157797753810883,-0.1515345722436905,-11.865911483764648
1.729492340963188e+18,0.12312233448028564,-0.06973670423030853,-11.8897066116333
1.7294923409751882e+18,0.11075469851493835,-0.0996001735329628,-11.830755233764648
1.7294923409841884e+18,-0.0028643980622291565,-0.1051916629076004,-11.828255653381348
1.7294923409901885e+18,0.05018087103962898,-0.06692235916852951,-11.800103187561035
