timestamp,gyro_x,gyro_y,gyro_z
1.7294923315969882e+18,0.0027805150020867586,-0.0006328795570880175,0.0015009818598628044
1.7294923316029883e+18,-0.0017936602234840393,0.0009399683913215995,0.0010875550797209144
1.7294923316089884e+18,0.00027525456971488893,0.0031512633431702852,0.002056300174444914
1.7294923316149885e+18,-0.00042241913615725935,-0.0016571187879890203,-0.0008867348660714924
1.7294923316209887e+18,-0.0013527025002986193,0.0005190277588553727,-0.0001722965098451823
1.7294923316269888e+18,0.0010865111835300922,0.0009759456734173,0.00028549571288749576
1.729492331632989e+18,-0.00043321881094016135,0.00035933093749918044,0.0004910989082418382
1.729492331638989e+18,0.000340480386512354,0.0009107249788939953,-0.0012482715537771583
1.729492331641989e+18,-0.0011261890176683664,-0.000577532802708447,-0.00051948765758425
1.7294923316479892e+18,0.0011679304298013449,0.00031588159617967904,0.0012438854901120067
1.7294923316539894e+18,4.8621295718476176e-05,0.003482782980427146,0.00042594526894390583
1.7294923316599895e+18,0.0003273918409831822,-0.0017078713281080127,0.002392553724348545
1.7294923316659896e+18,0.0008807086851447821,-0.002895667217671871,0.00033372308826074004
1.7294923316719898e+18,-0.0010046567767858505,0.0017997565446421504,9.088344813790172e-05
1.72949233167799e+18,-0.0033254947047680616,0.0006152046844363213,0.00021895770623814315
1.72949233168399e+18,3.5811797260976164e-06,0.0002061072736978531,-0.00034058562596328557
1.7294923316899901e+18,0.00027779536321759224,0.001185059081763029,-0.0003051543899346143
1.7294923316959903e+18,-0.0012558470480144024,0.002511273603886366,-0.0038947146385908127
1.7294923316989903e+18,-0.0013731459621340036,0.0011356890900060534,0.0011925880098715425
1.7294923317049905e+18,-0.000564177636988461,-0.0008683025953359902,-0.0009265962289646268
1.7294923317109906e+18,0.0019282957073301077,0.0015233305748552084,-0.0003332109481561929
1.7294923317139907e+18,0.0018968068761751056,-0.00047080658259801567,0.001233718590810895
1.7294923317199908e+18,-0.0014573202934116125,-0.0008568307966925204,0.0019286473980173469
1.729492331725991e+18,0.0003544304345268756,0.0007763427565805614,-0.0009283841354772449
1.729492331731991e+18,-0.00034003349719569087,0.0010652659693732858,-0.00011254843411734328
1.729492331734991e+18,-0.0003379923291504383,-0.0033065963070839643,-0.00018064267351292074
1.7294923317409912e+18,-0.0009246125700883567,0.0014279484748840332,-0.0008426522836089134
1.7294923317469914e+18,0.0005841916427016258,-0.002637679222971201,0.0005859039374627173
1.7294923317529915e+18,-0.001145973103120923,0.0012488281354308128,-0.0008124263258650899
1.7294923317589916e+18,-0.0007300824509002268,0.0007146285497583449,-0.0003398300032131374
1.7294923317649917e+18,-0.0017905608983710408,-0.0009512201067991555,-0.0005448081064969301
1.7294923317709919e+18,1.7608886992093176e-05,-0.00019255718507338315,-0.0005636381101794541
1.729492331776992e+18,-0.0011601988226175308,-0.0016270846826955676,0.00021114626724738628
1.7294923317829921e+18,0.0005354913882911205,0.00024549508816562593,0.006149992346763611
1.7294923317859922e+18,-0.0015574764693155885,-0.0029941394459456205,0.0012740630190819502
1.7294923317919923e+18,-0.0007938704802654684,0.0010893261060118675,0.002787709003314376
1.7294923318009925e+18,0.002729940926656127,0.0014245662605389953,-3.595974703785032e-05
1.7294923318039926e+18,-0.0037486578803509474,-0.0014602356823161244,0.002899650251492858
1.7294923318099927e+18,0.002236235188320279,0.0025061205960810184,-0.0022613315377384424
1.729492331818993e+18,0.002305736532434821,0.0001494681346230209,0.002516568871214986
1.729492331821993e+18,-0.001096393447369337,-0.002059895545244217,0.0025181120727211237
1.729492331827993e+18,-0.0022572411689907312,0.0017239016015082598,-0.003416600404307246
1.7294923318339932e+18,-0.00044306364725343883,-0.000935775984544307,-0.0022033601999282837
1.7294923318399933e+18,-0.0013180761598050594,-0.0008966689347289503,-0.0021016038954257965
1.7294923318429934e+18,-0.0011103625874966383,-8.534012158634141e-05,-0.0012168216053396463
1.7294923318489935e+18,0.003207926172763109,0.0015917248092591763,0.0006813643267378211
1.7294923318549937e+18,-0.0017909782472997904,-0.002208324149250984,-0.0024325523991137743
1.7294923318609938e+18,0.0007903410005383193,0.0010332275414839387,0.0005214980337768793
1.729492331866994e+18,0.00042747045517899096,-0.0007649604231119156,0.00044810777762904763
1.729492331869994e+18,-0.0013073451118543744,0.0011730579426512122,-0.0018689879216253757
1.729492331875994e+18,-0.002214655978605151,-0.0024904238525778055,0.0026187149342149496
1.7294923318819942e+18,-0.0014036542270332575,-0.0021904963068664074,-0.0019433599663898349
1.7294923318879944e+18,0.0007401658222079277,0.00016288922051899135,-0.0009352865163236856
1.7294923318939945e+18,-0.0010208069579675794,-1.0340919288864825e-05,-0.0029657476115971804
1.7294923318969946e+18,-0.0006820303970016539,0.0010445459047332406,-0.0012021693401038647
1.7294923319029947e+18,-0.000849242031108588,-0.0018815043149515986,0.002969566034153104
1.7294923319089948e+18,0.0017573105869814754,-0.00042263520299457014,-0.0008112772484309971
1.729492331914995e+18,0.0014981701970100403,0.0026835796888917685,0.002075888216495514
1.729492331920995e+18,0.0014442283427342772,0.00039993575774133205,-0.0011251791147515178
1.7294923319269952e+18,0.0001627150923013687,-0.0024416018277406693,0.0010042352369055152
1.7294923319329953e+18,-0.0014417050406336784,0.0016555601032450795,-0.002694549970328808
1.7294923319389955e+18,-0.0026993663050234318,-4.8944792069960386e-05,0.0029090452007949352
1.7294923319449956e+18,0.0010120882652699947,-0.0006340036052279174,-0.000981454155407846
1.7294923319479956e+18,-0.0020162935834378004,0.0009098788141272962,-0.0016542720841243863
1.7294923319539958e+18,-0.0008060705149546266,-0.0011967035243287683,0.0008758983458392322
1.729492331959996e+18,0.0017219024011865258,0.00030023802537471056,-0.0014653820544481277
1.729492331962996e+18,0.000641108606941998,0.0006961100152693689,-0.0008162264130078256
1.7294923319719962e+18,0.0001982855173991993,-0.0005899115931242704,0.0009407574543729424
1.7294923319749962e+18,0.0019692250061780214,-0.002036286983639002,0.001975644612684846
1.7294923319809964e+18,-0.0001360025053145364,-0.0019934161100536585,-0.0005909459432587028
1.7294923319869965e+18,0.004607836250215769,0.0008111156057566404,0.0006577523308806121
1.7294923319929966e+18,0.00183655705768615,0.000423685007262975,0.001880784286186099
1.7294923319989967e+18,0.0005372382001951337,0.0004036594182252884,-0.0007206975715234876
1.7294923320049969e+18,-0.0036976845003664494,0.0001753001706674695,-0.0011333103757351637
1.729492332010997e+18,-9.739577944856137e-05,0.0016388428630307317,0.00037892558611929417
1.729492332016997e+18,-0.001027110731229186,-0.0004708954365924001,0.001739282626658678
1.7294923320199972e+18,0.0031418183352798223,-0.0019287108443677425,0.002096364740282297
1.7294923320259973e+18,-0.00046836756519041955,-0.0004442742501851171,0.00021808220481034368
1.7294923320319974e+18,-0.0005292940768413246,-0.001835066475905478,0.0010757732670754194
1.7294923320379976e+18,-0.00027079120627604425,-0.003038667608052492,-0.001599199022166431
1.7294923320439977e+18,-0.004824001342058182,0.0005047855083830655,0.002803283277899027
1.7294923320469978e+18,-0.0024249893613159657,4.979559889761731e-05,-0.0011720511829480529
1.729492332052998e+18,0.00012192769645480439,-0.0008371943258680403,-0.000525849696714431
1.729492332058998e+18,-0.0016943510854616761,-0.002354852156713605,-0.003886439139023423
1.7294923320649981e+18,0.0004479927010834217,0.001433502766303718,-0.0016474485164508224
1.7294923320709983e+18,-0.0013049034168943763,-0.0038219785783439875,0.000651539652608335
1.7294923320769984e+18,0.0011308944085612893,0.0006719203083775938,0.0009030275978147984
1.7294923320829985e+18,0.0014953291974961758,-0.0003789908951148391,-0.001004240708425641
1.7294923320859986e+18,-0.001525761908851564,0.0015472809318453074,-0.00048582415911369026
1.7294923320919987e+18,-0.0017003740649670362,0.0016589321894571185,0.0006326722213998437
1.7294923320979988e+18,0.003043915145099163,-0.00015518265718128532,0.0014207223430275917
1.729492332103999e+18,0.001930970000103116,0.0002256216248497367,0.0016667593736201525
1.729492332109999e+18,-0.0003581926575861871,-0.0003768776950892061,-0.0005127819604240358
1.7294923321129992e+18,0.00043734131031669676,0.00037757912650704384,7.466173883585725e-06
1.7294923321189993e+18,0.0032856122124940157,0.0013235107762739062,0.0028942369390279055
1.7294923321249994e+18,0.002261837013065815,-0.00022372277453541756,0.0009541988256387413
1.7294923321309996e+18,0.0009273801697418094,-0.0033773998729884624,0.0012876165565103292
1.7294923321369997e+18,-0.0006972723640501499,-0.0015409821644425392,-0.0014962621498852968
1.7294923321429998e+18,0.002795108826830983,1.3984768884256482e-05,-0.0015539438463747501
1.729492332149e+18,-0.0007406119839288294,-5.0139551603933796e-05,-0.003500870894640684
1.729492332152e+18,0.0007024867227301002,0.0006098829908296466,-0.001620874390937388
1.729492332158e+18,-0.0006707301363348961,-0.0015938191208988428,0.0009321387624368072
1.7294923321640003e+18,0.00034253016929142177,-0.0021489497739821672,0.0017398991622030735
1.7294923321700004e+18,-0.0019138823263347149,0.00025972051662392914,0.0002607000060379505
1.7294923321760005e+18,-0.002148606115952134,-0.0020748847164213657,-0.00109506631270051
1.7294923321820006e+18,0.0005932359490543604,0.00036263332003727555,-0.0006681198719888926
1.7294923321880008e+18,0.0003826855681836605,0.00011099842959083617,0.002098375465720892
1.729492332194001e+18,0.0012016873806715012,-0.001575715490616858,-0.00146015256177634
1.729492332200001e+18,-0.0002824934490490705,-0.0018182137282565236,-0.00041779078310355544
1.7294923322060012e+18,0.001805986394174397,-0.0005974446539767087,0.0003102089394815266
1.7294923322120013e+18,-0.0032529067248106003,-0.0034095305018126965,-0.0012046571355313063
1.7294923322180014e+18,0.0004832142440136522,0.001018921029753983,-0.0017864799592643976
1.7294923322210015e+18,0.000961040030233562,-0.0010303232120350003,-0.0009769666939973831
1.7294923322270016e+18,-0.0007807423826307058,0.0020846084225922823,-0.00041064672404900193
1.7294923322330017e+18,-0.015435472130775452,-0.010513853281736374,-0.0012844715965911746
1.7294923322390019e+18,-0.0704614669084549,-0.05031655356287956,0.001904164208099246
1.729492332242002e+18,-0.10081019252538681,-0.07451929897069931,0.000483642186736688
1.729492332248002e+18,-0.1606965959072113,-0.11518382281064987,0.0014851476298645139
1.7294923322540022e+18,-0.218328595161438,-0.15143446624279022,-0.0007960338261909783
1.7294923322600023e+18,-0.26361969113349915,-0.1862587183713913,0.0014772224240005016
1.7294923322660024e+18,-0.2861499786376953,-0.20345528423786163,0.0041162604466080666
1.7294923322720026e+18,-0.28332340717315674,-0.2099270224571228,-0.0020623181480914354
1.7294923322750026e+18,-0.2747708559036255,-0.20903505384922028,0.0008127028704620898
1.7294923322840028e+18,-0.22987160086631775,-0.192072331905365,0.0005952956853434443
1.729492332290003e+18,-0.19784601032733917,-0.17891931533813477,0.0046088513918221
1.729492332296003e+18,-0.17624390125274658,-0.16711053252220154,-0.0008811686420813203
1.7294923322990031e+18,-0.1670120805501938,-0.16515995562076569,0.002936673816293478
1.7294923323050033e+18,-0.16474425792694092,-0.161769300699234,4.559157241601497e-05
1.7294923323110034e+18,-0.1775469332933426,-0.1651134341955185,-0.0021448915358632803
1.7294923323170035e+18,-0.1961163878440857,-0.17253774404525757,-0.003705183509737253
1.7294923323230036e+18,-0.21890103816986084,-0.18358750641345978,-0.0006037877174094319
1.7294923323260037e+18,-0.23035621643066406,-0.18288514018058777,-0.001825773622840643
1.7294923323320038e+18,-0.24003377556800842,-0.18675152957439423,0.002267573494464159
1.729492332338004e+18,-0.23848645389080048,-0.1844661384820938,-0.00013668887550011277
1.729492332344004e+18,-0.22387172281742096,-0.1748814582824707,-0.000684423721395433
1.7294923323500042e+18,-0.19944407045841217,-0.16406399011611938,-0.003551884088665247
1.7294923323560044e+18,-0.16546876728534698,-0.15123312175273895,-0.003276826348155737
1.7294923323620045e+18,-0.1357203871011734,-0.1358727067708969,0.0009596573654562235
1.7294923323680046e+18,-0.11035961657762527,-0.1254376769065857,5.660491297021508e-06
1.7294923323740047e+18,-0.09662606567144394,-0.11682362854480743,0.0015617164317518473
1.7294923323800049e+18,-0.0909436047077179,-0.10544012486934662,-0.00013265712186694145
1.729492332386005e+18,-0.09227261692285538,-0.10362350195646286,-0.0011492775520309806
1.7294923323950052e+18,-0.10612103343009949,-0.09660449624061584,-0.0019359552534297109
1.7294923324040054e+18,-0.10789716988801956,-0.08522255718708038,0.0002771642175503075
1.7294923324100055e+18,-0.10119195282459259,-0.07741869240999222,6.327539449557662e-05
1.7294923324190057e+18,-0.07749608159065247,-0.060862790793180466,0.0005320495693013072
1.7294923324250058e+18,-0.051018115133047104,-0.05198182910680771,0.00016863481141626835
1.729492332431006e+18,-0.027434661984443665,-0.04430384561419487,-0.0015876836841925979
1.7294923324400061e+18,-0.003322493052110076,-0.027239739894866943,1.919938949868083e-05
1.7294923324460063e+18,0.012512175366282463,-0.021233627572655678,0.000249763106694445
1.7294923324550065e+18,0.012657638639211655,-0.010322910733520985,-0.00013933249283581972
1.7294923324610066e+18,0.006721452809870243,-0.0043127937242388725,0.0025359238497912884
1.7294923324700068e+18,0.005163107067346573,0.005920308642089367,-0.0026936358772218227
1.729492332479007e+18,0.008202507160604,0.016526678577065468,-0.0020295276772230864
1.729492332485007e+18,0.016547605395317078,0.021986747160553932,-0.003272181609645486
1.7294923324940073e+18,0.039030637592077255,0.029431788250803947,-0.0008516102097928524
1.7294923325030075e+18,0.05945316329598427,0.039662282913923264,0.0007387690129689872
1.7294923325120077e+18,0.0728951022028923,0.049459896981716156,-8.080180850811303e-05
1.7294923325180078e+18,0.08044924587011337,0.05143127217888832,-0.004023180343210697
1.729492332530008e+18,0.07323845475912094,0.059793870896101,-0.000988645013421774
1.7294923325390083e+18,0.06756467372179031,0.06817412376403809,-0.0009640149655751884
1.7294923325510085e+18,0.06526822596788406,0.06964097917079926,-0.0014472375623881817
1.7294923325600087e+18,0.0770268514752388,0.07250872999429703,0.0011050306493416429
1.7294923325660088e+18,0.08390964567661285,0.07626592367887497,0.0002518382971175015
1.729492332575009e+18,0.09943021088838577,0.07936093211174011,-0.0023533583153039217
1.7294923325840092e+18,0.1028527021408081,0.0804418995976448,-0.001473060343414545
1.7294923325960095e+18,0.09754496812820435,0.08771077543497086,-0.0009907835628837347
1.7294923326050097e+18,0.09148772805929184,0.08176247030496597,-0.0017777219181880355
1.7294923326140099e+18,0.08757296204566956,0.08625106513500214,-0.0012454841053113341
1.72949233262001e+18,0.08461175113916397,0.08136902004480362,0.0011588487541303039
1.7294923326290102e+18,0.09030875563621521,0.08309102803468704,0.0011804028181359172
1.7294923326380104e+18,0.09269503504037857,0.08457875996828079,0.002238224959000945
1.7294923326470106e+18,0.09831014275550842,0.08520278334617615,-0.0006416005780920386
1.7294923326560108e+18,0.09472072124481201,0.0863862857222557,-0.0018785754218697548
1.729492332662011e+18,0.09282983094453812,0.08195866644382477,0.00013253698125481606
1.729492332671011e+18,0.08566934615373611,0.08096597343683243,-0.002390833105891943
1.7294923326770112e+18,0.08350762724876404,0.07694673538208008,-0.0010892157442867756
1.7294923326830113e+18,0.08088631182909012,0.0760197788476944,-0.000226643867790699
1.7294923326920115e+18,0.07926931977272034,0.07689622044563293,-7.3448900366202e-05
1.7294923326980116e+18,0.08077897131443024,0.07713767141103745,-0.003622644580900669
1.7294923327070118e+18,0.08217877894639969,0.0735771507024765,-0.0008202068274840713
1.729492332713012e+18,0.08007946610450745,0.07466156035661697,0.0020976103842258453
1.7294923327220122e+18,0.08010958135128021,0.07173057645559311,-0.002227951306849718
1.7294923327280123e+18,0.07632728666067123,0.07320260256528854,0.0015724442200735211
1.7294923327340124e+18,0.07492110878229141,0.06903397291898727,-0.002758872462436557
1.7294923327400125e+18,0.07222992926836014,0.0694614052772522,0.0016348720528185368
1.7294923327460127e+18,0.07042685151100159,0.06611012667417526,0.0004972165334038436
1.7294923327550129e+18,0.0690079927444458,0.06548446416854858,-0.0024657100439071655
1.729492332761013e+18,0.07176709920167923,0.06011065095663071,0.00032599043333902955
1.729492332767013e+18,0.06980542838573456,0.06354019790887833,-0.0005349005805328488
1.7294923327760133e+18,0.07468733936548233,0.05996707081794739,0.0023641949519515038
1.7294923327850135e+18,0.07153381407260895,0.058199405670166016,0.001235565054230392
1.7294923327910136e+18,0.06942439079284668,0.05858359485864639,-0.0002471775223966688
1.7294923328000138e+18,0.06385017931461334,0.053292613476514816,0.001318671042099595
1.729492332806014e+18,0.060415200889110565,0.052523281425237656,0.0012596595333889127
1.7294923328150141e+18,0.058012474328279495,0.04694909229874611,-0.0008585916366428137
1.7294923328210143e+18,0.055425871163606644,0.04806242883205414,0.0008747651590965688
1.7294923328270144e+18,0.05774503946304321,0.04602384567260742,-0.0014795907773077488
1.7294923328360146e+18,0.05676424503326416,0.04586512967944145,-0.0015507414937019348
1.7294923328420147e+18,0.058021850883960724,0.043427422642707825,3.2249023206532e-05
1.7294923328480148e+18,0.060055386275053024,0.043288640677928925,-0.0023456821218132973
1.729492332857015e+18,0.05636598542332649,0.04352054372429848,-0.0025079515762627125
1.7294923328630152e+18,0.05441318079829216,0.042729150503873825,-0.001997519051656127
1.7294923328690153e+18,0.054061297327280045,0.04262431338429451,-0.0019581331871449947
1.7294923328750154e+18,0.051212918013334274,0.03918588533997536,-0.0011520269326865673
1.7294923328840156e+18,0.05219059810042381,0.03916111961007118,-0.0005861136014573276
1.7294923328930158e+18,0.050333429127931595,0.034749776124954224,-0.0015669791027903557
1.729492332902016e+18,0.04933733120560646,0.033366162329912186,0.000577102298848331
1.7294923329110162e+18,0.04870370030403137,0.03396286070346832,0.0025727010797709227
1.7294923329170163e+18,0.046592358499765396,0.0307974424213171,-5.6927266996353865e-05
1.7294923329230164e+18,0.04561594873666763,0.03315088525414467,0.0005496132071129978
1.7294923329290166e+18,0.044462718069553375,0.03167509287595749,-0.0004031094431411475
1.7294923329380168e+18,0.045507512986660004,0.033439818769693375,-0.0020325735677033663
1.729492332944017e+18,0.043179526925086975,0.029430000111460686,-0.0004829523677472025
1.729492332950017e+18,0.043512992560863495,0.03155403211712837,-0.002736894879490137
1.7294923329560172e+18,0.041124068200588226,0.031566865742206573,-0.00189548684284091
1.7294923329650173e+18,0.042249683290719986,0.02798832394182682,-0.001014128909446299
1.7294923329710175e+18,0.04035229980945587,0.02774490788578987,-0.002602966036647558
1.7294923329770176e+18,0.04182549566030502,0.033388759940862656,-0.0010156264761462808
1.7294923329860178e+18,0.04170751944184303,0.028718145564198494,-0.0020670490339398384
1.729492332992018e+18,0.042751386761665344,0.029481958597898483,-0.002192879794165492
1.729492333001018e+18,0.041032664477825165,0.02855706959962845,-0.0009013106464408338
1.7294923330070182e+18,0.04134446009993553,0.030026020482182503,0.0013577872887253761
1.7294923330160184e+18,0.036402806639671326,0.023373495787382126,-0.0004226777236908674
1.7294923330220186e+18,0.039784785360097885,0.024873679503798485,-0.0025956984609365463
1.7294923330280187e+18,0.03718426451086998,0.022706860676407814,-0.0019153845496475697
1.7294923330340188e+18,0.03773748502135277,0.023405611515045166,-0.0007171081379055977
1.729492333040019e+18,0.039088767021894455,0.022293416783213615,-0.003198837162926793
1.729492333043019e+18,0.03497638180851936,0.021769706159830093,-0.00017362559447064996
1.7294923330520192e+18,0.03704588860273361,0.023611359298229218,-0.00022050825646147132
1.7294923330580193e+18,0.032513685524463654,0.023099742829799652,-0.0031844687182456255
1.7294923330640195e+18,0.03412972390651703,0.02245110459625721,-0.0002728680847212672
1.7294923330700196e+18,0.03186974674463272,0.024888116866350174,-0.001995271537452936
1.7294923330760197e+18,0.0332452617585659,0.021969476714730263,0.0007379568996839225
1.7294923330820198e+18,0.035201240330934525,0.02325749397277832,-0.000629643676802516
1.72949233308802e+18,0.03231219947338104,0.0221108328551054,0.000460463750641793
1.72949233309402e+18,0.03661760687828064,0.021642431616783142,-0.0020142870489507914
1.7294923331000202e+18,0.03578309714794159,0.021610839292407036,-0.0002804987598210573
1.7294923331060204e+18,0.038614265620708466,0.023317236453294754,-0.0033729185815900564
1.7294923331120205e+18,0.03315223008394241,0.022601235657930374,0.00096736173145473
1.7294923331180206e+18,0.03497312217950821,0.022755803540349007,0.0012621022760868073
1.7294923331240207e+18,0.035382360219955444,0.023630985990166664,-0.00208456558175385
1.7294923331300209e+18,0.03419686108827591,0.0218950342386961,-0.0012787713203579187
1.729492333136021e+18,0.03403420001268387,0.020689021795988083,-0.0015920714940875769
1.729492333139021e+18,0.03549638390541077,0.020683882758021355,-0.002324521541595459
1.7294923331450212e+18,0.03157791867852211,0.02107132226228714,-0.0005229230737313628
1.7294923331510213e+18,0.03290063142776489,0.01831742748618126,-0.006026127841323614
1.7294923331570214e+18,0.0315864272415638,0.01945340633392334,-0.004159484524279833
1.7294923331630216e+18,0.03141799569129944,0.02271910198032856,-0.0010692927753552794
1.7294923331660216e+18,0.03190590813755989,0.02305428683757782,-0.0014799649361521006
1.7294923331720218e+18,0.02905481867492199,0.023253634572029114,-0.0014172466471791267
1.729492333178022e+18,0.029132062569260597,0.023316340520977974,-0.0011851422023028135
1.729492333184022e+18,0.029249804094433784,0.020992131903767586,-0.0015122501645237207
1.7294923331900221e+18,0.027664436027407646,0.02146870642900467,-0.001136214123107493
1.7294923331990223e+18,0.027298657223582268,0.01758469082415104,0.0015632230788469315
1.7294923332050225e+18,0.027221394702792168,0.01763274520635605,-0.0015652352012693882
1.7294923332110226e+18,0.026962433010339737,0.016912827268242836,-0.0009061188902705908
1.7294923332170227e+18,0.02606390416622162,0.019240383058786392,-0.001223649480380118
1.7294923332230228e+18,0.027534853667020798,0.018050791695713997,0.0002447590231895447
1.729492333229023e+18,0.02610224299132824,0.01733797788619995,-0.002987972926348448
1.729492333232023e+18,0.026927432045340538,0.015146370977163315,-0.00037919043097645044
1.7294923332380232e+18,0.020237088203430176,0.017169177532196045,-0.002783568110316992
1.7294923332440233e+18,0.021263549104332924,0.016478346660733223,-0.0006347992457449436
1.7294923332500234e+18,0.02215234935283661,0.015049494802951813,-0.003408382646739483
1.7294923332560236e+18,0.02170119434595108,0.0188271664083004,0.003901931457221508
1.7294923332590236e+18,0.018481366336345673,0.016378076747059822,3.1796516850590706e-05
1.7294923332650237e+18,0.02235584519803524,0.015003526583313942,-0.0015760483220219612
1.7294923332710239e+18,0.026470091193914413,0.018117833882570267,-0.003939446527510881
1.729492333277024e+18,0.031168155372142792,0.019543727859854698,-0.0033842981792986393
1.7294923332830241e+18,0.026954906061291695,0.019502246752381325,-0.0007633009809069335
1.7294923332920243e+18,0.025215934962034225,0.01579861529171467,-0.00293235806748271
1.7294923332980244e+18,0.024628520011901855,0.0190426092594862,-0.000577662605792284
1.7294923333010245e+18,0.020140860229730606,0.01616726815700531,-0.001248975400812924
1.7294923333070246e+18,0.017041895538568497,0.012853645719587803,-0.002575827296823263
1.7294923333130248e+18,0.013922076672315598,0.013095449656248093,-0.0007720907451584935
1.729492333319025e+18,0.01595010608434677,0.013804101385176182,-0.001906443852931261
1.729492333322025e+18,0.0171462744474411,0.01406921911984682,-0.0010217557428404689
1.729492333328025e+18,0.01821156218647957,0.0157151035964489,-0.0016325353644788265
1.7294923333370253e+18,0.021786419674754143,0.014572437852621078,0.0020737498998641968
1.7294923333430254e+18,0.022536305710673332,0.01879640482366085,-0.0025326090399175882
1.7294923333490255e+18,0.021458065137267113,0.0171781238168478,0.004134175833314657
1.7294923333550257e+18,0.020830441266298294,0.01760357804596424,0.0013463683426380157
1.7294923333610258e+18,0.01864713244140148,0.019635505974292755,0.0003816543030552566
1.729492333367026e+18,0.01855701021850109,0.018327172845602036,-0.0006238765199668705
1.729492333373026e+18,0.018483635038137436,0.01659025065600872,0.0022662458941340446
1.7294923333790262e+18,0.017012953758239746,0.014785239472985268,0.0012028084602206945
1.7294923333850263e+18,0.019127007573843002,0.01640712469816208,-0.0021315282210707664
1.7294923333940265e+18,0.019664455205202103,0.015896417200565338,-0.0009003579616546631
1.7294923334000266e+18,0.015112113207578659,0.013075766153633595,-0.0013484018854796886
1.7294923334090268e+18,0.01966499723494053,0.017365993931889534,-0.002325840061530471
1.729492333415027e+18,0.019367972388863564,0.017094366252422333,-0.0009072344982996583
1.729492333421027e+18,0.015131396241486073,0.016733121126890182,-0.0026030014269053936
1.7294923334270272e+18,0.016821762546896935,0.014142493717372417,-0.0017344735097140074
1.7294923334330273e+18,0.014213791117072105,0.01428424846380949,-0.0034894286654889584
1.7294923334390275e+18,0.013939076103270054,0.012299485504627228,-0.003022311255335808
1.7294923334450276e+18,0.014060535468161106,0.010748852975666523,-0.0019679053220897913
1.7294923334510277e+18,0.01616775244474411,0.013851398602128029,-0.0005239246529527009
1.7294923334570278e+18,0.01313141081482172,0.010473893024027348,-0.001782916602678597
1.729492333463028e+18,0.012762763537466526,0.012856362387537956,-0.0007955069886520505
1.729492333469028e+18,0.010488943196833134,0.014280997216701508,-0.0033165081404149532
1.7294923334750282e+18,0.0130453547462821,0.00883886031806469,-1.5260535292327404e-05
1.7294923334810284e+18,0.01606455072760582,0.008935827761888504,-0.0003843229205813259
1.7294923334870285e+18,0.013197126798331738,0.012079264037311077,-0.003469528164714575
1.7294923334930286e+18,0.012712202966213226,0.010598178952932358,-0.0006698430515825748
1.7294923334990287e+18,0.013250194489955902,0.008147026412189007,-0.0011599031277000904
1.7294923335050289e+18,0.011886690743267536,0.009931330569088459,8.987041655927896e-05
1.729492333511029e+18,0.013934293761849403,0.010138924233615398,-0.001466441317461431
1.729492333517029e+18,0.011737922206521034,0.009751043282449245,-0.001403809292241931
1.7294923335230292e+18,0.008514038287103176,0.008470837026834488,0.0008242485928349197
1.7294923335290294e+18,0.00930971559137106,0.010537399910390377,8.269661338999867e-05
1.7294923335380296e+18,0.006926488131284714,0.008692532777786255,0.0009784146677702665
1.7294923335440297e+18,0.011438929475843906,0.01201399601995945,-0.002523279283195734
1.7294923335500298e+18,0.009152529761195183,0.009517903439700603,-0.001370396581478417
1.72949233355603e+18,0.011160067282617092,0.011960403993725777,0.000314380566123873
1.72949233356203e+18,0.011055903509259224,0.011531091295182705,-0.0019632880575954914
1.7294923335710303e+18,0.008804699406027794,0.008526798337697983,-0.0019442560151219368
1.7294923335800305e+18,0.01014280878007412,0.008189764805138111,0.0018296679481863976
1.7294923335890307e+18,0.006801345385611057,0.006093596573919058,0.0019978319760411978
1.7294923335950308e+18,0.005868375767022371,0.006735693197697401,-0.0020029006991535425
1.729492333604031e+18,0.004027345683425665,0.005526980385184288,0.0008803749806247652
1.729492333610031e+18,0.002705625956878066,0.009543117135763168,0.0018437453545629978
1.7294923336160312e+18,0.003555780742317438,0.007375698536634445,-0.001570463296957314
1.7294923336250314e+18,0.005716743879020214,0.01117745041847229,-0.0009238728671334684
1.7294923336310316e+18,0.005814674310386181,0.006207196973264217,0.001722973771393299
1.7294923336370317e+18,0.006714786868542433,0.006304973736405373,4.9304915592074394e-05
1.7294923336430318e+18,0.00894101057201624,0.01067246776074171,-0.00031851252424530685
1.729492333649032e+18,0.007815622724592686,0.006549530196934938,-0.0009618777548894286
1.729492333658032e+18,0.00671258382499218,0.007081450894474983,0.001356047112494707
1.7294923336640323e+18,0.00530625507235527,0.007560216821730137,0.0014544010628014803
1.7294923336700324e+18,0.003822899889200926,0.01119289267808199,-0.0003876156988553703
1.7294923336760325e+18,-0.00045617762953042984,0.013659365475177765,0.0014640670269727707
1.7294923336820326e+18,0.006755550857633352,0.009595033712685108,0.0023494125343859196
1.7294923336880328e+18,0.005105404648929834,0.008974261581897736,-0.0014627815689891577
1.729492333694033e+18,0.006004528608173132,0.011828431859612465,6.552162813022733e-05
1.729492333703033e+18,0.006678529549390078,0.0095282644033432,-0.0026411297731101513
1.7294923337090332e+18,0.010739420540630817,0.007803214713931084,-0.0012672399170696735
1.7294923337150333e+18,0.009505338035523891,0.007857108488678932,0.0013933588052168489
1.7294923337210335e+18,0.00686028553172946,0.006679743528366089,0.002029809169471264
1.7294923337270336e+18,0.009096242487430573,0.006923660170286894,-0.0015740072121843696
1.7294923337330337e+18,0.006845701020210981,0.0044366708025336266,-0.003055957145988941
1.7294923337390339e+18,0.005489765666425228,0.011027229949831963,-0.0006985438521951437
1.729492333748034e+18,0.0066412463784217834,0.008073841221630573,0.0010939252097159624
1.7294923337540342e+18,0.006702021695673466,0.0066118924878537655,-0.002641836181282997
1.7294923337600343e+18,0.005095222964882851,0.00746422354131937,-0.0007672564825043082
1.7294923337660344e+18,0.00462781498208642,0.007386982440948486,-0.0005754738813266158
1.7294923337720346e+18,0.0012052934616804123,0.011398752219974995,-0.0025983189698308706
1.7294923337780347e+18,0.0021540240850299597,0.009221109561622143,0.00137628975789994
1.7294923337840348e+18,0.0018961168825626373,0.009389261715114117,-0.001149252406321466
1.729492333793035e+18,0.003450751304626465,0.006820737384259701,-0.0006706747226417065
1.7294923337990351e+18,0.0038346238434314728,0.005059659481048584,0.00010260147973895073
1.7294923338050353e+18,0.004715743474662304,0.005918622016906738,0.0017029810696840286
1.7294923338140355e+18,0.004586569033563137,0.004545574542135,0.0013547602575272322
1.7294923338230356e+18,0.0008742985082790256,0.0053663114085793495,0.003482737811282277
1.7294923338290358e+18,0.0025136671029031277,0.006654092576354742,0.00026309106033295393
1.729492333835036e+18,0.003657635534182191,0.003720966400578618,-0.002622026251628995
1.729492333844036e+18,0.0035390034317970276,0.0012971675023436546,-0.0001713717938400805
1.7294923338500362e+18,0.008075151592493057,-0.0004702784353867173,-0.00039585548802278936
1.7294923338590364e+18,0.01431360375136137,-0.005366823170334101,-0.0015225829556584358
1.7294923338650365e+18,0.017988111823797226,-0.010195369832217693,-0.00021383442799560726
1.7294923338710367e+18,0.023336032405495644,-0.013809691183269024,-0.001591425621882081
1.7294923338800369e+18,0.023522375151515007,-0.019520344212651253,0.0014306920347735286
1.729492333886037e+18,0.024514973163604736,-0.020084531977772713,0.001568333711475134
1.7294923338950372e+18,0.021644068881869316,-0.022115623578429222,0.0013080141507089138
1.7294923338980372e+18,0.017887502908706665,-0.019717710092663765,0.00045407586731016636
1.7294923339070374e+18,0.01700025051832199,-0.02120104432106018,0.0003727111907210201
1.7294923339130376e+18,0.015247718431055546,-0.01836293935775757,0.00013989771832711995
1.7294923339190377e+18,0.012526663020253181,-0.01995597779750824,0.0013999788789078593
1.7294923339250378e+18,0.013974807225167751,-0.021391570568084717,-0.003288663923740387
1.729492333934038e+18,0.016947992146015167,-0.019848452880978584,0.0027448656037449837
1.7294923339400381e+18,0.01746826246380806,-0.025344183668494225,0.0005008696462027729
1.7294923339460383e+18,0.016609055921435356,-0.02020779624581337,0.001038812450133264
1.7294923339520384e+18,0.013543697074055672,-0.019385885447263718,0.0029793260619044304
1.7294923339580385e+18,0.01214697863906622,-0.020954975858330727,0.0014161253347992897
1.7294923339640387e+18,0.010833255015313625,-0.01812247931957245,-0.000774608226493001
1.7294923339700388e+18,0.008692734874784946,-0.015155686065554619,0.0005773804732598364
1.729492333976039e+18,0.006180454045534134,-0.014927923679351807,0.0012395305093377829
1.729492333985039e+18,0.0033654747530817986,-0.014311212114989758,-0.0008116509998217225
1.7294923339910392e+18,0.0058569773100316525,-0.01179628074169159,0.001955366460606456
1.7294923339970394e+18,0.0019061501370742917,-0.012339020147919655,0.0031366683542728424
1.7294923340060396e+18,0.0019480217015370727,-0.00881121028214693,0.00314953550696373
1.7294923340150397e+18,-0.000685349979903549,-0.008191515691578388,0.0013761869631707668
1.7294923340180398e+18,0.0005351026193238795,-0.009794811718165874,0.0007461556233465672
1.72949233402404e+18,-0.0015298613579943776,-0.009721601381897926,0.0009614648297429085
1.7294923340330401e+18,-0.0031136763282120228,-0.00395002868026495,0.002246771240606904
1.7294923340390403e+18,-0.007486371323466301,-0.004041964653879404,0.005239197053015232
1.7294923340420403e+18,-0.004962300881743431,-0.002675033872947097,0.0005800881190225482
1.7294923340510405e+18,-0.00896932277828455,-0.0024402698036283255,0.00039383373223245144
1.7294923340570406e+18,-0.008595194667577744,-0.0013451740378513932,-0.0011568241752684116
1.7294923340630408e+18,-0.009132600389420986,0.0026184115558862686,0.002384420484304428
1.729492334069041e+18,-0.010732595808804035,0.003734341822564602,0.00273150741122663
1.729492334075041e+18,-0.00751869659870863,0.001535013085231185,0.0006481597665697336
1.7294923340840412e+18,-0.013500817120075226,0.0014748740941286087,0.003974404186010361
1.7294923340900413e+18,-0.016279328614473343,0.00414607860147953,0.0007825815118849277
1.7294923340960415e+18,-0.014058348722755909,0.005972824990749359,0.0016648696037009358
1.7294923341020416e+18,-0.01829858310520649,0.003629748011007905,0.004320010542869568
1.7294923341080417e+18,-0.020034266635775566,0.0023260812740772963,0.0032502207905054092
1.7294923341140419e+18,-0.017782175913453102,0.009631142020225525,0.00397191196680069
1.729492334120042e+18,-0.018313821405172348,0.0077928295359015465,-0.0004801838658750057
1.729492334126042e+18,-0.017553552985191345,0.009026981890201569,0.001981346867978573
1.7294923341320422e+18,-0.013956895098090172,0.011404893361032009,0.002326379530131817
1.7294923341380424e+18,-0.015764793381094933,0.007962698116898537,0.002878681058064103
1.7294923341470426e+18,-0.021938960999250412,0.00763878645375371,0.0010637773666530848
1.7294923341500426e+18,-0.01699182763695717,0.010215062648057938,0.004301128908991814
1.7294923341560428e+18,-0.02036379836499691,0.012249959632754326,0.0017342714127153158
1.729492334165043e+18,-0.026271741837263107,0.006227951496839523,0.0026858856435865164
1.729492334171043e+18,-0.02295147255063057,0.006726285442709923,0.002844196744263172
1.7294923341770432e+18,-0.024306606501340866,0.010040467604994774,0.0025516042951494455
1.7294923341830433e+18,-0.02409270592033863,0.007604594808071852,0.0002666502259671688
1.7294923341890435e+18,-0.02454010397195816,0.005901828873902559,0.0048161218874156475
1.7294923341950436e+18,-0.017198441550135612,0.00654043210670352,0.0017373739974573255
1.7294923342010437e+18,-0.01743493601679802,0.004515132401138544,0.004362637177109718
1.7294923342070438e+18,-0.017115473747253418,0.005658817011862993,0.002941910410299897
1.729492334213044e+18,-0.015460164286196232,0.006678053643554449,0.001107355346903205
1.729492334219044e+18,-0.01797519065439701,0.005111800506711006,0.0029907512944191694
1.7294923342250442e+18,-0.020807355642318726,0.006069773808121681,0.0019174024928361177
1.7294923342310444e+18,-0.02020648866891861,0.008510209619998932,0.00017178733833134174
1.7294923342370445e+18,-0.0226840078830719,0.00660411361604929,0.003419940359890461
1.7294923342400445e+18,-0.02285209856927395,0.006009876728057861,0.0025974377058446407
1.7294923342490447e+18,-0.023366546258330345,0.006012709345668554,0.0017147829057648778
1.7294923342550449e+18,-0.022936774417757988,0.002683214144781232,0.003778826678171754
1.729492334261045e+18,-0.018616514280438423,0.003862435696646571,0.0029359026812016964
1.729492334267045e+18,-0.02006160095334053,0.0032688560895621777,0.0013991119340062141
1.7294923342730452e+18,-0.015773164108395576,0.0012796507216989994,0.001638269517570734
1.7294923342790454e+18,-0.021395327523350716,0.002042554784566164,0.0029477360658347607
1.7294923342850455e+18,-0.019728224724531174,0.004349398426711559,0.0022462094202637672
1.7294923342910456e+18,-0.02261955849826336,0.0019174548797309399,0.0016288519836962223
1.7294923342970458e+18,-0.021532490849494934,0.002772656735032797,0.0010146790882572532
1.729492334303046e+18,-0.023934610188007355,-0.001633002539165318,0.0011794752208516002
1.729492334309046e+18,-0.022670578211545944,0.0002334734017495066,0.001608723308891058
1.7294923343150461e+18,-0.023673204705119133,-0.0017370058922097087,0.0037071320693939924
1.7294923343210463e+18,-0.022889744490385056,-0.0036112917587161064,0.002553187310695648
1.7294923343270464e+18,-0.023956969380378723,-0.0033151889219880104,0.0032636113464832306
1.7294923343360466e+18,-0.021639667451381683,-0.00078487244900316,0.0038609951734542847
1.7294923343420467e+18,-0.018911229446530342,-0.005720054730772972,-0.0011265270877629519
1.7294923343450468e+18,-0.019609322771430016,-0.0031817860435694456,0.0037798965349793434
1.729492334351047e+18,-0.02111215516924858,-0.00114541151560843,0.004021842032670975
1.729492334357047e+18,-0.019485527649521828,-0.004677234683185816,0.002954350784420967
1.7294923343630472e+18,-0.022065280005335808,-0.00568410474807024,0.0015310744056478143
1.7294923343690473e+18,-0.021098922938108444,-0.0042209867388010025,0.00039780756924301386
1.7294923343750474e+18,-0.02169039286673069,-0.007097302936017513,0.00044209836050868034
1.7294923343810476e+18,-0.023783033713698387,-0.010030592791736126,0.0045038750395178795
1.7294923343870477e+18,-0.019157879054546356,-0.00772270280867815,0.0009211702272295952
1.7294923343930478e+18,-0.02024027146399021,-0.009432980790734291,0.001979752676561475
1.729492334399048e+18,-0.019971443340182304,-0.00745764747262001,-0.002762800082564354
1.729492334405048e+18,-0.020499613136053085,-0.008196091279387474,0.0026026125997304916
1.7294923344110482e+18,-0.02109544165432453,-0.00749459583312273,0.0036539211869239807
1.7294923344200484e+18,-0.018035555258393288,-0.013208074495196342,0.0030891266651451588
1.7294923344260485e+18,-0.01801724173128605,-0.007519246079027653,0.0039161331951618195
1.7294923344290486e+18,-0.018613293766975403,-0.008138041011989117,0.0017993180081248283
1.7294923344350487e+18,-0.023105772212147713,-0.006413069553673267,0.004370607435703278
1.7294923344410488e+18,-0.019894877448678017,-0.008743739686906338,0.0017142931465059519
1.729492334447049e+18,-0.020424138754606247,-0.010269887745380402,0.0003850565990433097
1.7294923344560492e+18,-0.023816734552383423,-0.007689934689551592,0.0015394832007586956
1.7294923344590492e+18,-0.02546500414609909,-0.006602761801332235,0.0031658275984227657
1.7294923344650493e+18,-0.025171807035803795,-0.009246929548680782,0.000876394915394485
1.7294923344710495e+18,-0.024951355531811714,-0.009195977821946144,0.0005201194435358047
1.7294923344770496e+18,-0.022637560963630676,-0.010268690064549446,0.0021969489753246307
1.7294923344800497e+18,-0.02334079146385193,-0.011136115528643131,-0.0015060025034472346
1.7294923344860498e+18,-0.02117898501455784,-0.008229444734752178,-0.0008944991277530789
1.72949233449505e+18,-0.020123418420553207,-0.009676645509898663,0.0017831536242738366
1.72949233450105e+18,-0.022927099838852882,-0.008337743580341339,0.0009921346791088581
1.7294923345070502e+18,-0.023233281448483467,-0.012282544746994972,0.001008140854537487
1.7294923345130504e+18,-0.02241090126335621,-0.012221389450132847,0.002616944955661893
1.7294923345190505e+18,-0.025796590372920036,-0.007260830141603947,0.0004859121982008219
1.7294923345220506e+18,-0.025848090648651123,-0.00876818411052227,0.0005339669296517968
1.7294923345280507e+18,-0.0247971024364233,-0.010209858417510986,0.002129292581230402
1.7294923345340508e+18,-0.028065435588359833,-0.01133648306131363,0.0004690556088462472
1.729492334540051e+18,-0.02498999424278736,-0.01121705025434494,0.003283004742115736
1.729492334546051e+18,-0.024813992902636528,-0.00963341910392046,-0.00047224387526512146
1.7294923345520512e+18,-0.019567588344216347,-0.012018954381346703,0.003645883407443762
1.7294923345580513e+18,-0.019773682579398155,-0.008473142981529236,0.002895859768614173
1.7294923345640515e+18,-0.01770404726266861,-0.007536253891885281,0.0023627360351383686
1.7294923345700516e+18,-0.015153177082538605,-0.007951939478516579,0.0006250994047150016
1.7294923345760517e+18,-0.01864546723663807,-0.009237576276063919,0.002451073145493865
1.7294923345820518e+18,-0.022261077538132668,-0.011599591001868248,0.0006018772255629301
1.729492334591052e+18,-0.022588172927498817,-0.006859632674604654,0.0023036464117467403
1.7294923345970522e+18,-0.026791783049702644,-0.005780739244073629,0.0009922082535922527
1.7294923346030523e+18,-0.026222269982099533,-0.006030021235346794,-0.0009491882519796491
1.7294923346090524e+18,-0.026916036382317543,-0.0054469481110572815,0.0016788127832114697
1.7294923346150525e+18,-0.02383676916360855,-0.008021645247936249,0.0032671394292265177
1.7294923346210527e+18,-0.026318125426769257,-0.005203293636441231,0.0006670817383565009
1.7294923346270528e+18,-0.024362552911043167,-0.008094917982816696,0.0005968186305835843
1.729492334633053e+18,-0.022199874743819237,-0.009357006289064884,-0.0005297807510942221
1.729492334639053e+18,-0.024656280875205994,-0.007996990345418453,0.002215806394815445
1.7294923346450532e+18,-0.023461710661649704,-0.006807820871472359,0.0005868971347808838
1.7294923346510533e+18,-0.026055237278342247,-0.009790601208806038,0.003355499589815736
1.7294923346570534e+18,-0.02640623413026333,-0.007814651355147362,0.0005260264733806252
1.7294923346630536e+18,-0.029849626123905182,-0.008123915642499924,0.001084318500943482
1.7294923346690537e+18,-0.028018465265631676,-0.00748373381793499,0.0032742302864789963
1.7294923346750538e+18,-0.032120801508426666,-0.006976071745157242,0.002489035716280341
1.729492334684054e+18,-0.02915128320455551,-0.004504067823290825,0.0025369818322360516
1.7294923346900541e+18,-0.028734879568219185,-0.006911131087690592,0.005645107943564653
1.7294923346930542e+18,-0.03177863359451294,-0.009068443439900875,0.003302479861304164
1.7294923346990543e+18,-0.028848284855484962,-0.00949418917298317,0.0013475915184244514
1.7294923347050545e+18,-0.02916991151869297,-0.007524873595684767,-9.623204823583364e-05
1.7294923347110546e+18,-0.02911352552473545,-0.007020043674856424,0.0014926138101145625
1.7294923347170547e+18,-0.02685040794312954,-0.008097391575574875,-0.0005530479829758406
1.729492334726055e+18,-0.027213726192712784,-0.004897749982774258,0.0026398045010864735
1.729492334732055e+18,-0.02660193480551243,-0.00622656662017107,0.0013878722675144672
1.7294923347380552e+18,-0.027215657755732536,-0.008923198096454144,0.0023732155095785856
1.7294923347440553e+18,-0.0294365044683218,-0.009450473822653294,4.2943982407450676e-05
1.7294923347500554e+18,-0.027059385553002357,-0.010449700057506561,0.0010565033880993724
1.7294923347560556e+18,-0.02691313996911049,-0.010201549157500267,0.0016707833856344223
1.7294923347620557e+18,-0.026282859966158867,-0.00801557581871748,0.0031571784056723118
1.7294923347680558e+18,-0.026965608820319176,-0.010571842081844807,0.00201914319768548
1.729492334774056e+18,-0.02704615704715252,-0.009868865832686424,-0.0009165389928966761
1.7294923347830561e+18,-0.021160010248422623,-0.005417552776634693,0.002168497769162059
1.7294923347890563e+18,-0.02465144731104374,-0.0075960527174174786,0.002251408062875271
1.7294923347950564e+18,-0.020651012659072876,-0.006144019775092602,0.0009081378229893744
1.7294923348040566e+18,-0.026619162410497665,-0.010962063446640968,0.0013700585113838315
1.7294923348070566e+18,-0.026994941756129265,-0.008790477178990841,-0.00023790460545569658
1.7294923348160568e+18,-0.02685445547103882,-0.013217023573815823,0.0029126075096428394
1.729492334822057e+18,-0.024357525631785393,-0.012707804329693317,8.238712325692177e-05
1.729492334828057e+18,-0.024230539798736572,-0.011993848718702793,0.0020973689388483763
1.7294923348340572e+18,-0.02217840403318405,-0.014673633500933647,0.0005522505380213261
1.7294923348430574e+18,-0.017858630046248436,-0.0122006731107831,0.0015232311561703682
1.7294923348490575e+18,-0.020652955397963524,-0.014192255213856697,0.0014335325686261058
1.7294923348550577e+18,-0.018809804692864418,-0.011269206181168556,0.0029214085079729557
1.7294923348610578e+18,-0.019654888659715652,-0.012256979010999203,0.0003838606644421816
1.729492334867058e+18,-0.024432269856333733,-0.010421901941299438,0.0007774641271680593
1.729492334873058e+18,-0.029884696006774902,-0.014398873783648014,0.000133890425786376
1.7294923348790582e+18,-0.026733368635177612,-0.014993459917604923,0.0005543832667171955
1.7294923348850583e+18,-0.029537661001086235,-0.015444082207977772,-0.0006735733477398753
1.7294923348910584e+18,-0.028174899518489838,-0.01667165756225586,0.0032164829317480326
1.7294923348970586e+18,-0.03044314682483673,-0.014091174118220806,0.001563935074955225
1.7294923349060588e+18,-0.025107942521572113,-0.016878420487046242,0.0009849312482401729
1.7294923349090588e+18,-0.023298848420381546,-0.016135456040501595,0.0010267451871186495
1.729492334915059e+18,-0.02054169587790966,-0.014591631479561329,0.001507600536569953
1.7294923349240591e+18,-0.019315078854560852,-0.014919379726052284,-0.0017587858019396663
1.7294923349300593e+18,-0.01700560189783573,-0.01586776226758957,0.0002831209567375481
1.7294923349360594e+18,-0.024119945243000984,-0.0206674225628376,0.001739240251481533
1.7294923349420595e+18,-0.02268914133310318,-0.0205348189920187,0.002218854147940874
1.7294923349480596e+18,-0.02308502048254013,-0.0169731006026268,-0.001635716762393713
1.7294923349510597e+18,-0.02307736501097679,-0.018635284155607224,0.0006540387403219938
1.7294923349570598e+18,-0.025994719937443733,-0.015192924998700619,0.0014406294794753194
1.72949233496306e+18,-0.027256080880761147,-0.012967443093657494,-0.00029065145645290613
1.72949233496906e+18,-0.0263835359364748,-0.016694827005267143,-0.0007260977290570736
1.7294923349750602e+18,-0.025971386581659317,-0.01518249325454235,-0.0003650140715762973
1.7294923349810604e+18,-0.023199081420898438,-0.01433572731912136,0.002003603847697377
1.7294923349870605e+18,-0.022221622988581657,-0.013751843012869358,3.6165351048111916e-05
1.7294923349930606e+18,-0.01608433946967125,-0.014466718770563602,0.0019795040134340525
1.7294923350020608e+18,-0.014156484976410866,-0.015077398158609867,3.9187842048704624e-05
1.729492335008061e+18,-0.017804158851504326,-0.01646871492266655,-0.0004016188904643059
1.729492335014061e+18,-0.015058321878314018,-0.01751379854977131,0.0008301538764499128
1.7294923350200612e+18,-0.019865142181515694,-0.016595765948295593,-0.000850467593409121
1.7294923350260613e+18,-0.02404037117958069,-0.016760658472776413,0.00016307190526276827
1.7294923350320614e+18,-0.026213638484477997,-0.01466911006718874,-0.00023859599605202675
1.7294923350350615e+18,-0.023039259016513824,-0.017066579312086105,-0.001872092834673822
1.7294923350410616e+18,-0.022074155509471893,-0.014447457157075405,0.0032710465602576733
1.7294923350470618e+18,-0.024142371490597725,-0.015943702310323715,0.00017946399748325348
1.729492335053062e+18,-0.024448517709970474,-0.020079344511032104,0.004189901519566774
1.729492335059062e+18,-0.022644901648163795,-0.01583804190158844,0.0018876499962061644
1.7294923350650621e+18,-0.02281482145190239,-0.01367720402777195,0.002303722547367215
1.7294923350710623e+18,-0.019877614453434944,-0.016179051250219345,0.0014337996253743768
1.7294923350770624e+18,-0.021298106759786606,-0.016005629673600197,0.0004065129323862493
1.7294923350830625e+18,-0.021731814369559288,-0.01337798498570919,0.002275326754897833
1.7294923350890627e+18,-0.02258126065135002,-0.01492205448448658,0.0027736532501876354
1.7294923350950628e+18,-0.026241641491651535,-0.015084853395819664,0.00038411389687098563
1.729492335101063e+18,-0.024148806929588318,-0.01498799491673708,-0.00011509447358548641
1.729492335107063e+18,-0.023153016343712807,-0.016310807317495346,0.0001810036483220756
1.7294923351130632e+18,-0.026241807267069817,-0.013326537795364857,-0.00024412659695371985
1.7294923351190633e+18,-0.02599407732486725,-0.014072255231440067,0.0011823596432805061
1.7294923351250634e+18,-0.022987617179751396,-0.016325460746884346,0.0010182149708271027
1.7294923351310636e+18,-0.024560842663049698,-0.013702303171157837,-0.0007444692309945822
1.7294923351370637e+18,-0.021479837596416473,-0.010937522165477276,0.0004885120433755219
1.7294923351400637e+18,-0.021300524473190308,-0.012373590841889381,0.0016572705935686827
1.729492335146064e+18,-0.022341802716255188,-0.01366234291344881,0.0005670396494679153
1.729492335152064e+18,-0.021637635305523872,-0.015361670404672623,0.0028854962438344955
1.729492335158064e+18,-0.017972158268094063,-0.014658289961516857,-0.0014508459717035294
1.7294923351640643e+18,-0.022047020494937897,-0.013558333739638329,0.0018918472342193127
1.7294923351670643e+18,-0.01815483346581459,-0.012812962755560875,0.00046519358875229955
1.7294923351730644e+18,-0.01948629319667816,-0.016390066593885422,0.002040357328951359
1.7294923351790646e+18,-0.018564069643616676,-0.014701701700687408,-0.0028174438048154116
1.7294923351850647e+18,-0.0188333410769701,-0.013740500435233116,0.0009226722177118063
1.7294923351910648e+18,-0.02072528377175331,-0.012150360271334648,0.004225852433592081
1.729492335197065e+18,-0.01882276125252247,-0.0125662200152874,0.0006364546134136617
1.729492335203065e+18,-0.019253211095929146,-0.012361500412225723,0.0013131247833371162
1.7294923352120653e+18,-0.018640877678990364,-0.012869296595454216,-0.00044010032434016466
1.7294923352180654e+18,-0.018146144226193428,-0.01069671381264925,-0.0004137356299906969
1.7294923352240655e+18,-0.01738050952553749,-0.014139539562165737,0.003246334148570895
1.7294923352330657e+18,-0.019264236092567444,-0.015214036218822002,0.00038963506813161075
1.7294923352390659e+18,-0.017174726352095604,-0.013365894556045532,0.0023430970031768084
1.729492335245066e+18,-0.018037237226963043,-0.016010908409953117,-0.0017398735508322716
1.729492335251066e+18,-0.017762785777449608,-0.012535360641777515,0.0011146252509206533
1.7294923352570662e+18,-0.01955442503094673,-0.015000121667981148,0.0036771968007087708
1.7294923352630664e+18,-0.017220113426446915,-0.015459978953003883,0.0028477581217885017
1.7294923352690665e+18,-0.01963936910033226,-0.015525033697485924,-0.0010903847869485617
1.7294923352780667e+18,-0.018954899162054062,-0.011663678102195263,0.002479211427271366
1.729492335287067e+18,-0.01567218452692032,-0.013218802399933338,0.001633213716559112
1.729492335296067e+18,-0.017472142353653908,-0.012668255716562271,-0.0008061422850005329
1.7294923353050673e+18,-0.019473517313599586,-0.012265708297491074,0.003915313631296158
1.7294923353110674e+18,-0.019854998216032982,-0.015555880963802338,0.0005168060306459665
1.7294923353170675e+18,-0.017425566911697388,-0.01777079701423645,-0.0022015697322785854
1.7294923353290678e+18,-0.02018246054649353,-0.016732746735215187,0.0014484835555776954
1.729492335338068e+18,-0.019927525892853737,-0.01821095123887062,-0.001529587316326797
1.729492335344068e+18,-0.020555546507239342,-0.015555579215288162,-0.0039766328409314156
1.7294923353500682e+18,-0.021615533158183098,-0.016001543030142784,0.0009831890929490328
1.7294923353590684e+18,-0.020550737157464027,-0.016895033419132233,-0.0005732062854804099
1.7294923353650685e+18,-0.017576318234205246,-0.012373576872050762,0.0014923589769750834
1.7294923353740687e+18,-0.013563880696892738,-0.013423962518572807,0.001026758225634694
1.7294923353800689e+18,-0.016726776957511902,-0.012987109832465649,-0.0005570329958572984
1.729492335386069e+18,-0.019301816821098328,-0.012128429487347603,-0.001960220979526639
1.729492335392069e+18,-0.017643410712480545,-0.015596547164022923,0.00067184551153332
1.7294923354010693e+18,-0.01736295409500599,-0.013119528070092201,-0.001860627206042409
1.7294923354100695e+18,-0.01667998731136322,-0.014511441811919212,0.0002894509525503963
1.7294923354160696e+18,-0.019594604149460793,-0.018829524517059326,0.004225606098771095
1.7294923354220698e+18,-0.019302884116768837,-0.017014702782034874,0.0015080723678693175
1.72949233542807e+18,-0.020214641466736794,-0.02014794945716858,-0.0015329906018450856
1.72949233543407e+18,-0.016356633976101875,-0.015763232484459877,-0.0017159937415271997
1.7294923354400701e+18,-0.017550993710756302,-0.015131954103708267,0.0005280327750369906
1.7294923354460703e+18,-0.016625940799713135,-0.01615244895219803,-0.0022677562665194273
1.7294923354550705e+18,-0.012133263982832432,-0.013921651989221573,-0.0037169400602579117
1.7294923354640707e+18,-0.013714715838432312,-0.013199962675571442,0.0028790307696908712
1.7294923354730708e+18,-0.01332898810505867,-0.015505846589803696,-0.003755902172997594
1.729492335479071e+18,-0.01772230863571167,-0.012401651591062546,0.0014624050818383694
1.7294923354880712e+18,-0.015284786000847816,-0.014122899621725082,-1.3612821931019425e-05
1.7294923354940713e+18,-0.019548458978533745,-0.016233842819929123,0.0005934083601459861
1.7294923355000714e+18,-0.01790674962103367,-0.014057280495762825,-0.002199718961492181
1.7294923355060716e+18,-0.01812691241502762,-0.01773006282746792,0.0005000613746233284
1.7294923355120717e+18,-0.018319835886359215,-0.01527442131191492,0.0014255610294640064
1.7294923355180718e+18,-0.01409873366355896,-0.014035329222679138,0.0017054523341357708
1.729492335527072e+18,-0.014734101481735706,-0.012834260240197182,0.00106317107565701
1.7294923355330721e+18,-0.008462060242891312,-0.01613057218492031,0.0020809213165193796
1.7294923355390723e+18,-0.010422713123261929,-0.010875045321881771,0.002911023562774062
1.7294923355480724e+18,-0.008970439434051514,-0.012916319072246552,-0.0011268171947449446
1.7294923355540726e+18,-0.00895538181066513,-0.01482536643743515,0.003618027549237013
1.7294923355630728e+18,-0.00825963169336319,-0.01726086623966694,0.0002487624005880207
1.729492335572073e+18,-0.013194508850574493,-0.016511239111423492,0.0003295469796285033
1.7294923355810732e+18,-0.012380421161651611,-0.014496656134724617,0.0015523619949817657
1.7294923355900733e+18,-0.011082638055086136,-0.015430590137839317,0.0021926932968199253
1.7294923355990735e+18,-0.011354250833392143,-0.015110270120203495,0.0007248487090691924
1.7294923356050737e+18,-0.006271925754845142,-0.013342596590518951,-0.0008315251907333732
1.7294923356140739e+18,-0.007032107561826706,-0.014407831244170666,-0.0010931992437690496
1.729492335620074e+18,-0.0016730499919503927,-0.015045193955302238,-0.0004745811165776104
1.7294923356290742e+18,-0.004295343533158302,-0.013071170076727867,0.00012218228948768228
1.7294923356350743e+18,-0.003059530397877097,-0.014869796112179756,0.0015698685310781002
1.7294923356440745e+18,-0.007934028282761574,-0.015911845490336418,0.0036910632625222206
1.7294923356530747e+18,-0.007276150863617659,-0.01671905629336834,-0.0011276287259534001
1.7294923356590748e+18,-0.010098430328071117,-0.0145584000274539,0.00017914758063852787
1.729492335665075e+18,-0.010026268661022186,-0.01428064052015543,-0.0023553846403956413
1.729492335671075e+18,-0.010932103730738163,-0.015705358237028122,0.0008007970172911882
1.7294923356770752e+18,-0.004981198348104954,-0.016437262296676636,-0.00024414240033365786
1.7294923356830753e+18,-0.005186358466744423,-0.012943158857524395,-0.0003725089190993458
1.7294923356890755e+18,-0.0042140791192650795,-0.011988038197159767,-0.0017075797077268362
1.7294923356950756e+18,-0.001341549912467599,-0.01248107384890318,0.002401377074420452
1.7294923357010757e+18,-0.0010764115722849965,-0.012596304528415203,0.00023169221822172403
1.7294923357040758e+18,-0.00491806585341692,-0.010326865129172802,0.0010399847524240613
1.729492335710076e+18,-0.004727874416857958,-0.014204860664904118,0.0016816320130601525
1.729492335716076e+18,-0.004830194637179375,-0.010208072140812874,0.0020716486033052206
1.7294923357250762e+18,-0.005785464309155941,-0.007230591960251331,0.0012496319832280278
1.7294923357310764e+18,-0.00646273884922266,-0.009692413732409477,-0.00161119201220572
1.7294923357340764e+18,-0.006124231033027172,-0.010387841612100601,-0.0002936941455118358
1.7294923357400765e+18,-0.0044097271747887135,-0.004296217579394579,0.00150722311809659
1.7294923357460767e+18,-0.0025152789894491434,-0.008263817988336086,-0.0015507038915529847
1.7294923357520768e+18,-0.004063765984028578,-0.012087727896869183,0.00036947979242540896
1.7294923357550769e+18,-0.002507586730644107,-0.011194712482392788,0.0014047222211956978
1.729492335761077e+18,-0.0007051283027976751,-0.011829973198473454,0.0002926956512965262
1.729492335767077e+18,4.9972208216786385e-05,-0.011905023828148842,-0.0032729937229305506
1.7294923357730772e+18,-0.0015881977742537856,-0.012337476015090942,0.0015262836823239923
1.7294923357790774e+18,-0.0022971136495471,-0.012980003841221333,-0.00030911987414583564
1.7294923357850775e+18,-0.0017028955044224858,-0.015528214164078236,0.0014791557332500815
1.7294923357910776e+18,-0.0029359967447817326,-0.015353672206401825,-0.0013492944417521358
1.7294923358000778e+18,-0.007405423559248447,-0.013706585392355919,-0.0012939018197357655
1.729492335806078e+18,-0.0099153071641922,-0.01058839913457632,0.002031112788245082
1.7294923358150781e+18,-0.006706309504806995,-0.01159772276878357,0.00018047483172267675
1.7294923358210783e+18,-0.003515679854899645,-0.007379206363111734,-0.0015792347257956862
1.7294923358300785e+18,-0.0029002611991018057,-0.015816740691661835,-0.001820871839299798
1.7294923358360786e+18,-0.003687208751216531,-0.016384584829211235,0.001876217545941472
1.7294923358420787e+18,0.0027167908847332,-0.010759846307337284,-0.000376019102986902
1.7294923358480788e+18,0.002117629861459136,-0.015832483768463135,0.00018441271095070988
1.729492335854079e+18,0.005230366718024015,-0.013487858697772026,0.0019197436049580574
1.7294923358630792e+18,-2.1866289898753166e-05,-0.011068053543567657,0.0001730513176880777
1.7294923358690793e+18,-0.0006686161505058408,-0.011142506264150143,-0.002732411492615938
1.7294923358750794e+18,-0.0017243858892470598,-0.012887735851109028,0.0013414875138550997
1.7294923358810796e+18,-0.0024063042365014553,-0.013615942560136318,0.0018486499320715666
1.7294923358900797e+18,-0.0060034156776964664,-0.012348302640020847,0.0002811173617374152
1.7294923358930798e+18,-0.010530872270464897,-0.016589799895882607,-0.002897256286814809
1.72949233590208e+18,-0.005834121257066727,-0.015434171073138714,-0.00040364873711951077
1.72949233590808e+18,-0.007363969925791025,-0.01662491448223591,-0.0007968574063852429
1.7294923359140803e+18,-0.004481898155063391,-0.017078204080462456,0.0003003058081958443
1.7294923359230804e+18,-0.0018907047342509031,-0.017441200092434883,-0.003498717909678817
1.7294923359290806e+18,-0.004867481533437967,-0.01609167642891407,-8.773907029535621e-05
1.7294923359350807e+18,-0.001856715651229024,-0.014858718030154705,0.0009332256158813834
1.7294923359410808e+18,-0.004808721132576466,-0.012784442864358425,-0.0004898664774373174
1.729492335947081e+18,-0.0033450392074882984,-0.013506609946489334,-0.001136984908953309
1.729492335953081e+18,-0.005877963732928038,-0.009693998843431473,-0.002077624201774597
1.7294923359620813e+18,-0.008041282184422016,-0.009920019656419754,0.001093758037313819
1.7294923359680814e+18,-0.0038187531754374504,-0.01058340072631836,-0.00225463486276567
1.7294923359740815e+18,0.000651385635137558,-0.011487584561109543,-0.00014134179218672216
1.7294923359830817e+18,-0.0020043007098138332,-0.011522166430950165,-0.0017510552424937487
1.7294923359890819e+18,-0.0015229847049340606,-0.015161956660449505,-0.0026355802547186613
1.729492335998082e+18,-0.0011125794844701886,-0.012548734433948994,0.00012491260713431984
1.7294923360040822e+18,-0.003836969844996929,-0.010450764559209347,-0.0017008916474878788
1.7294923360130824e+18,-0.004073844291269779,-0.010218709707260132,0.0012102294713258743
1.7294923360190825e+18,-0.001105539035052061,-0.00837606843560934,-0.0018346458673477173
1.7294923360250826e+18,-0.0014675777638331056,-0.009157238528132439,0.002238941378891468
1.7294923360310828e+18,-0.0025330805219709873,-0.005394729785621166,-0.0005178718129172921
1.729492336037083e+18,-0.002485922072082758,-0.008281219750642776,-0.0003717945364769548
1.729492336046083e+18,-0.003204831387847662,-0.004572197794914246,0.00029589416226372123
1.7294923360520832e+18,-0.004189271479845047,-0.010973620228469372,-0.0013976329937577248
1.7294923360580833e+18,0.00045527913607656956,-0.004829720593988895,0.0006750127067789435
1.7294923360640835e+18,0.0010024865623563528,-0.01000204123556614,0.001607526559382677
1.7294923360700836e+18,0.0004435684240888804,-0.008040454238653183,-0.0007763857138343155
1.7294923360730836e+18,-0.0002665982465259731,-0.009324649348855019,0.0022123560775071383
1.7294923360820838e+18,-0.00042601930908858776,-0.008819338865578175,-0.0010520340874791145
1.729492336088084e+18,0.0001447484828531742,-0.005036878399550915,-0.0011403827229514718
1.729492336094084e+18,0.0011291455011814833,-0.003184240311384201,0.00041766135836951435
1.7294923361030843e+18,0.0004443179350346327,-0.007882613688707352,-0.000435440189903602
1.7294923361060844e+18,0.002722296165302396,-0.007630100008100271,0.00014311591803561896
1.7294923361120845e+18,0.00404033437371254,-0.007958981208503246,6.835794192738831e-05
1.7294923361210847e+18,0.0032993920613080263,-0.005377023946493864,0.00014384652604348958
1.7294923361270848e+18,0.0006766039878129959,-0.009651051834225655,-0.0007076403126120567
1.729492336133085e+18,0.0024398218374699354,-0.0061122034676373005,0.00280799251049757
1.729492336139085e+18,0.0047372616827487946,-0.006460709497332573,-0.00039389441371895373
1.7294923361450852e+18,0.006193678826093674,-0.0031426544301211834,0.0020249541848897934
1.7294923361510853e+18,0.006554644554853439,-0.006486501544713974,0.002902679843828082
1.7294923361540854e+18,0.0068064802326262,-0.002948785200715065,-0.0005549445049837232
1.7294923361630856e+18,0.007690982427448034,-0.005012530833482742,-0.0016520104836672544
1.7294923361690857e+18,0.009498003870248795,-0.006264342926442623,0.002797455992549658
1.7294923361750858e+18,0.004904201719909906,-0.0022803284227848053,-0.001947798882611096
1.729492336181086e+18,0.004011255688965321,-0.002463248325511813,0.0024181671906262636
1.729492336187086e+18,0.0010768130887299776,-0.004196620546281338,0.0009179937769658864
1.7294923361930862e+18,0.0037815729156136513,-0.0030630319379270077,0.002139433054253459
1.7294923361990863e+18,0.004974512383341789,-0.00018070160876959562,-0.001863207551650703
1.7294923362050865e+18,0.005451304838061333,-0.0007626482984051108,-0.000200781665625982
1.7294923362110866e+18,0.00842526089400053,-0.0010010929545387626,0.0013543326640501618
1.7294923362170867e+18,0.008591240271925926,0.00202356674708426,4.7146648284979165e-05
1.7294923362230868e+18,0.00939418375492096,-0.002728317631408572,-0.001966307172551751
1.729492336229087e+18,0.01017011422663927,-0.0009560100734233856,-0.0008281082264147699
1.729492336235087e+18,0.007185002323240042,-0.00701798964291811,0.0009695843909867108
1.7294923362410872e+18,0.006496855523437262,-0.004965943284332752,0.00044012314174324274
1.7294923362500874e+18,0.007959441281855106,-0.004587647970765829,0.00024077037232927978
1.7294923362530875e+18,0.005517436657100916,-0.0051335496827960014,-0.0005263019702397287
1.7294923362590876e+18,0.008665202185511589,-0.0034159079659730196,-0.002769635757431388
1.7294923362650877e+18,0.006042263470590115,-0.0023517911322414875,-0.0022438408341258764
1.7294923362710879e+18,0.009355664253234863,-0.0032589752227067947,0.0011006223503500223
1.729492336280088e+18,0.010631963610649109,-0.001876872149296105,1.523718674434349e-05
1.7294923362860882e+18,0.013735533691942692,-0.0006454149261116982,-0.0007788738003000617
1.7294923362920883e+18,0.015702445060014725,0.00016506339306943119,0.0018310040468350053
1.7294923362980884e+18,0.012807834893465042,-0.00025692969211377203,-6.009208664181642e-05
1.7294923363040886e+18,0.0140404487028718,-0.0024600797332823277,-0.0002408893487881869
1.7294923363100887e+18,0.012329385615885258,-0.005373303312808275,-0.002545377006754279
1.7294923363160888e+18,0.008497306145727634,-0.002257352229207754,-0.0005007546278648078
1.729492336322089e+18,0.009357094764709473,-0.0035338089801371098,-0.00011809691204689443
1.729492336328089e+18,0.009131819009780884,-0.0017877104692161083,0.0018845157464966178
1.7294923363340892e+18,0.008343381807208061,-0.0021452694199979305,-0.00106318318285048
1.7294923363400893e+18,0.009361309930682182,-0.0009522972395643592,-0.002605085028335452
1.7294923363490895e+18,0.009791082702577114,-0.0031892023980617523,-0.0022862388286739588
1.7294923363550897e+18,0.01478099450469017,-0.0025769032072275877,-9.940874588210136e-05
1.7294923363640899e+18,0.013751719146966934,-0.0020646348129957914,-0.00046980322804301977
1.72949233637009e+18,0.015077082440257072,-0.002745562233030796,0.0003502031322568655
1.72949233637609e+18,0.01602879911661148,-0.0035169338807463646,0.003433571197092533
1.7294923363820902e+18,0.014064167626202106,-0.002572814468294382,-0.00042222318006679416
1.7294923363910904e+18,0.008756374940276146,-0.001429003314115107,0.00041108083678409457
1.7294923364000906e+18,0.00856731180101633,-0.001869583735242486,-0.001983689609915018
1.7294923364030907e+18,0.004273201338946819,-0.0006255044136196375,-0.0013774570543318987
1.729492336412091e+18,0.0061049326322972775,-0.0016948108095675707,0.002819454064592719
1.729492336415091e+18,0.007150896824896336,-0.005950604099780321,-0.00258089741691947
1.729492336421091e+18,0.009248502552509308,-0.004855327308177948,-0.0007675865781493485
1.7294923364270912e+18,0.008861721493303776,-0.002531890058889985,0.00010370416566729546
1.7294923364330913e+18,0.011490261182188988,-0.005297531373798847,-0.0017375405877828598
1.7294923364390915e+18,0.013565491884946823,-0.0026358021423220634,-0.0033574248664081097
1.7294923364450916e+18,0.01296020857989788,-0.005702503956854343,-0.000738608418032527
1.7294923364510917e+18,0.0129996994510293,-0.006410227622836828,0.0022622651886194944
1.729492336460092e+18,0.011045536026358604,-0.005420097149908543,-0.00040953524876385927
1.729492336466092e+18,0.009696993045508862,-0.0032840282656252384,-0.0030339243821799755
1.7294923364720922e+18,0.010047657415270805,-0.004393365699797869,-0.0007014626753516495
1.7294923364810924e+18,0.007555155083537102,-0.0018786814762279391,-0.0010289463680237532
1.7294923364870925e+18,0.005025679245591164,0.0016816164134070277,-0.0006360430270433426
1.7294923364930926e+18,0.00849101785570383,0.000825518392957747,0.0012819916009902954
1.7294923364990927e+18,0.009737787768244743,-0.002996313851326704,-0.0009109394159168005
1.7294923365050929e+18,0.011563844978809357,-0.0021943955216556787,-0.0014128037728369236
1.729492336511093e+18,0.013007357716560364,0.0009415001841261983,-0.002626137575134635
1.7294923365200932e+18,0.010109872557222843,-0.001917553599923849,0.0010766526684165
1.7294923365260933e+18,0.011353055015206337,-0.0011733663268387318,0.002474911045283079
1.7294923365320934e+18,0.007320750970393419,-0.0025332914665341377,-0.0013015716103836894
1.7294923365410936e+18,0.007458499167114496,-0.002739113289862871,-0.000787273165769875
1.7294923365470938e+18,0.005885113030672073,-0.0016595086781308055,-0.0008855729829519987
1.729492336553094e+18,0.011380807496607304,-0.0027296659536659718,-0.00041904760291799903
1.729492336559094e+18,0.010859466157853603,-0.0048326910473406315,0.0009491668315604329
1.7294923365680942e+18,0.011662745848298073,-0.002371744718402624,-0.0007701792637817562
1.7294923365740943e+18,0.015423258766531944,-0.003246160689741373,-0.001046747900545597
1.7294923365800945e+18,0.016842735931277275,0.0011395601322874427,0.0030221398919820786
1.7294923365890947e+18,0.016503388062119484,-0.00031800183933228254,-0.004770280793309212
1.7294923365950948e+18,0.015075629577040672,0.00019398413132876158,-0.0011879706289619207
1.729492336601095e+18,0.012139873579144478,0.001170403673313558,-0.0002107329637510702
1.729492336604095e+18,0.015991201624274254,-0.002188269281759858,0.0015267428243532777
1.7294923366130952e+18,0.009524808265268803,-0.0003542717022355646,-0.0011228591902181506
1.7294923366190953e+18,0.00810360349714756,0.0011728755198419094,-0.00015730792074464262
1.7294923366250954e+18,0.010373372584581375,-0.0012478554854169488,0.0017487480072304606
1.7294923366310956e+18,0.011866612359881401,-0.0018377432134002447,0.00044318276923149824
1.7294923366370957e+18,0.012572865933179855,-2.9884977266192436e-06,0.0002837042848113924
1.7294923366430958e+18,0.01702597364783287,0.0014996249228715897,-0.00032052764436230063
1.729492336649096e+18,0.018593760207295418,0.0028891435358673334,-0.0007828858797438443
1.729492336655096e+18,0.020174918696284294,0.0017798461485654116,0.0007502489606849849
1.7294923366610962e+18,0.015786712989211082,0.0038975875359028578,0.0018184218788519502
1.7294923366670963e+18,0.01856297254562378,0.0034581515938043594,-0.0005364824901334941
1.7294923366730964e+18,0.014341761358082294,0.004043866880238056,0.00040281793917529285
1.7294923366820966e+18,0.013821986503899097,0.003986462950706482,-0.0006214056047610939
1.7294923366880968e+18,0.012232637032866478,0.007070404477417469,0.0014081589179113507
1.729492336694097e+18,0.013857421465218067,0.006870460230857134,-0.0007364407647401094
1.729492336700097e+18,0.013156655244529247,0.007615754846483469,-0.0020093005150556564
1.7294923367060972e+18,0.017373230308294296,0.007780034095048904,-0.002525724470615387
1.7294923367120973e+18,0.015453885309398174,0.0073268841952085495,0.0027081165462732315
1.7294923367210975e+18,0.01907811313867569,0.0067329793237149715,-0.001278212759643793
1.7294923367270976e+18,0.018882209435105324,0.006611381657421589,0.0017310130642727017
1.7294923367330977e+18,0.016147853806614876,0.008073432371020317,0.0012860301649197936
1.7294923367390979e+18,0.018697867169976234,0.006457536481320858,0.0008754911832511425
1.729492336745098e+18,0.01765558496117592,0.0066986423917114735,-0.0012702192179858685
1.729492336751098e+18,0.01490318588912487,0.004143876023590565,3.164848021697253e-05
1.7294923367570982e+18,0.01750055141746998,0.007539704442024231,0.0016383468173444271
1.7294923367660984e+18,0.020838938653469086,0.005752625409513712,0.00019614755001384765
1.7294923367720986e+18,0.020010188221931458,0.008491145446896553,5.938898539170623e-06
1.7294923367780987e+18,0.02257882058620453,0.005039993207901716,-0.0012688669376075268
1.729492336787099e+18,0.022292666137218475,0.007607871200889349,-0.0014313182327896357
1.729492336793099e+18,0.01921013742685318,0.004648617003113031,0.0005079867551103234
1.7294923367990991e+18,0.015532301738858223,0.0040703387930989265,0.0005914775538258255
1.7294923368050993e+18,0.01677001267671585,0.005989819299429655,0.0003483584732748568
1.7294923368110994e+18,0.017001347616314888,0.005080966278910637,-0.0011230193777009845
1.7294923368200996e+18,0.012971319258213043,0.008523278869688511,-0.0004521567898336798
1.7294923368260997e+18,0.013100623153150082,0.007199444342404604,0.00021107378415763378
1.7294923368320998e+18,0.013343979604542255,0.008614050224423409,-0.0002995207905769348
1.7294923368411e+18,0.016164228320121765,0.0040013487450778484,0.0018754057819023728
1.7294923368471002e+18,0.01348043978214264,0.006990944966673851,0.0005652871332131326
1.7294923368531003e+18,0.014790254645049572,0.005662314128130674,-0.0016450061229988933
1.7294923368591004e+18,0.015742843970656395,0.0052037425339221954,-0.0005908262683078647
1.7294923368651005e+18,0.017193341627717018,0.006717294454574585,0.004142977762967348
1.7294923368711007e+18,0.014262200333178043,0.007380966562777758,-0.0012738053919747472
1.7294923368771008e+18,0.013531772419810295,0.004440128803253174,0.001041700248606503
1.729492336886101e+18,0.011418378911912441,0.006177601870149374,-0.00356652052141726
1.729492336892101e+18,0.01155358087271452,0.006749492604285479,-0.0024359256494790316
1.7294923368981012e+18,0.012809018604457378,0.007754038088023663,0.001095708692446351
1.7294923369041014e+18,0.006246114615350962,0.009542743675410748,-0.0008719416218809783
1.7294923369101015e+18,0.013201724737882614,0.010006100870668888,0.0013017101446166635
1.7294923369161016e+18,0.010254583321511745,0.006976568605750799,-6.635980389546603e-05
1.7294923369221018e+18,0.014429785311222076,0.00900496356189251,-7.834983989596367e-05
1.729492336928102e+18,0.012840529903769493,0.006470646243542433,0.0019471361301839352
1.729492336934102e+18,0.011283294297754765,0.004262683913111687,0.001584877958521247
1.7294923369401021e+18,0.012853659689426422,0.007336394861340523,-0.0009034688118845224
1.7294923369461023e+18,0.014207765460014343,0.004274064674973488,-0.000758141337428242
1.7294923369521024e+18,0.012402684427797794,0.0076985713094472885,0.0012393401702865958
1.7294923369581025e+18,0.00854384247213602,0.008072180673480034,-0.00026075460482388735
1.7294923369641027e+18,0.015587005764245987,0.005485816393047571,0.0005483028362505138
1.7294923369701028e+18,0.012455642223358154,0.0042997803539037704,-0.0028487653471529484
1.729492336976103e+18,0.015966279432177544,0.0042310054413974285,0.0003621135838329792
1.729492336982103e+18,0.016983287408947945,0.005428399424999952,-0.004236416891217232
1.7294923369881032e+18,0.013094114139676094,0.009254012256860733,-0.00381130026653409
1.7294923369941033e+18,0.01466652937233448,0.007183663081377745,0.002391593996435404
1.7294923370031035e+18,0.018022757023572922,0.006830334197729826,0.0016452776035293937
1.7294923370091036e+18,0.014052344486117363,0.009830725379288197,-0.0012931899400427938
1.7294923370151037e+18,0.017318986356258392,0.004324665293097496,0.0025369697250425816
1.7294923370181038e+18,0.014667743816971779,0.006939341314136982,0.0015769838355481625
1.729492337027104e+18,0.012675318866968155,0.009662918746471405,-0.0008838488720357418
1.729492337030104e+18,0.013975363224744797,0.010756603442132473,0.0011472274782136083
1.7294923370361042e+18,0.015488037839531898,0.010982980020344257,0.0018754824995994568
1.7294923370421043e+18,0.01209088321775198,0.012228341773152351,0.0016395512502640486
1.7294923370481044e+18,0.009942027740180492,0.011387331411242485,-0.0008363407105207443
1.7294923370541046e+18,0.011491530574858189,0.013667510822415352,0.0007726704934611917
1.7294923370601047e+18,0.011494510807096958,0.01345661748200655,-0.0008347471011802554
1.7294923370661048e+18,0.0109266871586442,0.009606532752513885,0.0012004023883491755
1.729492337072105e+18,0.012966062873601913,0.012868313118815422,-0.0016869170358404517
1.729492337078105e+18,0.012085188180208206,0.011657783761620522,-0.0024480302818119526
1.7294923370841052e+18,0.015247143805027008,0.007260588929057121,-0.0019950224086642265
1.7294923370931054e+18,0.017587408423423767,0.008362753316760063,-0.0009440570138394833
1.7294923370991055e+18,0.012999855913221836,0.007532157935202122,-0.0007638217648491263
1.7294923371051057e+18,0.01201601605862379,0.011553598567843437,-0.0006672434392385185
1.7294923371081057e+18,0.012791797518730164,0.010011041536927223,-0.0007658132235519588
1.7294923371141059e+18,0.012783759273588657,0.010188987478613853,0.0011399396462365985
1.729492337123106e+18,0.008465012535452843,0.010600858367979527,-0.0012025628238916397
1.7294923371291062e+18,0.009573638439178467,0.011206384748220444,-0.001160118030384183
1.7294923371351063e+18,0.009432362392544746,0.010339551605284214,-0.0017170916544273496
1.7294923371411064e+18,0.008583438582718372,0.008322441019117832,0.00011126548633910716
1.7294923371471066e+18,0.010868298821151257,0.010757280513644218,-0.0006730687455274165
1.7294923371531067e+18,0.015920227393507957,0.006808148697018623,-0.0020171781070530415
1.7294923371591068e+18,0.015494704246520996,0.004964173771440983,0.00011452371836639941
1.729492337165107e+18,0.01576845906674862,0.007703384384512901,0.0015321749961003661
1.7294923371741071e+18,0.016224056482315063,0.007345116231590509,0.0025074200239032507
1.7294923371801073e+18,0.012340229004621506,0.009092165157198906,-0.00016856950242072344
1.7294923371891075e+18,0.008196464739739895,0.00812084972858429,0.0014848310966044664
1.7294923371951076e+18,0.010647117160260677,0.012901213951408863,0.0007225610897876322
1.7294923372011077e+18,0.008456180803477764,0.01268807053565979,-0.0008486879523843527
1.7294923372071078e+18,0.011185916140675545,0.011693592183291912,-0.002100581070408225
1.729492337213108e+18,0.01215345412492752,0.00984975416213274,-0.002071477472782135
1.729492337219108e+18,0.012243560515344143,0.007316192612051964,0.0021129008382558823
1.7294923372251082e+18,0.01612207479774952,0.006680621299892664,0.0010798166040331125
1.7294923372281083e+18,0.013262391090393066,0.004478846676647663,4.92498220410198e-05
1.7294923372341084e+18,0.015349620953202248,0.006292566657066345,-0.002000317210331559
1.7294923372401085e+18,0.013434668071568012,0.008542176336050034,-0.0003322240081615746
1.7294923372491087e+18,0.012448780238628387,0.003105568466708064,0.001848684623837471
1.7294923372551089e+18,0.007890424691140652,0.007543631363660097,-0.0018628996331244707
1.729492337261109e+18,0.008631275035440922,0.00578545406460762,-0.004661602899432182
1.729492337267109e+18,0.005940896924585104,0.0051465281285345554,-0.002066567074507475
1.7294923372731092e+18,0.007684593088924885,0.00942597072571516,-0.0038195631932467222
1.7294923372821094e+18,0.012918922118842602,0.0051836310885846615,0.0005628028884530067
1.7294923372881096e+18,0.011877384036779404,0.0037105344235897064,-0.0016536451876163483
1.7294923372941097e+18,0.014886295422911644,0.006440326105803251,-0.002771808532997966
1.7294923373001098e+18,0.015065361745655537,0.005366840399801731,-0.001881099073216319
1.72949233730611e+18,0.014208020642399788,0.008962786756455898,-0.002151880878955126
1.72949233731211e+18,0.010505691170692444,0.005692439153790474,-0.0017426932463422418
1.7294923373211103e+18,0.010613268241286278,0.00629734992980957,0.0015752939507365227
1.7294923373301105e+18,0.008516605012118816,0.00733313150703907,-0.00033686793176457286
1.7294923373361106e+18,0.009569618850946426,0.004903658293187618,0.0014282346237450838
1.7294923373451108e+18,0.008481527678668499,0.005696262698620558,-0.0017871903255581856
1.729492337351111e+18,0.008718586526811123,0.0060857925564050674,-0.001064973184838891
1.729492337357111e+18,0.016632918268442154,0.010246388614177704,-0.0005494175711646676
1.7294923373631112e+18,0.013711685314774513,0.008524076081812382,-0.0012266307603567839
1.7294923373721114e+18,0.017152365297079086,0.00579326506704092,-0.004500461742281914
1.7294923373781115e+18,0.014895018190145493,0.009475781582295895,-0.0005947448080405593
1.7294923373871117e+18,0.012188170105218887,0.009933806955814362,-0.0009067446226254106
1.729492337396112e+18,0.01160851214081049,0.0057099852710962296,0.00023340186453424394
1.729492337402112e+18,0.007073086220771074,0.00739834550768137,-0.0025531374849379063
1.7294923374111122e+18,0.005739251151680946,0.011652672663331032,-0.003170187585055828
1.7294923374171123e+18,0.0073913028463721275,0.011009552516043186,0.00090859888587147
1.7294923374261125e+18,0.007162862457334995,0.008521891199052334,-0.0011567056644707918
1.7294923374291126e+18,0.013185597024857998,0.011605107225477695,-0.0030936591792851686
1.7294923374381128e+18,0.015704400837421417,0.009781508706510067,-0.0004074583703186363
1.729492337444113e+18,0.01460556872189045,0.005891249980777502,9.570943075232208e-05
1.729492337450113e+18,0.01428605429828167,0.007846193388104439,0.0006587476236745715
1.7294923374591132e+18,0.011683381162583828,0.005743786692619324,-0.0010280354181304574
1.7294923374651133e+18,0.012195166200399399,0.007024260237812996,-0.0010987268760800362
1.7294923374711135e+18,0.004419297911226749,0.006622673943638802,0.0012489637592807412
1.7294923374801137e+18,0.006627300754189491,0.009828738868236542,-0.0015903260791674256
1.7294923374861138e+18,0.006864006631076336,0.009751178324222565,-0.0018612754065543413
1.729492337495114e+18,0.009904584847390652,0.011826001107692719,0.0016207222361117601
1.729492337501114e+18,0.010794349946081638,0.008808974176645279,-8.610647637397051e-05
1.7294923375071142e+18,0.01041554007679224,0.008679796941578388,0.0014777977485209703
1.7294923375131144e+18,0.008459373377263546,0.005810506176203489,-0.0008784179226495326
1.7294923375221146e+18,0.0066710482351481915,0.010038185864686966,-0.0008130903588607907
1.7294923375281147e+18,0.0047497316263616085,0.008786945603787899,0.0010305691976100206
1.729492337537115e+18,0.004935743287205696,0.006882873363792896,-0.0009634169982746243
1.729492337543115e+18,0.006654130294919014,0.0077982256188988686,-0.00011919715325348079
1.7294923375491151e+18,0.003803060855716467,0.00918542593717575,0.0020544365979731083
1.7294923375551153e+18,0.006203658878803253,0.01213003508746624,-9.644913370721042e-05
1.7294923375641155e+18,0.010652689263224602,0.010070165619254112,-0.0017608103808015585
1.7294923375731156e+18,0.010727081447839737,0.011447519063949585,9.645670070312917e-05
1.7294923375791158e+18,0.007382174953818321,0.011729905381798744,-0.0010220296680927277
1.729492337588116e+18,0.011452976614236832,0.011123362928628922,0.0013374931877478957
1.7294923375971162e+18,0.009708511643111706,0.010236168280243874,0.0003145007067359984
1.7294923376031163e+18,0.008406529203057289,0.008893242105841637,-5.561651778407395e-05
1.7294923376091164e+18,0.006273315288126469,0.012174924835562706,0.001959683373570442
1.7294923376181166e+18,0.006527825724333525,0.011555642820894718,-0.0013761456357315183
1.7294923376241167e+18,0.006044378969818354,0.00790511816740036,0.0027992853429168463
1.7294923376301169e+18,0.007870260626077652,0.013365066610276699,-0.0003778123063966632
1.729492337636117e+18,0.010042593814432621,0.0152444401755929,0.0016425265930593014
1.729492337642117e+18,0.01242240983992815,0.014007032848894596,0.00020965095609426498
1.7294923376481172e+18,0.008779510855674744,0.013853823766112328,-0.00048146885819733143
1.7294923376571174e+18,0.00850524939596653,0.012047139927744865,0.0010326687479391694
1.7294923376631176e+18,0.008676018565893173,0.009091071784496307,-0.0031587660778313875
1.7294923376691177e+18,0.007101449649780989,0.01173311285674572,0.00013194297207519412
1.7294923376751178e+18,0.008325312286615372,0.011540601029992104,-0.0017187927151098847
1.729492337681118e+18,0.005613283254206181,0.009525367058813572,-0.0005592701490968466
1.729492337687118e+18,0.005014183931052685,0.011553456075489521,0.0005612589884549379
1.7294923376961183e+18,0.006700041703879833,0.011857896111905575,-0.0020824428647756577
1.7294923377021184e+18,0.006260628346353769,0.011715967208147049,-0.0005539488047361374
1.7294923377081185e+18,0.009158819913864136,0.012155341915786266,0.0005737607134506106
1.7294923377141187e+18,0.0068616182543337345,0.011539448983967304,-0.0019884230569005013
1.7294923377231188e+18,0.011726799421012402,0.01385518442839384,-0.0016696336679160595
1.729492337729119e+18,0.005726791452616453,0.009960168972611427,-0.000260276923654601
1.729492337735119e+18,0.008506030775606632,0.009865770116448402,-0.0022045732475817204
1.7294923377411192e+18,0.0057569341734051704,0.009894251823425293,-0.0001054876483976841
1.7294923377471194e+18,0.007430933881551027,0.009883936494588852,-0.0011914412025362253
1.7294923377531195e+18,0.003052295185625553,0.008740894496440887,-0.0003037707647308707
1.7294923377621197e+18,0.005783356726169586,0.00917124468833208,0.00035585867590270936
1.7294923377651197e+18,0.008051257580518723,0.010381675325334072,-0.0032767157536000013
1.72949233777412e+18,0.006701488047838211,0.009390274062752724,0.0018678022315725684
1.72949233778012e+18,0.010642207227647305,0.010294226929545403,0.002115598414093256
1.7294923377891203e+18,0.007127704564481974,0.01025390438735485,-0.0020525273866951466
1.7294923377951204e+18,0.007887274958193302,0.009616054594516754,-0.0006565439980477095
1.7294923378011205e+18,0.006256774999201298,0.01089553814381361,-0.0030581550672650337
1.7294923378101207e+18,0.0045255450531840324,0.00914254505187273,-0.002215012675151229
1.7294923378161208e+18,0.003743474604561925,0.007350493222475052,-0.0019584568217396736
1.729492337822121e+18,0.007587841246277094,0.006255213636904955,-0.0025844357442110777
1.729492337828121e+18,0.0031380117870867252,0.007795992773026228,-0.00044613011414185166
1.7294923378341212e+18,0.004054173361510038,0.009965055622160435,0.00304363458417356
1.7294923378401213e+18,0.006332201883196831,0.009920673444867134,-0.0020691645331680775
1.7294923378461215e+18,0.006751345470547676,0.00861214380711317,0.0019312449730932713
1.7294923378521216e+18,0.00511432159692049,0.008200372569262981,-0.0004261474823579192
1.7294923378581217e+18,0.0049536144360899925,0.011533476412296295,0.0007209783652797341
1.729492337867122e+18,0.008175017312169075,0.007981114089488983,-0.0005102844443172216
1.729492337873122e+18,0.009078732691705227,0.012070261873304844,0.001289094565436244
1.7294923378791222e+18,0.0028174007311463356,0.011746395379304886,0.002746894024312496
1.7294923378851223e+18,0.005459807813167572,0.005995815619826317,0.0017166952602565289
1.7294923378911224e+18,0.00423970865085721,0.008031143806874752,-0.0009517866419628263
1.7294923378971226e+18,0.005538583267480135,0.0054612960666418076,0.0008982823928818107
1.7294923379031227e+18,0.004606637172400951,0.008879370987415314,-0.0012743439292535186
1.7294923379091228e+18,0.00466670747846365,0.00721467612311244,-0.00027028151089325547
1.729492337918123e+18,0.0058156875893473625,0.010806208476424217,0.002013163175433874
1.7294923379241231e+18,0.00787211675196886,0.009269881062209606,-0.0006966800428926945
1.7294923379301233e+18,0.005389249883592129,0.007511531934142113,0.0005632686661556363
1.7294923379361234e+18,0.005443279631435871,0.009606151841580868,-0.00011132936924695969
1.7294923379421235e+18,0.006829935126006603,0.0054689920507371426,0.0005652107647620142
1.7294923379481236e+18,0.00603634025901556,0.005866342224180698,0.0005678434972651303
1.7294923379571238e+18,0.007193655241280794,0.006262113805860281,-0.00043982791248708963
1.729492337963124e+18,0.006381904240697622,0.007263732608407736,-0.0014362067449837923
1.729492337966124e+18,0.003703251713886857,0.0050801848992705345,0.0009343128767795861
1.7294923379751242e+18,0.0036787320859730244,0.005238828249275684,0.0013166656717658043
1.7294923379811244e+18,0.006084449589252472,0.002563626505434513,-0.00013768786448054016
1.7294923379871245e+18,0.005147015210241079,0.003978821914643049,-0.0010529004503041506
1.7294923379931246e+18,0.006847282871603966,0.0048285373486578465,0.0009930094238370657
1.7294923379991247e+18,0.00748806307092309,0.005268250126391649,-0.0014863002579659224
1.7294923380051249e+18,0.0067758215591311455,0.008946853689849377,-0.002328305970877409
1.729492338014125e+18,0.0073866755701601505,0.011464085429906845,0.0017833712045103312
1.7294923380201252e+18,0.005995108745992184,0.01062826532870531,0.002016645623371005
1.7294923380261253e+18,0.0037921627517789602,0.008715388365089893,-0.001169353723526001
1.7294923380321254e+18,0.0043983845971524715,0.008609703741967678,0.0010392996482551098
1.7294923380351255e+18,0.006937864236533642,0.010705646127462387,-0.0019516912288963795
1.7294923380411256e+18,0.001372616970911622,0.009234893135726452,0.000510561338160187
1.7294923380471258e+18,0.001645718002691865,0.004782096948474646,-0.0006272547179833055
1.729492338053126e+18,0.004202107898890972,0.004014689475297928,-0.0005172261735424399
1.729492338059126e+18,0.0067995223216712475,0.007297231815755367,0.0006530841928906739
1.729492338062126e+18,0.006507779937237501,0.008552106097340584,0.0010057860054075718
1.7294923380681262e+18,0.005083464551717043,0.00813473854213953,-0.001905042794533074
1.7294923380741263e+18,0.005752556957304478,0.007164253853261471,-0.0012798403622582555
1.7294923380801265e+18,0.005961238406598568,0.007709111087024212,0.00039807523717172444
1.7294923380861266e+18,0.009628577157855034,0.011448388919234276,-0.0003228143323212862
1.7294923380921267e+18,0.0056119635701179504,0.009098228998482227,-0.0009220456122420728
1.7294923380981268e+18,0.002622992033138871,0.00823315978050232,0.0008763656369410455
1.729492338101127e+18,0.0037784564774483442,0.009126443415880203,0.0010915298480540514
1.729492338107127e+18,0.0021929931826889515,0.008361244574189186,0.0018755273194983602
1.7294923381131272e+18,0.0010621667606756091,0.009490087628364563,-0.0031454700510948896
1.7294923381191273e+18,-0.00032834603916853666,0.007083200849592686,0.0018321608658879995
1.7294923381221274e+18,0.0015587374800816178,0.012516384944319725,0.0012482289457693696
1.7294923381281275e+18,7.139518857002258e-06,0.009029081091284752,-2.199851587647572e-05
1.7294923381341276e+18,0.004166402388364077,0.012397373095154762,-0.0010341868037357926
1.7294923381401277e+18,0.004116300027817488,0.007938607595860958,0.0005269619286991656
1.729492338146128e+18,0.0016365204937756062,0.010435757227241993,-0.0011535444064065814
1.729492338152128e+18,0.007446081843227148,0.010194876231253147,0.0001296886330237612
1.729492338158128e+18,0.00811863224953413,0.009692910127341747,0.000994657282717526
1.7294923381641283e+18,0.007340549025684595,0.010640961118042469,0.0008133634692057967
1.7294923381701284e+18,0.006717669777572155,0.008579091168940067,0.0002244173811050132
1.7294923381761285e+18,0.006645367480814457,0.010318482294678688,-0.002062771702185273
1.7294923381851287e+18,0.0012498692376539111,0.008663365617394447,-0.0015481794252991676
1.7294923381911288e+18,-0.0025695734657347202,0.01004331186413765,-0.0003118012100458145
1.729492338197129e+18,-0.002734776120632887,0.01135418750345707,-0.0007971631712280214
1.729492338203129e+18,-0.0020839660428464413,0.01162707805633545,0.00026431999867781997
1.7294923382121293e+18,0.002188950777053833,0.010233378037810326,-0.0024477606639266014
1.7294923382181294e+18,-0.0006390155758708715,0.009678672067821026,-0.0029785612132400274
1.7294923382241295e+18,0.004139414057135582,0.007756553590297699,0.0003309554886072874
1.7294923382301297e+18,0.0027986811473965645,0.004895572550594807,0.00089916808065027
1.7294923382391299e+18,0.0033508609049022198,0.0072456663474440575,-0.0007317076670005918
1.72949233824213e+18,0.006418775767087936,0.0029357983730733395,0.0004360805032774806
1.72949233825113e+18,0.0012931994860991836,0.0037556288298219442,0.0020338627509772778
1.7294923382571302e+18,0.0022324316669255495,0.006805086508393288,0.0008909846656024456
1.7294923382631304e+18,-0.0038584803696721792,0.007894814945757389,0.0033411127515137196
1.7294923382721306e+18,-0.002118112053722143,0.005977735389024019,-0.0022198965307325125
1.7294923382811308e+18,-0.0006794382352381945,0.006437183357775211,-0.0006060039158910513
1.729492338287131e+18,-0.0036362323444336653,0.005419516004621983,0.0012064503971487284
1.729492338293131e+18,0.0021053312812000513,0.006184734404087067,0.0009758078958839178
1.7294923383021312e+18,0.0010500133503228426,0.004094220697879791,-0.0003983073984272778
1.7294923383081313e+18,0.003694978542625904,0.0013534440658986568,0.0004021685745101422
1.7294923383141315e+18,0.002531612291932106,0.0023142187856137753,0.0018523016478866339
1.7294923383201316e+18,0.000406385341193527,0.0030914749950170517,-0.0041869464330375195
1.7294923383261317e+18,-0.0016065267845988274,0.0063474238850176334,-0.0015007024630904198
1.7294923383321318e+18,-0.004117919132113457,0.007099190726876259,0.0004806063079740852
1.729492338338132e+18,-0.0016321414150297642,0.006805755198001862,-0.0004375167773105204
1.729492338344132e+18,-0.004497978370636702,0.007095350418239832,0.001369441393762827
1.7294923383501322e+18,-0.004308189265429974,0.008348583243787289,-0.0008799564675427973
1.7294923383561324e+18,-0.003918066620826721,0.008104562759399414,-0.0012394703226163983
1.7294923383621325e+18,-0.0014390681171789765,0.007483941037207842,2.2564403479918838e-05
1.7294923383681326e+18,-0.0045484621077775955,0.0074072424322366714,-0.0008431439055129886
1.7294923383741327e+18,0.0005018113297410309,0.0010429706890136003,-0.0012978604063391685
1.729492338383133e+18,-0.0031559958588331938,0.004504379350692034,0.0012724262196570635
1.729492338389133e+18,-0.002420540200546384,0.0038061512168496847,0.00065857102163136
1.7294923383951332e+18,-0.002544102258980274,0.006846016272902489,0.00047728291247040033
1.7294923384041334e+18,-0.0008301993366330862,0.006912028416991234,-0.0005769346025772393
1.7294923384101335e+18,-0.0021510205697268248,0.004645991139113903,-0.0009993768762797117
1.7294923384161336e+18,-0.0036606364883482456,0.004175962880253792,0.0013075519818812609
1.7294923384251338e+18,-0.004181848373264074,0.0025112468283623457,0.00030233265715651214
1.729492338428134e+18,-0.002623446984216571,0.004119180142879486,-0.002412472851574421
1.729492338434134e+18,-0.003072337945923209,0.004852635785937309,-0.0014498112723231316
1.7294923384431342e+18,-0.0026197778061032295,0.004841197747737169,-0.0002257143787574023
1.7294923384461343e+18,-0.0030442276038229465,0.0042109135538339615,-0.0018668905831873417
1.7294923384551345e+18,0.00016320393478963524,0.004100217018276453,-0.00045659655006602407
1.7294923384611346e+18,-0.0017458107322454453,0.005318356212228537,0.0007424453506246209
1.7294923384671347e+18,0.0007389495149254799,0.006603721529245377,0.0004503845702856779
1.7294923384731348e+18,-0.001531368587166071,0.0076349880546331406,0.0008417863282375038
1.729492338479135e+18,-0.001511397073045373,0.009029436856508255,-3.038704744540155e-05
1.729492338485135e+18,-0.0008576156105846167,0.006704577710479498,0.0011463217670097947
1.7294923384911352e+18,-0.0025181593373417854,0.004176796413958073,-0.0020361109636723995
1.7294923385001354e+18,-0.00028698029927909374,0.0029286821372807026,-0.0025665743742138147
1.7294923385031355e+18,-0.0015296649653464556,0.00204664608463645,-0.00214098091237247
1.7294923385121357e+18,-0.0037424310576170683,0.0027879001572728157,0.001426194328814745
1.7294923385181358e+18,-0.002554736565798521,0.0053510344587266445,-0.0012996001169085503
1.729492338524136e+18,-0.008159445598721504,0.0036763781681656837,0.0018512302776798606
1.7294923385331361e+18,-0.003279796103015542,0.0049226293340325356,0.00023814909218344837
1.7294923385391363e+18,-0.004711087327450514,0.008705447427928448,-0.000876501901075244
1.7294923385451364e+18,-0.005272080656141043,0.0074575431644916534,-0.002889385912567377
1.7294923385481364e+18,-0.005953245796263218,0.00966059509664774,0.0002615489065647125
1.7294923385541366e+18,-0.00410036277025938,0.008417797274887562,0.0020998565014451742
1.7294923385601367e+18,-0.000781679293140769,0.005287776235491037,0.004442983772605658
1.729492338569137e+18,-0.0031996192410588264,0.005452503450214863,0.0013694432564079762
1.729492338575137e+18,-0.0050986772403120995,0.0018966190982609987,0.0014041776303201914
1.7294923385811372e+18,0.00019234931096434593,-0.000594055512920022,0.0029509798623621464
1.7294923385871373e+18,-0.004168015904724598,-0.0010462747886776924,0.001049416372552514
1.7294923385931374e+18,-0.0009568545501679182,-0.0015362489502876997,0.0013188751181587577
1.7294923385991375e+18,-0.001968435011804104,-5.5396114476025105e-05,-0.0016638361848890781
1.7294923386051377e+18,-0.0024498910643160343,0.001309206592850387,-0.0009871276561170816
1.7294923386111378e+18,-0.006463334895670414,0.002410278655588627,0.0028803637251257896
1.729492338617138e+18,-0.007778521627187729,0.002176728332415223,-0.0006710202433168888
1.729492338623138e+18,-0.0073823826387524605,0.006435266695916653,3.074106643907726e-05
1.7294923386291382e+18,-0.007074679713696241,0.006351994350552559,0.0005814573960378766
1.7294923386351383e+18,-0.0075507271103560925,0.0066393581219017506,0.0001463030930608511
1.7294923386381384e+18,-0.006452311296015978,0.004885205999016762,0.00178229168523103
1.7294923386441385e+18,-0.006800420116633177,0.004873704630881548,-0.000995681039057672
1.7294923386501386e+18,-0.008558518253266811,0.0017948095919564366,0.00035678944550454617
1.7294923386561388e+18,-0.0057055954821407795,0.003972398117184639,-0.001122819259762764
1.729492338662139e+18,-0.004433631896972656,0.0006007855990901589,0.0029264993499964476
1.729492338668139e+18,-0.006342212203890085,0.0004506707191467285,-0.0009696666966192424
1.729492338671139e+18,-0.00694638816639781,0.00034717924427241087,0.0006124598439782858
1.7294923386801393e+18,-0.0072417850606143475,0.0025338639970868826,-0.0001408739190082997
1.7294923386861394e+18,-0.011827828362584114,0.00623095128685236,0.0002566544571891427
1.7294923386921395e+18,-0.010168350301682949,0.0005297695752233267,-0.0025172133464366198
1.7294923386981396e+18,-0.009459131397306919,0.002725494559854269,-0.0025823628529906273
1.7294923387011397e+18,-0.007605386897921562,0.003390755271539092,-0.0006549671525135636
1.7294923387071398e+18,-0.0075106327421963215,0.005447039380669594,-0.0008337048930115998
1.72949233871314e+18,-0.006020952481776476,-0.00013565830886363983,-0.0011547735193744302
1.72949233871614e+18,-0.005401556380093098,0.0008882245165295899,-0.002194497501477599
1.7294923387221402e+18,-0.005189498886466026,0.0010936892358586192,-0.0008724498911760747
1.7294923387281403e+18,-0.002654160838574171,0.0009479206055402756,0.0012667649425566196
1.7294923387341404e+18,-0.0015964650083333254,0.00042040186235681176,-0.0009390770574100316
1.7294923387401405e+18,-0.006101354956626892,-0.0007608543382957578,0.0010967021808028221
1.7294923387461407e+18,-0.004864765331149101,-0.00039451566408388317,6.259192014113069e-05
1.7294923387521408e+18,-0.007816735655069351,0.004277071449905634,-0.0010372910182923079
1.7294923387551409e+18,-0.008669810369610786,0.0011971478816121817,-0.004613155499100685
1.729492338761141e+18,-0.007260896265506744,0.003303932026028633,-0.0007660957635380328
1.729492338767141e+18,-0.006732774432748556,0.0009199074702337384,-0.0015961939934641123
1.7294923387731412e+18,-0.006780548021197319,0.002341980580240488,0.0012654922902584076
1.7294923387791414e+18,-0.007910173386335373,0.000250184559263289,-0.0022843964397907257
1.7294923387851415e+18,-0.005782725755125284,-0.000417339731939137,-0.003027750179171562
1.7294923387911416e+18,-0.0010523323435336351,-0.0012827084865421057,-0.0001999658124987036
1.7294923387971418e+18,-0.00021785893477499485,0.0012332054320722818,-0.0010200967080891132
1.729492338806142e+18,-0.0027908356860280037,0.00210571032948792,0.0005849604494869709
1.729492338812142e+18,-0.006396381184458733,-0.002485098550096154,-0.0011180154979228973
1.7294923388151421e+18,-0.0029500452801585197,0.0002621807507239282,0.0012211031280457973
1.7294923388211423e+18,-0.0054576219990849495,-0.00036012547207064927,-0.0009887207997962832
1.7294923388271424e+18,-0.0060031176544725895,0.002550688572227955,-0.0014287079684436321
1.7294923388331425e+18,-0.007376679219305515,0.0009881468722596765,0.0003422712907195091
1.7294923388391427e+18,-0.008487438783049583,0.004220262635499239,-0.0016563114477321506
1.7294923388451428e+18,-0.007360067684203386,-0.0012473610695451498,-0.0018307126592844725
1.729492338851143e+18,-0.006644074805080891,0.002628098940476775,-0.0025497740134596825
1.729492338857143e+18,-0.006233321502804756,-0.0009746612049639225,-0.0003095510182902217
1.7294923388661432e+18,-0.0032259454019367695,-0.0015033639501780272,0.0007240377017296851
1.7294923388721434e+18,-0.0022948607802391052,0.0020217224955558777,0.0014218960423022509
1.7294923388811436e+18,-0.003253644797950983,-0.0011762974318116903,0.0026814339216798544
1.7294923388871437e+18,-0.00622221827507019,-0.00048147293273359537,0.00035551993642002344
1.729492338896144e+18,-0.0064605711959302425,0.0022907075472176075,-0.0013747254852205515
1.729492338899144e+18,-0.007380109280347824,-0.0016921607311815023,-0.0005905693396925926
1.729492338905144e+18,-0.007918459363281727,0.0035359070170670748,-0.00325618963688612
1.7294923389111442e+18,-0.009544821456074715,0.005601472221314907,-0.0035913579631596804
1.7294923389171443e+18,-0.00673277210444212,0.0013907686807215214,0.0010659594554454088
1.7294923389231444e+18,-0.004089435562491417,0.003720939625054598,0.0006072880933061242
1.7294923389321446e+18,-0.007115502841770649,0.0007813032134436071,0.0002946328022517264
1.7294923389411448e+18,-0.007134819868952036,-0.001509199384599924,0.0010443085338920355
1.729492338947145e+18,-0.00882178358733654,-0.001962033100426197,-0.0012659032363444567
1.7294923389561452e+18,-0.009447355754673481,-0.004466600716114044,0.0005890026804991066
1.7294923389621453e+18,-0.0066919936798512936,-0.002358664060011506,0.0023567324969917536
1.7294923389711455e+18,-0.008549656718969345,-0.0023285727947950363,-0.0031562058720737696
1.7294923389771456e+18,-0.007895257323980331,-0.0024535241536796093,-0.0020551769994199276
1.7294923389831457e+18,-0.006137344986200333,-0.002883091103285551,-0.0011531295021995902
1.7294923389891459e+18,-0.006570660974830389,-0.00367457396350801,-0.0018182516796514392
1.729492338995146e+18,-0.0036581200547516346,-0.0008450343739241362,-0.001723548979498446
1.729492339001146e+18,-0.005855906754732132,-0.0006622483488172293,-0.0006861399160698056
1.7294923390101463e+18,-0.008055728860199451,-0.0010704684536904097,-0.0008904993301257491
1.7294923390161464e+18,-0.008598962798714638,-0.0018798799719661474,0.002540317829698324
1.7294923390221466e+18,-0.012052830308675766,0.00019519106717780232,0.002637655707076192
1.7294923390281467e+18,-0.008958748541772366,0.001684669405221939,0.0005143958260305226
1.7294923390341468e+18,-0.009830757975578308,-0.004449955653399229,-0.0002199108712375164
1.729492339040147e+18,-0.011490887962281704,-0.007312183268368244,-0.0003697109059430659
1.729492339046147e+18,-0.005816248245537281,-0.003125363728031516,0.0016317118424922228
1.7294923390551473e+18,-0.0052076359279453754,-0.005013326648622751,-0.0009384142467752099
1.7294923390641475e+18,-0.006055861245840788,-0.0017872827593237162,-0.0017800069181248546
1.7294923390701476e+18,-0.004629824310541153,0.0037450804375112057,-0.00208015157841146
1.7294923390791478e+18,-0.008924270048737526,7.146684220060706e-05,-0.0019483112264424562
1.729492339085148e+18,-0.008251412771642208,0.002812956226989627,-0.0005087291938252747
1.729492339091148e+18,-0.009044930338859558,0.00345797766931355,-0.0003797636309172958
1.7294923391001482e+18,-0.011194848455488682,-0.0036371778696775436,-0.002084944164380431
1.7294923391061484e+18,-0.009229153394699097,-0.0009787033777683973,0.0021623000502586365
1.7294923391151485e+18,-0.006808874662965536,-0.0006687205750495195,0.0009851045906543732
1.7294923391211487e+18,-0.0031823774334043264,-0.0033661972265690565,-0.00021796292276121676
1.7294923391301489e+18,0.011404028162360191,0.06617455184459686,-0.001990919467061758
1.729492339136149e+18,0.08790095895528793,0.47730857133865356,-0.004882813896983862
1.7294923391451492e+18,0.24515044689178467,1.3339284658432007,-0.007813804782927036
1.7294923391511493e+18,0.36570969223976135,1.9251697063446045,-0.013934402726590633
1.7294923391631496e+18,0.883851945400238,2.859419345855713,-0.020752975717186928
1.7294923391721498e+18,1.5261216163635254,3.1194236278533936,-0.0293708685785532
1.72949233918115e+18,2.12335205078125,3.0253078937530518,-0.041652433574199677
1.7294923391901501e+18,2.507289171218872,2.7887203693389893,-0.04910193383693695
1.7294923391961503e+18,2.585782051086426,2.651632785797119,-0.05987674370408058
1.7294923392081505e+18,2.404637336730957,2.612260103225708,-0.07032308727502823
1.7294923392171507e+18,2.1567330360412598,2.756399393081665,-0.08498416841030121
1.729492339226151e+18,2.0200071334838867,2.9344594478607178,-0.08978908509016037
1.729492339235151e+18,2.051292896270752,3.0027058124542236,-0.09970434010028839
1.7294923392411512e+18,2.1524546146392822,2.9612972736358643,-0.10759801417589188
1.7294923392471514e+18,2.2797985076904297,2.8536455631256104,-0.10892772674560547
1.7294923392561516e+18,2.4054911136627197,2.595830202102661,-0.11784628033638
1.7294923392651517e+18,2.375305652618408,2.334035634994507,-0.12619273364543915
1.7294923392711519e+18,2.251516580581665,2.1885688304901123,-0.13101595640182495
1.729492339277152e+18,2.0737900733947754,2.077601432800293,-0.13309413194656372
1.7294923392861522e+18,1.7699118852615356,1.9856703281402588,-0.13645410537719727
1.7294923392951524e+18,1.5241594314575195,1.9199986457824707,-0.14307625591754913
1.7294923393041526e+18,1.4066286087036133,1.8404401540756226,-0.1465958058834076
1.7294923393101527e+18,1.3967210054397583,1.7555547952651978,-0.1500580757856369
1.729492339319153e+18,1.4290828704833984,1.579241394996643,-0.14945349097251892
1.729492339328153e+18,1.4269987344741821,1.3746951818466187,-0.15412874519824982
1.7294923393371533e+18,1.3442236185073853,1.1756445169448853,-0.154926598072052
1.7294923393461535e+18,1.148634433746338,1.0159978866577148,-0.15397678315639496
1.7294923393551537e+18,0.9101368188858032,0.891800582408905,-0.15789806842803955
1.7294923393641539e+18,0.6979918479919434,0.7981778383255005,-0.1528642624616623
1.729492339376154e+18,0.5457038879394531,0.6707925796508789,-0.1553093045949936
1.7294923393851543e+18,0.5332669615745544,0.5579293966293335,-0.15299808979034424
1.7294923393941545e+18,0.5462440252304077,0.4373306632041931,-0.15662796795368195
1.7294923394031547e+18,0.5245766639709473,0.3205775320529938,-0.15341651439666748
1.729492339412155e+18,0.43572476506233215,0.21409142017364502,-0.15058216452598572
1.729492339421155e+18,0.2920224368572235,0.12544073164463043,-0.14426207542419434
1.7294923394301553e+18,0.13713812828063965,0.05512925237417221,-0.14286035299301147
1.7294923394361554e+18,0.05740385502576828,0.011069828644394875,-0.14152862131595612
1.7294923394451556e+18,-0.0109344981610775,-0.04464835673570633,-0.14112608134746552
1.7294923394511557e+18,-0.024939866736531258,-0.08682102710008621,-0.13437041640281677
1.7294923394571558e+18,-0.01816851831972599,-0.12960706651210785,-0.13537243008613586
1.729492339463156e+18,-0.0037549666594713926,-0.1658518761396408,-0.13370367884635925
1.729492339469156e+18,0.002652223687618971,-0.20437748730182648,-0.13183176517486572
1.7294923394751562e+18,0.00046554335858672857,-0.23655040562152863,-0.12767034769058228
1.7294923394781563e+18,-0.004590592347085476,-0.24951031804084778,-0.12738023698329926
1.7294923394841564e+18,-0.037591539323329926,-0.271806001663208,-0.12614133954048157
1.7294923394901565e+18,-0.0770295262336731,-0.286371111869812,-0.12356391549110413
1.7294923394961567e+18,-0.13114118576049805,-0.2965388298034668,-0.1218869760632515
1.7294923395051569e+18,-0.1924603432416916,-0.30687862634658813,-0.1196325421333313
1.729492339511157e+18,-0.216812402009964,-0.31577980518341064,-0.11487314105033875
1.729492339517157e+18,-0.22816473245620728,-0.3231058418750763,-0.11606734991073608
1.7294923395231572e+18,-0.22287675738334656,-0.3321387469768524,-0.1132565587759018
1.7294923395321574e+18,-0.20004090666770935,-0.35076624155044556,-0.1103227436542511
1.7294923395381576e+18,-0.18444272875785828,-0.36315399408340454,-0.10740653425455093
1.7294923395441577e+18,-0.17540396749973297,-0.37295445799827576,-0.1043485477566719
1.7294923395471578e+18,-0.1813623160123825,-0.3805930018424988,-0.10207149386405945
1.729492339553158e+18,-0.1888052076101303,-0.3849261999130249,-0.10112940520048141
1.729492339559158e+18,-0.21229887008666992,-0.38976913690567017,-0.09666910022497177
1.7294923395681582e+18,-0.24989786744117737,-0.3960019052028656,-0.09505504369735718
1.7294923395741583e+18,-0.2733251452445984,-0.3961726725101471,-0.09229055792093277
1.7294923395801585e+18,-0.2928018271923065,-0.39818528294563293,-0.08783110231161118
1.7294923395891587e+18,-0.29480046033859253,-0.39985817670822144,-0.08357536047697067
1.7294923395951588e+18,-0.2872622311115265,-0.39986908435821533,-0.08212321996688843
1.729492339601159e+18,-0.27387064695358276,-0.3986595869064331,-0.08023834973573685
1.729492339610159e+18,-0.25816723704338074,-0.4085035026073456,-0.07779734581708908
1.7294923396161592e+18,-0.2538270056247711,-0.4140603244304657,-0.07503955066204071
1.7294923396221594e+18,-0.2545011639595032,-0.41701021790504456,-0.07040072232484818
1.7294923396281595e+18,-0.2647896409034729,-0.41841360926628113,-0.0678258091211319
1.7294923396371597e+18,-0.2894778251647949,-0.42428651452064514,-0.06303440034389496
1.7294923396431598e+18,-0.3024084270000458,-0.4192931652069092,-0.06216774135828018
1.72949233964916e+18,-0.3152318298816681,-0.41871377825737,-0.0584329329431057
1.72949233965516e+18,-0.3192693889141083,-0.4150354266166687,-0.05412333086133003
1.7294923396611602e+18,-0.3129521608352661,-0.4105367660522461,-0.0492829903960228
1.7294923396671603e+18,-0.30526596307754517,-0.4086849093437195,-0.04978491738438606
1.7294923396731604e+18,-0.293232798576355,-0.4113578498363495,-0.04797821119427681
1.7294923396791606e+18,-0.2789929509162903,-0.4156574308872223,-0.044373590499162674
1.7294923396851607e+18,-0.27851077914237976,-0.4193193018436432,-0.03893846645951271
1.7294923396911608e+18,-0.28181949257850647,-0.4237177073955536,-0.036164358258247375
1.729492339697161e+18,-0.28901615738868713,-0.42759940028190613,-0.033215586096048355
1.729492339703161e+18,-0.29865095019340515,-0.4323230981826782,-0.030582157894968987
1.7294923397091612e+18,-0.3135319948196411,-0.4326833486557007,-0.025507621467113495
1.7294923397151613e+18,-0.32796671986579895,-0.43508926033973694,-0.0248025543987751
1.7294923397211615e+18,-0.3353319764137268,-0.43053993582725525,-0.023441040888428688
1.7294923397241615e+18,-0.3344348967075348,-0.43329089879989624,-0.0170389823615551
1.7294923397331617e+18,-0.3236912786960602,-0.4251864552497864,-0.017359141260385513
1.7294923397391619e+18,-0.3131788372993469,-0.41959428787231445,-0.010038858279585838
1.729492339745162e+18,-0.29911625385284424,-0.41401365399360657,-0.011094320565462112
1.729492339751162e+18,-0.28506746888160706,-0.40815696120262146,-0.008620143868029118
1.7294923397571622e+18,-0.2803477346897125,-0.40731167793273926,-0.0013690649066120386
1.7294923397631624e+18,-0.28094741702079773,-0.4052902162075043,0.0024526226334273815
1.7294923397691625e+18,-0.2882417142391205,-0.4065723121166229,0.0042682066559791565
1.7294923397751626e+18,-0.2986104190349579,-0.41116946935653687,0.004428552463650703
1.7294923397781627e+18,-0.30196139216423035,-0.40920180082321167,0.008712267503142357
1.7294923397841628e+18,-0.3146549165248871,-0.41669413447380066,0.011432262137532234
1.729492339793163e+18,-0.32563459873199463,-0.4190414547920227,0.015833009034395218
1.7294923397991631e+18,-0.3259182870388031,-0.42039942741394043,0.020223131403326988
1.7294923398051633e+18,-0.324094295501709,-0.4222351312637329,0.023149749264121056
1.7294923398111634e+18,-0.3204011917114258,-0.42776980996131897,0.026491235941648483
1.7294923398171635e+18,-0.3114391267299652,-0.42189010977745056,0.028085429221391678
1.7294923398231636e+18,-0.305971622467041,-0.41942694783210754,0.03216547518968582
1.7294923398291638e+18,-0.29866763949394226,-0.4149995744228363,0.033152561634778976
1.7294923398321638e+18,-0.2968915104866028,-0.41451728343963623,0.03962530940771103
1.729492339841164e+18,-0.2974280118942261,-0.4095847010612488,0.04129159078001976
1.7294923398471642e+18,-0.3001125752925873,-0.40766021609306335,0.04335912689566612
1.7294923398531643e+18,-0.3006945252418518,-0.40666481852531433,0.04726458713412285
1.7294923398591644e+18,-0.311009019613266,-0.40153175592422485,0.05051489546895027
1.7294923398651645e+18,-0.3140389621257782,-0.40493693947792053,0.05215839669108391
1.7294923398711647e+18,-0.3200772702693939,-0.40439659357070923,0.05497993528842926
1.7294923398771648e+18,-0.3166951835155487,-0.4064456820487976,0.05711480602622032
1.7294923398801649e+18,-0.31498101353645325,-0.4082864224910736,0.058407217264175415
1.729492339889165e+18,-0.30157437920570374,-0.40770721435546875,0.0654863491654396
1.7294923398951652e+18,-0.2951699495315552,-0.40095633268356323,0.0700879693031311
1.7294923399011653e+18,-0.2864331305027008,-0.39373886585235596,0.0703732892870903
1.7294923399071654e+18,-0.28046730160713196,-0.39030617475509644,0.07534150034189224
1.7294923399131656e+18,-0.27810028195381165,-0.3825830817222595,0.07701832056045532
1.7294923399191657e+18,-0.2806466221809387,-0.3809405565261841,0.07810241729021072
1.7294923399251658e+18,-0.2822217047214508,-0.3747915029525757,0.07982814311981201
1.729492339931166e+18,-0.28818950057029724,-0.38163384795188904,0.08412548154592514
1.729492339937166e+18,-0.29832330346107483,-0.3803119957447052,0.08770621567964554
1.7294923399401661e+18,-0.30007678270339966,-0.3810197114944458,0.08816111832857132
1.7294923399461663e+18,-0.30742529034614563,-0.38553643226623535,0.09141663461923599
1.7294923399521664e+18,-0.30917203426361084,-0.38993924856185913,0.09406937658786774
1.7294923399581665e+18,-0.3038286566734314,-0.3899179697036743,0.0978209376335144
1.7294923399641667e+18,-0.3023815155029297,-0.39555296301841736,0.09962145984172821
1.7294923399701668e+18,-0.2972991168498993,-0.38970947265625,0.10286351293325424
1.729492339976167e+18,-0.29241904616355896,-0.3851478695869446,0.10675354301929474
1.729492339982167e+18,-0.28494513034820557,-0.3824976086616516,0.1054428294301033
1.7294923399881672e+18,-0.28177255392074585,-0.37588030099868774,0.10866512358188629
1.7294923399941673e+18,-0.2820773720741272,-0.37524452805519104,0.11121205985546112
1.7294923400001674e+18,-0.2822234332561493,-0.37278908491134644,0.11803209781646729
1.7294923400091676e+18,-0.28299352526664734,-0.36545729637145996,0.12039154022932053
1.7294923400151677e+18,-0.28573423624038696,-0.3654104471206665,0.12029503285884857
1.7294923400211679e+18,-0.2866758406162262,-0.36120325326919556,0.1218843087553978
1.729492340027168e+18,-0.2864859104156494,-0.3567201793193817,0.12512116134166718
1.729492340030168e+18,-0.28456059098243713,-0.357298880815506,0.12463212758302689
1.7294923400361682e+18,-0.28057050704956055,-0.3544517457485199,0.128102645277977
1.7294923400421683e+18,-0.2802145183086395,-0.353159636259079,0.12750542163848877
1.7294923400511685e+18,-0.28317883610725403,-0.35486477613449097,0.13622331619262695
1.7294923400571686e+18,-0.2809934914112091,-0.35844534635543823,0.1355336457490921
1.7294923400601687e+18,-0.2833940386772156,-0.3563942313194275,0.1352318376302719
1.7294923400661688e+18,-0.2844570577144623,-0.357065349817276,0.1362255960702896
1.729492340072169e+18,-0.28693410754203796,-0.36177200078964233,0.14106279611587524
1.729492340078169e+18,-0.2865482270717621,-0.3594647943973541,0.1412552446126938
1.7294923400811692e+18,-0.28595083951950073,-0.35754165053367615,0.14328140020370483
1.7294923400901693e+18,-0.2835633456707001,-0.3459301292896271,0.14606255292892456
1.7294923400961695e+18,-0.27685922384262085,-0.3413938283920288,0.14669963717460632
1.7294923400991695e+18,-0.27522552013397217,-0.332674503326416,0.1488625854253769
1.7294923401051697e+18,-0.26956990361213684,-0.32567083835601807,0.14678186178207397
1.7294923401111698e+18,-0.2693443298339844,-0.32353660464286804,0.14730867743492126
1.72949234011717e+18,-0.27210336923599243,-0.3223654329776764,0.15257048606872559
1.72949234012317e+18,-0.26895830035209656,-0.31621161103248596,0.15704742074012756
1.7294923401291702e+18,-0.27486664056777954,-0.3189346194267273,0.15575799345970154
1.7294923401351703e+18,-0.27577051520347595,-0.3189503848552704,0.15957358479499817
1.7294923401411704e+18,-0.2741471529006958,-0.3220805525779724,0.16050498187541962
1.7294923401471706e+18,-0.27653899788856506,-0.3179410994052887,0.16010235249996185
1.7294923401531707e+18,-0.2750055491924286,-0.321112722158432,0.164421945810318
1.7294923401591708e+18,-0.27503538131713867,-0.3146853744983673,0.16453416645526886
1.729492340165171e+18,-0.270649790763855,-0.31117308139801025,0.16675689816474915
1.7294923401741711e+18,-0.26143407821655273,-0.30409181118011475,0.16753967106342316
1.7294923401771712e+18,-0.2607470452785492,-0.3011818826198578,0.16738592088222504
1.7294923401831713e+18,-0.2583961486816406,-0.2972721457481384,0.1677282601594925
1.7294923401891715e+18,-0.2548765540122986,-0.29267680644989014,0.16838222742080688
1.7294923401981716e+18,-0.25980302691459656,-0.2870398759841919,0.1696396768093109
1.7294923402041718e+18,-0.26154524087905884,-0.28935930132865906,0.1740233451128006
1.729492340213172e+18,-0.2643491327762604,-0.2892626225948334,0.17565178871154785
1.729492340216172e+18,-0.26949363946914673,-0.291263610124588,0.17652949690818787
1.7294923402251722e+18,-0.2702219784259796,-0.2890210747718811,0.17827345430850983
1.7294923402281723e+18,-0.2668430805206299,-0.2955990135669708,0.17617273330688477
1.7294923402341724e+18,-0.2635252773761749,-0.2881578803062439,0.1762559711933136
1.7294923402401725e+18,-0.25368455052375793,-0.2787305414676666,0.17715635895729065
1.7294923402491727e+18,-0.24470195174217224,-0.2683567702770233,0.1791626513004303
1.729492340258173e+18,-0.2431180328130722,-0.26365992426872253,0.18207083642482758
1.729492340264173e+18,-0.24692414700984955,-0.25730541348457336,0.18089117109775543
1.7294923402731732e+18,-0.24792371690273285,-0.2579364776611328,0.18313871324062347
1.7294923402791734e+18,-0.2524559497833252,-0.2604520916938782,0.1834452748298645
1.7294923402881736e+18,-0.25826528668403625,-0.2659483850002289,0.18213529884815216
1.7294923402971738e+18,-0.2591862380504608,-0.26881206035614014,0.18403752148151398
1.729492340306174e+18,-0.2561265230178833,-0.26961514353752136,0.18373925983905792
1.729492340312174e+18,-0.24774859845638275,-0.26379093527793884,0.1891646683216095
1.7294923403211743e+18,-0.241625115275383,-0.25284814834594727,0.1842862069606781
1.7294923403301745e+18,-0.23126207292079926,-0.24449536204338074,0.18718655407428741
1.7294923403391747e+18,-0.23009808361530304,-0.23625728487968445,0.1837419867515564
1.7294923403451748e+18,-0.2336335927248001,-0.23851317167282104,0.1873146891593933
1.729492340354175e+18,-0.23807530105113983,-0.24022074043750763,0.18580561876296997
1.729492340360175e+18,-0.24099329113960266,-0.23973815143108368,0.18777933716773987
1.7294923403721754e+18,-0.24075625836849213,-0.24560609459877014,0.1845095455646515
1.7294923403781755e+18,-0.24310000240802765,-0.24365893006324768,0.1873861849308014
1.7294923403901757e+18,-0.237973153591156,-0.24405302107334137,0.18664418160915375
1.729492340399176e+18,-0.23566560447216034,-0.23482638597488403,0.18427011370658875
1.729492340408176e+18,-0.23004132509231567,-0.22799496352672577,0.18232595920562744
1.7294923404141763e+18,-0.2325313240289688,-0.22637133300304413,0.18704499304294586
1.7294923404231764e+18,-0.23428469896316528,-0.2182757556438446,0.18344315886497498
1.7294923404321766e+18,-0.2336224615573883,-0.21311475336551666,0.18277791142463684
1.7294923404381768e+18,-0.2299172580242157,-0.21154101192951202,0.1827906370162964
1.729492340447177e+18,-0.23005075752735138,-0.20759300887584686,0.18535202741622925
1.7294923404561772e+18,-0.22605864703655243,-0.20923785865306854,0.18022170662879944
