timestamp,accel_x,accel_y,accel_z
1.729425369288049e+18,0.04830439016222954,-0.00924710649996996,-9.83028793334961
1.729425369297049e+18,-0.0560222752392292,-0.021447228267788887,-9.714481353759766
1.7294253693090493e+18,0.004121563397347927,0.05571763962507248,-9.814635276794434
1.7294253693180495e+18,-0.0014286453370004892,0.06593155115842819,-9.78663444519043
1.7294253693270497e+18,0.001989901065826416,0.0735856145620346,-9.67194938659668
1.72942536933605e+18,0.035896871238946915,-0.02824592962861061,-9.8080472946167
1.72942536934505e+18,-0.028996160253882408,-0.0754716619849205,-9.758430480957031
1.7294253693540503e+18,0.030704496428370476,0.0008997237309813499,-9.871875762939453
1.7294253693630505e+18,-0.05166080594062805,0.0715697705745697,-9.801513671875
1.7294253693720507e+18,-0.08626390248537064,-0.018138239160180092,-9.777470588684082
1.7294253693780508e+18,0.033050891011953354,0.044758718460798264,-9.796280860900879
1.729425369387051e+18,0.011307550594210625,0.00018402031855657697,-9.848325729370117
1.7294253693960512e+18,0.05844155699014664,-0.02260592021048069,-9.806160926818848
1.7294253694050514e+18,0.006331255659461021,0.06285479664802551,-9.838264465332031
1.7294253694140516e+18,0.015600432641804218,0.026346193626523018,-9.83656120300293
1.7294253694230518e+18,-0.0021646844688802958,-0.041476309299468994,-9.828083992004395
1.729425369432052e+18,-0.0017010330921038985,0.03824862092733383,-9.74227523803711
1.7294253694410522e+18,0.06296544522047043,-0.017269179224967957,-9.779900550842285
1.7294253694500524e+18,-0.008028963580727577,-0.020953001454472542,-9.760442733764648
1.7294253694590525e+18,0.07296673208475113,-0.013338996097445488,-9.706603050231934
1.7294253694680527e+18,-0.010281973518431187,0.002994629554450512,-9.790287971496582
1.729425369477053e+18,0.04756888002157211,0.06504811346530914,-9.836475372314453
1.729425369486053e+18,0.01448481623083353,-0.047424521297216415,-9.814580917358398
1.7294253694950533e+18,0.03503920137882233,0.048270031809806824,-9.832443237304688
1.7294253695040535e+18,-0.026541437953710556,0.004089704714715481,-9.810877799987793
1.7294253695130537e+18,0.007875689305365086,0.0292925164103508,-9.786825180053711
1.729425369522054e+18,0.07430347800254822,0.0017501843394711614,-9.805688858032227
1.729425369531054e+18,-0.0008835819899104536,-0.054325252771377563,-9.87197494506836
1.7294253695400543e+18,-0.024243686348199844,0.013468150980770588,-9.799973487854004
1.7294253695490545e+18,0.005447795148938894,0.05818946287035942,-9.72850513458252
1.7294253695580547e+18,0.09092915058135986,-0.029842965304851532,-9.886670112609863
1.7294253695670548e+18,-0.0007832838455215096,-0.011436088010668755,-9.79577922821045
1.729425369576055e+18,0.06156354397535324,0.04528933763504028,-9.791508674621582
1.7294253695850552e+18,0.005415770225226879,-0.015098879113793373,-9.80747127532959
1.7294253695940554e+18,-0.032441191375255585,-0.01594480872154236,-9.804696083068848
1.7294253696030556e+18,0.046514276415109634,-0.012412137351930141,-9.840982437133789
1.7294253696120558e+18,0.018224913626909256,0.03345639631152153,-9.770233154296875
1.729425369621056e+18,0.07335200160741806,0.03955840691924095,-9.848698616027832
1.7294253696300562e+18,0.03106815554201603,0.01802879013121128,-9.764065742492676
1.7294253696390564e+18,0.0956256315112114,0.036672595888376236,-9.789647102355957
1.7294253696510566e+18,0.0077430312521755695,0.021788693964481354,-9.782183647155762
1.7294253696600568e+18,0.02457311563193798,-0.07014768570661545,-9.868453979492188
1.729425369669057e+18,0.06989466398954391,0.017750471830368042,-9.784014701843262
1.7294253696780572e+18,-0.018625011667609215,0.0040829600766301155,-9.784292221069336
1.7294253696870574e+18,0.027188777923583984,-0.07962352782487869,-9.862480163574219
1.7294253696960576e+18,0.026573866605758667,0.0036791102029383183,-9.728103637695312
1.7294253697050578e+18,-0.009354708716273308,0.0001916508044814691,-9.789426803588867
1.729425369714058e+18,0.06753648072481155,0.04357830435037613,-9.846724510192871
1.7294253697230582e+18,-0.03173225000500679,0.0017774979351088405,-9.82058334350586
1.7294253697320584e+18,-0.03501451388001442,-0.08295717090368271,-9.791160583496094
1.7294253697410586e+18,-0.04674985632300377,0.003561015473678708,-9.786505699157715
1.7294253697470587e+18,0.08296733349561691,0.03175513073801994,-9.74863052368164
1.729425369756059e+18,0.043612368404865265,0.0023685165215283632,-9.861262321472168
1.729425369765059e+18,-0.0341230183839798,0.022350890561938286,-9.8326997756958
1.7294253697740593e+18,-0.0007907176623120904,-0.05997547507286072,-9.795781135559082
1.7294253697860595e+18,0.012450387701392174,-0.06056748330593109,-9.779694557189941
1.7294253697950597e+18,0.019104547798633575,0.011330516077578068,-9.814287185668945
1.72942536980406e+18,-0.010122588835656643,-0.0328461192548275,-9.841721534729004
1.72942536981006e+18,0.06176207214593887,0.019419217482209206,-9.763936996459961
1.7294253698190602e+18,0.021107720211148262,0.01677181012928486,-9.809741020202637
1.7294253698280604e+18,-0.04760821908712387,-0.03489580750465393,-9.784768104553223
1.7294253698370606e+18,-0.01448636781424284,-0.04981005936861038,-9.82766056060791
1.7294253698460608e+18,0.034559253603219986,-0.011125076562166214,-9.808252334594727
1.729425369855061e+18,0.03560049086809158,0.010483833961188793,-9.833919525146484
1.729425369861061e+18,-0.015644198283553123,0.03949083760380745,-9.809137344360352
1.7294253698670612e+18,-0.07399187982082367,0.025803886353969574,-9.861586570739746
1.7294253698760614e+18,-0.006678278557956219,0.02306249551475048,-9.890520095825195
1.7294253698850616e+18,-0.05185702070593834,-0.008578082546591759,-9.781614303588867
1.7294253698940618e+18,0.01544781494885683,-0.08814844489097595,-9.846508979797363
1.729425369906062e+18,0.0046238680370152,-0.05706528574228287,-9.791913986206055
1.7294253699120622e+18,-0.06266684830188751,-0.002122624544426799,-9.737757682800293
1.7294253699210624e+18,0.09109813719987869,-0.08237722516059875,-9.840261459350586
1.7294253699300626e+18,0.027516577392816544,-0.01229674369096756,-9.825167655944824
1.7294253699390628e+18,0.003342902287840843,-0.02334456704556942,-9.847811698913574
1.729425369948063e+18,-0.00630444660782814,0.01570861227810383,-9.857531547546387
1.7294253699570632e+18,0.02517218515276909,0.0257125124335289,-9.839639663696289
1.7294253699630633e+18,-0.004083706997334957,-0.06260411441326141,-9.841168403625488
1.7294253699750636e+18,0.00936807133257389,-0.005839295219630003,-9.848177909851074
1.7294253699810637e+18,-0.047529589384794235,0.0025423578917980194,-9.75868034362793
1.729425369993064e+18,0.012335854582488537,-0.06162378191947937,-9.803277969360352
1.729425369999064e+18,-0.017013374716043472,0.06381654739379883,-9.778886795043945
1.7294253700080643e+18,0.015396440401673317,0.0019259080290794373,-9.81835651397705
1.7294253700170644e+18,-0.03464280441403389,0.0065043154172599316,-9.778790473937988
1.7294253700260646e+18,-0.06905544549226761,-0.06445463001728058,-9.80497932434082
1.7294253700350648e+18,-0.0248215664178133,-0.006552252918481827,-9.781418800354004
1.729425370044065e+18,0.022605575621128082,-0.06898976117372513,-9.894211769104004
1.7294253700530652e+18,-0.05381358787417412,0.07620842754840851,-9.80376148223877
1.7294253700620654e+18,-0.03828922286629677,0.051376499235630035,-9.889494895935059
1.7294253700710656e+18,0.057498998939991,-0.01782798208296299,-9.820759773254395
1.7294253700800658e+18,0.015713777393102646,0.04358401149511337,-9.845332145690918
1.729425370089066e+18,0.01991061493754387,0.026058292016386986,-9.760461807250977
1.7294253700980662e+18,0.04732649028301239,0.017947060987353325,-9.857805252075195
1.7294253701070664e+18,0.020937498658895493,-0.06039334833621979,-9.785378456115723
1.7294253701160666e+18,0.05993586406111717,0.009233228862285614,-9.758922576904297
1.7294253701250668e+18,0.05328904464840889,0.00900760293006897,-9.74897289276123
1.729425370134067e+18,-0.03552538901567459,-0.08014332503080368,-9.748308181762695
1.7294253701430671e+18,0.06367979198694229,-0.04261768236756325,-9.908523559570312
1.7294253701520673e+18,-0.03755917772650719,0.020282406359910965,-9.969766616821289
1.7294253701610675e+18,0.06833674758672714,-0.026634253561496735,-10.017813682556152
1.7294253701670676e+18,0.07146888971328735,0.013066460378468037,-10.073965072631836
1.7294253701760678e+18,-0.05052686855196953,-0.0672386884689331,-10.118806838989258
1.729425370185068e+18,-0.014924732968211174,-0.0128233153373003,-10.132198333740234
1.7294253701940682e+18,0.02191033959388733,0.0798892006278038,-10.08937931060791
1.7294253702030684e+18,-0.022325342521071434,0.049858883023262024,-10.235875129699707
1.7294253702120686e+18,0.06799443811178207,0.010548870079219341,-10.180295944213867
1.7294253702240689e+18,-0.005630168132483959,0.030235974118113518,-10.292028427124023
1.729425370230069e+18,0.022841263562440872,0.0034945812076330185,-10.358014106750488
1.7294253702390692e+18,0.03384285420179367,-0.02046826295554638,-10.420299530029297
1.7294253702480694e+18,-0.029053453356027603,0.028766971081495285,-10.428542137145996
1.7294253702600696e+18,-0.08649080991744995,0.017212875187397003,-10.57300853729248
1.7294253702690698e+18,-0.05502703785896301,0.0714319720864296,-10.531465530395508
1.72942537027507e+18,-0.024002421647310257,-0.04405437037348747,-10.498180389404297
1.7294253702840701e+18,0.050820108503103256,-0.025391364470124245,-10.594904899597168
1.7294253702930703e+18,0.06203395128250122,-0.020614594221115112,-10.66053295135498
1.7294253702990705e+18,0.014347964897751808,0.026141416281461716,-10.642097473144531
1.7294253703080707e+18,0.0387018658220768,-0.0343361422419548,-10.752178192138672
1.7294253703170708e+18,0.016004368662834167,0.0077972691506147385,-10.794612884521484
1.729425370326071e+18,0.07796017080545425,0.03662263602018356,-10.790905952453613
1.7294253703350712e+18,-0.008729982189834118,-0.03266427665948868,-10.754704475402832
1.7294253703440714e+18,0.045074690133333206,-0.014950009062886238,-10.792531967163086
1.7294253703530716e+18,-0.014903375878930092,-0.02073187381029129,-10.938971519470215
1.7294253703620718e+18,0.13078878819942474,-0.02080470323562622,-10.919391632080078
1.729425370371072e+18,0.0917327031493187,-0.06108696758747101,-11.06391716003418
1.7294253703800722e+18,0.037493158131837845,0.003548551118001342,-11.002151489257812
1.7294253703890724e+18,-0.025446845218539238,0.014522953890264034,-10.975643157958984
1.7294253703980726e+18,-0.070339135825634,-0.01988956332206726,-11.119088172912598
1.7294253704070728e+18,-0.0029526473954319954,0.016102850437164307,-11.007253646850586
1.729425370413073e+18,0.001808452419936657,0.01252402551472187,-11.156514167785645
1.729425370422073e+18,0.0945575088262558,0.017686758190393448,-11.149138450622559
1.7294253704310733e+18,-0.022981854155659676,0.012190153822302818,-11.117234230041504
1.7294253704400735e+18,0.03417233005166054,0.06650801748037338,-11.256621360778809
1.7294253704490737e+18,0.0015596651937812567,-0.03329380974173546,-11.134819984436035
1.7294253704580739e+18,-0.05881434679031372,0.03264505788683891,-11.131367683410645
1.729425370467074e+18,0.025121809914708138,-0.01693834364414215,-11.2084321975708
1.7294253704760742e+18,-0.0706745833158493,-0.009033480659127235,-11.335829734802246
1.7294253704850744e+18,0.00960078090429306,0.016840532422065735,-11.346789360046387
1.7294253704940746e+18,-0.013520007953047752,-0.04047912359237671,-11.285017967224121
1.7294253705000748e+18,0.034957677125930786,-0.008058877661824226,-11.275257110595703
1.729425370506075e+18,0.012029426172375679,-0.09470231831073761,-11.389171600341797
1.729425370512075e+18,0.01866251602768898,0.022189319133758545,-11.291552543640137
1.7294253705210752e+18,0.0006626916583627462,-0.01353510096669197,-11.39291000366211
1.7294253705270753e+18,0.03453681245446205,0.00041208695620298386,-11.48624038696289
1.7294253705360755e+18,-0.059567030519247055,0.005625253543257713,-11.380949974060059
1.7294253705420756e+18,0.022173378616571426,0.027877263724803925,-11.477295875549316
1.7294253705480758e+18,-0.06412335485219955,0.05214456468820572,-11.410087585449219
1.729425370554076e+18,-0.05662035569548607,-0.005616709124296904,-11.476578712463379
1.729425370560076e+18,-0.08455656468868256,0.04440159723162651,-11.520515441894531
1.7294253705690762e+18,-0.0072318571619689465,0.03273459151387215,-11.532979011535645
1.7294253705780764e+18,0.04101209342479706,0.001434666570276022,-11.575788497924805
1.7294253705870766e+18,0.012244118377566338,0.013233829289674759,-11.549295425415039
1.7294253705930767e+18,0.05100931599736214,0.05681154131889343,-11.45001220703125
1.729425370602077e+18,-0.014813318848609924,0.020784961059689522,-11.601634979248047
1.729425370608077e+18,-0.020336300134658813,0.015733717009425163,-11.527435302734375
1.7294253706140772e+18,-0.019673669710755348,-0.019223107025027275,-11.586745262145996
1.7294253706200773e+18,0.04428789019584656,-0.05318909510970116,-11.602926254272461
1.7294253706260774e+18,0.06520932167768478,0.043780386447906494,-11.61884880065918
1.7294253706320776e+18,0.04586015269160271,-0.0021054171957075596,-11.609793663024902
1.7294253706410778e+18,0.02506950870156288,0.05336100235581398,-11.612195014953613
1.729425370647078e+18,0.012188596650958061,-0.0004043055232614279,-11.608978271484375
1.729425370653078e+18,0.02787921205163002,0.00953731033951044,-11.688688278198242
1.7294253706590781e+18,-0.10009995102882385,0.026611771434545517,-11.633599281311035
1.7294253706650783e+18,0.001997521845623851,0.016078684478998184,-11.608111381530762
1.7294253706710784e+18,-0.07727472484111786,0.08444450050592422,-11.72815990447998
1.7294253706770785e+18,0.018089987337589264,-0.009052989073097706,-11.703287124633789
1.7294253706830787e+18,-0.004705165978521109,0.004101964645087719,-11.687612533569336
1.7294253706920788e+18,-0.035128090530633926,-0.06731254607439041,-11.7487211227417
1.729425370698079e+18,-0.016023635864257812,0.012924719601869583,-11.738557815551758
1.729425370704079e+18,0.053445618599653244,0.05737752839922905,-11.687199592590332
1.7294253707130793e+18,-0.028146781027317047,0.0703476220369339,-11.820699691772461
1.7294253707220795e+18,-0.01458522118628025,0.008557467721402645,-11.813886642456055
1.7294253707310797e+18,0.011999490670859814,-0.054878901690244675,-11.782501220703125
1.7294253707400799e+18,0.011479421518743038,-0.0370301827788353,-11.818178176879883
1.72942537074608e+18,-0.02622147835791111,0.0036314199678599834,-11.797188758850098
1.7294253707520801e+18,0.0006602276116609573,-0.017774056643247604,-11.825451850891113
1.7294253707580803e+18,0.02311711385846138,0.031595923006534576,-11.7782621383667
1.7294253707640804e+18,-0.015884490683674812,-0.03537414222955704,-11.775360107421875
1.7294253707670804e+18,-0.046213068068027496,0.029256509616971016,-11.822352409362793
1.7294253707760806e+18,-0.026133675128221512,0.004774077329784632,-11.812347412109375
1.7294253707850808e+18,0.07272915542125702,-0.010393592528998852,-11.850024223327637
1.729425370794081e+18,-8.99116275832057e-05,-0.0314774215221405,-11.88100814819336
1.7294253708030812e+18,-0.024781564250588417,0.06237507984042168,-11.839415550231934
1.7294253708120814e+18,-0.01771491765975952,-0.012057692743837833,-11.80920696258545
1.7294253708210816e+18,0.03602398931980133,-0.013808779418468475,-11.884613037109375
1.7294253708270817e+18,0.03849415481090546,0.0014812827575951815,-11.912015914916992
1.729425370836082e+18,-0.05921913683414459,-0.06639371812343597,-11.940306663513184
1.729425370842082e+18,-0.00224614841863513,0.0013572049792855978,-11.948681831359863
1.729425370845082e+18,-0.012542462907731533,-0.006000829394906759,-11.899301528930664
1.7294253708540823e+18,0.039813876152038574,-0.002541099674999714,-11.878534317016602
1.7294253708600824e+18,-0.023494170978665352,0.07108268141746521,-11.913069725036621
1.7294253708660826e+18,0.001811825204640627,-0.06893420219421387,-11.936619758605957
1.7294253708720827e+18,0.016270186752080917,0.034088343381881714,-11.858851432800293
1.729425370881083e+18,-0.02053353562951088,-0.019636021926999092,-11.863119125366211
1.729425370890083e+18,-0.0022169132716953754,0.011777970939874649,-11.872353553771973
1.7294253708990833e+18,-0.020636538043618202,0.035423196852207184,-11.900732040405273
1.7294253709050834e+18,0.02482890710234642,-0.10480047762393951,-11.974061012268066
1.7294253709140836e+18,-0.10909588634967804,-0.04095521941781044,-11.987221717834473
1.7294253709200837e+18,0.08808010071516037,-0.01088785007596016,-11.998100280761719
1.7294253709230838e+18,0.010448946617543697,-0.026426251977682114,-11.993087768554688
1.729425370929084e+18,-0.07676678150892258,-0.042364634573459625,-12.022022247314453
1.729425370935084e+18,-0.01372359786182642,-0.05553221330046654,-11.937348365783691
1.7294253709440842e+18,0.04071718081831932,-0.07300185412168503,-11.97631549835205
1.7294253709530844e+18,0.014723087660968304,0.06813980638980865,-11.980911254882812
1.7294253709620846e+18,-0.020542068406939507,-0.024359509348869324,-11.925796508789062
1.7294253709710848e+18,0.05810897424817085,-0.016647277399897575,-12.017509460449219
1.729425370980085e+18,-0.012839533388614655,-0.06416555494070053,-11.960604667663574
1.7294253709890852e+18,-0.06603766977787018,0.049351464956998825,-12.00291919708252
1.7294253709980854e+18,-0.06664418429136276,-0.056050658226013184,-11.99321174621582
1.7294253710070856e+18,-0.0199155043810606,-0.004439304117113352,-12.010761260986328
1.7294253710160858e+18,-0.07703789323568344,0.013162951916456223,-12.04828929901123
1.729425371025086e+18,0.012871909886598587,0.1227535530924797,-12.023513793945312
1.7294253710340861e+18,0.0014512746129184961,0.00190803874284029,-12.00183391571045
1.7294253710430863e+18,-0.046038318425416946,0.03834604099392891,-12.033390998840332
1.7294253710520865e+18,0.04013324901461601,0.04517696425318718,-12.007737159729004
1.7294253710610867e+18,0.0012823942815884948,-0.02580423839390278,-12.01994514465332
1.729425371070087e+18,-0.07147266715765,-0.00464959442615509,-12.023990631103516
1.729425371079087e+18,-0.07268154621124268,-0.039814624935388565,-12.022945404052734
1.7294253710850872e+18,0.019958755001425743,-0.0033074677921831608,-12.02047348022461
1.7294253710910874e+18,-0.028205160051584244,-0.032075412571430206,-11.977011680603027
1.7294253710970875e+18,-0.0031407312490046024,-0.010925756767392159,-12.021263122558594
1.7294253711060877e+18,-0.111603282392025,0.038904473185539246,-12.072406768798828
1.729425371115088e+18,-0.04849305376410484,-0.07051753997802734,-12.026081085205078
1.729425371124088e+18,-0.10766693949699402,0.005170905031263828,-12.080330848693848
1.7294253711330883e+18,0.017744414508342743,0.022115588188171387,-12.046563148498535
1.7294253711420884e+18,-0.021687673404812813,0.0006684281397610903,-11.962080001831055
1.7294253711510886e+18,-0.008747057057917118,-0.017365530133247375,-12.057232856750488
1.7294253711570888e+18,0.07237300276756287,0.052024587988853455,-11.993096351623535
1.729425371166089e+18,0.00949286948889494,0.033110905438661575,-12.032474517822266
1.7294253711750892e+18,-0.043321385979652405,0.004841961432248354,-12.02410888671875
1.7294253711810893e+18,-0.044255565851926804,-0.06323182582855225,-12.00109577178955
1.7294253711870894e+18,-0.04402950406074524,-0.009526297450065613,-11.960606575012207
1.7294253711960896e+18,0.07361434400081635,0.007713336497545242,-11.943058013916016
1.7294253712020897e+18,-0.003936293534934521,0.025012480095028877,-11.971443176269531
1.7294253712080899e+18,0.023525496944785118,-0.07956469804048538,-12.01174545288086
1.72942537121109e+18,0.03327824920415878,-0.05375898629426956,-11.937291145324707
1.72942537121709e+18,-0.02688298560678959,0.00907590240240097,-12.04094123840332
1.7294253712230902e+18,-0.05394608899950981,-0.03278523311018944,-12.044804573059082
1.7294253712290903e+18,0.05720674619078636,-0.01476280577480793,-12.001047134399414
1.7294253712380905e+18,-0.03023393452167511,-0.003474906086921692,-12.131648063659668
1.7294253712470907e+18,-0.04841683432459831,-0.003601603675633669,-12.047377586364746
1.729425371256091e+18,0.06941179186105728,-0.07490339130163193,-12.043900489807129
1.729425371265091e+18,-0.03483216464519501,-0.01792316883802414,-11.898524284362793
1.7294253712740913e+18,0.013826798647642136,-0.013204178772866726,-12.003388404846191
1.7294253712830915e+18,0.020390773192048073,-0.012296313419938087,-11.996781349182129
1.7294253712920916e+18,0.03607017174363136,-0.021687539294362068,-12.083074569702148
1.7294253713010918e+18,-0.05931343883275986,0.007180917542427778,-12.042229652404785
1.729425371310092e+18,0.0637756958603859,0.05068342015147209,-12.073150634765625
1.7294253713190922e+18,-0.04124593734741211,0.004489647224545479,-12.051021575927734
1.7294253713310925e+18,0.02291220612823963,0.006670152768492699,-11.889291763305664
1.7294253713370926e+18,0.05657801404595375,0.01861792802810669,-11.916956901550293
1.7294253713460928e+18,0.052595507353544235,-0.075499027967453,-11.955392837524414
1.729425371355093e+18,-0.04774392023682594,0.04026937857270241,-11.907768249511719
1.7294253713640932e+18,0.025227315723896027,0.07793121039867401,-11.865527153015137
1.7294253713700933e+18,-0.025891412049531937,-0.0759960412979126,-11.848790168762207
1.7294253713760934e+18,0.024728549644351006,0.036173880100250244,-11.8606595993042
1.7294253713820936e+18,0.12154218554496765,0.0036006621085107327,-11.712629318237305
1.7294253713880937e+18,0.0345718078315258,-0.035329099744558334,-11.78744888305664
1.7294253713940938e+18,0.0027052469085901976,0.017112433910369873,-11.738142013549805
1.729425371400094e+18,-0.013638905249536037,0.0307491272687912,-11.60317611694336
1.7294253714120942e+18,0.05007404088973999,0.024122070521116257,-11.626402854919434
1.7294253714210944e+18,-0.01052847784012556,0.0031949500553309917,-11.52058219909668
1.7294253714300946e+18,0.0025994961615651846,0.010598910972476006,-11.570712089538574
1.7294253714360947e+18,0.012709122151136398,-0.05642443895339966,-11.465619087219238
1.729425371448095e+18,0.03228423371911049,-0.012160180136561394,-11.474706649780273
1.7294253714570952e+18,0.08181961625814438,0.006127554923295975,-11.410658836364746
1.7294253714630953e+18,-0.03368665650486946,0.04968113824725151,-11.477777481079102
1.7294253714720955e+18,0.04656129330396652,0.014838865026831627,-11.366728782653809
1.7294253714810957e+18,-0.06429844349622726,0.008095365017652512,-11.305541038513184
1.7294253714900959e+18,-0.07210066169500351,-0.0051947711035609245,-11.326167106628418
1.729425371496096e+18,0.017146022990345955,0.04656585305929184,-11.274017333984375
1.7294253715050962e+18,-0.07390934228897095,-0.051699794828891754,-11.16162109375
1.7294253715140964e+18,-0.006965365260839462,-0.040591660887002945,-11.231769561767578
1.7294253715230966e+18,-0.10381562262773514,0.08068055659532547,-11.197141647338867
1.7294253715320968e+18,0.02276439592242241,0.030990788713097572,-11.150460243225098
1.729425371541097e+18,-0.007890217006206512,-0.02290898747742176,-11.142024993896484
1.7294253715500972e+18,0.014142341911792755,-0.08685368299484253,-11.112417221069336
1.7294253715590973e+18,-0.0011229536030441523,0.02826705016195774,-11.130766868591309
1.7294253715680975e+18,0.07966410368680954,0.0028215539641678333,-11.095253944396973
1.7294253715770977e+18,0.0013400983298197389,-0.0018476840341463685,-11.017148971557617
1.729425371586098e+18,0.011437293142080307,-0.013394301757216454,-11.053791999816895
1.729425371595098e+18,0.05676259845495224,-0.03345680236816406,-10.933182716369629
1.7294253716040983e+18,0.043275386095047,0.010884175077080727,-10.946529388427734
1.7294253716130985e+18,0.025532327592372894,-0.027647286653518677,-10.934962272644043
1.7294253716220987e+18,0.011404834687709808,-0.009815540164709091,-10.87846565246582
1.729425371631099e+18,-0.03923594951629639,0.05581440404057503,-10.775792121887207
1.729425371640099e+18,0.03704307973384857,0.013302483595907688,-10.894086837768555
1.7294253716490993e+18,0.03746796399354935,0.032195091247558594,-10.857029914855957
1.7294253716580995e+18,0.06669582426548004,0.02060709148645401,-10.919267654418945
1.7294253716640996e+18,-0.03215895965695381,0.04991347715258598,-10.862839698791504
1.7294253716730998e+18,-0.028241412714123726,-0.01101148221641779,-10.747146606445312
1.7294253716821e+18,-0.025158308446407318,0.02901340276002884,-10.746790885925293
1.7294253716911002e+18,0.03626202046871185,-0.06890980154275894,-10.719597816467285
1.7294253717001004e+18,-0.060132063925266266,-0.015344372019171715,-10.712525367736816
1.7294253717091005e+18,-0.03570795804262161,-0.012554457411170006,-10.624324798583984
1.7294253717181007e+18,-0.036533161997795105,0.05649003013968468,-10.75808334350586
1.729425371727101e+18,0.02719751186668873,-2.023227534664329e-05,-10.718481063842773
1.729425371736101e+18,-0.024981923401355743,0.05442826449871063,-10.626957893371582
1.7294253717481014e+18,-0.031116781756281853,0.025548642501235008,-10.629213333129883
1.7294253717571016e+18,-0.015656471252441406,0.018561413511633873,-10.638166427612305
1.7294253717661018e+18,-0.014721314422786236,-0.0397857204079628,-10.601998329162598
1.729425371775102e+18,-0.006932919844985008,-0.023805325850844383,-10.529470443725586
1.7294253717841021e+18,0.06154419481754303,-0.018869517371058464,-10.537402153015137
1.7294253717931023e+18,0.057529348880052567,0.05701707676053047,-10.599074363708496
1.7294253718021025e+18,0.023652207106351852,-0.009716793894767761,-10.570013999938965
1.7294253718111027e+18,0.02839875966310501,-0.03136025741696358,-10.474745750427246
1.729425371820103e+18,-0.004588443785905838,-0.01976511813700199,-10.483813285827637
1.729425371829103e+18,-0.022743606939911842,0.0060690236277878284,-10.48172378540039
1.7294253718381033e+18,-0.0196567140519619,0.048504699021577835,-10.451443672180176
1.7294253718471035e+18,-0.02010985091328621,0.08599148690700531,-10.524209976196289
1.7294253718561037e+18,0.059892721474170685,-0.04226373881101608,-10.419241905212402
1.729425371865104e+18,0.007142931222915649,0.002692397451028228,-10.414077758789062
1.729425371874104e+18,-0.04957384243607521,-0.058605559170246124,-10.435595512390137
1.7294253718831043e+18,0.017720628529787064,0.009204037487506866,-10.378403663635254
1.7294253718921044e+18,0.00962778739631176,0.03903063014149666,-10.379135131835938
1.7294253719011046e+18,0.011709479615092278,-0.005038929637521505,-10.379793167114258
1.7294253719101048e+18,-0.05322889983654022,0.04450688138604164,-10.37342357635498
1.729425371922105e+18,-0.08032716065645218,-0.06871674209833145,-10.357789993286133
1.7294253719311053e+18,0.00487762875854969,-0.04214997962117195,-10.274639129638672
1.7294253719401055e+18,0.027075983583927155,0.023608986288309097,-10.363152503967285
1.7294253719491057e+18,-0.03137650713324547,0.0017416352638974786,-10.317464828491211
1.7294253719581059e+18,0.03450823947787285,0.03476899117231369,-10.281136512756348
1.729425371964106e+18,0.013523387722671032,-0.0015782349510118365,-10.276509284973145
1.7294253719731062e+18,0.09365236759185791,-0.07692333310842514,-10.331717491149902
1.7294253719821064e+18,-0.0048260316252708435,-0.07354193180799484,-10.3499116897583
1.7294253719911066e+18,-0.015400913543999195,-0.006938314065337181,-10.275337219238281
1.7294253720001068e+18,-0.008719169534742832,0.013097768649458885,-10.23669147491455
1.729425372009107e+18,0.01430276408791542,-0.05948115885257721,-10.214144706726074
1.7294253720181071e+18,-0.007769034244120121,0.030511626973748207,-10.16972827911377
1.7294253720271073e+18,-0.01061765756458044,0.08097628504037857,-10.233497619628906
1.7294253720361075e+18,-0.0785016119480133,0.04010888561606407,-10.296808242797852
1.7294253720421076e+18,-0.04188617318868637,-0.08220340311527252,-10.211874008178711
1.7294253720511078e+18,0.03932684659957886,-0.04410289600491524,-10.220688819885254
1.729425372060108e+18,0.008807025849819183,-0.024369120597839355,-10.17783260345459
1.7294253720691082e+18,0.07463788986206055,0.02906832844018936,-10.234184265136719
1.7294253720781084e+18,0.02392045594751835,-0.06501775979995728,-10.187871932983398
1.7294253720871086e+18,-0.020439324900507927,0.04869639500975609,-10.133096694946289
1.7294253720961088e+18,0.032319363206624985,-0.08594208210706711,-10.231096267700195
1.729425372105109e+18,0.01465791929513216,-0.04531051963567734,-10.10318660736084
1.729425372111109e+18,0.03663485124707222,0.003737808670848608,-10.143381118774414
1.7294253721231094e+18,-0.019071929156780243,-0.036082301288843155,-10.189443588256836
1.7294253721321096e+18,0.01074938289821148,-0.0023719051387161016,-10.096388816833496
1.7294253721381097e+18,0.00276551628485322,0.019500959664583206,-10.185848236083984
1.72942537214711e+18,-0.10689765214920044,0.028276314958930016,-10.130702018737793
1.72942537215611e+18,0.029644636437296867,-0.019150402396917343,-10.139283180236816
1.7294253721621102e+18,-0.023058751598000526,0.02495923824608326,-10.07856273651123
1.7294253721711104e+18,-0.035734958946704865,-0.05756031721830368,-10.040779113769531
1.7294253721801106e+18,0.02978057786822319,-0.044513750821352005,-10.10653305053711
1.7294253721861107e+18,-0.014586769044399261,0.017763063311576843,-10.066091537475586
1.729425372195111e+18,0.054387010633945465,-0.07057661563158035,-10.068839073181152
1.729425372201111e+18,-0.0787956714630127,-0.013742618262767792,-10.092456817626953
1.7294253722071112e+18,-0.11923347413539886,0.039659854024648666,-10.092996597290039
1.7294253722131113e+18,-0.027518032118678093,0.04484987631440163,-10.126693725585938
1.7294253722191114e+18,-0.01100472267717123,-0.03794010356068611,-10.06159782409668
1.7294253722251116e+18,-0.004544475115835667,-0.07966835051774979,-10.061385154724121
1.7294253722311117e+18,0.014812878333032131,-0.017527105286717415,-10.084760665893555
1.7294253722371118e+18,0.0015123788034543395,-0.03079202026128769,-10.063232421875
1.729425372243112e+18,-0.05875571444630623,-0.0735761821269989,-10.099868774414062
1.7294253722521121e+18,0.006089908070862293,0.018699120730161667,-10.036150932312012
1.7294253722581123e+18,-0.0027902815490961075,0.021854333579540253,-10.044732093811035
1.7294253722641124e+18,-0.07451226562261581,0.024960048496723175,-9.966526985168457
1.7294253722731126e+18,-0.00563849089667201,0.010555083863437176,-9.96503734588623
1.7294253722821128e+18,-0.01861799694597721,-0.011175107210874557,-10.026660919189453
1.729425372291113e+18,-0.013977720402181149,-0.05366237461566925,-10.05082893371582
1.729425372294113e+18,0.03499431908130646,0.02012774907052517,-10.009689331054688
1.7294253723001132e+18,0.026333246380090714,0.07330687344074249,-10.057537078857422
1.7294253723091133e+18,-0.011792706325650215,-0.04203670099377632,-9.965800285339355
1.7294253723181135e+18,0.04044567048549652,-0.004562317859381437,-10.005295753479004
1.7294253723241137e+18,0.009021533653140068,0.06918308138847351,-10.031916618347168
1.7294253723331139e+18,-0.0400383360683918,0.03313181921839714,-9.984224319458008
1.729425372342114e+18,0.004512475803494453,-0.04199466109275818,-10.047670364379883
1.7294253723511142e+18,-0.02350604720413685,-0.016404222697019577,-10.01757526397705
1.7294253723601144e+18,0.020136406645178795,0.047502800822257996,-10.097478866577148
1.7294253723661146e+18,0.0188670102506876,-0.044403526932001114,-9.927388191223145
1.7294253723721147e+18,0.07843417674303055,-0.009285194799304008,-9.999322891235352
1.7294253723781148e+18,0.053709954023361206,-0.02270631119608879,-10.011220932006836
1.729425372384115e+18,0.04054908826947212,-0.03136592358350754,-9.93431568145752
1.729425372390115e+18,0.04269804060459137,-0.09367112815380096,-9.958085060119629
1.7294253723991153e+18,-0.014879937283694744,0.0705382451415062,-9.981117248535156
1.7294253724081155e+18,-0.01796647347509861,0.01919584907591343,-9.912164688110352
1.7294253724141156e+18,0.018097268417477608,-0.000979399774223566,-9.95825481414795
1.7294253724201157e+18,-0.02639380469918251,0.038785941898822784,-9.996615409851074
1.7294253724231158e+18,0.010756815783679485,-0.011731361970305443,-9.925912857055664
1.729425372432116e+18,0.023612141609191895,0.04201039671897888,-9.975581169128418
1.7294253724411162e+18,0.035084716975688934,0.00012503183097578585,-9.953628540039062
1.7294253724501164e+18,-0.04454699531197548,-0.04951737821102142,-9.897175788879395
1.7294253724591165e+18,-0.03615567460656166,0.06185357645153999,-9.977551460266113
1.7294253724681167e+18,0.004566666670143604,-0.05955112725496292,-9.973132133483887
1.729425372477117e+18,-0.019361700862646103,0.011907155625522137,-9.958844184875488
1.729425372486117e+18,0.020832866430282593,0.0568041056394577,-9.883916854858398
1.7294253724951173e+18,0.05760364234447479,-0.07565999776124954,-9.922141075134277
1.7294253725041175e+18,-0.060848359018564224,0.09916967153549194,-9.89986515045166
1.7294253725131177e+18,0.008834443055093288,-0.01262210588902235,-9.949466705322266
1.729425372522118e+18,0.05677151307463646,0.02156035602092743,-9.895427703857422
1.729425372531118e+18,-0.05317864939570427,-0.06446076929569244,-9.891919136047363
1.7294253725401183e+18,-0.004327064845710993,-0.013763444498181343,-9.876710891723633
1.7294253725491185e+18,0.007914556190371513,0.02783641405403614,-9.82434368133545
1.7294253725581187e+18,-0.0005137273692525923,0.0533321350812912,-9.911079406738281
1.7294253725671188e+18,0.0004166130966041237,-0.01601008139550686,-9.845468521118164
1.729425372576119e+18,0.08873927593231201,-0.04808616265654564,-9.81650447845459
1.7294253725851192e+18,-0.0404416061937809,-0.06969261169433594,-9.866597175598145
1.7294253725941194e+18,-0.04052291810512543,0.1201043650507927,-9.882790565490723
1.7294253726031196e+18,-0.043564774096012115,-0.04850120097398758,-9.920145988464355
1.7294253726091197e+18,0.050127964466810226,-0.014275697991251945,-9.852904319763184
1.72942537261812e+18,-0.0336780771613121,0.042618438601493835,-9.906371116638184
1.7294253726301202e+18,-0.05140681564807892,0.033213675022125244,-9.864913940429688
1.7294253726361203e+18,0.015081122517585754,0.031190011650323868,-9.818442344665527
1.7294253726421204e+18,0.005459795705974102,0.009379220195114613,-9.807526588439941
1.7294253726481206e+18,0.0212313961237669,0.06500497460365295,-9.775483131408691
1.7294253726541207e+18,-0.04385995864868164,0.03934401273727417,-9.848774909973145
1.7294253726601208e+18,0.007744962815195322,0.048328548669815063,-9.822027206420898
1.729425372666121e+18,0.01426168903708458,-0.0470423623919487,-9.9255952835083
1.729425372672121e+18,-0.10787732154130936,0.014490603469312191,-9.864912033081055
1.7294253726781212e+18,0.00624781334772706,-0.013569227419793606,-9.835838317871094
1.7294253726841213e+18,0.023363616317510605,-0.0799190029501915,-9.8662109375
1.7294253726901215e+18,0.04431094601750374,-0.08233040571212769,-9.801607131958008
1.7294253726961216e+18,0.05152807757258415,-0.027974363416433334,-9.80083179473877
1.7294253727021217e+18,0.02140362747013569,0.001094442792236805,-9.898063659667969
1.7294253727081219e+18,0.020559940487146378,0.019344881176948547,-9.870126724243164
1.729425372714122e+18,-0.01551908627152443,-0.06683951616287231,-9.888008117675781
1.729425372720122e+18,-0.0350184328854084,-0.0439174510538578,-9.866803169250488
1.7294253727261222e+18,0.016911426559090614,0.006713463459163904,-9.877950668334961
1.7294253727321224e+18,-0.035421062260866165,-0.007218244951218367,-9.972058296203613
1.7294253727381225e+18,-0.04742928221821785,0.05355408787727356,-9.864219665527344
1.7294253727441226e+18,0.057794805616140366,-0.04411271587014198,-9.764002799987793
1.7294253727531228e+18,-0.07038650661706924,-0.01891547627747059,-9.962560653686523
1.729425372762123e+18,-0.07282605767250061,-0.03784617781639099,-9.811380386352539
1.7294253727681231e+18,0.0711791142821312,-0.06197130307555199,-9.728689193725586
1.7294253727741233e+18,-0.02186105027794838,-0.03525181859731674,-9.847843170166016
1.7294253727801234e+18,0.029881464317440987,-0.004020643420517445,-9.78317642211914
1.7294253727861235e+18,-0.028298277407884598,-0.1168494001030922,-9.869694709777832
1.7294253727981238e+18,-0.018718600273132324,-0.0011743593495339155,-9.874814987182617
1.729425372804124e+18,-0.046130433678627014,0.028418755158782005,-9.881098747253418
1.729425372810124e+18,0.050169285386800766,0.007716441992670298,-9.785117149353027
1.7294253728161242e+18,-0.03245143964886665,-0.018689468502998352,-9.849839210510254
1.7294253728251244e+18,0.06073017790913582,-0.005929543171077967,-9.84166145324707
1.7294253728311245e+18,-0.014641638845205307,0.007282756734639406,-9.804059982299805
1.7294253728401247e+18,-0.005798873491585255,0.001680218381807208,-9.79668140411377
1.7294253728491249e+18,0.007240788079798222,-0.002678606193512678,-9.806300163269043
1.729425372855125e+18,-0.04180769622325897,0.0631931945681572,-9.841521263122559
1.7294253728641252e+18,0.010907972231507301,0.013808418065309525,-9.793940544128418
1.7294253728701253e+18,0.003385482355952263,-0.0318317785859108,-9.88684368133545
1.7294253728791255e+18,0.042448848485946655,-0.051160383969545364,-9.733475685119629
1.7294253728881257e+18,-0.1033935397863388,0.014307650737464428,-9.827763557434082
1.7294253728941258e+18,0.030961716547608376,-0.004354859236627817,-9.797102928161621
1.729425372903126e+18,-0.03452681377530098,-0.05854220688343048,-9.775795936584473
1.7294253729121262e+18,0.020480196923017502,-0.034210752695798874,-9.779047012329102
1.7294253729181263e+18,-0.02912450209259987,0.05056561902165413,-9.835296630859375
1.7294253729271265e+18,-0.04562589153647423,-0.03177163749933243,-9.793212890625
1.7294253729361267e+18,-0.03041844069957733,0.07350574433803558,-9.80288028717041
1.729425372945127e+18,-0.03016878291964531,-0.05219714343547821,-9.79493522644043
1.729425372954127e+18,-0.03726207837462425,0.007837746292352676,-9.791152000427246
1.7294253729601272e+18,-0.03652213513851166,-0.010804864577949047,-9.85184383392334
1.7294253729691274e+18,0.01487125176936388,0.047998007386922836,-9.845614433288574
1.7294253729781276e+18,0.040789905935525894,-0.03450532630085945,-9.7868013381958
1.7294253729871278e+18,0.004460759926587343,-0.053022824227809906,-9.781832695007324
1.729425372996128e+18,-0.07221036404371262,-0.052299581468105316,-9.844109535217285
1.7294253730051282e+18,-0.027379637584090233,0.03703617677092552,-9.822577476501465
1.7294253730141284e+18,0.00223947549238801,0.0729983001947403,-9.850685119628906
1.7294253730231286e+18,-0.027234859764575958,-4.006997914984822e-05,-9.808382034301758
1.7294253730321288e+18,0.03412598371505737,0.054259128868579865,-9.788985252380371
1.729425373041129e+18,0.04417720437049866,0.01272758562117815,-9.735099792480469
1.729425373044129e+18,-0.04289160296320915,0.05311574786901474,-9.794365882873535
1.7294253730531292e+18,-0.019102472811937332,0.014442415907979012,-9.829395294189453
1.7294253730591293e+18,-0.018557913601398468,0.007592439651489258,-9.828964233398438
1.7294253730651295e+18,0.08794134855270386,-0.0696561187505722,-9.84621810913086
1.7294253730711296e+18,-0.03438673913478851,0.031930431723594666,-9.754497528076172
1.7294253730771297e+18,-0.03145160526037216,-0.030962323769927025,-9.832659721374512
1.72942537308613e+18,-0.0684710368514061,0.029580995440483093,-9.831999778747559
1.72942537309213e+18,-0.06156196445226669,0.003494041273370385,-9.843451499938965
1.7294253730981302e+18,0.05673988163471222,0.013740943744778633,-9.844355583190918
1.7294253731041303e+18,0.0044672139920294285,-0.035269368439912796,-9.789139747619629
1.7294253731101304e+18,-0.0012948444345965981,0.006564556621015072,-9.79209041595459
1.7294253731161306e+18,0.07929719984531403,0.006905507296323776,-9.78061580657959
1.7294253731221307e+18,0.0910438746213913,0.03200565651059151,-9.827181816101074
1.7294253731281308e+18,0.04731295257806778,0.03904534876346588,-9.773538589477539
1.729425373134131e+18,-0.046348877251148224,-0.009234675206243992,-9.833088874816895
1.7294253731431311e+18,0.03427797928452492,-0.08582114428281784,-9.793742179870605
1.7294253731521313e+18,-0.06256608664989471,-0.00011666002683341503,-9.850364685058594
1.7294253731641316e+18,-0.03801652416586876,0.026163343340158463,-9.788908004760742
1.7294253731701317e+18,-0.05788014829158783,-0.020686833187937737,-9.707840919494629
1.7294253731761318e+18,-0.019057240337133408,-0.009217330254614353,-9.859112739562988
1.729425373185132e+18,-0.03577384352684021,-0.08255361765623093,-9.79550552368164
1.7294253731941322e+18,0.023987891152501106,0.03971710801124573,-9.753883361816406
1.7294253732001324e+18,0.06793534755706787,0.1049993485212326,-9.779458999633789
1.7294253732061325e+18,-0.00016549945576116443,-0.044549111276865005,-9.844815254211426
1.7294253732121326e+18,-0.00604314124211669,0.08296160399913788,-9.778225898742676
1.7294253732181327e+18,0.06629149615764618,-0.0353805273771286,-9.803766250610352
1.7294253732241329e+18,-0.012853582389652729,-0.0032738209702074528,-9.794580459594727
1.729425373230133e+18,-0.04898790642619133,0.015640100464224815,-9.794565200805664
1.7294253732391332e+18,-0.08242741972208023,-0.014456890523433685,-9.870166778564453
1.7294253732481334e+18,-0.0029434096068143845,0.04326610639691353,-9.800928115844727
1.7294253732571336e+18,0.017537372186779976,-0.01705922558903694,-9.758243560791016
1.7294253732631337e+18,-0.04264066740870476,-0.058118127286434174,-9.816039085388184
1.7294253732691338e+18,-0.0011234942357987165,0.021105770021677017,-9.860509872436523
1.729425373275134e+18,-0.05027974769473076,-0.05715589597821236,-9.83061695098877
1.7294253732841341e+18,-0.026090865954756737,-0.05403685197234154,-9.728951454162598
1.7294253732901343e+18,0.034573912620544434,0.011342944577336311,-9.818355560302734
1.7294253732961344e+18,0.07420781999826431,-0.03855208307504654,-9.815054893493652
1.7294253733021345e+18,-0.019473575055599213,-0.019876493141055107,-9.80444622039795
1.7294253733081347e+18,0.004272403661161661,0.06297026574611664,-9.846878051757812
1.7294253733171348e+18,-0.032673366367816925,0.04410453513264656,-9.794635772705078
1.729425373323135e+18,-0.02082175575196743,0.10321179032325745,-9.837660789489746
1.729425373329135e+18,-0.03527579456567764,0.01901639997959137,-9.769773483276367
1.7294253733351352e+18,0.04938130080699921,0.015067437663674355,-9.801948547363281
1.7294253733441354e+18,1.687556505203247e-06,0.06197799742221832,-9.783069610595703
1.7294253733531356e+18,-0.02331162616610527,0.005652757827192545,-9.72693920135498
1.7294253733621358e+18,0.001030073151923716,-0.032807186245918274,-9.765931129455566
1.729425373368136e+18,-0.0648944303393364,0.02785278484225273,-9.835989952087402
1.729425373377136e+18,0.016416063532233238,0.060082849115133286,-9.793119430541992
1.7294253733861363e+18,-0.04791631922125816,-0.038269199430942535,-9.840537071228027
1.7294253733951365e+18,-0.010368911549448967,-0.09280668199062347,-9.828392028808594
1.7294253734041367e+18,-0.025006718933582306,-0.00823224987834692,-9.83060359954834
1.729425373413137e+18,0.019760144874453545,-0.05190342292189598,-9.846869468688965
1.729425373422137e+18,0.03246220573782921,-0.044374678283929825,-9.838651657104492
1.7294253734311373e+18,0.033540572971105576,0.03525912016630173,-9.854609489440918
1.7294253734371374e+18,0.007007889449596405,-0.05967307835817337,-9.834028244018555
1.7294253734461376e+18,-0.020883429795503616,-0.033644627779722214,-9.74994945526123
1.7294253734521377e+18,-0.04710720479488373,0.05186891928315163,-9.770565032958984
1.729425373461138e+18,-0.05461698770523071,-0.016430731862783432,-9.786020278930664
1.729425373470138e+18,-0.0329955630004406,0.017642486840486526,-9.79039192199707
1.7294253734791383e+18,-0.012520624324679375,-0.0005801254883408546,-9.817835807800293
1.7294253734881385e+18,-0.01642443798482418,-0.030545558780431747,-9.794057846069336
1.7294253734971387e+18,0.04840847849845886,-0.069333016872406,-9.748498916625977
1.7294253735031388e+18,-0.0521400086581707,0.08575471490621567,-9.819131851196289
1.729425373515139e+18,-0.03718486800789833,-0.020583052188158035,-9.834362983703613
1.7294253735211392e+18,-0.012464896775782108,-0.01000463217496872,-9.803448677062988
1.7294253735331395e+18,-0.018817942589521408,0.034897297620773315,-9.762285232543945
1.7294253735391396e+18,-0.01784992590546608,0.0094401054084301,-9.771613121032715
1.7294253735481398e+18,0.02698664367198944,-0.11648406833410263,-9.784855842590332
1.72942537355414e+18,-0.028268316760659218,-0.031200159341096878,-9.783890724182129
1.72942537356314e+18,0.01343475840985775,-0.0315345898270607,-9.81899356842041
1.7294253735721403e+18,0.007997612468898296,0.012804949656128883,-9.73134708404541
1.7294253735811405e+18,-0.01420514564961195,0.01598416082561016,-9.888608932495117
1.7294253735901407e+18,-0.011256715282797813,-0.009838181547820568,-9.71220874786377
1.7294253735991409e+18,-0.06365029513835907,-0.030245866626501083,-9.79188346862793
1.729425373605141e+18,0.014031203463673592,0.08144561201334,-9.847610473632812
1.729425373611141e+18,0.031387269496917725,0.04092331975698471,-9.821566581726074
1.7294253736171412e+18,0.022620122879743576,0.033632032573223114,-9.788124084472656
1.7294253736231414e+18,-0.061479534953832626,-0.027407167479395866,-9.775703430175781
1.7294253736321416e+18,-0.001121204113587737,0.005280420184135437,-9.909443855285645
1.7294253736411418e+18,-0.06684578210115433,-0.04444308951497078,-9.791520118713379
1.729425373647142e+18,0.06056810915470123,-0.001966828713193536,-9.710562705993652
1.729425373653142e+18,-0.017656702548265457,-0.0073851305060088634,-9.795591354370117
1.7294253736591421e+18,-0.018190773203969002,-0.026976248249411583,-9.79372787475586
1.7294253736651423e+18,0.002187444129958749,-0.10075567662715912,-9.809605598449707
1.7294253736741425e+18,-0.017411215230822563,-0.021457746624946594,-9.779670715332031
1.7294253736801426e+18,0.039167579263448715,0.007649322040379047,-9.748238563537598
1.7294253736891428e+18,0.01986200548708439,-0.015974260866642,-9.811369895935059
1.729425373698143e+18,0.014082839712500572,0.020284384489059448,-9.838107109069824
1.729425373704143e+18,0.01363495271652937,0.016797395423054695,-9.754858016967773
1.7294253737101432e+18,-0.039530668407678604,0.09631030261516571,-9.811502456665039
1.7294253737191434e+18,0.023882079869508743,0.03230520710349083,-9.793856620788574
1.7294253737251436e+18,-0.01777390018105507,0.019480424001812935,-9.811319351196289
1.7294253737341437e+18,0.03609290346503258,-0.05109227076172829,-9.832820892333984
1.7294253737401439e+18,-0.018190938979387283,0.04881731793284416,-9.821263313293457
1.729425373749144e+18,0.019145024940371513,-0.014389620162546635,-9.791765213012695
1.7294253737581443e+18,-0.0020330410916358232,0.05427663028240204,-9.799657821655273
1.7294253737671444e+18,0.0068594226613640785,-0.040438923984766006,-9.815256118774414
1.7294253737761446e+18,-0.006821098737418652,0.008420860394835472,-9.785365104675293
1.7294253737821448e+18,0.01982330158352852,-0.012015831656754017,-9.760254859924316
1.729425373788145e+18,-0.07751094549894333,0.02514726296067238,-9.726696968078613
1.729425373794145e+18,0.016444452106952667,-0.07668893039226532,-9.791911125183105
1.7294253738031452e+18,0.02932216227054596,0.002739872317761183,-9.7993803024292
1.7294253738091453e+18,-0.029135936871170998,-0.018141498789191246,-9.808210372924805
1.7294253738181455e+18,0.04734985530376434,0.034905511885881424,-9.778751373291016
1.7294253738271457e+18,-0.005181801505386829,-0.09082569181919098,-9.868993759155273
1.7294253738331459e+18,0.03507741168141365,0.032182324677705765,-9.802618980407715
1.729425373839146e+18,0.057096339762210846,0.05402033403515816,-9.801801681518555
1.7294253738481462e+18,-0.03673332929611206,-0.004814840853214264,-9.789085388183594
1.7294253738541463e+18,-0.03160873427987099,0.02627033367753029,-9.826839447021484
1.7294253738631465e+18,-0.07889658212661743,-0.06828559935092926,-9.773866653442383
1.7294253738661466e+18,-0.013095422647893429,0.012842086143791676,-9.737539291381836
1.7294253738721467e+18,0.02047618106007576,0.0022403893526643515,-9.839584350585938
1.729425373881147e+18,0.07073327153921127,-0.04109102115035057,-9.799002647399902
1.729425373890147e+18,-0.00343565596267581,0.00021273082529660314,-9.868647575378418
1.7294253738931471e+18,0.03531816229224205,-0.034301336854696274,-9.762542724609375
1.7294253738991473e+18,-0.039851825684309006,0.08580541610717773,-9.825750350952148
1.7294253739111475e+18,0.0015984410420060158,-0.03379834443330765,-9.820928573608398
1.7294253739201477e+18,0.03392063453793526,0.03625631704926491,-9.794483184814453
1.7294253739261478e+18,0.10061611980199814,-0.056188587099313736,-9.797369003295898
1.729425373935148e+18,0.003863714635372162,0.01451896596699953,-9.813801765441895
1.7294253739411482e+18,0.002089107409119606,-0.014533198438584805,-9.730103492736816
1.7294253739501484e+18,0.022357836365699768,0.023996304720640182,-9.795177459716797
1.7294253739561485e+18,-0.005152594298124313,0.05460566282272339,-9.79405689239502
1.7294253739621486e+18,0.03887563198804855,0.024576636031270027,-9.862357139587402
1.7294253739681487e+18,-0.0067878770641982555,0.029206426814198494,-9.786240577697754
1.7294253739741489e+18,0.002837388776242733,-0.007082207594066858,-9.765180587768555
1.729425373980149e+18,0.07253990322351456,0.01846228539943695,-9.887588500976562
1.7294253739891492e+18,0.005451659671962261,-0.03034970350563526,-9.802643775939941
1.7294253739981494e+18,0.09205061942338943,0.011279655620455742,-9.77853775024414
1.7294253740071496e+18,0.0721067413687706,-0.0707789808511734,-9.862024307250977
1.7294253740161498e+18,0.026049070060253143,0.06431307643651962,-9.797933578491211
1.72942537402515e+18,-0.02444940060377121,-0.05861455574631691,-9.790162086486816
1.7294253740341501e+18,0.07765563577413559,0.015973307192325592,-9.827467918395996
1.7294253740431503e+18,0.02970334328711033,-0.03985423594713211,-9.815812110900879
1.7294253740521505e+18,-0.009632605127990246,-0.06911351531744003,-9.782585144042969
1.7294253740611507e+18,0.03596916422247887,0.051806267350912094,-9.766468048095703
1.7294253740671508e+18,0.04890342801809311,-0.07094506174325943,-9.848268508911133
1.729425374076151e+18,0.013898322358727455,0.012899834662675858,-9.822246551513672
1.7294253740881513e+18,-0.06161462515592575,0.08662790805101395,-9.748845100402832
1.7294253740941514e+18,-0.013221446424722672,0.02580883912742138,-9.852298736572266
1.7294253741031516e+18,-0.024639461189508438,-0.01223882008343935,-9.862502098083496
1.7294253741121518e+18,0.015303196385502815,0.03365148976445198,-9.844286918640137
1.729425374121152e+18,0.015479477122426033,-0.023852981626987457,-9.817864418029785
1.7294253741301522e+18,0.03259966894984245,-0.0006005975301377475,-9.743671417236328
1.7294253741391524e+18,0.004767614416778088,-0.0073945177718997,-9.735925674438477
1.7294253741481526e+18,-0.015324651263654232,-0.010122516192495823,-9.782299995422363
1.7294253741571528e+18,-0.04489699378609657,0.049184221774339676,-9.797329902648926
1.729425374166153e+18,0.09337707608938217,-0.04835779219865799,-9.825335502624512
1.7294253741751532e+18,-0.006167800165712833,0.0431755855679512,-9.812207221984863
1.7294253741811533e+18,-0.018476281315088272,-0.040342312306165695,-9.842511177062988
1.7294253741931535e+18,-0.00667200144380331,-0.03105870448052883,-9.739870071411133
1.7294253742021537e+18,-0.010851319879293442,-0.006936507299542427,-9.896051406860352
1.729425374211154e+18,0.02298683300614357,-0.061195481568574905,-9.822993278503418
1.729425374220154e+18,-0.006160447373986244,-0.011664769612252712,-9.855786323547363
1.7294253742291543e+18,0.003106598509475589,-0.050105370581150055,-9.829401016235352
1.7294253742381545e+18,-0.05358153581619263,-0.0036124740727245808,-9.737665176391602
1.7294253742471547e+18,-0.06057542562484741,0.04956755414605141,-9.8471097946167
1.729425374256155e+18,0.007567865774035454,0.013452048413455486,-9.768624305725098
1.729425374265155e+18,-0.04932072386145592,-0.021852999925613403,-9.758804321289062
1.7294253742741553e+18,0.010482138022780418,-0.01487642526626587,-9.837782859802246
1.7294253742831555e+18,-0.005883380770683289,-0.01533130370080471,-9.792420387268066
1.7294253742921556e+18,0.029269468039274216,-0.10957787185907364,-9.755926132202148
1.7294253743011558e+18,-0.015437894500792027,0.04046875238418579,-9.867138862609863
1.729425374310156e+18,0.014318807050585747,-0.03522772341966629,-9.881454467773438
1.7294253743191562e+18,-0.00785080622881651,0.010076949372887611,-9.798870086669922
1.7294253743281564e+18,-0.06811431795358658,0.042290858924388885,-9.852319717407227
1.7294253743371566e+18,0.02315453812479973,-0.04617631062865257,-9.815923690795898
1.7294253743461568e+18,-0.029502104967832565,-0.013822545297443867,-9.797755241394043
1.729425374355157e+18,0.018077772110700607,0.06397946178913116,-9.79565715789795
1.7294253743641572e+18,0.025669269263744354,-0.0980275571346283,-9.81592082977295
1.7294253743731574e+18,0.05808701366186142,-0.07544361054897308,-9.798376083374023
1.7294253743851576e+18,-0.07362531870603561,-0.024523235857486725,-9.791007041931152
1.7294253743911578e+18,-0.07055892795324326,0.030006837099790573,-9.808635711669922
1.729425374400158e+18,-0.013371795415878296,-0.016649315133690834,-9.787506103515625
1.7294253744091581e+18,0.10093490034341812,0.0109578100964427,-9.765368461608887
1.7294253744151583e+18,0.03706974908709526,-0.05517742782831192,-9.803597450256348
1.7294253744241585e+18,-0.04952636733651161,0.014371577650308609,-9.770852088928223
1.7294253744331587e+18,0.03306213393807411,0.017730258405208588,-9.783034324645996
1.7294253744421588e+18,0.10672234743833542,0.047411877661943436,-9.754899978637695
1.729425374451159e+18,-0.02718299627304077,-0.09315823763608932,-9.82931900024414
1.7294253744601592e+18,0.03101474419236183,0.035094648599624634,-9.904511451721191
1.7294253744691594e+18,0.01909392513334751,0.01758446730673313,-9.775964736938477
1.7294253744781596e+18,0.01469346135854721,0.012556234374642372,-9.770517349243164
1.7294253744901599e+18,0.05536055564880371,0.020396526902914047,-9.785184860229492
1.72942537449916e+18,0.04580473154783249,-0.0003581559285521507,-9.821369171142578
1.7294253745081603e+18,-0.032500363886356354,-0.002130485838279128,-9.814233779907227
1.7294253745171604e+18,0.01103135198354721,-0.04420587420463562,-9.775798797607422
1.7294253745261606e+18,0.043483614921569824,0.011833922006189823,-9.79783821105957
1.7294253745351608e+18,0.018382029607892036,0.002036190126091242,-9.882625579833984
1.729425374544161e+18,0.030753498896956444,-0.014867665246129036,-9.764851570129395
1.7294253745531612e+18,-0.05761931464076042,-0.020200293511152267,-9.748770713806152
1.7294253745621614e+18,-0.04390164092183113,-0.0506754145026207,-9.804622650146484
1.7294253745711616e+18,-0.03956260159611702,-0.010666939429938793,-9.764902114868164
1.7294253745801618e+18,-0.003579989541321993,0.01804441027343273,-9.894936561584473
1.729425374586162e+18,-0.030567456036806107,0.09007806330919266,-9.807835578918457
1.729425374595162e+18,-0.00312812440097332,0.010228763334453106,-9.862030982971191
1.7294253746041623e+18,0.07670419663190842,0.04278060048818588,-9.79563045501709
1.7294253746131625e+18,0.047586776316165924,-0.11817479878664017,-9.820661544799805
1.7294253746221627e+18,-0.04605821520090103,0.02355375699698925,-9.885050773620605
1.729425374634163e+18,0.002038585254922509,-0.0333511158823967,-9.835174560546875
1.7294253746431631e+18,0.0018330401508137584,-0.017867449671030045,-9.903016090393066
1.7294253746521633e+18,-0.033390045166015625,0.06188180297613144,-9.814990997314453
1.7294253746611635e+18,0.0716414526104927,-0.028223885223269463,-9.837968826293945
1.7294253746701637e+18,-0.043436091393232346,0.018429026007652283,-9.793514251708984
1.729425374679164e+18,0.011124208569526672,0.0328809916973114,-9.805486679077148
1.729425374688164e+18,-0.01810145564377308,-0.04521559551358223,-9.861944198608398
1.7294253746971643e+18,-0.015214793384075165,0.026106882840394974,-9.808362007141113
1.7294253747061645e+18,0.013770769350230694,-0.006839311681687832,-9.78465747833252
1.7294253747151647e+18,0.006637342739850283,-0.017958512529730797,-9.815577507019043
1.7294253747241649e+18,-0.0015385218430310488,-0.09046142548322678,-9.899916648864746
1.729425374733165e+18,0.05569816380739212,0.0009024664759635925,-9.814191818237305
1.7294253747421652e+18,-0.03999499976634979,-0.008329108357429504,-9.88809871673584
1.7294253747541655e+18,-0.015875723212957382,-0.04750935733318329,-9.802260398864746
1.7294253747631657e+18,0.09331545978784561,0.005881034303456545,-9.808555603027344
1.729425374772166e+18,-0.006353698670864105,0.012440485879778862,-9.852559089660645
1.729425374781166e+18,-0.033167317509651184,-0.009065131656825542,-9.796114921569824
1.7294253747901663e+18,0.027668546885252,0.07856157422065735,-9.906142234802246
1.7294253748021665e+18,-0.03244072571396828,0.07352008670568466,-9.80278205871582
1.7294253748081667e+18,-0.0038733461406081915,0.036902930587530136,-9.840277671813965
1.7294253748171668e+18,-0.005188020411878824,0.06318908929824829,-9.762405395507812
1.729425374826167e+18,-0.0252822395414114,-0.017617374658584595,-9.777535438537598
1.7294253748351672e+18,-0.01920434460043907,-0.044531699270009995,-9.87303638458252
1.7294253748441674e+18,-0.02200082316994667,0.013827847316861153,-9.764632225036621
1.7294253748531676e+18,-0.02312309667468071,-0.030222732573747635,-9.834755897521973
1.7294253748591677e+18,0.024820109829306602,-0.026851646602153778,-9.787467956542969
1.729425374868168e+18,-0.018658975139260292,0.009627385064959526,-9.781271934509277
1.729425374874168e+18,-0.020761866122484207,0.05154111981391907,-9.847334861755371
1.7294253748831683e+18,0.02570251375436783,0.008485307916998863,-9.921374320983887
1.7294253748921684e+18,-0.013342504389584064,-0.02150302566587925,-9.909278869628906
1.7294253749041687e+18,0.058985110372304916,0.0006530709215439856,-9.829154968261719
1.7294253749101688e+18,0.0012850220082327724,-0.06268227845430374,-9.754586219787598
1.729425374922169e+18,0.006677796132862568,-0.06711630523204803,-9.772697448730469
1.7294253749311693e+18,-0.023728977888822556,-0.017482636496424675,-9.837804794311523
1.7294253749401695e+18,0.053637851029634476,0.0029393667355179787,-9.829326629638672
1.7294253749491697e+18,0.09283178299665451,0.10378939658403397,-9.772675514221191
1.7294253749581699e+18,0.0018423646688461304,-0.016284307464957237,-9.717735290527344
1.72942537496717e+18,0.02888534590601921,0.020195387303829193,-9.776265144348145
1.7294253749731702e+18,-0.04762829840183258,0.11687862873077393,-9.760751724243164
1.7294253749821704e+18,-0.032068170607089996,0.06107211112976074,-9.785518646240234
1.7294253749911706e+18,-0.062193699181079865,-0.014268015511333942,-9.83918285369873
1.7294253750001708e+18,-0.012847574427723885,0.04376298189163208,-9.834892272949219
1.729425375006171e+18,-0.03496161103248596,-0.03597444295883179,-9.822325706481934
1.729425375015171e+18,0.10147960484027863,0.04738675430417061,-9.884336471557617
1.7294253750211712e+18,-0.061645396053791046,-0.04637766256928444,-9.888998031616211
1.7294253750301714e+18,0.034348681569099426,-0.00891029555350542,-9.78145980834961
1.7294253750361715e+18,0.021274756640195847,-0.04111364856362343,-9.79118537902832
1.7294253750451717e+18,0.004573633428663015,0.06212086230516434,-9.835251808166504
1.729425375054172e+18,0.008867639116942883,-0.04663483053445816,-9.831648826599121
1.729425375063172e+18,0.06150565668940544,-0.016849005594849586,-9.813960075378418
1.7294253750721723e+18,-0.020531950518488884,0.057934682816267014,-9.862462043762207
1.7294253750781724e+18,-0.05434495583176613,0.0012345102149993181,-9.79616641998291
1.7294253750841725e+18,0.02219974994659424,0.06172807514667511,-9.882102966308594
1.7294253750931727e+18,0.009220819920301437,-0.03413042798638344,-9.834056854248047
1.7294253750991729e+18,-0.06817995011806488,-0.03225954249501228,-9.761927604675293
1.729425375108173e+18,0.10486817359924316,-0.002613452263176441,-9.888402938842773
1.7294253751171732e+18,-0.005548480898141861,-0.014373477548360825,-9.862143516540527
1.7294253751261734e+18,-0.08025792986154556,0.016846824437379837,-9.815301895141602
1.7294253751351736e+18,-0.06147933006286621,-0.11187868565320969,-9.85820198059082
1.7294253751441738e+18,0.025905678048729897,0.05477163568139076,-9.824501991271973
1.729425375153174e+18,-0.06461087614297867,-0.015130335465073586,-9.740920066833496
1.7294253751621742e+18,-0.059883300215005875,0.03054872713983059,-9.889506340026855
1.7294253751681743e+18,0.018680717796087265,0.00983788724988699,-9.769491195678711
1.7294253751771745e+18,0.016951309517025948,0.030661221593618393,-9.8098726272583
1.7294253751861747e+18,0.002318073995411396,-0.01557098887860775,-9.800618171691895
1.729425375195175e+18,0.017412826418876648,-0.07076694071292877,-9.88388442993164
1.729425375204175e+18,-0.011503533460199833,-0.06989731639623642,-9.770647048950195
1.7294253752131753e+18,0.024456636980175972,-0.03458626940846443,-9.795578002929688
1.7294253752191754e+18,0.03678305074572563,-0.026753492653369904,-9.864423751831055
1.7294253752281756e+18,-0.060836587101221085,0.00326658901758492,-9.87979507446289
1.7294253752341757e+18,0.003957720939069986,-0.013500511646270752,-9.77596664428711
1.729425375243176e+18,-0.05015777796506882,-0.024059440940618515,-9.8402099609375
1.7294253752521761e+18,0.0070689404383301735,-0.07678471505641937,-9.866862297058105
1.7294253752611763e+18,-0.035037893801927567,0.062149591743946075,-9.889714241027832
1.7294253752701765e+18,-0.041984494775533676,-0.025106726214289665,-9.836580276489258
1.7294253752761766e+18,-0.013402258045971394,-0.03974142670631409,-9.793397903442383
1.7294253752851768e+18,-0.07075594365596771,0.02366562932729721,-9.863029479980469
1.729425375294177e+18,-0.02389020100235939,-0.02303912863135338,-9.825777053833008
1.7294253753031772e+18,0.013090992346405983,-0.0167531855404377,-9.869441986083984
1.7294253753091773e+18,0.024004947394132614,0.11526744067668915,-9.738113403320312
1.7294253753151775e+18,-0.01875493861734867,-0.07997392863035202,-9.806791305541992
1.7294253753211776e+18,0.05616311728954315,-0.04315834119915962,-9.847187042236328
1.7294253753271777e+18,0.039036571979522705,0.05729026347398758,-9.783257484436035
1.7294253753331779e+18,-0.025615811347961426,0.08224903792142868,-9.79311466217041
1.729425375339178e+18,-0.03386636823415756,-0.04799218475818634,-9.824807167053223
1.729425375345178e+18,0.042912114411592484,-0.00225160364061594,-9.910573959350586
1.7294253753541783e+18,0.055846985429525375,-0.06373661756515503,-9.803369522094727
1.7294253753601784e+18,0.02088199369609356,0.02058533765375614,-9.760626792907715
1.7294253753661786e+18,0.02734132669866085,-0.015700381249189377,-9.791305541992188
1.7294253753721787e+18,-0.002314554527401924,-0.05887511745095253,-9.837356567382812
1.729425375381179e+18,-0.002398138167336583,0.07599308341741562,-9.85849666595459
1.729425375390179e+18,0.054459769278764725,-0.03723229467868805,-9.824427604675293
1.7294253753961792e+18,-0.008846954442560673,-0.0026985006406903267,-9.80217170715332
1.7294253754021793e+18,0.025848329067230225,0.04679570719599724,-9.863051414489746
1.7294253754111795e+18,0.01201394759118557,0.05010649189352989,-9.81943416595459
1.7294253754171796e+18,0.06361693888902664,-0.01584211178123951,-9.861307144165039
1.7294253754231798e+18,0.03292080760002136,-0.08692359924316406,-9.842915534973145
1.72942537542918e+18,0.009531747549772263,0.002202780684456229,-9.802271842956543
1.72942537543518e+18,0.03723490238189697,-0.027341794222593307,-9.78641128540039
1.72942537543818e+18,0.006984400097280741,0.030297299847006798,-9.868805885314941
1.7294253754471803e+18,0.008732568472623825,0.03389481455087662,-9.861741065979004
1.7294253754531804e+18,-0.008980716578662395,0.09195765852928162,-9.803549766540527
1.7294253754591805e+18,-0.0033800615929067135,0.03470803424715996,-9.807826042175293
1.7294253754651807e+18,0.022398734465241432,-0.032888978719711304,-9.837361335754395
1.7294253754711808e+18,-0.06547979265451431,-0.01321452483534813,-9.881759643554688
1.729425375477181e+18,-0.055178843438625336,0.03635583072900772,-9.902446746826172
1.729425375483181e+18,-0.10479091107845306,-0.0403229184448719,-9.8358736038208
1.7294253754921812e+18,-0.065153107047081,0.0602419376373291,-9.823610305786133
1.7294253755011814e+18,-0.018124757334589958,0.02217143587768078,-9.758443832397461
1.7294253755071816e+18,-0.004369921516627073,0.025596382096409798,-9.835684776306152
1.7294253755131817e+18,-0.04942749813199043,0.004070713184773922,-9.781378746032715
1.7294253755191818e+18,0.04432114213705063,0.026779910549521446,-9.876730918884277
1.729425375525182e+18,-0.022889601066708565,-0.027677388861775398,-9.843774795532227
1.7294253755341821e+18,0.011373289860785007,-0.05026669055223465,-9.86320972442627
1.7294253755401823e+18,0.05639790743589401,-0.07765469700098038,-9.807327270507812
1.7294253755461824e+18,-0.03371213376522064,0.008757526986300945,-9.808967590332031
1.7294253755521825e+18,-0.01204205397516489,-0.030744807794690132,-9.858814239501953
1.7294253755611827e+18,-0.0775064155459404,0.01377863809466362,-9.78441333770752
1.7294253755671828e+18,0.004956972319632769,0.0034962017089128494,-9.78612995147705
1.729425375576183e+18,-0.033019911497831345,-0.029421012848615646,-9.85958480834961
1.7294253755821832e+18,-0.03104868158698082,-0.05399175360798836,-9.844010353088379
1.7294253755881833e+18,0.06763748079538345,0.019977223128080368,-9.83778190612793
1.7294253755971835e+18,-0.023277105763554573,0.10238101333379745,-9.842586517333984
1.7294253756061837e+18,0.008337448351085186,0.04821382090449333,-9.8517484664917
1.729425375615184e+18,0.05976175144314766,-0.02476680651307106,-9.766161918640137
1.729425375621184e+18,-0.020540699362754822,-0.026365287601947784,-9.803657531738281
1.7294253756301842e+18,-0.023588793352246284,-0.02369825914502144,-9.820022583007812
1.7294253756361843e+18,0.03926161676645279,-0.015686949715018272,-9.762300491333008
1.7294253756421844e+18,0.06358294934034348,-0.013672414235770702,-9.793726921081543
1.7294253756481846e+18,0.018958982080221176,-2.2719403204973787e-05,-9.852544784545898
1.7294253756571848e+18,-0.002604139968752861,0.039271362125873566,-9.833123207092285
1.729425375666185e+18,-0.010093853808939457,0.05929754674434662,-9.912275314331055
1.7294253756751852e+18,0.03925836831331253,0.015322243794798851,-9.799101829528809
1.7294253756841853e+18,0.04306648299098015,-0.057477161288261414,-9.885568618774414
1.7294253756901855e+18,0.01685321517288685,-0.01894647441804409,-9.862489700317383
1.7294253756991857e+18,0.008809514343738556,-0.04514317214488983,-9.790517807006836
1.729425375711186e+18,-0.0370873287320137,0.05132978409528732,-9.853671073913574
1.729425375717186e+18,-0.08187629282474518,-0.07011812925338745,-9.867931365966797
1.7294253757261862e+18,0.12149558961391449,-0.037682175636291504,-9.82387924194336
1.7294253757351864e+18,-0.054403048008680344,0.03372765704989433,-9.826621055603027
1.7294253757441866e+18,0.002933590905740857,-0.005952233914285898,-9.822807312011719
1.7294253757531868e+18,0.04490641504526138,-0.044690925627946854,-9.782087326049805
1.729425375759187e+18,0.05586114898324013,-0.0067326342687010765,-9.866196632385254
1.7294253757681871e+18,0.0371980257332325,-0.02757655829191208,-9.821675300598145
1.7294253757711872e+18,-0.05250174552202225,0.030459415167570114,-9.736764907836914
1.7294253757801874e+18,-0.040069304406642914,-0.004559915047138929,-9.839150428771973
1.7294253757861875e+18,-0.024227600544691086,-0.02681591734290123,-9.883933067321777
1.7294253757891876e+18,-0.0328262522816658,0.06009636074304581,-9.809651374816895
1.7294253757981878e+18,0.0354473851621151,0.048173677176237106,-9.86914348602295
1.729425375807188e+18,-0.02568032592535019,0.010269598104059696,-9.881224632263184
1.7294253758161882e+18,0.07203776389360428,0.024833284318447113,-9.864838600158691
1.7294253758221883e+18,-0.024571167305111885,-0.03502533584833145,-9.851712226867676
1.7294253758311885e+18,-0.0025893361307680607,0.05254315584897995,-9.811546325683594
1.7294253758401887e+18,-0.0440731905400753,-0.07173296064138412,-9.867504119873047
1.7294253758491889e+18,0.0008912392077036202,-0.08054160326719284,-9.830196380615234
1.729425375858189e+18,-0.00613900413736701,-0.0578860305249691,-9.773991584777832
1.7294253758671892e+18,0.0003144618822261691,0.045764755457639694,-9.810076713562012
1.7294253758761894e+18,0.026734327897429466,-0.006170560605823994,-9.762338638305664
1.7294253758851896e+18,0.05227264389395714,0.05792275443673134,-9.850696563720703
1.7294253758941898e+18,0.009783108718693256,0.01655593514442444,-9.807147026062012
1.72942537590319e+18,0.01761482283473015,0.0006630015559494495,-9.796041488647461
1.7294253759091901e+18,0.030898364260792732,-0.020610079169273376,-9.858450889587402
1.7294253759181903e+18,-0.032021891325712204,0.003237541299313307,-9.836335182189941
1.7294253759271905e+18,-0.04370216652750969,-0.032102108001708984,-9.791032791137695
1.7294253759361907e+18,-0.013852193020284176,0.08567319065332413,-9.83234977722168
1.729425375945191e+18,-0.058136533945798874,0.0042260694317519665,-9.853472709655762
1.729425375954191e+18,-0.036030080169439316,0.024286329746246338,-9.873656272888184
1.7294253759631913e+18,0.014541609212756157,0.05250096321105957,-9.861199378967285
1.7294253759721915e+18,0.0435439832508564,-0.0035881437361240387,-9.849913597106934
1.7294253759811917e+18,-0.013436578214168549,-0.04869871214032173,-9.904372215270996
1.7294253759901919e+18,-0.027397383004426956,-0.002666706684976816,-9.962799072265625
1.729425375999192e+18,0.0440099835395813,0.06297382712364197,-9.879339218139648
1.7294253760081923e+18,0.0021106405183672905,0.03723074123263359,-9.837383270263672
1.7294253760171924e+18,-0.05752783641219139,0.05113227292895317,-9.807784080505371
1.7294253760291927e+18,6.957641744520515e-05,0.05530613288283348,-9.878251075744629
1.729425376038193e+18,0.009972142986953259,-0.031416069716215134,-9.892906188964844
1.729425376047193e+18,0.044307686388492584,0.01967630349099636,-9.937707901000977
1.7294253760561933e+18,-0.038220349699258804,0.00019945509848184884,-9.86925220489502
1.7294253760651935e+18,-0.003882309887558222,0.01873401179909706,-9.846929550170898
1.7294253760741937e+18,-0.05135765299201012,-0.05270155146718025,-9.776265144348145
1.7294253760831939e+18,-0.03823969513177872,-0.06314674019813538,-9.84240436553955
1.729425376092194e+18,-0.004106864798814058,-0.004682858940213919,-9.904122352600098
1.7294253761011942e+18,0.061382800340652466,-0.014222714118659496,-9.836430549621582
1.7294253761101944e+18,0.04994835704565048,-0.006574213970452547,-9.877089500427246
1.7294253761191946e+18,0.014259563758969307,-0.0258678887039423,-9.748498916625977
1.7294253761281948e+18,0.05889023467898369,0.017254849895834923,-9.816844940185547
1.729425376137195e+18,-0.025128215551376343,-0.030587762594223022,-9.828414916992188
1.7294253761461952e+18,-0.003717963118106127,-0.053598176687955856,-9.792001724243164
1.7294253761581955e+18,-0.02033783495426178,-0.0015377892414107919,-9.86894416809082
1.7294253761671956e+18,0.0608270987868309,-0.029609911143779755,-9.867140769958496
1.7294253761761958e+18,0.001962462905794382,0.044862136244773865,-9.887386322021484
1.729425376185196e+18,0.05762866139411926,0.04394574090838432,-9.706775665283203
1.7294253761941962e+18,0.039728980511426926,-0.05555320158600807,-9.763855934143066
1.7294253762031964e+18,-0.06155763193964958,-0.019359301775693893,-9.845940589904785
1.7294253762121966e+18,0.00766192888841033,-0.02924792654812336,-9.890371322631836
1.7294253762211968e+18,0.01449366845190525,-0.08888835459947586,-9.859856605529785
1.729425376230197e+18,0.02054833620786667,-0.023531688377261162,-9.785179138183594
1.7294253762391972e+18,-0.03652476519346237,-0.01397664938122034,-9.893610000610352
1.7294253762481974e+18,-0.02358342707157135,0.012619572691619396,-9.800773620605469
1.7294253762571976e+18,0.015639759600162506,0.03555787727236748,-9.83680248260498
1.7294253762661978e+18,-0.012884833849966526,-0.027631109580397606,-9.752324104309082
1.729425376275198e+18,-0.05489390715956688,-0.02213350310921669,-9.763992309570312
1.7294253762871982e+18,-0.01829647831618786,-0.0012841058196499944,-9.804119110107422
1.7294253762961984e+18,-0.010604891926050186,-0.07355370372533798,-9.846467971801758
1.7294253763051986e+18,-0.07281772792339325,0.010747378692030907,-9.852021217346191
1.7294253763141988e+18,-0.025969289243221283,0.035821229219436646,-9.85185432434082
1.729425376323199e+18,0.0649164468050003,-0.03859737887978554,-9.831673622131348
1.7294253763321992e+18,0.08296502381563187,0.04728269204497337,-9.810933113098145
1.7294253763411994e+18,-0.042970385402441025,-0.04432740807533264,-9.92209243774414
1.7294253763471995e+18,0.037111006677150726,-0.046016767621040344,-9.848410606384277
1.7294253763561997e+18,-0.05796750262379646,0.02113686501979828,-9.843939781188965
1.7294253763621998e+18,-0.036408938467502594,-0.08169127255678177,-9.803712844848633
1.7294253763712e+18,0.02899184450507164,0.0178243275731802,-9.837662696838379
1.7294253763832003e+18,0.004371292889118195,0.04559484124183655,-9.7586088180542
1.7294253763922004e+18,-0.07369197905063629,0.007761755026876926,-9.86289119720459
1.7294253763982006e+18,0.07646699249744415,0.019021881744265556,-9.84213924407959
1.7294253764072008e+18,-0.03757369890809059,-0.0017329375259578228,-9.781280517578125
1.729425376416201e+18,-0.011630087159574032,0.041278380900621414,-9.772351264953613
1.7294253764282012e+18,-0.03750044107437134,-0.03721514344215393,-9.879255294799805
1.7294253764372014e+18,-0.04320830851793289,0.02675250731408596,-9.851868629455566
1.7294253764462016e+18,-0.0645931288599968,0.008167056366801262,-9.771614074707031
1.7294253764552018e+18,0.012827131897211075,0.010796815156936646,-9.847050666809082
1.729425376464202e+18,-0.027135126292705536,0.01469696220010519,-9.792865753173828
1.7294253764732022e+18,0.017060380429029465,-0.06290104985237122,-9.81540298461914
1.7294253764822024e+18,0.04197625070810318,-0.027913890779018402,-9.804815292358398
1.7294253764912026e+18,0.009520906955003738,-0.03958400338888168,-9.754247665405273
1.7294253765002028e+18,-0.060752023011446,0.023163307458162308,-9.887454986572266
1.729425376509203e+18,0.04987334460020065,0.058402784168720245,-9.82423210144043
1.7294253765182031e+18,0.027391033247113228,-0.025904575362801552,-9.783733367919922
1.7294253765272033e+18,0.07625173032283783,-0.011452354490756989,-9.878301620483398
1.7294253765362035e+18,0.07424093782901764,0.08092425763607025,-9.831331253051758
1.7294253765422036e+18,0.01696937531232834,-0.07013994455337524,-9.870686531066895
1.7294253765512038e+18,0.004449586383998394,-0.05912249907851219,-9.751884460449219
1.729425376560204e+18,-0.007474451791495085,-0.031631629914045334,-9.85927677154541
1.7294253765692042e+18,0.032892242074012756,-0.0008914117352105677,-9.820552825927734
1.7294253765782044e+18,0.013745791278779507,0.038622912019491196,-9.832398414611816
1.7294253765872046e+18,0.024308811873197556,-0.04911208897829056,-9.84290885925293
1.7294253765962048e+18,0.01881081983447075,0.018613629043102264,-9.837983131408691
1.729425376605205e+18,0.026864873245358467,0.07488001137971878,-9.807147026062012
1.7294253766142052e+18,0.03631597012281418,0.03522713854908943,-9.81076717376709
1.7294253766232054e+18,-0.020770063623785973,-0.042668119072914124,-9.696223258972168
1.7294253766352056e+18,-0.004122622776776552,-0.08402718603610992,-9.82107162475586
1.7294253766442058e+18,-0.013335097581148148,-0.008577036671340466,-9.832720756530762
1.729425376653206e+18,0.013711754232645035,0.05307052657008171,-9.878372192382812
1.7294253766622062e+18,0.026642248034477234,0.013385528698563576,-9.903182029724121
1.7294253766682063e+18,0.006688424851745367,0.039258792996406555,-9.856685638427734
1.7294253766742065e+18,0.0366242378950119,0.016712788492441177,-9.815709114074707
1.7294253766832067e+18,0.033576272428035736,0.06183493137359619,-9.835457801818848
1.7294253766862067e+18,0.0008211819804273546,-0.07073886692523956,-9.844596862792969
1.729425376695207e+18,0.01060610543936491,-0.01168867014348507,-9.926225662231445
1.729425376701207e+18,0.005494616460055113,-0.08760450780391693,-9.80831241607666
1.7294253767072072e+18,0.0075414106249809265,-0.05176672339439392,-9.816988945007324
1.7294253767162074e+18,-0.06385373324155807,-0.011514090932905674,-9.795416831970215
1.7294253767222075e+18,0.05028245225548744,0.019717669114470482,-9.910097122192383
1.7294253767282076e+18,0.03458292782306671,0.03469996899366379,-9.828152656555176
1.7294253767342077e+18,0.0028323051519691944,-0.030443336814641953,-9.812799453735352
1.729425376743208e+18,0.042001400142908096,0.02841990999877453,-9.824044227600098
1.729425376746208e+18,-0.00018637365428730845,-0.028952399268746376,-9.837855339050293
1.7294253767552082e+18,-0.04249035567045212,0.014935309067368507,-9.81457233428955
1.7294253767642084e+18,-0.047759950160980225,0.010829366743564606,-9.764942169189453
1.7294253767732086e+18,0.03146207332611084,-0.03923625871539116,-9.753177642822266
1.7294253767822088e+18,-0.05099823325872421,0.04390181228518486,-9.818075180053711
1.729425376791209e+18,-0.012990185059607029,0.07706165313720703,-9.763128280639648
1.7294253768002092e+18,0.02248474396765232,0.02278628572821617,-9.801570892333984
1.7294253768092093e+18,-0.01180042140185833,0.03811592236161232,-9.803542137145996
1.7294253768182095e+18,0.002417461946606636,0.008913083001971245,-9.853549003601074
1.7294253768272097e+18,-0.036099232733249664,-0.05366193503141403,-9.801493644714355
1.72942537683921e+18,-0.035927001386880875,-0.009499792009592056,-9.873689651489258
1.72942537684521e+18,-0.03164882957935333,-0.01117238961160183,-9.826401710510254
1.7294253768542103e+18,-0.01479924563318491,0.029460180550813675,-9.774362564086914
1.7294253768662106e+18,0.04786987975239754,-0.0015851499047130346,-9.85894775390625
1.7294253768752108e+18,0.028899360448122025,0.04058106616139412,-9.824503898620605
1.729425376884211e+18,0.026511045172810555,0.046609945595264435,-9.854466438293457
1.729425376890211e+18,-0.004190070554614067,0.018734795972704887,-9.85958194732666
1.7294253768992113e+18,-0.019613781943917274,0.05639120191335678,-9.792144775390625
1.7294253769082115e+18,-0.0445132702589035,-0.007175880018621683,-9.887862205505371
1.7294253769172116e+18,-0.03002338483929634,-0.03898206725716591,-9.802414894104004
1.7294253769262118e+18,0.00032823332003317773,-0.04228481650352478,-9.808999061584473
1.729425376932212e+18,0.03298303484916687,-0.020008809864521027,-9.736235618591309
1.729425376938212e+18,-0.09738370776176453,-0.06836260855197906,-9.799335479736328
1.7294253769442122e+18,-0.05330923944711685,-0.08285137265920639,-9.83055305480957
1.7294253769502124e+18,-0.049859948456287384,0.05379148945212364,-9.821048736572266
1.7294253769592125e+18,0.023941345512866974,0.03455903381109238,-9.83359432220459
1.7294253769652127e+18,-0.011844851076602936,-0.029521990567445755,-9.798428535461426
1.7294253769712128e+18,-0.002304974477738142,-0.03525726497173309,-9.753514289855957
1.729425376980213e+18,0.00497668981552124,-0.012665696442127228,-9.785338401794434
1.729425376986213e+18,-0.09413547813892365,-0.018223578110337257,-9.8624906539917
1.7294253769922132e+18,-0.004249583464115858,0.05012214556336403,-9.83276653289795
1.7294253770012134e+18,0.00985686480998993,-0.01357814110815525,-9.835100173950195
1.7294253770072136e+18,0.0018142579356208444,0.031213248148560524,-9.836647033691406
1.7294253770162138e+18,0.001657302724197507,-0.011200647801160812,-9.843324661254883
1.729425377022214e+18,0.10534676909446716,-0.06632141023874283,-9.831947326660156
1.729425377031214e+18,0.031788166612386703,0.02469448745250702,-9.794790267944336
1.7294253770372142e+18,-0.02827100083231926,0.008049044758081436,-9.766573905944824
1.7294253770462144e+18,-0.06841433048248291,0.02656194195151329,-9.814109802246094
1.7294253770522145e+18,-0.0030729772988706827,-0.02977687120437622,-9.80909252166748
1.7294253770582147e+18,-0.019357847049832344,-0.01546263974159956,-8.171274185180664
1.7294253770672148e+18,-0.07108254730701447,0.016049738973379135,-7.634178638458252
1.729425377073215e+18,-0.011846406385302544,0.04783551022410393,-7.443185329437256
1.7294253770822152e+18,-0.11645975708961487,-0.016430651769042015,-7.503818511962891
1.7294253770882153e+18,-0.04170481860637665,-0.06570017337799072,-9.290230751037598
1.7294253770972155e+18,-0.14681865274906158,-0.048566240817308426,-11.766666412353516
1.7294253771062157e+18,-0.11684615164995193,-0.12228716164827347,-12.581171035766602
1.729425377115216e+18,-0.12315567582845688,-0.15028879046440125,-12.620321273803711
1.729425377124216e+18,-0.144456684589386,-0.16638962924480438,-12.887267112731934
1.7294253771302162e+18,-0.10399757325649261,-0.09161606431007385,-12.96544075012207
1.7294253771362163e+18,-0.15649646520614624,-0.09350939840078354,-12.779603004455566
1.7294253771482166e+18,-0.19096015393733978,-0.06293276697397232,-12.725086212158203
1.7294253771572168e+18,-0.11396866291761398,-0.17716902494430542,-12.660704612731934
1.729425377166217e+18,-0.07999154925346375,-0.09867920726537704,-12.370266914367676
1.7294253771752172e+18,-0.06573298573493958,-0.11948142945766449,-12.334087371826172
1.7294253771812173e+18,-0.04787604138255119,-0.05261079967021942,-12.180453300476074
1.7294253771902175e+18,-0.13474521040916443,-0.11074509471654892,-12.190094947814941
1.7294253771962176e+18,-0.05838090181350708,-0.08732477575540543,-12.055963516235352
1.7294253772022177e+18,-0.030152898281812668,-0.0748182013630867,-11.790102005004883
1.729425377211218e+18,-0.053865522146224976,-0.09311319142580032,-11.667183876037598
1.729425377220218e+18,-0.13365697860717773,0.03168725222349167,-11.56570816040039
1.7294253772262182e+18,-0.16708387434482574,-0.009319819509983063,-11.449005126953125
1.7294253772352184e+18,-0.037381600588560104,-0.06027517840266228,-11.38947868347168
1.7294253772442186e+18,-0.08390972018241882,-0.0892810970544815,-11.225057601928711
1.729425377256219e+18,-0.027492845430970192,-0.05152695253491402,-10.849322319030762
1.7294253772682191e+18,0.006663482636213303,-0.008575644344091415,-10.5903959274292
1.7294253772802194e+18,0.0006805527955293655,-0.012240534648299217,-10.439777374267578
1.7294253772892196e+18,0.003166232258081436,0.004997558891773224,-10.390790939331055
1.7294253773012198e+18,0.007341863587498665,0.008905505761504173,-10.209189414978027
1.72942537731022e+18,0.030824661254882812,0.0045573096722364426,-10.17746639251709
1.7294253773192202e+18,0.0388529896736145,0.032727282494306564,-10.130182266235352
1.7294253773282204e+18,0.08391513675451279,0.035207003355026245,-9.895660400390625
1.7294253773372206e+18,-0.10425236821174622,0.07045286893844604,-9.832048416137695
1.7294253773462208e+18,-0.07643721252679825,0.004894263111054897,-9.784164428710938
1.729425377358221e+18,0.04746357724070549,0.019359098747372627,-9.811116218566895
1.7294253773672212e+18,-0.02106262370944023,-0.0032388069666922092,-9.67619514465332
1.7294253773762214e+18,-0.027016185224056244,0.06615353375673294,-9.604545593261719
1.7294253773852216e+18,-0.0030683185905218124,-0.050354115664958954,-9.619462013244629
1.7294253773942218e+18,0.029501741752028465,0.010615436360239983,-9.574817657470703
1.729425377403222e+18,-0.011785419657826424,0.003791053779423237,-9.624529838562012
1.7294253774122222e+18,-0.028273101896047592,-0.02275930717587471,-9.522120475769043
1.7294253774182223e+18,-0.011557517573237419,0.04083521291613579,-9.4608154296875
1.7294253774272225e+18,0.005790699739009142,-0.024058673530817032,-9.400833129882812
1.7294253774362227e+18,-0.008291153237223625,0.008044625632464886,-9.29423713684082
1.729425377445223e+18,0.01904965192079544,-0.024486355483531952,-9.297225952148438
1.729425377454223e+18,-0.007949179038405418,0.03729074448347092,-9.297284126281738
1.7294253774632233e+18,0.05889305844902992,0.0012202952057123184,-9.31159496307373
1.7294253774722235e+18,-0.06220430135726929,-0.07976794987916946,-9.254959106445312
1.7294253774812237e+18,-0.026217058300971985,-0.009918389841914177,-9.234082221984863
1.7294253774902239e+18,0.05547415837645531,0.0061202263459563255,-9.225561141967773
1.729425377499224e+18,-0.020528949797153473,0.03154844045639038,-9.078337669372559
1.7294253775082243e+18,0.048231977969408035,-0.04630349203944206,-9.090506553649902
1.7294253775172244e+18,0.03469880670309067,0.044032756239175797,-9.207378387451172
1.7294253775262246e+18,0.0088126165792346,0.009117514826357365,-9.152724266052246
1.7294253775352248e+18,0.03846936300396919,-0.04779762402176857,-9.107802391052246
1.729425377544225e+18,0.05672282353043556,0.00829359795898199,-9.144455909729004
1.7294253775532252e+18,-0.0065482184290885925,0.09649497270584106,-9.082185745239258
1.7294253775622254e+18,-0.006148872897028923,-0.043226394802331924,-9.075597763061523
1.7294253775712256e+18,0.04687702655792236,-0.053785618394613266,-9.035711288452148
1.7294253775772257e+18,0.007436942309141159,0.04700358211994171,-9.142457962036133
1.729425377586226e+18,0.007283594459295273,-0.021328745409846306,-9.088716506958008
1.729425377595226e+18,0.07467668503522873,0.03522837534546852,-9.043726921081543
1.7294253776042263e+18,0.0635351687669754,-0.02732589840888977,-9.090685844421387
1.7294253776132265e+18,0.025955453515052795,0.03586363047361374,-9.067340850830078
1.7294253776192266e+18,-0.035713184624910355,0.018611285835504532,-9.004830360412598
1.7294253776282268e+18,-0.004642359912395477,-0.014603056013584137,-9.175091743469238
1.729425377637227e+18,-0.0657038763165474,-0.03471766784787178,-9.0902738571167
1.7294253776462272e+18,0.0025699958205223083,-0.023931799456477165,-9.05457592010498
1.7294253776552274e+18,-0.00791555643081665,-0.02988862618803978,-9.104720115661621
1.7294253776642276e+18,0.025586560368537903,0.012575747445225716,-9.112669944763184
1.7294253776702277e+18,0.03799979016184807,0.019590243697166443,-9.146109580993652
1.7294253776732278e+18,-0.06615123152732849,0.03722378611564636,-9.098851203918457
1.729425377682228e+18,0.07362938672304153,-0.026656894013285637,-9.098721504211426
1.729425377688228e+18,-0.027656298130750656,-0.022974692285060883,-9.124244689941406
1.7294253776972283e+18,-0.017229674383997917,0.03442399948835373,-9.086711883544922
1.7294253777032284e+18,-0.029662320390343666,0.00011651730164885521,-9.162245750427246
1.7294253777092285e+18,-0.037688229233026505,0.04398617893457413,-9.137354850769043
1.7294253777152287e+18,0.013610344380140305,0.05322728678584099,-9.051787376403809
1.7294253777242289e+18,-0.06444907188415527,-0.03376305475831032,-9.11841869354248
1.729425377730229e+18,-0.02594091184437275,-0.044877294450998306,-9.155477523803711
1.729425377736229e+18,0.03438583388924599,-0.034683577716350555,-9.122361183166504
1.7294253777422292e+18,-0.05810536444187164,-0.016014255583286285,-9.185254096984863
1.7294253777512294e+18,0.041320230811834335,0.05549513176083565,-9.13340950012207
1.7294253777572296e+18,0.033387649804353714,0.048661332577466965,-9.26484203338623
1.7294253777632297e+18,0.025152530521154404,0.022690143436193466,-9.191888809204102
1.72942537777223e+18,-0.006702318321913481,0.030628938227891922,-9.193092346191406
1.72942537777823e+18,-0.06262307614088058,-0.01598067581653595,-9.194165229797363
1.7294253777872302e+18,0.011785032227635384,0.03633219003677368,-9.2064847946167
1.7294253777992305e+18,-0.009052187204360962,0.05250868573784828,-9.189284324645996
1.7294253778082307e+18,-0.040193166583776474,0.021536557003855705,-9.288856506347656
1.7294253778172308e+18,0.01243714988231659,-0.023788822814822197,-9.158839225769043
1.729425377823231e+18,-0.04046730697154999,0.059041865170001984,-9.192153930664062
1.7294253778322312e+18,-0.02971389889717102,-0.006424932740628719,-9.191617965698242
1.7294253778412314e+18,-0.026167849078774452,0.021273979917168617,-9.188596725463867
1.7294253778502316e+18,-0.0773705393075943,-0.020535970106720924,-9.284379005432129
1.7294253778592317e+18,-0.07145389914512634,-0.0556788295507431,-9.316667556762695
1.729425377868232e+18,0.003607574850320816,0.052681297063827515,-9.298344612121582
1.729425377877232e+18,0.014784999191761017,-0.028334317728877068,-9.260465621948242
1.7294253778862323e+18,0.04805443435907364,-0.016891732811927795,-9.326879501342773
1.7294253778952325e+18,0.059578701853752136,0.023228242993354797,-9.333661079406738
1.7294253779042327e+18,-0.007405674085021019,-0.061759885400533676,-9.320834159851074
1.729425377913233e+18,-0.040866412222385406,-0.037095218896865845,-9.352741241455078
1.729425377922233e+18,0.0023627709597349167,-0.027820928022265434,-9.359732627868652
1.7294253779312333e+18,-0.04265200346708298,0.05061383917927742,-9.439848899841309
1.7294253779402335e+18,-0.04309668019413948,0.018061362206935883,-9.397607803344727
1.7294253779492337e+18,-0.02150570973753929,-0.03614310175180435,-9.393601417541504
1.7294253779582339e+18,0.03243519738316536,-0.06260167062282562,-9.36459732055664
1.729425377967234e+18,-0.09594003856182098,-0.020547082647681236,-9.36607551574707
1.7294253779762342e+18,-0.03673028573393822,-0.082766592502594,-9.452038764953613
1.7294253779852344e+18,0.009675532579421997,0.0015559829771518707,-9.474074363708496
1.7294253779942346e+18,-0.0521601177752018,-0.027947593480348587,-9.491555213928223
1.7294253780032348e+18,-0.0752076506614685,-0.05908004939556122,-9.43510627746582
1.729425378012235e+18,-0.11520767956972122,-0.01916874572634697,-9.528533935546875
1.7294253780242353e+18,-0.07377956807613373,0.0074742697179317474,-9.557195663452148
1.7294253780332355e+18,-0.009033193811774254,-0.00011270493268966675,-9.4772367477417
1.7294253780422356e+18,-0.022658247500658035,0.02801395207643509,-9.437063217163086
1.7294253780482358e+18,-0.033814262598752975,0.018504925072193146,-9.599529266357422
1.729425378057236e+18,-0.08952760696411133,-0.00987914577126503,-9.575766563415527
1.7294253780662362e+18,-0.07740762829780579,0.014895517379045486,-9.54985523223877
1.7294253780752364e+18,-0.09547239542007446,-0.08368995785713196,-9.630228042602539
1.7294253780842365e+18,-0.06404134631156921,-0.022747697308659554,-9.580677032470703
1.7294253780932367e+18,-0.0657816082239151,-0.01833236962556839,-9.624471664428711
1.729425378102237e+18,-0.08908858150243759,0.006702901795506477,-9.710737228393555
1.7294253781142372e+18,-0.012157928198575974,-0.004073638468980789,-9.520713806152344
1.7294253781232374e+18,0.05841720104217529,0.002044767141342163,-9.7112455368042
1.7294253781292375e+18,-0.06786321103572845,-0.015366364270448685,-9.711334228515625
1.7294253781382377e+18,0.015140146017074585,0.023701418191194534,-9.740938186645508
1.729425378147238e+18,-0.09331558644771576,-0.005423268303275108,-9.802837371826172
1.729425378156238e+18,-0.06581787019968033,-0.04451971501111984,-9.731624603271484
1.7294253781652383e+18,-0.04009063541889191,0.02798454463481903,-9.68010425567627
1.7294253781742385e+18,-0.1201753169298172,-0.06055234372615814,-9.6956787109375
1.7294253781832387e+18,-0.06817297637462616,-0.06044362112879753,-9.711041450500488
1.7294253781922388e+18,-0.07201293855905533,-0.006648922339081764,-9.775400161743164
1.729425378201239e+18,-0.06306540220975876,-0.020726438611745834,-10.589835166931152
1.7294253782102392e+18,-0.06741926074028015,-0.03809157758951187,-10.92135238647461
1.7294253782192394e+18,-0.03145509958267212,0.018581070005893707,-10.917993545532227
1.7294253782282396e+18,-0.11805304884910583,-0.012572823092341423,-10.870407104492188
1.7294253782372398e+18,-0.12231436371803284,-0.05917172133922577,-10.770678520202637
1.72942537824624e+18,-0.056359440088272095,-0.03765753656625748,-10.679530143737793
1.7294253782552402e+18,-0.10672183334827423,-0.032312650233507156,-10.74853801727295
1.7294253782642404e+18,-0.0318622961640358,-0.11407525837421417,-10.713828086853027
1.7294253782732406e+18,-0.10726628452539444,0.029097937047481537,-10.655829429626465
1.7294253782822408e+18,-0.15626665949821472,-0.01004346925765276,-10.601161003112793
1.729425378291241e+18,-0.10440456122159958,-0.05053696408867836,-10.515267372131348
1.7294253783002412e+18,-0.07511555403470993,-0.009457487612962723,-10.369370460510254
1.7294253783062413e+18,-0.039036888629198074,0.0035756584256887436,-10.413152694702148
1.7294253783122414e+18,-0.05549076944589615,-0.0915631651878357,-10.479055404663086
1.7294253783212416e+18,-0.08274326473474503,-0.017889201641082764,-10.396323204040527
1.7294253783302418e+18,-0.01325928419828415,-0.07362537086009979,-10.395343780517578
1.729425378339242e+18,-0.0032804161310195923,-0.026736825704574585,-10.33045768737793
1.7294253783482422e+18,-0.11923523247241974,-0.03468072786927223,-10.251360893249512
1.7294253783572424e+18,-0.15740759670734406,-0.021114196628332138,-10.184432029724121
1.7294253783662426e+18,-0.15059292316436768,-0.07781989872455597,-10.217761993408203
1.7294253783752428e+18,-0.12393251061439514,-0.041095491498708725,-10.225204467773438
1.729425378384243e+18,-0.0701807364821434,-0.010633496567606926,-10.18690299987793
1.7294253783932431e+18,-0.08785467594861984,-0.07253112643957138,-10.120597839355469
1.7294253784022433e+18,-0.11204341053962708,-0.07541602104902267,-10.057390213012695
1.7294253784112435e+18,-0.0586666464805603,0.0065414197742938995,-10.034114837646484
1.7294253784202437e+18,-0.0569123774766922,-1.3407319784164429e-05,-10.066461563110352
1.7294253784262438e+18,-0.08362928032875061,-0.018997211009263992,-9.997711181640625
1.729425378435244e+18,-0.1691531538963318,-0.11317729949951172,-9.927749633789062
1.7294253784442442e+18,-0.07735533267259598,-0.015279408544301987,-9.888583183288574
1.7294253784532444e+18,-0.007082842290401459,-0.012542113661766052,-9.90206241607666
1.7294253784622446e+18,-0.11160007864236832,0.016946494579315186,-9.87867546081543
1.7294253784712448e+18,-0.0036848336458206177,0.05206063389778137,-10.021916389465332
1.729425378480245e+18,-0.11953702569007874,-0.07812478393316269,-9.913994789123535
1.7294253784892452e+18,-0.13037890195846558,-0.1546342670917511,-9.835984230041504
1.7294253784982454e+18,-0.06806319206953049,-0.11300377547740936,-9.884631156921387
1.7294253785072456e+18,-0.13359571993350983,-0.09758687019348145,-9.887548446655273
1.7294253785192458e+18,-0.094448022544384,-0.11213040351867676,-9.79910945892334
1.729425378528246e+18,-0.09927402436733246,-0.040359918028116226,-9.800270080566406
1.7294253785372462e+18,-0.07973097264766693,-0.08973176777362823,-9.831921577453613
1.7294253785462464e+18,-0.12484046816825867,-0.07844550907611847,-9.860854148864746
1.7294253785552466e+18,-0.14983877539634705,-0.041450031101703644,-9.717690467834473
1.7294253785642468e+18,-0.08457564562559128,-0.02475104108452797,-9.653072357177734
1.729425378570247e+18,-0.06024041026830673,0.02007082849740982,-9.703014373779297
1.729425378579247e+18,-0.04645198583602905,-0.05458148568868637,-9.689593315124512
1.7294253785882473e+18,-0.09698659181594849,-0.1355103850364685,-9.642555236816406
1.7294253785972475e+18,-0.10241233557462692,-0.04694197699427605,-9.758851051330566
1.7294253786062477e+18,-0.11660465598106384,-0.013336524367332458,-9.679635047912598
1.729425378615248e+18,-0.1209418922662735,-0.11578039824962616,-9.650662422180176
1.729425378624248e+18,-0.06883417069911957,-0.012102559208869934,-9.678842544555664
1.7294253786332483e+18,-0.05005330219864845,-0.04827167093753815,-9.58539867401123
1.7294253786422484e+18,-0.06121213734149933,-0.13278523087501526,-9.644204139709473
1.7294253786512486e+18,-0.044694654643535614,-0.07582640647888184,-9.678016662597656
1.7294253786602488e+18,-0.13823889195919037,-0.07913073152303696,-9.670188903808594
1.729425378669249e+18,-0.06444485485553741,-0.06418251246213913,-9.671196937561035
1.7294253786782492e+18,-0.19870400428771973,-0.07613043487071991,-9.563188552856445
1.7294253786872494e+18,-0.0716426894068718,-0.05357830971479416,-9.515311241149902
1.7294253786962496e+18,-0.065370574593544,-0.06640153378248215,-9.601263046264648
1.7294253787052498e+18,-0.1344222128391266,-0.15853086113929749,-9.648856163024902
1.72942537871425e+18,-0.05855799838900566,-0.1093330830335617,-9.592991828918457
1.7294253787232502e+18,-0.11539176106452942,-0.05548802763223648,-9.705306053161621
1.7294253787322504e+18,-0.0599353089928627,-0.014312312006950378,-9.548768997192383
1.7294253787412506e+18,-0.11179501563310623,-0.09521728754043579,-9.516878128051758
1.7294253787502508e+18,-0.07867893576622009,-0.04889722168445587,-9.566746711730957
1.729425378756251e+18,-0.22170697152614594,-0.03454119712114334,-9.639132499694824
1.729425378765251e+18,-0.14683619141578674,-0.11865553259849548,-9.587118148803711
1.7294253787742513e+18,-0.115663081407547,-0.09570182859897614,-9.607748031616211
1.7294253787832515e+18,-0.14196863770484924,-0.15302632749080658,-9.609041213989258
1.7294253787922516e+18,-0.230429545044899,-0.1386234313249588,-9.634053230285645
1.7294253788012518e+18,-0.12802940607070923,-0.11092269420623779,-9.586458206176758
1.729425378810252e+18,-0.03112301230430603,-0.0023592710494995117,-9.604509353637695
1.7294253788222523e+18,-0.03459561616182327,-0.041526880115270615,-9.570075035095215
1.7294253788312525e+18,-0.09317120909690857,-0.15035444498062134,-9.571325302124023
1.7294253788402527e+18,-0.20346340537071228,-0.14503639936447144,-9.495972633361816
1.7294253788492529e+18,-0.07034775614738464,-0.08402123302221298,-9.52947998046875
1.729425378858253e+18,-0.1388912796974182,-0.03279176726937294,-9.506024360656738
1.7294253788672532e+18,-0.08298079669475555,-0.04345543310046196,-9.513668060302734
1.7294253788762534e+18,-0.1422709822654724,-0.0883144736289978,-9.569222450256348
1.7294253788852536e+18,-0.09776940941810608,-0.03307001292705536,-9.531423568725586
1.7294253788942538e+18,-0.15473061800003052,-0.09228424727916718,-9.558109283447266
1.729425378903254e+18,-0.14465396106243134,-0.03930223733186722,-9.652177810668945
1.7294253789122542e+18,-0.07903340458869934,-0.0013514608144760132,-9.546131134033203
1.7294253789212544e+18,-0.13361279666423798,-0.11540639400482178,-9.57685375213623
1.7294253789302546e+18,-0.09044194221496582,-0.17615050077438354,-9.66268253326416
1.7294253789392548e+18,-0.11224780976772308,-0.05997411906719208,-9.579081535339355
1.729425378948255e+18,-0.13521014153957367,-0.05229094997048378,-9.547782897949219
1.7294253789572552e+18,-0.06924903392791748,-0.033437348902225494,-9.560843467712402
1.7294253789662554e+18,-0.17014633119106293,-0.08093295991420746,-9.575901985168457
1.7294253789752556e+18,-0.11939352005720139,-0.11232766509056091,-9.56161880493164
1.7294253789842557e+18,-0.12744255363941193,-0.08139185607433319,-9.55638599395752
1.729425378993256e+18,-0.12684807181358337,-0.11075165122747421,-9.637694358825684
1.7294253790022561e+18,-0.1266402155160904,-0.1403333693742752,-9.623823165893555
1.7294253790112563e+18,-0.17736205458641052,-0.03180858865380287,-9.559978485107422
1.7294253790202565e+18,-0.1914578080177307,-0.0849243775010109,-9.607620239257812
1.7294253790292567e+18,-0.1527906209230423,-0.10249000787734985,-9.414947509765625
1.729425379038257e+18,-0.1158512532711029,-0.1646597534418106,-9.611485481262207
1.729425379047257e+18,-0.047239795327186584,-0.042463269084692,-9.610544204711914
1.7294253790562573e+18,-0.12835079431533813,-0.1608567237854004,-9.596771240234375
1.7294253790652575e+18,-0.10457594692707062,-0.11040259897708893,-9.648681640625
1.7294253790742577e+18,-0.08462643623352051,-0.1241379901766777,-9.62562084197998
1.7294253790832579e+18,-0.0720277950167656,-0.03449058532714844,-9.589665412902832
1.729425379092258e+18,-0.16631793975830078,-0.15928404033184052,-9.600321769714355
1.7294253791012582e+18,-0.10593315213918686,-0.10115592926740646,-9.612208366394043
1.7294253791102584e+18,-0.15398140251636505,-0.061427026987075806,-9.524581909179688
1.7294253791192586e+18,-0.08171506226062775,-0.1032407134771347,-9.63582992553711
1.7294253791282588e+18,-0.16647101938724518,-0.060497723519802094,-9.649895668029785
1.729425379137259e+18,-0.08796348422765732,-0.17532910406589508,-9.557768821716309
1.7294253791462592e+18,-0.12078896164894104,-0.1158590316772461,-9.64283275604248
1.7294253791552594e+18,-0.146488219499588,-0.08089479804039001,-9.602696418762207
1.7294253791642596e+18,-0.22478783130645752,-0.07457314431667328,-9.693255424499512
1.7294253791732598e+18,-0.16994749009609222,-0.0023187175393104553,-9.63740348815918
1.72942537918226e+18,-0.17140984535217285,-0.08766132593154907,-9.66723346710205
1.7294253791942602e+18,-0.13310910761356354,-0.08359984308481216,-9.609491348266602
1.7294253792032604e+18,-0.14698217809200287,-0.10513409227132797,-9.603888511657715
1.7294253792122606e+18,-0.14284013211727142,-0.022488437592983246,-9.700749397277832
1.7294253792182607e+18,-0.1400284767150879,-0.013095825910568237,-9.598403930664062
1.729425379227261e+18,-0.13455387949943542,-0.06309624761343002,-9.607826232910156
1.729425379236261e+18,-0.14995887875556946,-0.15085992217063904,-9.666159629821777
1.7294253792452613e+18,-0.15020732581615448,-0.06630023568868637,-9.657461166381836
1.7294253792542615e+18,-0.09913985431194305,-0.0258178673684597,-9.541114807128906
1.7294253792632617e+18,-0.21350377798080444,-0.1390654742717743,-9.58882999420166
1.7294253792692618e+18,-0.08871771395206451,-0.11362631618976593,-9.659228324890137
1.729425379278262e+18,-0.198934867978096,-0.09426578879356384,-9.70671272277832
1.7294253792872622e+18,-0.1886758804321289,-0.12101917713880539,-9.661395072937012
1.7294253792932623e+18,-0.06204146891832352,-0.044608086347579956,-9.654157638549805
1.7294253793022625e+18,-0.1574893742799759,-0.11672672629356384,-9.562435150146484
1.7294253793112627e+18,-0.15427759289741516,-0.10058140754699707,-9.611371040344238
1.729425379320263e+18,-0.05389435589313507,-0.15376132726669312,-9.648096084594727
1.729425379329263e+18,-0.13598206639289856,-0.10870888829231262,-9.61901569366455
1.7294253793382633e+18,-0.07349777221679688,-0.10280848294496536,-9.607233047485352
1.7294253793472635e+18,-0.14926336705684662,-0.03297588974237442,-9.659229278564453
1.7294253793592637e+18,-0.16410619020462036,-0.09586603194475174,-9.570704460144043
1.729425379368264e+18,-0.1156960129737854,-0.15786966681480408,-9.6073579788208
1.729425379377264e+18,-0.1552269160747528,-0.1268184632062912,-9.624207496643066
1.7294253793862643e+18,-0.1721564531326294,-0.06310202926397324,-9.652139663696289
1.7294253793952645e+18,-0.10952147841453552,-0.07682008296251297,-9.638469696044922
1.7294253794042647e+18,-0.17134833335876465,-0.037077900022268295,-9.59443187713623
1.729425379413265e+18,-0.14350318908691406,-0.10284309089183807,-9.625856399536133
1.729425379422265e+18,-0.10698367655277252,-0.057684823870658875,-9.65860366821289
1.7294253794312653e+18,-0.20149996876716614,-0.05728922784328461,-9.661139488220215
1.7294253794402655e+18,-0.10481945425271988,-0.01363895833492279,-9.6423978805542
1.7294253794492657e+18,-0.15290899574756622,-0.034181028604507446,-9.614211082458496
1.7294253794582659e+18,-0.14089110493659973,-0.10391194373369217,-9.738006591796875
1.729425379467266e+18,-0.22172340750694275,-0.045659419149160385,-9.634448051452637
1.7294253794762662e+18,-0.0601656511425972,-0.09784580022096634,-9.684860229492188
1.7294253794852664e+18,-0.1927783191204071,-0.09220534563064575,-9.741233825683594
1.7294253794942666e+18,-0.19440367817878723,-0.059793584048748016,-9.724509239196777
1.7294253795032668e+18,-0.1735566258430481,-0.08878213167190552,-9.697848320007324
1.729425379512267e+18,-0.24004238843917847,-0.1723700761795044,-9.736185073852539
1.7294253795212672e+18,-0.12152713537216187,-0.10773667693138123,-9.662625312805176
1.7294253795302674e+18,-0.15102306008338928,-0.10122521966695786,-9.671653747558594
1.7294253795392676e+18,-0.0820649042725563,-0.0860775038599968,-9.678961753845215
1.7294253795482678e+18,-0.11876197904348373,-0.13012538850307465,-9.742993354797363
1.729425379557268e+18,-0.12484492361545563,-0.14083296060562134,-9.70566177368164
1.7294253795662682e+18,-0.16531974077224731,-0.11865375936031342,-9.752578735351562
1.7294253795752684e+18,-0.14431315660476685,-0.084346704185009,-9.704644203186035
1.7294253795842685e+18,-0.18875865638256073,-0.14356978237628937,-9.689168930053711
1.7294253795932687e+18,-0.16319353878498077,-0.18826797604560852,-9.670255661010742
1.729425379602269e+18,-0.08931177854537964,-0.07969991117715836,-9.773618698120117
1.729425379611269e+18,-0.19470185041427612,-0.12278108298778534,-9.700616836547852
1.7294253796202693e+18,-0.11607307195663452,-0.0676768571138382,-9.66062068939209
1.7294253796262694e+18,-0.10226321220397949,-0.03993769735097885,-9.80146312713623
1.7294253796382697e+18,-0.14054527878761292,-0.07395654171705246,-9.6853609085083
1.72942537964727e+18,-0.17403601109981537,-0.1611650586128235,-9.750078201293945
1.72942537965327e+18,-0.1930113285779953,-0.046157170087099075,-9.720948219299316
1.7294253796622702e+18,-0.09910101443529129,-0.09784792363643646,-9.691876411437988
1.7294253796712704e+18,-0.11570681631565094,-0.02967730164527893,-9.781637191772461
1.7294253796802706e+18,-0.11645422130823135,-0.1166490763425827,-9.658658027648926
1.7294253796892708e+18,-0.11092834174633026,-0.18864381313323975,-9.632610321044922
1.729425379698271e+18,-0.1840956211090088,-0.11546273529529572,-9.745606422424316
1.7294253797072712e+18,-0.10956716537475586,-0.10618758201599121,-9.70148754119873
1.7294253797162714e+18,-0.11571425199508667,-0.04416240379214287,-9.68904972076416
1.7294253797252716e+18,-0.17647281289100647,-0.10880686342716217,-9.652355194091797
1.7294253797342717e+18,-0.1553654819726944,-0.07758722454309464,-9.770153045654297
1.729425379743272e+18,-0.14135894179344177,-0.11561262607574463,-9.732915878295898
1.7294253797522721e+18,-0.08297574520111084,-0.002714715898036957,-9.6991605758667
1.7294253797612723e+18,-0.17909832298755646,-0.1704585701227188,-9.715352058410645
1.7294253797702725e+18,-0.1560591757297516,-0.05324111878871918,-9.60940933227539
1.7294253797792727e+18,-0.14974990487098694,-0.009641394019126892,-9.657266616821289
1.729425379788273e+18,-0.14242269098758698,-0.13546587526798248,-9.588950157165527
1.729425379797273e+18,-0.2215941846370697,-0.12578625977039337,-9.589165687561035
1.7294253798062733e+18,-0.1287875920534134,-0.06468193233013153,-9.516066551208496
1.7294253798152735e+18,-0.14330416917800903,-0.08479703962802887,-9.416216850280762
1.7294253798272737e+18,-0.13378360867500305,-0.03281061723828316,-9.40976333618164
1.729425379836274e+18,-0.10163038969039917,-0.09542391449213028,-9.486642837524414
1.729425379845274e+18,-0.13412807881832123,-0.12062086164951324,-9.680319786071777
1.7294253798542743e+18,-0.11672528833150864,-0.10280533879995346,-9.84835147857666
1.7294253798632745e+18,-0.14780883491039276,-0.10345211625099182,-9.779379844665527
1.7294253798722747e+18,-0.18179365992546082,-0.09621332585811615,-9.798981666564941
1.729425379881275e+18,-0.09162668138742447,-0.06522812694311142,-9.852846145629883
1.729425379890275e+18,-0.13750828802585602,-0.08769023418426514,-9.759294509887695
1.7294253798992753e+18,-0.17553775012493134,-0.17490386962890625,-9.813188552856445
1.7294253799082755e+18,-0.1553991585969925,-0.16108489036560059,-9.766602516174316
1.7294253799172756e+18,-0.09496033191680908,-0.10719117522239685,-9.730666160583496
1.7294253799262758e+18,-0.1393136829137802,-0.16561782360076904,-9.708460807800293
1.729425379935276e+18,-0.09319370985031128,-0.06551337987184525,-9.570032119750977
1.7294253799442762e+18,-0.062228258699178696,-0.07953505218029022,-9.636456489562988
1.7294253799532764e+18,-0.15741519629955292,-0.12429344654083252,-9.610952377319336
1.7294253799622766e+18,-0.07219699025154114,-0.12608663737773895,-9.609411239624023
1.7294253799712768e+18,-0.11618317663669586,-0.03293296694755554,-9.587231636047363
1.729425379980277e+18,-0.17833438515663147,-0.037698954343795776,-9.592482566833496
1.7294253799892772e+18,-0.10121983289718628,-0.052035797387361526,-9.52867317199707
1.7294253799982774e+18,-0.12933680415153503,-0.1381416767835617,-9.49631118774414
1.7294253800072776e+18,-0.12390249967575073,-0.10570210963487625,-9.45816421508789
1.7294253800162778e+18,-0.1347961276769638,-0.11913061887025833,-9.454084396362305
1.729425380025278e+18,-0.11934256553649902,-0.08487439155578613,-9.483617782592773
1.7294253800342781e+18,-0.15913213789463043,-0.16634273529052734,-9.516993522644043
1.7294253800432783e+18,-0.1332530528306961,-0.17362093925476074,-9.42910385131836
1.7294253800522785e+18,-0.15888714790344238,-0.06803189218044281,-9.357101440429688
1.7294253800612787e+18,-0.1979246437549591,-0.08844911307096481,-9.325425148010254
1.729425380070279e+18,-0.1423254758119583,-0.14965835213661194,-9.346725463867188
1.729425380079279e+18,-0.14366891980171204,-0.07978547364473343,-9.355238914489746
1.7294253800882793e+18,-0.17972388863563538,-0.010115034878253937,-9.354283332824707
1.7294253800972795e+18,-0.20455704629421234,-0.1283937692642212,-9.32690143585205
1.7294253801062797e+18,-0.10259893536567688,-0.09620645642280579,-9.271711349487305
1.72942538011528e+18,-0.2032664716243744,-0.052362699061632156,-9.284098625183105
1.72942538012428e+18,-0.19715432822704315,-0.13524286448955536,-9.273950576782227
1.7294253801332803e+18,-0.22659915685653687,-0.08052662760019302,-9.288712501525879
1.7294253801422804e+18,-0.13534478843212128,-0.1336868703365326,-9.29889965057373
1.7294253801512806e+18,-0.13356810808181763,-0.07682786136865616,-9.253460884094238
1.7294253801602808e+18,-0.20444060862064362,-0.14480720460414886,-9.221097946166992
1.729425380169281e+18,-0.14695504307746887,-0.11693570017814636,-9.19985294342041
1.7294253801782812e+18,-0.11540890485048294,-0.05021756887435913,-9.081357955932617
1.7294253801872814e+18,-0.175509974360466,-0.07634708285331726,-9.17629337310791
1.7294253801962816e+18,-0.19381427764892578,-0.09886062145233154,-9.279585838317871
1.7294253802052818e+18,-0.17477035522460938,-0.16327393054962158,-9.12233829498291
1.729425380217282e+18,-0.10711829364299774,-0.12258648127317429,-9.14058780670166
1.7294253802262822e+18,-0.15648719668388367,-0.09166453778743744,-9.153181076049805
1.7294253802352824e+18,-0.1690186858177185,-0.11737887561321259,-9.150772094726562
1.7294253802442826e+18,-0.16268502175807953,-0.16022491455078125,-9.257030487060547
1.7294253802532828e+18,-0.17445498704910278,-0.09166507422924042,-9.217374801635742
1.729425380259283e+18,-0.05425897240638733,-0.030510298907756805,-9.185519218444824
1.7294253802682831e+18,-0.14414726197719574,-0.1323118954896927,-9.222738265991211
1.7294253802772833e+18,-0.19418591260910034,-0.07820532470941544,-9.226109504699707
1.7294253802862835e+18,-0.14392253756523132,-0.10948549956083298,-9.290624618530273
1.7294253802952837e+18,-0.04729290306568146,-0.06254713237285614,-9.2180814743042
1.729425380304284e+18,-0.0865841656923294,-0.07473953813314438,-9.216292381286621
1.729425380313284e+18,-0.047158174216747284,-0.04402301460504532,-9.184098243713379
1.7294253803222843e+18,-0.10737010836601257,-0.08642058819532394,-9.277929306030273
1.7294253803312845e+18,-0.15353615581989288,-0.09982584416866302,-9.245633125305176
1.7294253803402847e+18,-0.06831014156341553,-0.050212763249874115,-9.15734577178955
1.7294253803492849e+18,-0.07790210843086243,-0.14919906854629517,-9.274552345275879
1.729425380358285e+18,-0.11095496267080307,-0.1199018657207489,-9.185933113098145
1.7294253803672852e+18,-0.1291823536157608,-0.09808555245399475,-9.240764617919922
1.7294253803762854e+18,-0.15047039091587067,-0.13961443305015564,-9.258504867553711
1.7294253803852856e+18,-0.09430066496133804,-0.06813475489616394,-9.265090942382812
1.7294253803942858e+18,-0.08426596224308014,-0.14461274445056915,-9.188584327697754
1.729425380403286e+18,-0.08365945518016815,-0.04686056077480316,-9.232654571533203
1.7294253804122862e+18,-0.09608827531337738,-0.17872124910354614,-9.23395824432373
1.7294253804212864e+18,-0.17137664556503296,-0.07448668777942657,-9.231958389282227
1.7294253804302866e+18,-0.1959209144115448,-0.08364582061767578,-9.276322364807129
1.7294253804392868e+18,-0.04993980750441551,-0.06454654037952423,-9.244489669799805
1.729425380448287e+18,-0.08892612159252167,-0.035842642188072205,-9.185579299926758
1.7294253804572872e+18,-0.01569283753633499,-0.11540640145540237,-9.338990211486816
1.7294253804662874e+18,-0.06844178587198257,-0.19918540120124817,-9.326044082641602
1.7294253804752876e+18,0.0087507963180542,-0.12764427065849304,-9.34731388092041
1.7294253804842877e+18,-0.15039731562137604,-0.1569092571735382,-9.268561363220215
1.729425380493288e+18,-0.05496019870042801,-0.12127923220396042,-9.361661911010742
1.7294253805022881e+18,-0.06118566542863846,-0.2045036256313324,-9.313943862915039
1.7294253805142884e+18,-0.09505645185709,-0.1450318843126297,-9.307640075683594
1.7294253805232886e+18,-0.13667672872543335,-0.17956247925758362,-9.265347480773926
1.7294253805322888e+18,-0.07550308108329773,-0.17031154036521912,-9.345541954040527
1.729425380541289e+18,-0.07370468229055405,-0.1839565485715866,-9.328962326049805
1.7294253805502892e+18,-0.050941187888383865,-0.16308699548244476,-9.340877532958984
1.7294253805592893e+18,-0.15809506177902222,-0.1978735774755478,-9.330611228942871
1.7294253805682895e+18,-0.027079999446868896,-0.1598196029663086,-9.362104415893555
1.7294253805772897e+18,-0.09869209676980972,-0.1530071198940277,-9.404088973999023
1.72942538058629e+18,-0.090672068297863,-0.02003701776266098,-9.358835220336914
1.72942538059529e+18,-0.12228353321552277,-0.11938359588384628,-9.328546524047852
1.7294253806012902e+18,-0.0426643081009388,-0.17181994020938873,-9.350865364074707
1.7294253806102904e+18,-0.09258072078227997,-0.17360088229179382,-9.34596061706543
1.7294253806192906e+18,0.015945404767990112,-0.1459728628396988,-9.365891456604004
1.7294253806282908e+18,-0.04928824305534363,-0.20421269536018372,-9.308982849121094
1.729425380637291e+18,-0.04931843280792236,-0.09322148561477661,-9.368739128112793
1.7294253806462912e+18,-0.07826710492372513,-0.16600245237350464,-9.380707740783691
1.7294253806552914e+18,0.011792734265327454,-0.11026819795370102,-9.361088752746582
1.7294253806642916e+18,-0.04674896225333214,-0.15038853883743286,-9.410089492797852
1.7294253806732918e+18,-0.0761803537607193,-0.11706547439098358,-9.3704252243042
1.729425380682292e+18,-0.0720643699169159,-0.1560974419116974,-9.3720064163208
1.7294253806912922e+18,-0.08875772356987,-0.07762224227190018,-9.349743843078613
1.7294253807002924e+18,-0.04665202647447586,-0.12707042694091797,-9.400032043457031
1.7294253807092925e+18,0.008826501667499542,-0.13281452655792236,-9.376090049743652
1.7294253807182927e+18,-0.022480543702840805,-0.20277483761310577,-9.446492195129395
1.729425380727293e+18,-0.0756322368979454,-0.2040063440799713,-9.446453094482422
1.729425380736293e+18,-0.13012777268886566,-0.17036765813827515,-9.423221588134766
1.7294253807452933e+18,-0.035035379230976105,-0.1750197857618332,-9.473788261413574
1.7294253807542935e+18,-0.020358793437480927,-0.15009626746177673,-9.447127342224121
1.7294253807632937e+18,-0.10299749672412872,-0.13059605658054352,-9.539220809936523
1.729425380772294e+18,-0.06607168912887573,-0.14152038097381592,-9.455157279968262
1.729425380781294e+18,0.011369891464710236,-0.17656274139881134,-9.468877792358398
1.7294253807902943e+18,-0.038954026997089386,-0.18678420782089233,-9.462149620056152
1.7294253807992945e+18,0.010936245322227478,-0.2414376437664032,-9.482575416564941
1.7294253808082947e+18,-0.0245794840157032,-0.14224152266979218,-9.488373756408691
1.7294253808172948e+18,-0.09211556613445282,-0.16451767086982727,-9.489340782165527
1.729425380829295e+18,-0.09089061617851257,-0.2385643720626831,-9.490741729736328
1.7294253808382953e+18,-0.05050984025001526,-0.11362114548683167,-9.506237983703613
1.7294253808472955e+18,-0.01033012568950653,-0.14303730428218842,-9.557703971862793
1.7294253808592957e+18,-0.05944189056754112,-0.1682109534740448,-9.540575981140137
1.729425380868296e+18,-0.04104362428188324,-0.06440562009811401,-9.555585861206055
1.729425380877296e+18,-0.037562064826488495,-0.19083362817764282,-9.51193904876709
1.7294253808892964e+18,-0.0748932883143425,-0.16064952313899994,-9.50619888305664
1.7294253808982966e+18,-0.033139538019895554,-0.17417404055595398,-9.527128219604492
1.7294253809072968e+18,-0.05561010539531708,-0.1116398423910141,-9.469504356384277
1.729425380916297e+18,-0.05819503962993622,-0.26132187247276306,-9.582194328308105
1.7294253809252972e+18,-0.008246738463640213,-0.1150769293308258,-9.514568328857422
1.7294253809342973e+18,-0.012366630136966705,-0.15584708750247955,-9.637453079223633
1.7294253809462976e+18,-0.06978890299797058,-0.08762110769748688,-8.016377449035645
1.7294253809522977e+18,-0.08225888013839722,-0.13159982860088348,-7.8612189292907715
1.729425380964298e+18,-0.08480370044708252,-0.11847645044326782,-7.766794681549072
1.7294253809732982e+18,-0.06944504380226135,-0.2744113504886627,-7.780219554901123
1.7294253809822984e+18,0.022022642195224762,-0.1784009337425232,-7.7859320640563965
1.7294253809912986e+18,0.007973067462444305,-0.2096744179725647,-7.911373138427734
1.7294253810032988e+18,-0.007958494126796722,-0.15026837587356567,-7.884119033813477
1.729425381012299e+18,-0.041028089821338654,-0.07711918652057648,-7.979680061340332
1.7294253810242993e+18,-0.018929027020931244,-0.18165896832942963,-8.097150802612305
1.7294253810332995e+18,-0.03237172216176987,-0.22735390067100525,-8.162439346313477
1.7294253810452997e+18,-0.035656094551086426,-0.2869277596473694,-8.17644214630127
1.7294253810543e+18,0.01971021294593811,-0.1706770658493042,-8.1466703414917
1.7294253810633e+18,-0.0716647058725357,-0.16092073917388916,-8.265729904174805
1.7294253810723003e+18,-0.07060609757900238,-0.1514694094657898,-8.316473007202148
1.7294253810843005e+18,0.0024423711001873016,-0.2059248685836792,-8.269461631774902
1.7294253810933007e+18,-0.0735979974269867,-0.11890429258346558,-8.360715866088867
1.729425381102301e+18,-0.0649675577878952,-0.1249178797006607,-8.375221252441406
1.729425381111301e+18,0.0009758211672306061,-0.161160409450531,-8.4599609375
1.7294253811203013e+18,-0.07451307028532028,-0.21614912152290344,-8.525468826293945
1.7294253811323016e+18,-0.014665912836790085,-0.12331932783126831,-8.55191707611084
1.7294253811413018e+18,-0.00016177073121070862,-0.1805974543094635,-8.569802284240723
1.729425381147302e+18,-0.010675255209207535,-0.07550906389951706,-8.638640403747559
1.7294253811593021e+18,-0.05072186142206192,-0.2258857786655426,-8.631640434265137
1.7294253811683023e+18,0.026827607303857803,-0.2416183054447174,-8.688764572143555
1.7294253811773025e+18,-0.03837987780570984,-0.19569605588912964,-8.742919921875
1.7294253811863027e+18,0.022036641836166382,-0.19235314428806305,-8.769129753112793
1.729425381195303e+18,-0.017612982541322708,-0.11033543944358826,-8.774497032165527
1.729425381204303e+18,-0.009712247177958488,-0.16975846886634827,-8.740864753723145
1.7294253812133033e+18,-0.02138015627861023,-0.1672305464744568,-8.732394218444824
1.7294253812223035e+18,0.027069147676229477,-0.1971074938774109,-8.846412658691406
1.7294253812313037e+18,-0.060700640082359314,-0.23870256543159485,-8.956646919250488
1.7294253812403039e+18,-0.05652435123920441,-0.21150119602680206,-8.801474571228027
1.729425381249304e+18,-0.07671844959259033,-0.25653135776519775,-8.971433639526367
1.7294253812583043e+18,0.02014005556702614,-0.237693652510643,-8.929497718811035
1.7294253812673044e+18,-0.028435004875063896,-0.20913144946098328,-8.96561336517334
1.7294253812763046e+18,0.01701660454273224,-0.2245490849018097,-8.977885246276855
1.7294253812853048e+18,-0.0387752503156662,-0.16816172003746033,-8.970059394836426
1.729425381294305e+18,-0.05612700432538986,-0.16097679734230042,-8.967683792114258
1.7294253813033052e+18,-0.02345108613371849,-0.11376085132360458,-9.129692077636719
