timestamp,accel_x,accel_y,accel_z
1.7294921748166436e+18,-0.02738751843571663,0.0198004599660635,-9.790127754211426
1.7294921748256438e+18,-0.0042128548957407475,-0.022959936410188675,-9.790716171264648
1.729492174831644e+18,0.09656158089637756,-0.05266377329826355,-9.745159149169922
1.729492174840644e+18,0.032422423362731934,0.08286760747432709,-9.842306137084961
1.7294921748466442e+18,-0.04575938731431961,0.02419493906199932,-9.76993179321289
1.7294921748556444e+18,0.048346977680921555,-0.03465629741549492,-9.72807788848877
1.7294921748616445e+18,-0.04517560824751854,0.0378417931497097,-9.740965843200684
1.7294921748706447e+18,0.040162310004234314,-0.07004697620868683,-9.862832069396973
1.7294921748766449e+18,-0.02108634263277054,-0.009094051085412502,-9.833890914916992
1.729492174885645e+18,0.05437827110290527,0.010356009937822819,-9.821308135986328
1.7294921748946452e+18,-0.06436792016029358,0.01976049318909645,-9.864509582519531
1.7294921749006454e+18,-0.06251757591962814,0.019622938707470894,-9.86913776397705
1.7294921749066455e+18,-0.007292198948562145,0.02122010476887226,-9.828800201416016
1.7294921749156457e+18,-0.037876714020967484,-0.03447800502181053,-9.894573211669922
1.729492174924646e+18,0.004673636052757502,-0.009876182302832603,-9.778273582458496
1.729492174933646e+18,-0.013651539571583271,0.012232379987835884,-9.743902206420898
1.7294921749396462e+18,0.02506689727306366,-0.004210653714835644,-9.790725708007812
1.7294921749486464e+18,0.04578205943107605,-0.009292549453675747,-9.857725143432617
1.7294921749576466e+18,-0.018554801121354103,0.032393842935562134,-9.761296272277832
1.7294921749636467e+18,0.04764818772673607,0.08763675391674042,-9.816113471984863
1.729492174972647e+18,0.015705158933997154,0.015444722026586533,-9.803319931030273
1.729492174981647e+18,0.04994715005159378,0.025924138724803925,-9.7864990234375
1.7294921749876472e+18,-0.05968736484646797,-0.003343180986121297,-9.830431938171387
1.7294921749966474e+18,0.033662792295217514,0.0038533606566488743,-9.792662620544434
1.7294921750026476e+18,0.07589926570653915,0.01507635973393917,-9.798685073852539
1.7294921750116477e+18,0.037653058767318726,0.0378718227148056,-9.862533569335938
1.729492175020648e+18,-0.03826083987951279,-0.015315323136746883,-9.793845176696777
1.729492175026648e+18,-0.034568700939416885,-0.05563269183039665,-9.73044490814209
1.7294921750356483e+18,0.06731804460287094,-0.048187438398599625,-9.76820182800293
1.7294921750416484e+18,0.07223593443632126,0.01847047358751297,-9.830612182617188
1.7294921750506486e+18,0.002712403191253543,-0.023999027907848358,-9.836153030395508
1.7294921750596488e+18,0.07554604858160019,0.017518073320388794,-9.77945327758789
1.729492175065649e+18,-0.03887515142560005,-0.02355184406042099,-9.842851638793945
1.729492175074649e+18,0.06327138096094131,0.016108855605125427,-9.823640823364258
1.7294921750836493e+18,0.031618569046258926,-0.018314983695745468,-9.816865921020508
1.7294921750896494e+18,0.043696049600839615,-0.09130523353815079,-9.851180076599121
1.7294921750986496e+18,0.05717002600431442,-0.031549643725156784,-9.85873794555664
1.7294921751046497e+18,-0.04252142459154129,0.036898162215948105,-9.731562614440918
1.72949217511365e+18,0.09491882473230362,-0.08542127162218094,-9.752756118774414
1.72949217511965e+18,0.07412150502204895,-0.012528514489531517,-9.809507369995117
1.7294921751286502e+18,-0.07545913010835648,-0.04805530607700348,-9.813096046447754
1.7294921751346504e+18,0.06444750726222992,0.0414237417280674,-9.88672924041748
1.7294921751436506e+18,0.03607830032706261,0.11367566883563995,-9.943668365478516
1.7294921751526508e+18,0.009924959391355515,0.041770193725824356,-9.854381561279297
1.729492175158651e+18,-0.022816374897956848,0.06418008357286453,-9.817401885986328
1.729492175167651e+18,0.019095657393336296,-0.003118102438747883,-9.794127464294434
1.7294921751736512e+18,-0.03382619842886925,-0.06538375467061996,-9.854853630065918
1.7294921751826514e+18,-0.11467708647251129,-0.035364244133234024,-9.830023765563965
1.7294921751916516e+18,0.0060275886207818985,-0.06902022659778595,-9.783859252929688
1.7294921751976517e+18,-0.02794312685728073,0.06358955055475235,-9.777745246887207
1.729492175206652e+18,0.017885498702526093,0.0028320313431322575,-9.83377742767334
1.729492175215652e+18,0.07691769301891327,0.051481038331985474,-9.820556640625
1.7294921752216522e+18,0.002828309778124094,-0.0169222429394722,-9.761743545532227
1.7294921752306524e+18,0.015917938202619553,0.02319812960922718,-9.830419540405273
1.7294921752366525e+18,0.029673656448721886,0.024768898263573647,-9.810410499572754
1.7294921752456527e+18,0.054580651223659515,0.09548316150903702,-9.758627891540527
1.729492175254653e+18,-0.07014868408441544,0.04214431717991829,-9.805068016052246
1.729492175260653e+18,-0.010317115113139153,0.026320291683077812,-9.764025688171387
1.7294921752696532e+18,0.019742870703339577,0.003229815512895584,-9.787378311157227
1.7294921752786534e+18,0.07099585980176926,-0.06744691729545593,-9.796939849853516
1.7294921752846536e+18,0.05544149875640869,0.019167691469192505,-9.795608520507812
1.7294921752936538e+18,0.016994904726743698,0.06891907751560211,-9.732604026794434
1.729492175302654e+18,0.028577325865626335,-0.009745769202709198,-9.826026916503906
1.729492175308654e+18,-0.050171155482530594,-0.0014476410578936338,-9.837201118469238
1.7294921753176543e+18,-0.04687131568789482,0.02016448602080345,-9.806211471557617
1.7294921753266545e+18,0.0590670220553875,-0.021020863205194473,-9.807297706604004
1.7294921753326546e+18,-0.005177513230592012,-0.05578857287764549,-9.818846702575684
1.7294921753416548e+18,-0.009765015915036201,0.012703536078333855,-9.854036331176758
1.729492175347655e+18,-0.005795594770461321,-0.06675692647695541,-9.801292419433594
1.729492175356655e+18,-0.029009869322180748,-0.0069624995812773705,-9.847315788269043
1.7294921753656553e+18,0.013232537545263767,0.019199183210730553,-9.799836158752441
1.7294921753746555e+18,-0.009196961298584938,-0.047894153743982315,-9.803281784057617
1.7294921753806556e+18,0.021987827494740486,-0.057973749935626984,-9.808518409729004
1.7294921753896558e+18,0.058476559817790985,0.029476938769221306,-9.845187187194824
1.729492175395656e+18,-0.030101267620921135,0.05556842312216759,-9.680079460144043
1.729492175404656e+18,-0.01973370648920536,0.04776431620121002,-9.819299697875977
1.7294921754136563e+18,0.009454479441046715,0.042917054146528244,-9.843131065368652
1.7294921754196564e+18,0.0011962403077632189,-0.034244563430547714,-9.76962947845459
1.7294921754286566e+18,-0.03773042932152748,-0.008402753621339798,-9.749767303466797
1.7294921754376568e+18,0.01257453765720129,-0.019001781940460205,-9.71986198425293
1.729492175443657e+18,0.0035672709345817566,0.012252986431121826,-9.80364990234375
1.7294921754526572e+18,-0.06520131975412369,-0.003938589710742235,-9.824302673339844
1.7294921754586573e+18,-0.040873702615499496,-0.017066186293959618,-9.822028160095215
1.7294921754676575e+18,-0.05503178387880325,0.050791334360837936,-9.75464153289795
1.7294921754736576e+18,-0.002969664055854082,0.04584651067852974,-9.784253120422363
1.7294921754826578e+18,0.02998928539454937,0.06774798035621643,-9.851690292358398
1.729492175488658e+18,-0.014133362099528313,0.0032527707517147064,-9.800898551940918
1.729492175497658e+18,-0.022039392963051796,0.052000995725393295,-9.803504943847656
1.7294921755066583e+18,-0.025983901694417,0.028663434088230133,-9.82076644897461
1.7294921755156585e+18,-0.017373230308294296,-0.02032322622835636,-9.849861145019531
1.7294921755216586e+18,0.016404511407017708,0.01295290607959032,-9.784502983093262
1.7294921755306588e+18,-0.009352163411676884,-0.059111133217811584,-9.804848670959473
1.729492175536659e+18,0.053129833191633224,-0.053627073764801025,-9.788044929504395
1.7294921755456591e+18,-0.046345558017492294,-0.018865594640374184,-9.85466194152832
1.7294921755546593e+18,0.07049648463726044,-0.10353885591030121,-9.772333145141602
1.7294921755606595e+18,0.07429413497447968,0.0502840057015419,-9.762661933898926
1.7294921755696596e+18,-0.008393562398850918,0.05681950971484184,-9.828156471252441
1.7294921755756598e+18,-0.05552877485752106,0.04290471971035004,-9.825380325317383
1.72949217558466e+18,-0.06516021490097046,0.01959112286567688,-9.840031623840332
1.7294921755936602e+18,0.0002506231830921024,0.010973574593663216,-9.79109001159668
1.7294921755996603e+18,-0.04253220558166504,-0.02047926001250744,-9.753874778747559
1.7294921756086605e+18,0.047787439078092575,-0.004239432048052549,-9.775203704833984
1.7294921756146606e+18,-0.026253290474414825,-0.029639950022101402,-9.904728889465332
1.7294921756236608e+18,-0.032352469861507416,-0.012103709392249584,-9.812567710876465
1.729492175629661e+18,-0.1090666800737381,0.0037325527518987656,-9.788331031799316
1.729492175638661e+18,0.026368524879217148,-0.027178648859262466,-9.780098915100098
1.7294921756476613e+18,0.050345420837402344,0.006341117899864912,-9.78087329864502
1.7294921756536614e+18,-0.03608744218945503,-0.04498593136668205,-9.78671646118164
1.7294921756596616e+18,-0.010615875944495201,-0.11337418109178543,-9.776679992675781
1.7294921756686618e+18,0.009691337123513222,-0.03828123211860657,-9.793181419372559
1.729492175674662e+18,0.010870411060750484,-0.025372983887791634,-9.794565200805664
1.729492175683662e+18,0.034254107624292374,-0.053422991186380386,-9.824161529541016
1.7294921756896622e+18,-0.006222105585038662,-0.04913625866174698,-9.78901195526123
1.7294921756986624e+18,-0.00498984195291996,0.010296336375176907,-9.855708122253418
1.7294921757076626e+18,-0.02522951550781727,-0.0919610857963562,-9.851997375488281
1.7294921757136627e+18,0.03825291991233826,0.030323147773742676,-9.866345405578613
1.729492175722663e+18,0.012242411263287067,0.01654164120554924,-9.780436515808105
1.729492175731663e+18,0.02159859426319599,0.035524893552064896,-9.811917304992676
1.7294921757376632e+18,-0.07438365370035172,0.024571342393755913,-9.79255485534668
1.7294921757466634e+18,-0.005229603499174118,0.002451678505167365,-9.770940780639648
1.7294921757556636e+18,0.0779351219534874,-0.0275617316365242,-9.749485969543457
1.7294921757616637e+18,-0.037765782326459885,0.042462706565856934,-9.769044876098633
1.729492175770664e+18,-0.0008471556939184666,-0.03109017200767994,-9.749677658081055
1.729492175776664e+18,0.03613040968775749,0.056383874267339706,-9.771345138549805
1.7294921757856643e+18,0.04602287337183952,0.027065498754382133,-9.784536361694336
1.7294921757946644e+18,-0.05240756645798683,0.05085751414299011,-9.807875633239746
1.7294921758006646e+18,-0.0305748600512743,-0.06889448314905167,-9.735427856445312
1.7294921758096648e+18,-0.009258734062314034,-0.00028483924688771367,-9.797130584716797
1.729492175815665e+18,0.046512436121702194,-0.011077053844928741,-9.754422187805176
1.729492175824665e+18,-0.08263218402862549,-0.03390316292643547,-9.832581520080566
1.7294921758336653e+18,-0.04016484320163727,0.017367064952850342,-9.771452903747559
1.7294921758396654e+18,-0.033941514790058136,-0.06132335960865021,-9.776018142700195
1.7294921758486656e+18,-0.0795825719833374,-0.013242768123745918,-9.817432403564453
1.7294921758576658e+18,-0.013289269991219044,0.03877728432416916,-9.835006713867188
1.729492175863666e+18,-0.013224340975284576,0.03507357835769653,-9.804991722106934
1.729492175872666e+18,0.05367235839366913,0.08309448510408401,-9.806024551391602
1.7294921758786662e+18,0.018219444900751114,-0.046645987778902054,-9.864263534545898
1.7294921758876664e+18,0.03671202436089516,-0.004680755082517862,-9.833474159240723
1.7294921758966666e+18,-0.05855758115649223,0.001413902617059648,-9.745881080627441
1.7294921759056668e+18,-0.03777109459042549,-0.031180240213871002,-9.840554237365723
1.729492175914667e+18,-0.00918462872505188,0.013781888410449028,-9.76761245727539
1.7294921759206671e+18,0.06039957329630852,0.009032132104039192,-9.808156967163086
1.7294921759296673e+18,0.0015649532433599234,0.07854069769382477,-9.850789070129395
1.7294921759386675e+18,0.005458391737192869,-0.012285127304494381,-9.82510757446289
1.7294921759476677e+18,-0.050930242985486984,-0.10349871218204498,-9.823204040527344
1.7294921759536678e+18,-0.02341247908771038,-0.028498010709881783,-9.812267303466797
1.729492175962668e+18,0.11214745789766312,0.005106606520712376,-9.844988822937012
1.7294921759716682e+18,0.03547171130776405,0.03518443927168846,-9.770115852355957
1.7294921759806684e+18,-0.04561896622180939,0.020080696791410446,-9.795165061950684
1.7294921759896686e+18,-0.02123906835913658,0.09799176454544067,-9.8338623046875
1.7294921759956687e+18,0.016624044626951218,0.0268083605915308,-9.775459289550781
1.729492176004669e+18,-0.07287194579839706,-0.05017232894897461,-9.766205787658691
1.729492176013669e+18,-0.010313274338841438,0.03809651732444763,-9.781280517578125
1.7294921760196692e+18,-0.029316138476133347,-0.009155137464404106,-9.8032808303833
1.7294921760286694e+18,0.010122371837496758,-0.005622467026114464,-9.825547218322754
1.7294921760376696e+18,0.01471936795860529,-0.10669590532779694,-9.847525596618652
1.7294921760466698e+18,-0.050244420766830444,0.03025577962398529,-9.750298500061035
1.72949217605267e+18,-0.04263271763920784,0.05634450912475586,-9.759029388427734
1.7294921760616701e+18,-0.05885288864374161,-0.026941655203700066,-9.79711627960205
1.7294921760706703e+18,-0.008015524595975876,-0.0013828268274664879,-9.85952091217041
1.7294921760796705e+18,0.06991729140281677,-0.03356506675481796,-9.825225830078125
1.7294921760856707e+18,-0.02390317991375923,-0.006977380253374577,-9.880175590515137
1.7294921760946708e+18,-0.002816538792103529,0.00045144505565986037,-9.785383224487305
1.729492176103671e+18,0.013836124911904335,-0.04757572337985039,-9.825947761535645
1.7294921761096712e+18,-0.01804717257618904,0.00630545150488615,-9.733747482299805
1.7294921761186714e+18,-0.01328886579722166,-0.012082446366548538,-9.72955322265625
1.7294921761276716e+18,-0.02943696267902851,-0.09058810770511627,-9.767436027526855
1.7294921761336717e+18,0.040721345692873,0.03407234326004982,-9.786189079284668
1.729492176142672e+18,-0.04600067064166069,-0.04933765158057213,-9.750687599182129
1.729492176151672e+18,0.044203031808137894,0.13634885847568512,-9.725960731506348
1.7294921761576722e+18,0.04874701425433159,-0.01766207255423069,-9.844823837280273
1.7294921761666724e+18,-0.02653873898088932,-0.013759784400463104,-9.734313011169434
1.7294921761756726e+18,0.0020929749589413404,0.011259607039391994,-9.755416870117188
1.7294921761816727e+18,0.03435854613780975,-0.09001138061285019,-9.801546096801758
1.729492176190673e+18,0.039683789014816284,0.008108135312795639,-9.943506240844727
1.729492176196673e+18,0.04884358122944832,-0.07999712228775024,-9.829479217529297
1.7294921762056732e+18,-0.022517463192343712,0.014132428914308548,-9.842029571533203
1.7294921762116733e+18,0.012127616442739964,0.030537938699126244,-9.79514217376709
1.7294921762206735e+18,-0.15472719073295593,0.06877251714468002,-9.798535346984863
1.7294921762266737e+18,-0.02483999915421009,-0.03252080827951431,-9.732584953308105
1.7294921762356739e+18,-0.03287409618496895,-0.013283140026032925,-9.796761512756348
1.729492176241674e+18,0.0646379366517067,0.004247415345162153,-9.758343696594238
1.7294921762506742e+18,0.018856363371014595,0.032416220754384995,-9.810491561889648
1.7294921762596744e+18,0.02286882884800434,0.11973276734352112,-9.752861976623535
1.7294921762656745e+18,0.03925057873129845,-0.012992924079298973,-9.857202529907227
1.7294921762746747e+18,-0.030799977481365204,-0.0367431677877903,-9.817319869995117
1.7294921762806748e+18,-0.04633110389113426,-0.05771465599536896,-9.825434684753418
1.729492176289675e+18,0.038018837571144104,-0.013369648717343807,-9.872818946838379
1.7294921762956751e+18,0.05580311641097069,0.04481392353773117,-9.819840431213379
1.7294921763046753e+18,-0.047195691615343094,0.04137781634926796,-9.907276153564453
1.7294921763136755e+18,-0.06399764865636826,-0.020729316398501396,-9.843582153320312
1.7294921763226757e+18,0.01112905703485012,0.025599947199225426,-9.824236869812012
1.7294921763286758e+18,-0.08810651302337646,-0.01703721284866333,-9.777316093444824
1.729492176337676e+18,-0.04932769015431404,0.011512849479913712,-9.827104568481445
1.7294921763466762e+18,0.011392050422728062,0.052481938153505325,-9.787458419799805
1.7294921763526764e+18,-0.04284118488430977,-0.013502762652933598,-9.799727439880371
1.7294921763616765e+18,-0.05565528944134712,-0.05574099346995354,-9.832304000854492
1.7294921763676767e+18,-0.017712241038680077,-0.0015874534146860242,-9.759652137756348
1.7294921763766769e+18,0.039300769567489624,0.03325418755412102,-9.832090377807617
1.729492176385677e+18,-0.006585938390344381,-0.06496233493089676,-9.757600784301758
1.7294921763916772e+18,0.01894201710820198,-0.05741063132882118,-9.783543586730957
1.7294921764006774e+18,0.08499784767627716,-0.011075261048972607,-9.798815727233887
1.7294921764066775e+18,-0.017617685720324516,0.11284885555505753,-9.837729454040527
1.7294921764156777e+18,0.04048922285437584,-0.04922150447964668,-9.831483840942383
1.7294921764216778e+18,-0.07335685193538666,-0.03568793460726738,-9.745718002319336
1.729492176427678e+18,-0.015415984205901623,0.019565513357520103,-9.831781387329102
1.7294921764366781e+18,-0.022624162957072258,0.07699495553970337,-9.813705444335938
1.7294921764456783e+18,-0.054820045828819275,-0.0802043229341507,-9.774863243103027
1.7294921764516785e+18,-0.09879361093044281,-0.031512148678302765,-9.835957527160645
1.7294921764606787e+18,0.002110261470079422,0.07450467348098755,-9.848104476928711
1.7294921764666788e+18,-0.11127078533172607,0.006714212708175182,-9.760631561279297
1.729492176475679e+18,-0.01246076449751854,0.025233961641788483,-9.82773208618164
1.7294921764846792e+18,0.04545598104596138,0.013521373271942139,-9.781383514404297
1.7294921764966794e+18,-0.009604286402463913,-0.10439565032720566,-9.856945991516113
1.7294921765056796e+18,-0.04313499107956886,-0.07754174619913101,-9.800467491149902
1.7294921765146798e+18,0.011592252179980278,-0.003555516479536891,-9.76874828338623
1.72949217652068e+18,-0.06237100437283516,0.006408205721527338,-9.83222484588623
1.7294921765296801e+18,-0.053412120789289474,-0.004456416238099337,-9.837961196899414
1.7294921765386803e+18,0.04363670572638512,0.03950837627053261,-9.770145416259766
1.7294921765446804e+18,0.012135575525462627,-0.016355955973267555,-9.82300853729248
1.7294921765536806e+18,0.0699363648891449,-0.0033439553808420897,-9.822893142700195
1.7294921765596808e+18,0.009435067884624004,-0.09038855135440826,-9.803251266479492
1.729492176568681e+18,-0.03128330036997795,-0.028548303991556168,-9.850594520568848
1.7294921765776812e+18,0.0674939751625061,-0.03677283599972725,-9.867179870605469
1.7294921765836813e+18,0.10284710675477982,-0.06017041578888893,-9.789746284484863
1.7294921765926815e+18,0.0021431180648505688,-0.028136637061834335,-9.834429740905762
1.7294921765986816e+18,-0.04582422599196434,0.04546080902218819,-9.861048698425293
1.7294921766076818e+18,-0.03380664810538292,0.07786659896373749,-9.750432968139648
1.729492176616682e+18,-0.043867386877536774,0.006158135365694761,-9.840582847595215
1.729492176622682e+18,0.0849689394235611,-0.02659156173467636,-9.932783126831055
1.7294921766316823e+18,-0.03710995614528656,0.01615056023001671,-9.831976890563965
1.7294921766406825e+18,0.04146542772650719,0.08738962560892105,-9.803247451782227
1.7294921766466826e+18,0.038779694586992264,-0.0039053165819495916,-9.792241096496582
1.7294921766556828e+18,-0.005012211389839649,0.041722387075424194,-9.752572059631348
1.729492176661683e+18,0.025851977989077568,-0.014384355396032333,-9.790771484375
1.7294921766706831e+18,0.03792967274785042,0.030298499390482903,-9.809344291687012
1.7294921766796833e+18,-0.06974884122610092,-0.08660299330949783,-9.812278747558594
1.7294921766856835e+18,0.014825454913079739,-0.07556811720132828,-9.829814910888672
1.7294921766946836e+18,-0.004637471865862608,0.02424132265150547,-9.751447677612305
1.7294921767006838e+18,-0.0284836795181036,0.030898379161953926,-9.773341178894043
1.729492176709684e+18,-0.08308927714824677,-0.014493751339614391,-9.838089942932129
1.729492176715684e+18,0.012797273695468903,-0.02517985738813877,-9.853052139282227
1.7294921767246843e+18,-0.02790454961359501,0.029486391693353653,-9.766263008117676
1.7294921767306844e+18,-0.010222280398011208,-0.12310253083705902,-9.797595024108887
1.7294921767396846e+18,-0.018826721236109734,-0.011029626242816448,-9.804003715515137
1.7294921767486848e+18,0.024869009852409363,-0.061855118721723557,-9.835779190063477
1.729492176754685e+18,-0.002453772583976388,0.07035936415195465,-9.76284122467041
1.729492176763685e+18,0.022549865767359734,-0.006126977503299713,-9.797187805175781
1.7294921767696852e+18,-0.04155205562710762,0.007611422799527645,-9.901988983154297
1.7294921767786854e+18,0.004190074745565653,0.019754134118556976,-9.86568832397461
1.7294921767846856e+18,-0.05065884068608284,-0.00845624040812254,-9.90748119354248
1.7294921767936858e+18,0.03983420133590698,-0.051299747079610825,-9.902164459228516
1.729492176799686e+18,0.006143015809357166,-0.0016510291025042534,-9.884222984313965
1.729492176808686e+18,0.0003534476272761822,0.03575381264090538,-9.922928810119629
1.7294921768176863e+18,-0.06042725220322609,-0.030139930546283722,-9.940942764282227
1.7294921768236864e+18,0.013768957927823067,0.013581366278231144,-10.018393516540527
1.7294921768326866e+18,0.03416667506098747,0.003562318626791239,-9.912094116210938
1.7294921768386867e+18,-0.08898942917585373,0.03059748001396656,-9.922548294067383
1.729492176847687e+18,0.030050003901124,0.011869752779603004,-9.913736343383789
1.729492176856687e+18,0.011458080261945724,-0.03293386474251747,-10.034259796142578
1.7294921768626872e+18,0.05080043524503708,-0.025198813527822495,-9.979342460632324
1.7294921768716874e+18,-0.08429308235645294,-0.07778529077768326,-9.934441566467285
1.7294921768776876e+18,-0.019895780831575394,-0.04510454833507538,-10.071771621704102
1.7294921768866877e+18,0.039521846920251846,-0.013701185584068298,-10.006479263305664
1.729492176892688e+18,-0.004092458635568619,0.004413530696183443,-9.958172798156738
1.729492176901688e+18,0.00038131093606352806,0.0490717738866806,-10.133404731750488
1.7294921769106883e+18,-0.00905391201376915,0.012954076752066612,-10.112096786499023
1.7294921769166884e+18,-0.009401352144777775,0.054875269532203674,-10.127965927124023
1.7294921769256886e+18,0.03960046172142029,0.011562169529497623,-10.391862869262695
1.7294921769316887e+18,0.043399665504693985,0.07575352489948273,-10.446490287780762
1.729492176940689e+18,0.010932981967926025,-0.010288212448358536,-10.547112464904785
1.729492176946689e+18,-0.02436215616762638,0.021923845633864403,-10.479899406433105
1.7294921769556892e+18,-0.08373979479074478,0.004630513489246368,-10.44884204864502
1.7294921769616893e+18,-0.009167231619358063,0.07093247026205063,-10.535965919494629
1.7294921769706895e+18,0.0015515503473579884,-0.0148557648062706,-10.523185729980469
1.7294921769766897e+18,0.06772620975971222,0.004583384841680527,-10.51708698272705
1.7294921769856899e+18,-0.011624825187027454,-0.03844093903899193,-10.495735168457031
1.72949217699169e+18,0.0049033439718186855,0.00017178361304104328,-10.567996978759766
1.7294921770006902e+18,-0.005682418122887611,0.017984267324209213,-10.478435516357422
1.7294921770066903e+18,-0.03617378696799278,0.12080618739128113,-10.514097213745117
1.7294921770156905e+18,0.10958206653594971,-0.030203239992260933,-10.468952178955078
1.7294921770246907e+18,-0.00416301004588604,-0.01988787204027176,-10.525728225708008
1.7294921770306908e+18,0.009386138990521431,-0.0451132170855999,-10.533038139343262
1.729492177039691e+18,0.00641963304951787,0.06107537820935249,-10.548358917236328
1.7294921770456911e+18,-0.033866021782159805,-0.023534858599305153,-10.534017562866211
1.7294921770546913e+18,-0.1295236498117447,-0.05783290043473244,-10.491446495056152
1.7294921770636915e+18,-0.011804386042058468,0.0344189815223217,-10.582491874694824
1.7294921770696916e+18,-0.041580259799957275,-0.03841399773955345,-10.6065092086792
1.7294921770786918e+18,0.011116798035800457,0.0004996038042008877,-10.502718925476074
1.729492177087692e+18,-0.03016498312354088,0.0075758094899356365,-10.593326568603516
1.7294921770936922e+18,-0.033346228301525116,0.09880315512418747,-10.48630142211914
1.7294921771026924e+18,-0.031739745289087296,0.06790702790021896,-10.494729042053223
1.7294921771086925e+18,0.018970653414726257,0.028975851833820343,-10.562253952026367
1.7294921771176927e+18,-0.09783314168453217,0.05461883544921875,-10.55277156829834
1.7294921771236928e+18,0.06020919606089592,-0.01903936080634594,-10.661839485168457
1.729492177132693e+18,0.0502338632941246,0.008540197275578976,-10.568734169006348
1.729492177138693e+18,0.06049090251326561,0.03414297476410866,-10.580439567565918
1.7294921771476933e+18,0.06461178511381149,-0.02829095721244812,-10.587910652160645
1.7294921771536934e+18,0.015817435458302498,-0.026371460407972336,-10.527082443237305
1.7294921771626936e+18,-0.01858159527182579,-0.032132454216480255,-10.600983619689941
1.7294921771716938e+18,0.11567871272563934,-0.035324208438396454,-10.594626426696777
1.729492177177694e+18,0.01854107156395912,-0.001920489128679037,-10.627695083618164
1.7294921771866941e+18,0.0253641065210104,-0.06323032081127167,-10.543625831604004
1.7294921771956943e+18,-0.00553489476442337,0.004270325880497694,-10.634105682373047
1.7294921772016945e+18,0.005981533322483301,0.003975823521614075,-10.633532524108887
1.7294921772106947e+18,0.04065948352217674,0.06798069179058075,-10.590786933898926
1.7294921772196948e+18,-0.02305932529270649,0.06902781873941422,-10.584659576416016
1.729492177225695e+18,-0.043115511536598206,-0.011025908403098583,-10.58951473236084
1.7294921772346952e+18,0.019235122948884964,0.04112077131867409,-10.578529357910156
1.7294921772406953e+18,-0.09147458523511887,0.046253133565187454,-10.589959144592285
1.7294921772496955e+18,0.021506793797016144,0.022964920848608017,-10.664093971252441
1.7294921772556956e+18,-0.021956436336040497,-0.0026720655150711536,-10.605652809143066
1.7294921772646958e+18,0.003611269174143672,0.004680362530052662,-10.568733215332031
1.729492177273696e+18,0.015218610875308514,-0.005219294689595699,-10.716209411621094
1.7294921772796961e+18,-0.01216435432434082,-0.021731019020080566,-10.660293579101562
1.7294921772886963e+18,0.009400955401360989,0.03487245365977287,-10.626827239990234
1.7294921772976965e+18,0.04675032198429108,-0.021465294063091278,-10.599342346191406
1.7294921773036966e+18,0.002338118152692914,0.004347885958850384,-10.575385093688965
1.7294921773126968e+18,-0.02764153480529785,0.03967876359820366,-10.554935455322266
1.729492177318697e+18,-0.019158540293574333,0.06300623714923859,-10.629494667053223
1.7294921773276972e+18,0.048221856355667114,0.09017329663038254,-10.627564430236816
1.7294921773366973e+18,0.03274047002196312,0.0438164547085762,-10.591588020324707
1.7294921773426975e+18,-0.023997390642762184,-0.03527405112981796,-10.604034423828125
1.7294921773516977e+18,-0.029313312843441963,0.043061621487140656,-10.56043815612793
1.7294921773576978e+18,0.07457982748746872,-0.011059984564781189,-10.646947860717773
1.729492177366698e+18,0.00213230331428349,0.03763633966445923,-10.622797966003418
1.7294921773756982e+18,-0.007910863496363163,0.07728362083435059,-10.560495376586914
1.7294921773816983e+18,-0.03574628755450249,-0.021022304892539978,-10.653595924377441
1.7294921773906985e+18,-0.0016135964542627335,-0.011886215768754482,-10.591954231262207
1.7294921773996987e+18,0.06220206618309021,-0.050491224974393845,-10.659028053283691
1.729492177408699e+18,0.02852088399231434,-0.0755256861448288,-10.588990211486816
1.729492177414699e+18,0.00025832909159362316,-0.027109192684292793,-10.630383491516113
1.7294921774236992e+18,-0.018095210194587708,-0.018983934074640274,-10.566008567810059
1.7294921774356995e+18,-0.08215243369340897,0.0540747195482254,-10.656448364257812
1.7294921774446996e+18,0.07175682485103607,-0.005108777899295092,-10.618715286254883
1.7294921774506998e+18,0.008339946158230305,0.0318436436355114,-10.599054336547852
1.7294921774597e+18,0.01407149899750948,0.017317693680524826,-10.611272811889648
1.7294921774687002e+18,-0.008219827897846699,0.009962880983948708,-10.527751922607422
1.7294921774747003e+18,-0.0050161248072981834,0.011200509034097195,-10.656445503234863
1.7294921774837005e+18,-0.02591807208955288,-0.052082423120737076,-10.632662773132324
1.7294921774897006e+18,-0.017398716881871223,0.010540066286921501,-10.623272895812988
1.7294921774987008e+18,0.02724573202431202,0.030249960720539093,-10.580392837524414
1.729492177507701e+18,0.026970261707901955,0.11225689947605133,-10.621721267700195
1.729492177513701e+18,-0.011477218940854073,0.13597701489925385,-10.650514602661133
1.7294921775227013e+18,-0.020940614864230156,-0.013345765881240368,-10.599631309509277
1.7294921775317015e+18,-0.00715063838288188,0.030478093773126602,-10.538158416748047
1.7294921775377016e+18,-0.017438409850001335,0.0010270464699715376,-10.667722702026367
1.7294921775467018e+18,0.06059825047850609,0.01704283058643341,-10.6012601852417
1.729492177552702e+18,0.021551452577114105,-0.0019577261991798878,-10.591416358947754
1.7294921775617021e+18,-0.05683517828583717,0.009647658094763756,-10.543693542480469
1.7294921775677023e+18,0.03206982836127281,0.053421750664711,-10.577259063720703
1.7294921775767025e+18,0.016794614493846893,0.018881309777498245,-10.619766235351562
1.7294921775827026e+18,-0.039685092866420746,-0.0046831960789859295,-10.634363174438477
1.7294921775917028e+18,-0.12257001549005508,0.001300618052482605,-10.626527786254883
1.729492177597703e+18,-3.223522799089551e-05,0.011185905896127224,-10.645011901855469
1.729492177606703e+18,0.08139969408512115,-0.03608457371592522,-10.636812210083008
1.7294921776127032e+18,-0.047215163707733154,-0.07021110504865646,-10.562260627746582
1.7294921776217034e+18,0.003410640172660351,0.006021050736308098,-10.647547721862793
1.7294921776307036e+18,-0.07598435133695602,0.01739141158759594,-10.61828327178955
1.7294921776367037e+18,-0.027940426021814346,-0.06705376505851746,-10.6032075881958
1.729492177645704e+18,-0.01116267591714859,0.01630760356783867,-10.66897964477539
1.729492177651704e+18,-0.04824700206518173,-0.000715027388650924,-10.62829875946045
1.7294921776607043e+18,-0.02290651760995388,0.08712489157915115,-10.62360954284668
1.7294921776667044e+18,0.01789471134543419,0.014330357313156128,-10.583724975585938
1.7294921776757046e+18,0.04061242938041687,0.01288578100502491,-10.579833984375
1.7294921776847048e+18,0.014517194591462612,0.0002246414078399539,-10.59712028503418
1.729492177690705e+18,-0.08756382763385773,0.11469513922929764,-10.645271301269531
1.729492177696705e+18,0.020279590040445328,0.02582249790430069,-10.555041313171387
1.7294921777057052e+18,-0.05390768498182297,-0.014999347738921642,-10.558613777160645
1.7294921777117053e+18,-0.10493110120296478,0.005569071508944035,-10.613237380981445
1.7294921777207055e+18,0.022718176245689392,-0.030518002808094025,-10.608980178833008
1.7294921777267057e+18,0.0030972277745604515,-0.013607194647192955,-10.60595703125
1.7294921777357059e+18,-0.06786345690488815,0.0022134436294436455,-10.629623413085938
1.729492177744706e+18,0.03185618668794632,-0.01001050230115652,-10.577548027038574
1.7294921777507062e+18,-0.024111483246088028,0.04400332272052765,-10.573511123657227
1.7294921777597064e+18,-0.02756587415933609,0.03998897597193718,-10.660378456115723
1.7294921777687066e+18,-0.03730364888906479,-0.018049994483590126,-10.557429313659668
1.7294921777747067e+18,0.08731085062026978,0.07676398754119873,-10.546079635620117
1.729492177783707e+18,0.023843135684728622,0.03527769818902016,-10.69435977935791
1.729492177792707e+18,0.025670291855931282,-0.04353596642613411,-10.562573432922363
1.7294921777987072e+18,0.0026841198559850454,-0.03820925951004028,-10.596134185791016
1.7294921778077074e+18,0.08583654463291168,-0.04932890832424164,-10.575465202331543
1.7294921778137075e+18,0.05385133996605873,0.03863117843866348,-10.55842113494873
1.7294921778227077e+18,0.0200947318226099,0.023552492260932922,-10.648627281188965
1.729492177831708e+18,0.02737720124423504,-0.07364454865455627,-10.630087852478027
1.729492177837708e+18,0.0030130913946777582,-0.0038738788571208715,-10.632896423339844
1.7294921778467082e+18,0.024057302623987198,-0.02747041918337345,-10.667821884155273
1.7294921778557084e+18,-0.03472660481929779,-0.011489959433674812,-10.606228828430176
1.7294921778617085e+18,-0.01549344602972269,-0.0031622222159057856,-10.537785530090332
1.7294921778707087e+18,0.06549873948097229,-0.004537142347544432,-10.625557899475098
1.7294921778767089e+18,0.050128061324357986,0.06086166948080063,-10.568618774414062
1.729492177885709e+18,0.004712940193712711,-0.011875564232468605,-10.642539978027344
1.7294921778947092e+18,0.06717075407505035,-0.06535358726978302,-10.56954288482666
1.7294921779007094e+18,0.08032242208719254,0.005622424650937319,-10.59977912902832
1.7294921779097096e+18,-0.03908718749880791,0.010892427526414394,-10.586827278137207
1.7294921779157097e+18,0.006355654913932085,-0.012600857764482498,-10.504356384277344
1.72949217792471e+18,-0.017467768862843513,-0.08300185948610306,-10.465831756591797
1.72949217793071e+18,0.0072854384779930115,0.03275807201862335,-10.67741870880127
1.7294921779397102e+18,0.061320021748542786,-0.09108664840459824,-10.618860244750977
1.7294921779457103e+18,0.02774283103644848,-0.050368424504995346,-10.541751861572266
1.7294921779547105e+18,-0.010540202260017395,-0.001988691743463278,-10.547245979309082
1.7294921779607107e+18,-0.03176829218864441,-0.04124438762664795,-10.557347297668457
1.7294921779697108e+18,-0.02259359136223793,0.0017489299643784761,-10.543190002441406
1.729492177978711e+18,-0.03100796602666378,0.0005632932297885418,-10.588740348815918
1.7294921779847112e+18,0.03929630666971207,-0.018998946994543076,-10.497268676757812
1.7294921779937114e+18,-0.020614247769117355,-0.0010652921628206968,-10.533695220947266
1.7294921779997115e+18,-0.016255224123597145,-0.04079856351017952,-10.5513334274292
1.7294921780087117e+18,-0.039324045181274414,-0.07027232646942139,-10.612675666809082
1.7294921780177119e+18,-0.03305033966898918,-0.03351609781384468,-10.599452018737793
1.729492178023712e+18,-0.03745075315237045,-0.043354332447052,-10.612566947937012
1.7294921780327122e+18,0.026058383285999298,-0.05831657350063324,-10.557696342468262
1.7294921780387123e+18,-0.025038864463567734,0.004088749177753925,-10.51623821258545
1.7294921780477125e+18,0.06398634612560272,0.03633487597107887,-10.596882820129395
1.7294921780567127e+18,0.004030079580843449,0.0292238499969244,-10.491010665893555
1.729492178065713e+18,-0.038326114416122437,0.004153803922235966,-10.593867301940918
1.729492178071713e+18,0.002884694142267108,0.07536804676055908,-10.612283706665039
1.7294921780807132e+18,-0.029854150488972664,0.010816206224262714,-10.649981498718262
1.7294921780897134e+18,-0.03370664268732071,-0.044098835438489914,-10.531846046447754
1.7294921780957135e+18,-0.022820329293608665,0.007921935990452766,-10.584284782409668
1.7294921781047137e+18,-0.06414884328842163,-0.048828478902578354,-10.59664535522461
1.729492178113714e+18,0.027883749455213547,-0.01919090375304222,-10.590032577514648
1.729492178122714e+18,0.06565894186496735,-0.030670255422592163,-10.550338745117188
1.7294921781287142e+18,-0.017352264374494553,-0.03719496726989746,-10.4713716506958
1.7294921781377144e+18,-0.028983790427446365,0.03622497618198395,-10.587960243225098
1.7294921781467146e+18,0.032237257808446884,0.008956318721175194,-10.455872535705566
1.7294921781527148e+18,0.006451061461120844,-0.047238584607839584,-10.621360778808594
1.729492178161715e+18,-0.036967094987630844,-0.012283651158213615,-10.55234146118164
1.729492178167715e+18,-0.023426011204719543,0.02851369045674801,-10.556168556213379
1.7294921781767153e+18,-0.0302417054772377,-0.025394784286618233,-10.611812591552734
1.7294921781857155e+18,-0.04235251247882843,-0.030000239610671997,-10.566256523132324
1.7294921781947156e+18,0.05384339019656181,0.05633702501654625,-10.57823657989502
1.7294921782007158e+18,-0.02943974919617176,-0.022178979590535164,-10.54794692993164
1.729492178209716e+18,-0.0446011908352375,-0.04615003615617752,-10.553576469421387
1.729492178215716e+18,0.023146292194724083,0.01792122609913349,-10.475245475769043
1.7294921782247163e+18,-0.049398817121982574,-0.0018562152981758118,-10.485488891601562
1.7294921782307164e+18,0.05891769006848335,0.07241734117269516,-10.58853530883789
1.7294921782397166e+18,-0.06754384189844131,-0.024963857606053352,-10.484716415405273
1.7294921782487168e+18,0.04159782826900482,-0.0575404167175293,-10.495201110839844
1.729492178254717e+18,0.01603534445166588,-0.08613254874944687,-10.380389213562012
1.729492178263717e+18,-0.0358426608145237,-0.028604179620742798,-10.43699836730957
1.7294921782727173e+18,-0.007784130051732063,-0.03588344529271126,-10.303665161132812
1.7294921782787174e+18,0.07538880407810211,0.07180751115083694,-10.32583999633789
1.7294921782877176e+18,0.012368970550596714,-0.00845339521765709,-10.296913146972656
1.7294921782967178e+18,0.006444921717047691,-0.02583370730280876,-10.276885032653809
1.729492178302718e+18,-0.06079130247235298,0.05514997988939285,-10.218175888061523
1.7294921783117181e+18,-0.024179136380553246,0.018227092921733856,-10.30135440826416
1.7294921783177183e+18,-0.08383950591087341,-0.0203012153506279,-10.259846687316895
1.7294921783267185e+18,0.04122272506356239,-0.04441336914896965,-10.232611656188965
1.7294921783357187e+18,-0.0001671056088525802,-0.07794336974620819,-10.164167404174805
1.7294921783447188e+18,0.030812399461865425,-0.05019058659672737,-10.146208763122559
1.729492178350719e+18,0.006870436482131481,0.052157022058963776,-9.983409881591797
1.7294921783597192e+18,-0.058446142822504044,0.016050776466727257,-9.987677574157715
1.7294921783687194e+18,0.02697252482175827,0.01189429871737957,-10.026676177978516
1.7294921783777196e+18,-0.021780969575047493,0.04336084425449371,-9.99808406829834
1.7294921783837197e+18,0.019836096093058586,0.004766604397445917,-9.998455047607422
1.72949217839272e+18,-0.04372038319706917,0.055629026144742966,-9.866222381591797
1.72949217839872e+18,0.11173660308122635,-0.02364480122923851,-9.957088470458984
1.72949217840472e+18,-0.09747185558080673,-0.0022702845744788647,-9.929729461669922
1.7294921784137203e+18,-0.07376246899366379,0.05092855542898178,-9.85933780670166
1.7294921784227205e+18,-0.059394948184490204,0.05179518833756447,-9.815909385681152
1.7294921784317207e+18,-0.017388425767421722,-0.008833358995616436,-9.789258003234863
1.7294921784377208e+18,-0.002189292572438717,-0.07969497889280319,-9.874086380004883
1.729492178446721e+18,-0.0459621325135231,-0.036138199269771576,-9.749244689941406
1.7294921784557212e+18,-0.010462768375873566,-0.016161832958459854,-9.690436363220215
1.7294921784617213e+18,-0.00968784000724554,0.15066778659820557,-9.71066665649414
1.7294921784707215e+18,0.1092485561966896,0.022508611902594566,-9.694270133972168
1.7294921784767217e+18,-0.0023367356043308973,0.009549969807267189,-9.832058906555176
1.7294921784857219e+18,-0.022693391889333725,0.038535136729478836,-9.697449684143066
1.729492178494722e+18,0.024897878989577293,-0.10369273275136948,-9.787408828735352
1.7294921785007222e+18,0.004780102055519819,0.051504701375961304,-9.6735200881958
1.7294921785097224e+18,-0.02290068194270134,-0.08453406393527985,-9.705737113952637
1.7294921785187226e+18,-0.06362223625183105,-0.019620496779680252,-9.660313606262207
1.7294921785247227e+18,0.07571592926979065,-0.00255524436943233,-9.734954833984375
1.729492178533723e+18,-0.011310698464512825,0.029729492962360382,-9.646403312683105
1.729492178542723e+18,-0.004817465785890818,0.024475032463669777,-9.677249908447266
1.7294921785487232e+18,-0.04411829635500908,-0.0575016625225544,-9.694779396057129
1.7294921785577234e+18,0.017667576670646667,0.09278670698404312,-9.690384864807129
1.7294921785637235e+18,-0.026928327977657318,0.012802936136722565,-9.605429649353027
1.7294921785727237e+18,-0.0024050369393080473,0.058922410011291504,-9.659512519836426
1.729492178581724e+18,0.018992247059941292,0.00159760273527354,-9.702404022216797
1.729492178587724e+18,-0.03826438635587692,-0.013076585717499256,-9.681538581848145
1.7294921785967242e+18,-0.038869742304086685,-0.03485742211341858,-9.705846786499023
1.7294921786027244e+18,-0.08891303837299347,-0.013888971880078316,-9.717326164245605
1.7294921786117245e+18,-0.06740832328796387,0.0072888038121163845,-9.712047576904297
1.7294921786207247e+18,0.005819783546030521,-0.033575087785720825,-9.726999282836914
1.7294921786267249e+18,-0.010215511545538902,0.00834040530025959,-9.682539939880371
1.729492178635725e+18,-0.008395137265324593,-0.06637962907552719,-9.697303771972656
1.7294921786447252e+18,-0.010430133901536465,-0.021100617945194244,-9.692113876342773
1.7294921786507254e+18,0.05592009052634239,-0.059760697185993195,-9.75374698638916
1.7294921786597256e+18,0.03366108611226082,-0.048584382981061935,-9.738197326660156
1.7294921786657257e+18,-0.005238241050392389,-0.08708791434764862,-9.708586692810059
1.729492178674726e+18,-0.05619136244058609,-0.023385226726531982,-9.689126014709473
1.729492178683726e+18,0.06888102740049362,0.022626182064414024,-9.713691711425781
1.7294921786897262e+18,-0.03585214540362358,-0.053071245551109314,-9.675275802612305
1.7294921786987264e+18,-0.07340237498283386,0.018811693415045738,-9.600341796875
1.7294921787047265e+18,-0.09607723355293274,0.04377034306526184,-9.646100997924805
1.7294921787137267e+18,0.016749758273363113,-0.0025346563197672367,-9.691367149353027
1.729492178722727e+18,0.09163513034582138,-0.01565724052488804,-9.711811065673828
1.729492178728727e+18,-0.04622768610715866,-0.038366179913282394,-9.708086013793945
1.7294921787377272e+18,0.04933854937553406,-0.04129171371459961,-9.670783042907715
1.7294921787437274e+18,0.009402690455317497,-0.03259973227977753,-9.655715942382812
1.7294921787527276e+18,-0.03393462672829628,0.04907001927495003,-9.591689109802246
1.7294921787617277e+18,0.05892890691757202,-0.0498419851064682,-9.555622100830078
1.7294921787677279e+18,-0.001304320408962667,0.032238416373729706,-9.6671781539917
1.729492178776728e+18,0.012179539538919926,0.025518937036395073,-9.689847946166992
1.7294921787827282e+18,-0.020122617483139038,0.0023689025547355413,-9.655678749084473
1.7294921787917284e+18,0.0004792388645000756,-0.013124719262123108,-9.634160041809082
1.7294921788007286e+18,-0.07183700799942017,0.017027685418725014,-9.743700981140137
1.7294921788067287e+18,0.026025179773569107,-0.0012263166718184948,-9.676472663879395
1.729492178815729e+18,0.06795352697372437,0.04554592818021774,-9.558612823486328
1.729492178821729e+18,-0.08191753178834915,-0.06858986616134644,-9.649397850036621
1.7294921788307292e+18,0.0459824800491333,0.03140023723244667,-9.608092308044434
1.7294921788367293e+18,-0.06218734011054039,0.06635990738868713,-9.71076774597168
1.7294921788457295e+18,0.035154618322849274,-0.07625541090965271,-9.712882995605469
1.7294921788517297e+18,0.03179263323545456,-0.02404060773551464,-9.674555778503418
1.7294921788607299e+18,-0.05105297639966011,-0.03326867148280144,-9.67004108428955
1.72949217886973e+18,0.028838209807872772,0.0651838481426239,-9.621319770812988
1.7294921788757302e+18,-0.04282067343592644,-0.08122710138559341,-9.585437774658203
1.7294921788847304e+18,-0.0040478790178895,0.06228887662291527,-9.645833015441895
1.7294921788907305e+18,0.003134651342406869,0.03623779118061066,-9.635685920715332
1.7294921788997307e+18,0.034607354551553726,-0.035137128084897995,-9.738236427307129
1.729492178908731e+18,-0.09274227172136307,0.04193717986345291,-9.672261238098145
1.729492178914731e+18,-0.018484914675354958,-0.0008170768851414323,-9.635350227355957
1.7294921789237312e+18,0.011667322367429733,0.03064262866973877,-9.65888786315918
1.7294921789327314e+18,-0.02459864132106304,0.13283304870128632,-9.592520713806152
1.7294921789387315e+18,-0.029508212581276894,-0.016526129096746445,-9.575108528137207
1.7294921789477317e+18,-0.031620703637599945,-0.0039918916299939156,-9.600462913513184
1.729492178956732e+18,-0.0302127655595541,-0.04253751412034035,-9.650625228881836
1.729492178965732e+18,0.06385107338428497,-0.006425756495445967,-9.708057403564453
1.7294921789717322e+18,-0.04999707266688347,0.027512304484844208,-9.618861198425293
1.7294921789807324e+18,0.03318287432193756,0.08066384494304657,-9.618528366088867
1.7294921789867325e+18,0.011924071237444878,0.021717099472880363,-9.576253890991211
1.7294921789957327e+18,0.04349132627248764,0.0419294498860836,-9.570935249328613
1.729492179004733e+18,0.07166579365730286,0.035431887954473495,-9.562406539916992
1.729492179010733e+18,0.051317863166332245,0.046148739755153656,-9.516960144042969
1.7294921790197332e+18,0.008793213404715061,0.07143799215555191,-9.587410926818848
1.7294921790287334e+18,0.012271955609321594,0.03329926356673241,-9.587029457092285
1.7294921790347336e+18,0.052830033004283905,0.09780725836753845,-9.538811683654785
1.7294921790437338e+18,-0.00883724819868803,-0.007338467054069042,-9.54974365234375
1.729492179052734e+18,-0.005137135274708271,-0.036714598536491394,-9.576584815979004
1.729492179058734e+18,-0.030714763328433037,0.025421150028705597,-9.592765808105469
1.7294921790677343e+18,0.008032212033867836,0.05943818390369415,-9.583053588867188
1.7294921790737344e+18,-0.05045941472053528,0.016484996303915977,-9.634387969970703
1.7294921790827346e+18,0.02140657976269722,-0.04119420424103737,-9.593414306640625
1.7294921790917348e+18,-0.021812407299876213,-0.02772519364953041,-9.626120567321777
1.729492179103735e+18,-0.06410617381334305,-0.022484106943011284,-9.609659194946289
1.7294921791157353e+18,0.06846019625663757,0.061076365411281586,-9.493377685546875
1.7294921791217354e+18,0.01687747985124588,0.050982896238565445,-9.640199661254883
1.7294921791307356e+18,-0.03457033261656761,0.0427207387983799,-9.539445877075195
1.7294921791367357e+18,-0.01469812635332346,0.014479502104222775,-9.66014289855957
1.729492179145736e+18,-0.08382277190685272,0.05836854130029678,-9.650514602661133
1.729492179154736e+18,0.015634652227163315,0.016987575218081474,-9.621933937072754
1.7294921791607363e+18,0.04620203375816345,0.037497393786907196,-9.540810585021973
1.7294921791697364e+18,0.01149437204003334,-0.050584182143211365,-9.56432819366455
1.7294921791787366e+18,-0.0008102183928713202,0.011196253821253777,-9.537128448486328
1.7294921791847368e+18,-0.024673793464899063,-0.05823247507214546,-9.501900672912598
1.729492179193737e+18,-0.026836363598704338,0.0005424899281933904,-9.583479881286621
1.7294921792027372e+18,-0.007063260767608881,0.01847125217318535,-9.560014724731445
1.7294921792117373e+18,-0.0015192207647487521,-0.034204449504613876,-9.517688751220703
1.7294921792177375e+18,-0.002502662595361471,0.012465937063097954,-9.516731262207031
1.7294921792267377e+18,-0.07112709432840347,-0.06018530949950218,-9.613463401794434
1.7294921792327378e+18,-0.03968868404626846,-0.0571497343480587,-9.537461280822754
1.729492179241738e+18,0.01358562707901001,0.034085169434547424,-9.519035339355469
1.729492179247738e+18,0.03616587445139885,-0.10573655366897583,-9.509137153625488
1.7294921792567383e+18,-0.06890551000833511,0.006101321894675493,-9.502427101135254
1.7294921792627384e+18,0.008505001664161682,0.01694934256374836,-9.507431030273438
1.7294921792717386e+18,0.05271386727690697,-0.030000966042280197,-9.482388496398926
1.7294921792807388e+18,0.05548175424337387,0.012700011022388935,-9.504593849182129
1.729492179286739e+18,0.02280992455780506,0.019739843904972076,-9.450058937072754
1.7294921792957391e+18,0.009585683234035969,0.030706727877259254,-9.460478782653809
1.7294921793047393e+18,-0.026985926553606987,-0.0539594441652298,-9.500802040100098
1.7294921793137395e+18,0.024881919845938683,-0.05390043929219246,-9.478501319885254
1.7294921793197396e+18,-0.08601488173007965,-0.009304245933890343,-9.45495319366455
1.7294921793287398e+18,-0.026108501479029655,0.01119629479944706,-9.478646278381348
1.72949217933474e+18,0.010530306026339531,0.08470920473337173,-9.443662643432617
1.7294921793437402e+18,-0.0037455258425325155,-0.022853484377264977,-9.458107948303223
1.7294921793527404e+18,-0.006126847118139267,0.035438135266304016,-9.513246536254883
1.7294921793587405e+18,-0.03904502093791962,-0.021561933681368828,-9.477652549743652
1.7294921793677407e+18,-0.026356879621744156,0.06887996196746826,-9.441056251525879
1.7294921793737408e+18,-0.04131914675235748,0.028802234679460526,-9.527288436889648
1.729492179382741e+18,0.00026140009867958724,-0.04088453948497772,-9.50460147857666
1.729492179388741e+18,-0.06840085238218307,-0.07615763694047928,-9.458416938781738
1.7294921793977413e+18,0.02410370670258999,0.013336768373847008,-9.480661392211914
1.7294921794037414e+18,0.0201717521995306,-0.03364446759223938,-9.494885444641113
1.7294921794127416e+18,0.12421257048845291,0.010143700987100601,-9.47748851776123
1.7294921794217418e+18,-0.04724136367440224,0.004308939911425114,-9.482105255126953
1.729492179427742e+18,-0.005430431105196476,0.009926985949277878,-9.478158950805664
1.7294921794367421e+18,0.017673416063189507,-0.02981148473918438,-9.539755821228027
1.7294921794457423e+18,0.007458568550646305,-0.00529471505433321,-9.467413902282715
1.7294921794517425e+18,-0.08818476647138596,0.050242699682712555,-9.505966186523438
1.7294921794607427e+18,-0.10763440281152725,0.05005016550421715,-9.551427841186523
1.7294921794697428e+18,0.02659010887145996,-0.012566395103931427,-9.392130851745605
1.729492179475743e+18,0.045909956097602844,-0.009850433096289635,-9.473220825195312
1.7294921794847432e+18,0.035254333168268204,-0.03488935902714729,-9.425773620605469
1.7294921794907433e+18,-0.02989193983376026,-0.017023295164108276,-9.482362747192383
1.7294921794997435e+18,0.018963316455483437,-0.06438575685024261,-9.535751342773438
1.7294921795057436e+18,-0.014949764125049114,-0.0637068897485733,-9.504983901977539
1.7294921795147438e+18,0.012416146695613861,0.03987095132470131,-9.540260314941406
1.729492179523744e+18,-0.016393670812249184,0.06640428304672241,-9.522716522216797
1.7294921795297441e+18,-0.08753270655870438,0.07749509066343307,-9.448657035827637
1.7294921795387443e+18,0.040356431156396866,-0.09003425389528275,-9.539959907531738
1.7294921795477445e+18,0.016483547165989876,-0.023067597299814224,-9.417696952819824
1.7294921795537446e+18,-0.08308976143598557,-0.0031863455660641193,-9.518792152404785
1.7294921795627448e+18,-0.003395247273147106,0.044917549937963486,-9.514557838439941
1.729492179568745e+18,0.014891943894326687,-0.018418654799461365,-9.498579978942871
1.7294921795777452e+18,-0.08484750241041183,0.057338301092386246,-9.482063293457031
1.7294921795867453e+18,0.040945518761873245,-0.020473778247833252,-9.43299388885498
1.7294921795957455e+18,0.05278543755412102,0.053321607410907745,-9.408888816833496
1.7294921796047457e+18,-0.005064970348030329,0.012415529228746891,-9.389143943786621
1.7294921796107459e+18,0.11943833529949188,-0.06748847663402557,-9.516207695007324
1.729492179619746e+18,-0.04380321130156517,0.006882655434310436,-9.630266189575195
1.7294921796257462e+18,0.0008170624496415257,0.04121290519833565,-9.51342487335205
1.7294921796347464e+18,0.02081301435828209,0.02110704779624939,-9.52293586730957
1.7294921796407465e+18,-0.026890352368354797,-0.10654761642217636,-9.511873245239258
1.7294921796497467e+18,-0.030976973474025726,-0.04360148310661316,-9.462868690490723
1.7294921796557468e+18,-0.06133014336228371,-0.0231142770498991,-9.436594009399414
1.729492179664747e+18,0.012891443446278572,-0.004025958478450775,-9.422239303588867
1.7294921796707471e+18,0.0007077857153490186,-0.00041057600174099207,-9.433147430419922
1.7294921796797473e+18,-0.010614758357405663,0.09129930287599564,-9.452125549316406
1.7294921796857475e+18,-0.06524541974067688,-0.018031038343906403,-9.450155258178711
1.7294921796947476e+18,-0.012329007498919964,-0.09585953503847122,-9.382402420043945
1.7294921797037478e+18,0.012841719202697277,-0.03762621060013771,-9.406462669372559
1.729492179709748e+18,-0.05264895036816597,-0.03135605901479721,-9.41517448425293
1.7294921797187482e+18,0.09580788016319275,-0.028188234195113182,-9.378453254699707
1.7294921797247483e+18,0.07599679380655289,0.043052420020103455,-9.430447578430176
1.7294921797337485e+18,0.02131323143839836,-0.04770953953266144,-9.421675682067871
1.7294921797427487e+18,0.07814716547727585,0.01079910434782505,-9.53031063079834
1.7294921797487488e+18,0.024152370169758797,-0.02809489145874977,-9.443446159362793
1.729492179757749e+18,0.11000880599021912,-0.006973480340093374,-9.541031837463379
1.729492179763749e+18,-0.005580178927630186,-0.07798750698566437,-9.49612808227539
1.7294921797727493e+18,6.248237332329154e-05,-0.012036139145493507,-9.41392993927002
1.7294921797817495e+18,0.05042726919054985,-0.08676973730325699,-9.493555068969727
1.7294921797877496e+18,0.04953363537788391,-0.00017021858366206288,-9.465060234069824
1.7294921797967498e+18,0.037757862359285355,-0.019452575594186783,-9.477726936340332
1.72949217980275e+18,0.022353006526827812,-0.044792961329221725,-9.466876029968262
1.7294921798117501e+18,0.022191474214196205,0.04648527130484581,-9.397542953491211
1.7294921798177503e+18,0.010637946426868439,0.015750685706734657,-9.416207313537598
1.7294921798267505e+18,-0.03378038853406906,0.05090370401740074,-9.381020545959473
1.7294921798357507e+18,-0.08901919424533844,-0.04037264734506607,-9.411927223205566
1.7294921798417508e+18,0.04049752280116081,-0.07670143991708755,-9.422607421875
1.729492179850751e+18,0.01645759493112564,0.06142590939998627,-9.476223945617676
1.7294921798597512e+18,0.04508667066693306,-0.05001188814640045,-9.517542839050293
1.7294921798657513e+18,0.0017980881966650486,0.06604355573654175,-9.431431770324707
1.7294921798747515e+18,0.12488963454961777,-0.030745157971978188,-9.466567993164062
1.7294921798807516e+18,-0.012055567465722561,0.020396312698721886,-9.469849586486816
1.7294921798897518e+18,0.01898261159658432,-0.06626255810260773,-9.463504791259766
1.729492179898752e+18,-0.027080463245511055,0.05400305241346359,-9.387508392333984
1.729492179904752e+18,0.04919649288058281,-0.03604970872402191,-9.385215759277344
1.7294921799137523e+18,0.014606394805014133,0.09145516157150269,-9.482016563415527
1.7294921799227525e+18,-0.03913962095975876,-0.006635118741542101,-9.441339492797852
1.7294921799317527e+18,-0.035216569900512695,0.04539293050765991,-9.485584259033203
1.729492179940753e+18,-0.004536006134003401,-0.010978101752698421,-9.37511157989502
1.729492179949753e+18,-0.02510857954621315,0.021598495543003082,-9.368865966796875
1.7294921799557532e+18,0.013301946222782135,0.0009325076243840158,-9.321989059448242
1.7294921799647534e+18,0.041277460753917694,0.01235919538885355,-9.328401565551758
1.7294921799707535e+18,-0.01523048710078001,-0.016528576612472534,-9.295792579650879
1.7294921799797537e+18,-0.019992519170045853,-0.053342439234256744,-9.30286693572998
1.7294921799857539e+18,0.058594267815351486,-0.03673192858695984,-9.307769775390625
1.729492179994754e+18,-0.06772960722446442,0.04335050284862518,-9.234975814819336
1.7294921800007542e+18,0.09717369824647903,0.060088157653808594,-9.157130241394043
1.7294921800097544e+18,0.0027423682622611523,-0.0027155429124832153,-9.253896713256836
1.7294921800187546e+18,0.009947516024112701,0.0177772156894207,-9.223360061645508
1.7294921800277548e+18,-0.028867416083812714,-0.025783615186810493,-9.124883651733398
1.729492180036755e+18,-0.07945291697978973,0.008277048356831074,-9.129855155944824
1.729492180042755e+18,0.05980654060840607,-0.01851232536137104,-9.032349586486816
1.7294921800517553e+18,0.06992492079734802,-0.015116140246391296,-9.084528923034668
1.7294921800607555e+18,0.05934686213731766,-0.03484572097659111,-9.00658130645752
1.7294921800697556e+18,-0.01148433331400156,0.020444506779313087,-9.035090446472168
1.7294921800787558e+18,-0.05463695526123047,0.03863828629255295,-9.018729209899902
1.729492180084756e+18,-0.06582693010568619,0.046136755496263504,-8.995040893554688
1.7294921800937562e+18,-0.038495682179927826,0.05450439453125,-9.00101089477539
1.7294921801027564e+18,0.038280416280031204,-0.005814400501549244,-8.933453559875488
1.7294921801087565e+18,0.029549360275268555,-0.005375388544052839,-8.941484451293945
1.7294921801177567e+18,0.01801641657948494,0.001976330764591694,-8.823442459106445
1.7294921801267569e+18,0.034756485372781754,0.061062801629304886,-8.808911323547363
1.729492180135757e+18,0.07278545945882797,-0.030945293605327606,-8.70083236694336
1.7294921801417572e+18,0.02392050065100193,-0.041911132633686066,-8.80354118347168
1.7294921801507574e+18,0.010884556919336319,0.050660766661167145,-8.736540794372559
1.7294921801597576e+18,0.04523632675409317,0.0004942089435644448,-8.662466049194336
1.7294921801687578e+18,0.0566154345870018,-0.027518924325704575,-8.600397109985352
1.729492180174758e+18,-0.028493773192167282,0.06873392313718796,-8.65772819519043
1.729492180183758e+18,-0.041593004018068314,-0.02248328924179077,-8.620057106018066
1.7294921801927583e+18,-0.013427585363388062,-0.0018442170694470406,-8.59337043762207
1.7294921802017585e+18,0.021367372944951057,0.030600791797041893,-8.583088874816895
1.7294921802107587e+18,-0.06754735857248306,-0.02558392472565174,-8.652559280395508
1.7294921802167588e+18,0.06076305732131004,0.015967989340424538,-8.619203567504883
1.729492180225759e+18,0.0007976258057169616,-0.03153001517057419,-8.669370651245117
1.7294921802347592e+18,0.07559787482023239,-0.00033849928877316415,-8.695301055908203
1.7294921802437594e+18,-0.04438924416899681,0.08683367818593979,-8.611196517944336
1.7294921802497595e+18,0.020636022090911865,-0.03692571818828583,-8.639778137207031
1.7294921802587597e+18,-0.00908249244093895,0.006663719192147255,-8.660707473754883
1.7294921802677599e+18,0.016405900940299034,0.06752641499042511,-8.631059646606445
1.72949218027376e+18,0.0025719578843563795,-0.02951766736805439,-8.75478458404541
1.7294921802827602e+18,-0.0490841306746006,0.031682439148426056,-8.742498397827148
1.7294921802917604e+18,-0.053316354751586914,-0.05599803477525711,-8.710516929626465
1.7294921802977605e+18,0.0040560439229011536,-0.026990441605448723,-8.786627769470215
1.7294921803067607e+18,-0.032147157937288284,-0.015686236321926117,-8.803482055664062
1.7294921803127608e+18,-0.02260701172053814,0.02168535254895687,-8.785922050476074
1.729492180321761e+18,-0.0053085931576788425,-0.05732028931379318,-8.87150764465332
1.7294921803307612e+18,-0.013747196644544601,0.015329757705330849,-8.918710708618164
1.7294921803367613e+18,0.03414501994848251,0.028172515332698822,-8.908822059631348
1.7294921803457615e+18,0.04727465659379959,-0.014407815411686897,-8.876065254211426
1.7294921803547617e+18,-0.03476015105843544,0.0815492644906044,-8.984071731567383
1.7294921803607619e+18,-0.028934314846992493,0.03965317830443382,-14.006906509399414
1.729492180369762e+18,0.018436474725604057,-0.026252126321196556,-15.873393058776855
1.7294921803787622e+18,-0.02111019939184189,-0.03316154330968857,-16.20118522644043
1.7294921803877624e+18,-0.02208779752254486,0.02272188477218151,-16.205219268798828
1.7294921803937626e+18,0.06986404210329056,0.004235999658703804,-16.378890991210938
1.7294921804027628e+18,-0.02550514228641987,0.004098924808204174,-16.286203384399414
1.729492180411763e+18,0.021966904401779175,0.06559236347675323,-16.22628402709961
1.7294921804207631e+18,0.006968459580093622,-0.017095644026994705,-16.018325805664062
1.7294921804297633e+18,-0.03968963399529457,0.04003613442182541,-15.943694114685059
1.7294921804357635e+18,0.05140484869480133,-0.0021245419047772884,-15.895112037658691
1.7294921804447636e+18,0.049552224576473236,-0.03597869351506233,-15.764849662780762
1.7294921804507638e+18,0.016257595270872116,0.04243127629160881,-15.667387008666992
1.729492180459764e+18,-0.023333657532930374,-0.09712474793195724,-15.515053749084473
1.729492180465764e+18,-0.006842702627182007,0.03902430087327957,-15.405001640319824
1.7294921804747643e+18,-0.07348796725273132,0.05780511721968651,-15.210881233215332
1.7294921804807644e+18,0.0801396369934082,0.04014648124575615,-15.258268356323242
1.7294921804897646e+18,-0.06483688205480576,0.0035459448117762804,-15.110535621643066
1.7294921804987648e+18,0.012670745141804218,-0.031677789986133575,-14.918951034545898
1.729492180504765e+18,0.009077941998839378,0.015361559577286243,-14.861289024353027
1.729492180513765e+18,0.01612640917301178,0.004114014096558094,-14.767268180847168
1.7294921805227653e+18,0.048440661281347275,-0.03770248964428902,-14.624897956848145
1.7294921805287654e+18,-0.046470336616039276,-0.030233927071094513,-14.488438606262207
1.7294921805377656e+18,-0.031409770250320435,0.06552053987979889,-14.49759292602539
1.7294921805467658e+18,0.04760710522532463,0.007599635515362024,-14.31342887878418
1.729492180555766e+18,-0.03473767265677452,0.011262704618275166,-14.20679759979248
1.7294921805617661e+18,-0.10748212784528732,-0.04263583570718765,-14.105228424072266
1.7294921805707663e+18,0.0013958353083580732,-0.021501129493117332,-14.067744255065918
1.7294921805767665e+18,0.04334519803524017,0.07448040693998337,-13.95219612121582
1.7294921805857667e+18,-0.04137159138917923,-0.0034834633115679026,-13.864253997802734
1.7294921805917668e+18,-0.010065887123346329,0.01848866231739521,-13.802618980407715
1.729492180600767e+18,-0.011673800647258759,0.0030374443158507347,-13.681235313415527
1.729492180606767e+18,-0.025085117667913437,-0.008985433727502823,-13.635902404785156
1.7294921806157673e+18,0.014275720342993736,0.006987330969423056,-13.480009078979492
1.7294921806217674e+18,-0.01560551393777132,-0.05725378915667534,-13.45141315460205
1.7294921806307676e+18,0.007837147451937199,-0.0330466702580452,-13.331676483154297
1.7294921806367677e+18,0.0045031472109258175,0.053419891744852066,-13.341705322265625
1.729492180645768e+18,-0.056261248886585236,0.037187814712524414,-13.219743728637695
1.729492180651768e+18,-0.11684474349021912,0.018674004822969437,-13.164592742919922
1.7294921806607683e+18,-0.015201153233647346,-0.005103641655296087,-13.18126392364502
1.7294921806667684e+18,-0.018355555832386017,0.03352423012256622,-13.072758674621582
1.7294921806757686e+18,-0.021125786006450653,-0.05050817131996155,-13.033270835876465
1.7294921806817687e+18,0.0037229652516543865,0.0058891186490654945,-12.89722728729248
1.729492180690769e+18,0.02856527455151081,-0.08763297647237778,-12.832842826843262
1.729492180699769e+18,-0.07097658514976501,-0.05032268539071083,-12.795516014099121
1.7294921807057692e+18,-0.029016626998782158,-0.004481937736272812,-12.816136360168457
1.7294921807147694e+18,0.06909068673849106,-0.007095219101756811,-12.6981840133667
1.7294921807207695e+18,0.0036617072764784098,-0.003024286823347211,-12.598523139953613
1.7294921807297697e+18,-0.023778781294822693,-0.04794296622276306,-12.639728546142578
1.7294921807357699e+18,-0.02332845889031887,0.015094375237822533,-12.546065330505371
1.72949218074477e+18,-0.009973772801458836,0.03318057954311371,-12.509617805480957
1.7294921807537702e+18,-0.041683271527290344,-0.02130083739757538,-12.483799934387207
1.7294921807597704e+18,0.050341103225946426,-0.05722485110163689,-12.271876335144043
1.7294921807687706e+18,-0.05096087232232094,0.058905914425849915,-12.41129207611084
1.7294921807777708e+18,0.03322971239686012,-0.0257977694272995,-12.260734558105469
1.729492180783771e+18,0.0012584549840539694,-0.039988648146390915,-12.254766464233398
1.729492180792771e+18,0.06492693722248077,-0.010404469445347786,-12.195399284362793
1.7294921808017713e+18,0.006037072278559208,-0.09056483209133148,-12.130313873291016
1.7294921808107715e+18,-0.007145548705011606,-0.027100425213575363,-12.105712890625
1.7294921808167716e+18,0.0454949326813221,-0.0429634153842926,-12.026839256286621
1.7294921808257718e+18,-0.028945544734597206,0.059357114136219025,-12.04787826538086
1.729492180834772e+18,-0.07635319232940674,-0.021500209346413612,-11.991799354553223
1.729492180840772e+18,-0.03718084096908569,-0.021909184753894806,-11.94007682800293
1.7294921808497723e+18,-0.07720386236906052,-0.008720498532056808,-11.866747856140137
1.7294921808557724e+18,-0.022630292922258377,0.04167292267084122,-11.78994369506836
1.7294921808647726e+18,-0.008585482835769653,-0.008784433826804161,-11.724349975585938
1.7294921808737728e+18,-0.09113917499780655,-0.010731165297329426,-11.794180870056152
1.729492180879773e+18,0.06001831963658333,-0.042942143976688385,-11.750509262084961
1.729492180888773e+18,0.09104708582162857,-0.0023290924727916718,-11.697690963745117
1.7294921808947732e+18,0.0025772121734917164,0.01966124214231968,-11.724483489990234
1.7294921809037734e+18,0.026773227378726006,-0.04132611304521561,-11.671091079711914
1.7294921809127736e+18,-0.0312308669090271,-0.003945459611713886,-11.602575302124023
1.7294921809187738e+18,0.0407976433634758,-0.0318659283220768,-11.531850814819336
1.729492180927774e+18,0.00833551213145256,-0.03383207693696022,-11.538554191589355
1.729492180933774e+18,0.019622428342700005,0.013275827281177044,-11.515335083007812
1.7294921809427743e+18,-0.035284049808979034,0.011938256211578846,-11.49971866607666
1.7294921809487744e+18,0.004694856703281403,-0.0170812476426363,-11.377960205078125
1.7294921809577746e+18,-0.02373199537396431,-0.06497499346733093,-11.48863410949707
1.7294921809667748e+18,0.005936469417065382,-0.05040644481778145,-11.34244441986084
1.729492180972775e+18,0.005375801585614681,-0.0006123477942310274,-11.340374946594238
1.729492180981775e+18,0.008509431034326553,-0.012047942727804184,-11.253214836120605
1.7294921809907753e+18,-0.028112534433603287,0.04330288991332054,-11.280182838439941
1.7294921809967754e+18,-0.029549019411206245,0.04672905430197716,-11.313736915588379
1.7294921810057756e+18,-0.01664174348115921,-0.0016136866761371493,-11.229870796203613
1.7294921810117757e+18,0.02201225608587265,-0.03825138136744499,-11.145566940307617
1.729492181020776e+18,-0.014963073655962944,-0.0020316303707659245,-11.2139253616333
1.7294921810297761e+18,0.01164876390248537,0.042362526059150696,-11.130698204040527
1.7294921810387763e+18,0.02322976477444172,0.039710335433483124,-11.113509178161621
1.7294921810477765e+18,0.020359128713607788,0.01893542893230915,-11.090998649597168
1.7294921810567767e+18,-0.004147578962147236,-0.009861145168542862,-11.094834327697754
1.729492181065777e+18,0.04680508375167847,-0.09148124605417252,-11.0585355758667
1.729492181074777e+18,0.045653872191905975,0.11062698811292648,-10.990018844604492
1.7294921810807772e+18,0.0331135094165802,-0.00537171121686697,-11.064776420593262
1.7294921810897774e+18,0.0359339714050293,0.004013904836028814,-11.062911033630371
1.7294921810957775e+18,-0.007795348297804594,0.004194579087197781,-10.935089111328125
1.7294921811047777e+18,0.006333705969154835,0.019403602927923203,-10.977020263671875
1.7294921811107779e+18,-0.06712201237678528,0.03209449350833893,-10.955734252929688
1.729492181119778e+18,-0.01032746210694313,0.036231253296136856,-10.844480514526367
1.7294921811257782e+18,0.03071393445134163,-0.011054912582039833,-10.904006958007812
1.7294921811347784e+18,-0.049350302666425705,-0.08011303842067719,-10.888273239135742
1.7294921811437786e+18,0.04235817492008209,-0.013267909176647663,-10.814370155334473
1.7294921811527788e+18,0.02407386526465416,0.10032006353139877,-10.80716323852539
1.729492181161779e+18,0.02325795404613018,0.02074385993182659,-10.725916862487793
1.7294921811707791e+18,0.055745139718055725,0.00925552286207676,-10.79131031036377
1.7294921811767793e+18,-0.024547304958105087,-0.04630004242062569,-10.729620933532715
1.7294921811857795e+18,-0.011830843985080719,-0.009675845503807068,-10.726568222045898
1.7294921811947796e+18,-0.013154571875929832,0.04590677469968796,-10.687118530273438
1.7294921812037798e+18,0.020142745226621628,0.0212092325091362,-10.647358894348145
1.72949218121278e+18,-0.04977652430534363,-0.01918266899883747,-10.688826560974121
1.7294921812217802e+18,-0.017248421907424927,0.0074551706202328205,-10.666903495788574
1.7294921812307804e+18,-0.06633034348487854,-0.1243457943201065,-10.615514755249023
1.7294921812397806e+18,-0.08579009026288986,-0.04366811364889145,-10.57906723022461
1.7294921812487808e+18,-0.0654439702630043,-0.07781563699245453,-10.614397048950195
1.729492181254781e+18,-0.0009728465229272842,0.022670544683933258,-10.507330894470215
1.729492181263781e+18,-0.051588743925094604,0.005985673516988754,-10.543456077575684
1.7294921812727813e+18,0.011665232479572296,-0.03870438411831856,-10.607564926147461
1.7294921812787814e+18,-0.022016026079654694,-0.005558124743402004,-10.49487018585205
1.7294921812967818e+18,0.043312326073646545,0.0689288005232811,-10.470616340637207
1.729492181302782e+18,-0.09336225688457489,0.007371205370873213,-10.453702926635742
1.7294921813117821e+18,0.03431990370154381,0.008788092993199825,-10.442184448242188
1.7294921813207823e+18,-0.0002800595830194652,0.04704521968960762,-10.541876792907715
1.7294921813267825e+18,-0.061896439641714096,-0.044022828340530396,-10.427005767822266
1.7294921813357827e+18,0.0091292979195714,0.01908988505601883,-10.429364204406738
1.7294921813417828e+18,0.0092167928814888,0.0017458766233175993,-10.45367431640625
1.729492181350783e+18,-0.017752395942807198,-0.01888209395110607,-10.403182029724121
1.729492181356783e+18,-0.00972521211951971,0.05604040250182152,-10.434503555297852
1.7294921813657833e+18,-0.05153648555278778,-0.055146895349025726,-10.34335994720459
1.7294921813747835e+18,-0.020710472017526627,0.027502216398715973,-10.334599494934082
1.7294921813807836e+18,0.03160245344042778,0.052408792078495026,-10.3683443069458
1.7294921813897838e+18,-0.030574969947338104,0.0003097952576354146,-10.325142860412598
1.729492181398784e+18,0.02863721363246441,-0.037678007036447525,-10.338269233703613
1.729492181404784e+18,0.06521251797676086,-0.039092425256967545,-10.3457612991333
1.7294921814137843e+18,-0.04921938106417656,-0.06095535680651665,-10.347713470458984
1.7294921814197844e+18,-0.015273288823664188,0.040280669927597046,-10.28788948059082
1.7294921814287846e+18,0.006334364414215088,0.02051774226129055,-10.348655700683594
1.7294921814347848e+18,0.026920724660158157,-0.05155055224895477,-10.250452041625977
1.729492181443785e+18,0.003275651019066572,-0.048038776963949203,-10.205060958862305
1.7294921814527852e+18,0.044917475432157516,0.044661156833171844,-10.180293083190918
1.7294921814587853e+18,0.038488324731588364,0.06776237487792969,-10.357304573059082
1.7294921814677855e+18,0.04044397175312042,-0.005192773882299662,-10.272985458374023
1.7294921814767857e+18,-0.021544309332966805,-0.048278845846652985,-10.144800186157227
1.7294921814827858e+18,0.0351441316306591,-0.02124236524105072,-10.294896125793457
1.729492181491786e+18,-0.05439579859375954,0.023046620190143585,-10.218440055847168
1.7294921815007862e+18,-0.0035577798262238503,0.03434530645608902,-10.191368103027344
1.7294921815067863e+18,-0.004839600529521704,0.030543439090251923,-10.18588924407959
1.7294921815157865e+18,-0.009095643647015095,0.09377724677324295,-10.15743350982666
1.7294921815217866e+18,-0.0048695579171180725,0.0014275845605880022,-10.292337417602539
1.7294921815307868e+18,0.027485506609082222,0.01448232214897871,-10.182195663452148
1.729492181539787e+18,0.0316423624753952,0.017116162925958633,-10.117716789245605
1.7294921815487872e+18,0.027413474395871162,0.06061776727437973,-10.093099594116211
1.7294921815577874e+18,0.03544307127594948,-0.054020438343286514,-10.194002151489258
1.7294921815697876e+18,-0.03508662059903145,0.05314910411834717,-10.09125804901123
1.7294921815787878e+18,-0.046158935874700546,-0.014120199717581272,-10.151787757873535
1.729492181584788e+18,-0.05264507234096527,0.013463328592479229,-10.098976135253906
1.7294921815937882e+18,0.027921829372644424,0.13224686682224274,-10.03798770904541
1.7294921816027884e+18,-0.031171325594186783,0.044367630034685135,-10.11922836303711
1.7294921816087885e+18,-0.013502275571227074,-0.005436199717223644,-10.117386817932129
1.7294921816237888e+18,0.03487374261021614,-0.013713385909795761,-10.02678108215332
1.729492181632789e+18,0.10339368134737015,-0.08809077739715576,-10.091167449951172
1.7294921816417892e+18,0.06879197061061859,0.014300636015832424,-10.010951042175293
1.7294921816507894e+18,-0.005666790530085564,-0.08872119337320328,-10.040942192077637
1.7294921816597896e+18,0.033189013600349426,0.022367816418409348,-10.063179016113281
1.7294921816717898e+18,-0.05346454307436943,-0.06805706769227982,-9.970645904541016
1.72949218168079e+18,0.055051352828741074,-0.014986620284616947,-10.000107765197754
1.7294921816867901e+18,0.053082194179296494,-0.035974081605672836,-10.01279354095459
1.7294921816957903e+18,-0.03933332860469818,-0.01676437444984913,-9.858214378356934
1.7294921817047905e+18,-0.004057696089148521,0.055113036185503006,-9.910309791564941
1.7294921817137907e+18,0.026088306680321693,0.04222750663757324,-9.96251392364502
1.729492181725791e+18,0.05439578741788864,0.019303524866700172,-10.038214683532715
1.7294921817347912e+18,0.024021057412028313,-0.11516550183296204,-9.889211654663086
1.7294921817437914e+18,-0.04575148597359657,-0.08512503653764725,-9.915420532226562
1.7294921817527916e+18,-0.08146513998508453,-0.018054528161883354,-9.989541053771973
1.7294921817617917e+18,-0.06351829320192337,0.059675075113773346,-9.935361862182617
1.729492181770792e+18,-0.09231055527925491,0.0018393626669421792,-9.947065353393555
1.7294921817797921e+18,0.024489138275384903,-0.000399766955524683,-10.017281532287598
1.7294921817857923e+18,0.009130008518695831,-0.005787806585431099,-10.008447647094727
1.7294921817947924e+18,-0.016065256670117378,-0.02766910195350647,-9.906525611877441
1.7294921818037926e+18,0.015420665964484215,-0.028619714081287384,-9.899605751037598
1.7294921818097928e+18,-0.04276663810014725,-0.006579741835594177,-9.944594383239746
1.729492181818793e+18,-0.045875005424022675,-0.03261767700314522,-9.900206565856934
1.7294921818277932e+18,-0.007778532337397337,-0.02742890641093254,-9.89266586303711
1.7294921818337933e+18,0.06110883876681328,-0.06422983109951019,-9.961071014404297
1.7294921818427935e+18,-0.010700713843107224,0.0953250452876091,-9.898937225341797
1.7294921818517937e+18,-0.029082532972097397,0.08377043157815933,-9.946028709411621
1.7294921818577938e+18,0.04764570668339729,-0.01570775918662548,-9.938225746154785
1.729492181866794e+18,0.01747644692659378,-0.05173279717564583,-9.9071044921875
1.7294921818757942e+18,0.02460493892431259,-0.001218318473547697,-10.008105278015137
1.7294921818817943e+18,-0.02198268286883831,-0.03796921670436859,-9.848419189453125
1.7294921818907945e+18,-0.008002549409866333,0.03493890166282654,-9.913878440856934
1.7294921818967946e+18,0.008362967520952225,0.013057260774075985,-9.875452995300293
1.7294921819057948e+18,0.040998637676239014,-0.02214822918176651,-9.925419807434082
1.729492181914795e+18,0.04444502294063568,-0.0047364262863993645,-9.951580047607422
1.7294921819207951e+18,-0.061711519956588745,-0.008433707058429718,-9.859148025512695
1.7294921819297953e+18,-0.0035416055470705032,0.03829820081591606,-9.789175987243652
1.7294921819387955e+18,-0.020356228575110435,0.0402505025267601,-9.954081535339355
1.7294921819447956e+18,0.00024256647157017142,-0.0616927370429039,-9.966204643249512
1.7294921819537958e+18,-0.06061869114637375,0.10573939234018326,-9.836712837219238
1.729492181959796e+18,0.027654051780700684,-0.02304510399699211,-9.834833145141602
1.7294921819687962e+18,-0.022715525701642036,-0.03480779379606247,-9.912120819091797
1.7294921819747963e+18,0.10561817139387131,-0.08807503432035446,-9.816502571105957
1.7294921819837965e+18,-0.021271798759698868,-0.014628649689257145,-9.796540260314941
1.7294921819927967e+18,0.027873588725924492,0.0670238584280014,-9.86794376373291
1.7294921819987968e+18,-0.039681483060121536,-0.06479184329509735,-9.813321113586426
1.729492182007797e+18,-0.03321013227105141,-0.06371308118104935,-9.797500610351562
1.7294921820167972e+18,-0.01899455115199089,-0.027340779080986977,-9.89334487915039
1.7294921820257974e+18,0.07077768445014954,-0.03097722679376602,-9.797825813293457
1.7294921820317975e+18,0.013258150778710842,-0.04920533671975136,-9.844043731689453
1.7294921820407977e+18,-0.045232318341732025,0.01095657516270876,-9.832791328430176
1.729492182049798e+18,-0.0984383225440979,0.10506324470043182,-9.841180801391602
1.729492182055798e+18,0.011104400269687176,-0.07252964377403259,-9.784239768981934
1.7294921820647982e+18,0.10460128635168076,0.008921060711145401,-9.778565406799316
1.7294921820737984e+18,-0.027750400826334953,-0.01104793045669794,-9.776241302490234
1.7294921820797985e+18,-0.033191390335559845,-0.03137669339776039,-9.754293441772461
1.7294921820887987e+18,0.03436799719929695,-0.01267724484205246,-9.847275733947754
1.7294921820947988e+18,-0.05700584501028061,-0.0642126053571701,-9.82437801361084
1.729492182103799e+18,-0.00840266514569521,0.011283880099654198,-9.774420738220215
1.7294921821127992e+18,-0.07307688891887665,0.012781093828380108,-9.766667366027832
1.7294921821187994e+18,0.0349154993891716,-0.04658433794975281,-9.733524322509766
1.7294921821277996e+18,0.03826707601547241,-0.04979448392987251,-9.77200984954834
1.7294921821367997e+18,-0.004146773833781481,0.02617444470524788,-9.77198314666748
1.7294921821428e+18,0.017103208228945732,0.06218842789530754,-9.73337173461914
1.7294921821518e+18,-0.01325999852269888,0.03263410925865173,-9.763011932373047
1.7294921821608003e+18,0.05043831840157509,0.03604302555322647,-9.78054428100586
1.7294921821698004e+18,0.012255510315299034,-0.008015838451683521,-9.748322486877441
1.7294921821788006e+18,-0.004978464916348457,0.04129473865032196,-9.728818893432617
1.7294921821878008e+18,0.029473692178726196,-0.001379955094307661,-9.900208473205566
1.729492182193801e+18,-0.04016623646020889,0.013143370859324932,-9.72715950012207
1.7294921822028012e+18,-0.07074890285730362,-0.020825931802392006,-9.786497116088867
1.7294921822118013e+18,0.0238586887717247,-0.0057795424945652485,-9.675783157348633
1.7294921822178015e+18,0.01605580747127533,-0.009552608244121075,-9.733463287353516
1.7294921822268017e+18,0.01176784373819828,0.009603715501725674,-9.808539390563965
1.7294921822358019e+18,0.032908570021390915,0.001155212288722396,-9.75217342376709
1.729492182244802e+18,0.08176548779010773,0.030927352607250214,-9.73785400390625
1.7294921822538022e+18,-0.03911881893873215,0.029406540095806122,-9.792974472045898
1.7294921822628024e+18,0.03270390257239342,-0.028225913643836975,-9.751666069030762
1.7294921822688026e+18,-0.05790048465132713,0.05470794811844826,-9.757288932800293
1.7294921822778028e+18,0.011387296952307224,-0.023686176165938377,-9.777876853942871
1.729492182286803e+18,-0.07574796676635742,-0.04836851358413696,-9.655957221984863
1.729492182292803e+18,-0.022449636831879616,0.009290952235460281,-9.805834770202637
1.7294921823018033e+18,0.04175274446606636,0.06122589111328125,-9.681885719299316
1.7294921823108035e+18,0.0662543922662735,0.0072801001369953156,-9.752462387084961
1.7294921823168036e+18,0.021603917703032494,0.056296706199645996,-9.83634090423584
1.7294921823258038e+18,-0.03013492375612259,-0.014843166805803776,-9.662901878356934
1.729492182334804e+18,-0.006377184763550758,0.0309084914624691,-9.707489967346191
1.7294921823438042e+18,0.1234603226184845,-0.0072344886139035225,-9.717026710510254
1.7294921823528044e+18,-0.02108350209891796,0.009558646939694881,-9.742341995239258
1.7294921823618045e+18,-0.037971511483192444,0.00849524699151516,-9.724050521850586
1.7294921823678047e+18,0.01751605048775673,-0.028276745229959488,-9.672876358032227
1.729492182379805e+18,-0.017892152070999146,-0.04382279887795448,-9.743157386779785
1.729492182385805e+18,0.009217577055096626,-0.04409917816519737,-9.694382667541504
1.7294921823948052e+18,-0.024148128926753998,-0.02865728922188282,-9.804800987243652
1.7294921824038054e+18,0.04897047206759453,-0.04374237731099129,-9.811179161071777
1.7294921824128056e+18,0.02732275053858757,-0.031311728060245514,-9.825518608093262
1.7294921824218058e+18,0.016009371727705002,0.0668250098824501,-9.8738431930542
1.729492182427806e+18,-0.02324691414833069,-0.013187223114073277,-9.781518936157227
1.7294921824368061e+18,0.03295934572815895,0.06030156463384628,-9.816171646118164
1.7294921824458063e+18,-0.03894703835248947,0.017656123265624046,-9.788905143737793
1.7294921824548065e+18,0.024383708834648132,-0.039873141795396805,-9.798210144042969
1.7294921824638067e+18,-0.0029680461157113314,-0.04495662450790405,-9.807726860046387
1.729492182472807e+18,0.09115944802761078,0.022346964105963707,-9.816837310791016
1.729492182481807e+18,-0.00550667941570282,-0.0087332334369421,-9.754439353942871
1.7294921824908073e+18,0.006372862961143255,-0.024106966331601143,-9.782098770141602
1.7294921824968074e+18,-0.012496696785092354,-0.012234938330948353,-9.867021560668945
1.7294921825058076e+18,-0.024689767509698868,-0.03499675542116165,-9.883415222167969
1.7294921825148078e+18,-0.012346211820840836,0.014265487901866436,-9.702583312988281
1.729492182523808e+18,-0.029936347156763077,-0.019112003967165947,-9.85425090789795
1.7294921825328082e+18,-0.011980505660176277,-0.020774638280272484,-9.78704833984375
1.7294921825418084e+18,-0.034267112612724304,0.03157653659582138,-9.747258186340332
1.7294921825478085e+18,-0.004768891725689173,-0.031419821083545685,-9.791471481323242
1.7294921825568087e+18,0.005816029384732246,0.08469289541244507,-9.748226165771484
1.729492182568809e+18,-0.006961427163332701,-0.07183519005775452,-9.836891174316406
1.7294921825778092e+18,-0.023102501407265663,0.002099202945828438,-9.737980842590332
1.7294921825868093e+18,0.011886250227689743,0.047292981296777725,-9.748025894165039
1.7294921825988096e+18,-0.020564984530210495,0.004048236180096865,-9.862764358520508
1.7294921826078098e+18,-0.08415162563323975,0.03872309997677803,-9.742034912109375
1.72949218261681e+18,0.0040237572975456715,-0.011896389536559582,-9.814139366149902
1.7294921826288102e+18,0.0171703789383173,-0.040832292288541794,-9.79327392578125
1.7294921826378104e+18,0.04737392067909241,0.006668339483439922,-9.7531156539917
1.7294921826468106e+18,0.04720471054315567,0.0024869104381650686,-9.785977363586426
1.729492182658811e+18,0.011223362758755684,0.0035966667346656322,-9.722405433654785
1.729492182667811e+18,-0.01031171903014183,0.019523313269019127,-9.820161819458008
1.7294921826768113e+18,0.012713260017335415,-0.044858667999506,-9.794156074523926
1.7294921826888115e+18,0.019255200400948524,0.06367754191160202,-9.778441429138184
1.7294921826978117e+18,-0.012161609716713428,0.01766829937696457,-9.736950874328613
1.729492182706812e+18,0.013502835296094418,0.030626773834228516,-9.68294620513916
1.7294921827188122e+18,0.029994186013936996,-0.05334543064236641,-9.77725601196289
1.7294921827278124e+18,-0.012419545091688633,-0.009558148682117462,-9.7537202835083
1.7294921827398126e+18,0.03897470608353615,-0.03596948832273483,-9.73505973815918
1.7294921827518129e+18,-0.014816425740718842,-0.032270487397909164,-9.858281135559082
1.729492182760813e+18,0.035298917442560196,0.06049699708819389,-9.821124076843262
1.7294921827698132e+18,0.0044776867143809795,0.04836716875433922,-9.705618858337402
1.7294921827788134e+18,-0.044236838817596436,-0.07383698970079422,-9.702096939086914
1.7294921827878136e+18,-0.041946955025196075,0.06497679650783539,-9.740232467651367
1.729492182799814e+18,-0.04378750920295715,0.03069748729467392,-9.70544147491455
1.7294921828118141e+18,0.008644938468933105,0.019286170601844788,-9.709589004516602
1.7294921828238144e+18,0.09577992558479309,-0.006466003134846687,-9.754010200500488
1.7294921828358147e+18,-0.04936392232775688,0.05415165796875954,-9.665926933288574
1.729492182847815e+18,0.030584290623664856,0.04610282927751541,-9.829621315002441
1.729492182856815e+18,0.022067181766033173,0.018871953710913658,-9.747614860534668
1.7294921828658153e+18,-0.04695456102490425,-0.011355208232998848,-9.673834800720215
1.7294921828778156e+18,-0.0016199308447539806,-0.053634680807590485,-9.722907066345215
1.7294921828868157e+18,-0.04079399257898331,0.03489956632256508,-9.683235168457031
1.729492182895816e+18,-0.07585014402866364,-0.05084111541509628,-9.808802604675293
1.7294921829078162e+18,0.026342449709773064,0.031033474951982498,-9.789228439331055
1.7294921829168164e+18,0.008682996034622192,0.029216686263680458,-9.729198455810547
1.7294921829258166e+18,0.08231335878372192,0.07694421708583832,-9.731649398803711
1.7294921829348168e+18,-0.02491704747080803,-0.005985679104924202,-9.763140678405762
1.729492182946817e+18,-0.028425307944417,-0.030933789908885956,-9.720108985900879
1.7294921829558172e+18,-0.04817233607172966,-0.053582653403282166,-9.816193580627441
1.7294921829648174e+18,0.027506254613399506,-0.04046373441815376,-9.696282386779785
1.7294921829768177e+18,0.10006788372993469,0.042595889419317245,-9.734333992004395
1.729492182988818e+18,-0.05421983078122139,0.0627586618065834,-9.702919006347656
1.7294921830008182e+18,0.09066148102283478,0.011992059648036957,-9.751315116882324
1.7294921830128184e+18,-0.045657843351364136,-0.010653067380189896,-9.739564895629883
1.7294921830248187e+18,-0.009381910786032677,-0.03912269324064255,-9.722230911254883
1.729492183033819e+18,-0.01823928952217102,-0.021391350775957108,-9.722533226013184
1.729492183042819e+18,-0.004228453151881695,-0.05911803990602493,-9.74161434173584
1.7294921830518193e+18,-0.0317608043551445,-0.030683089047670364,-9.773055076599121
1.7294921830608195e+18,0.039388056844472885,0.0013767504133284092,-9.758691787719727
1.7294921830698196e+18,0.004542424809187651,-0.06517336517572403,-9.712831497192383
1.7294921830788198e+18,0.014021934010088444,-0.027741314843297005,-9.757587432861328
1.72949218308782e+18,0.004731597378849983,-0.03897824510931969,-9.719415664672852
1.7294921830968202e+18,0.04684323072433472,-0.045872367918491364,-9.697648048400879
1.7294921831058204e+18,-0.004956686869263649,0.016851507127285004,-9.718413352966309
1.7294921831148206e+18,-0.020173029974102974,0.020975451916456223,-9.715826034545898
1.7294921831238208e+18,0.03211192041635513,-0.03761573135852814,-9.682639122009277
1.729492183132821e+18,-0.06631988286972046,0.02333357185125351,-9.676905632019043
1.7294921831418212e+18,0.12166517227888107,-0.03385847806930542,-9.765704154968262
1.7294921831478213e+18,0.03190792351961136,-0.0832592025399208,-9.78795337677002
1.7294921831568215e+18,0.08737486600875854,0.02339078113436699,-9.704816818237305
1.7294921831658217e+18,-0.03193042799830437,-0.04874782636761665,-9.70523738861084
1.729492183174822e+18,0.04288274049758911,0.04777250066399574,-9.782880783081055
1.729492183180822e+18,0.014648562297224998,0.07077395915985107,-9.772481918334961
1.7294921831898222e+18,0.0021122414618730545,0.024318573996424675,-9.731422424316406
1.7294921831988224e+18,0.02119605243206024,-0.0031501404009759426,-9.758118629455566
1.7294921832078226e+18,-0.020758235827088356,-0.012282994575798512,-9.716375350952148
1.7294921832168228e+18,0.05510907992720604,0.02411540225148201,-9.742600440979004
1.729492183225823e+18,-0.03153461217880249,-0.04100669175386429,-9.708970069885254
1.7294921832348232e+18,0.003908553160727024,0.0019712038338184357,-9.757494926452637
1.7294921832438234e+18,-0.024310728535056114,0.03006790019571781,-9.729398727416992
1.7294921832528236e+18,-0.002351350151002407,-0.028419263660907745,-9.722077369689941
1.7294921832618237e+18,0.007550796493887901,0.04971883073449135,-9.717362403869629
1.729492183273824e+18,0.07747028768062592,-0.0024522957392036915,-9.801377296447754
1.7294921832798241e+18,-0.039804693311452866,0.059274822473526,-9.77776050567627
1.7294921832888243e+18,0.05535758659243584,0.007507603615522385,-9.761186599731445
1.7294921833008246e+18,0.049599483609199524,-0.041502147912979126,-9.757498741149902
1.7294921833098248e+18,0.01891428977251053,0.01722857542335987,-9.680571556091309
1.729492183318825e+18,-0.04946767911314964,-0.017339996993541718,-9.701712608337402
1.7294921833278252e+18,0.0002634933334775269,0.060445863753557205,-9.755253791809082
1.7294921833368253e+18,-0.0004319298022892326,0.014274800196290016,-9.708784103393555
1.7294921833458255e+18,-0.013906383886933327,-0.08913284540176392,-9.692310333251953
1.7294921833548257e+18,0.027310896664857864,0.019164560362696648,-9.723660469055176
1.729492183363826e+18,0.04091760888695717,0.03628969192504883,-9.709003448486328
1.729492183372826e+18,0.07084505259990692,-0.029465939849615097,-9.794540405273438
1.7294921833818263e+18,-0.03083086386322975,-0.022394411265850067,-9.664342880249023
1.7294921833908265e+18,-0.0329563245177269,-0.03541264683008194,-9.742429733276367
1.7294921833998267e+18,-0.10616503655910492,0.0007581119425594807,-9.760478019714355
1.729492183408827e+18,-0.083778515458107,0.02466287650167942,-9.769402503967285
1.729492183417827e+18,-0.006582063622772694,0.015269330702722073,-9.751886367797852
1.7294921834268273e+18,0.014158236794173717,-0.04897062107920647,-9.745359420776367
1.7294921834358275e+18,0.015472335740923882,-0.02536696009337902,-9.724373817443848
1.7294921834448276e+18,0.02427610196173191,-0.06558750569820404,-9.770191192626953
1.7294921834508278e+18,0.056006480008363724,0.05710709095001221,-9.728178977966309
1.729492183459828e+18,-0.022549889981746674,0.02530849352478981,-9.80541706085205
1.7294921834688282e+18,-0.08617820590734482,-0.08118989318609238,-9.752558708190918
1.7294921834778284e+18,0.05487591400742531,0.025715896859765053,-9.750849723815918
1.7294921834838285e+18,0.028498243540525436,0.04403487965464592,-9.694771766662598
1.7294921834928287e+18,-0.05623788759112358,0.06065744906663895,-9.682246208190918
1.7294921835018289e+18,0.06947548687458038,0.009744050912559032,-9.749921798706055
1.729492183510829e+18,0.0024735978804528713,0.043355368077754974,-9.76913833618164
1.7294921835198292e+18,-0.019848039373755455,0.014969551004469395,-9.807690620422363
1.7294921835288294e+18,0.04994340240955353,-0.01448524184525013,-9.719476699829102
1.7294921835378296e+18,-0.0071897683665156364,0.006468336097896099,-9.7158842086792
1.7294921835438298e+18,-0.01384785957634449,-0.03201010078191757,-9.744940757751465
1.72949218355283e+18,0.011289644055068493,-0.036753688007593155,-9.769153594970703
1.7294921835618301e+18,-0.020116612315177917,0.032834492623806,-9.76990795135498
1.7294921835678303e+18,0.026303870603442192,-0.007656782399863005,-9.810955047607422
1.7294921835768305e+18,-0.033979661762714386,-0.02071727067232132,-9.676790237426758
1.7294921835858307e+18,0.02079951763153076,-0.00237587234005332,-9.751081466674805
1.7294921835918308e+18,-0.051633432507514954,0.03933726251125336,-9.703917503356934
1.729492183600831e+18,-0.0017228189390152693,-0.033389341086149216,-9.745701789855957
1.729492183606831e+18,0.041306301951408386,0.0002632797113619745,-9.784153938293457
1.7294921836158313e+18,0.006702980026602745,-0.08654280006885529,-9.787266731262207
1.7294921836248315e+18,0.01808972656726837,0.010952066630125046,-9.738883972167969
1.7294921836308316e+18,0.006675402633845806,0.0330888032913208,-9.756617546081543
1.7294921836398318e+18,-0.009055832400918007,-0.02172808349132538,-9.833012580871582
1.729492183648832e+18,0.04050403833389282,-0.03705815225839615,-9.702268600463867
1.7294921836578322e+18,0.004829158075153828,-0.0168723426759243,-9.755962371826172
1.7294921836668324e+18,-0.014255796559154987,0.06495001912117004,-9.761204719543457
1.7294921836728325e+18,0.0879981741309166,-0.07659400999546051,-9.834390640258789
1.7294921836818327e+18,0.04530194029211998,-0.020233090966939926,-9.789485931396484
1.729492183690833e+18,-0.00297065288759768,-0.0011152499355375767,-9.616811752319336
1.729492183699833e+18,-0.0424220897257328,-0.0817272737622261,-9.691771507263184
1.7294921837058332e+18,-0.031250689178705215,-0.06960874795913696,-9.798335075378418
1.7294921837148334e+18,0.0007922607474029064,0.011966275982558727,-9.736128807067871
1.7294921837238336e+18,0.058709073811769485,-0.025486743077635765,-9.805208206176758
1.7294921837298337e+18,0.009815726429224014,-0.02483881264925003,-9.760673522949219
1.729492183738834e+18,-0.017428070306777954,-0.07191228866577148,-9.718535423278809
1.729492183747834e+18,-0.03059123270213604,-0.02567959763109684,-9.784260749816895
1.7294921837538342e+18,0.04464958608150482,0.03261237218976021,-9.769455909729004
1.7294921837628344e+18,0.02113201841711998,0.030269701033830643,-9.73921012878418
1.7294921837718346e+18,0.052363310009241104,0.07773207128047943,-9.80007266998291
1.7294921837808348e+18,-0.04542631655931473,0.0008750779088586569,-9.691328048706055
1.729492183786835e+18,-0.005163627676665783,0.06558993458747864,-9.798009872436523
1.7294921837958351e+18,0.032968681305646896,0.0005752095603384078,-9.832035064697266
1.7294921838048353e+18,-0.01702595315873623,-0.028494784608483315,-9.747319221496582
1.7294921838138355e+18,-0.028016511350870132,0.07282396405935287,-9.812923431396484
1.7294921838228357e+18,0.06020640209317207,0.06245807930827141,-9.823535919189453
1.7294921838288358e+18,0.00399620458483696,-0.06460389494895935,-9.753914833068848
1.729492183837836e+18,-0.008650201372802258,0.024620305746793747,-9.777665138244629
1.7294921838438362e+18,-0.007390160579234362,0.051299870014190674,-9.814824104309082
1.7294921838528364e+18,0.04501185193657875,-0.015093250200152397,-9.784523010253906
1.7294921838618365e+18,-0.0390169657766819,0.002513452898710966,-9.742701530456543
1.7294921838678367e+18,-0.002926039509475231,0.05376354977488518,-9.816873550415039
1.7294921838768369e+18,-0.024998914450407028,0.019827429205179214,-9.770503044128418
1.729492183882837e+18,0.03685729578137398,-0.010121538303792477,-9.817774772644043
1.7294921838918372e+18,-0.03709947690367699,-0.059880517423152924,-9.7304105758667
1.7294921838978373e+18,0.03149912878870964,0.012160733342170715,-9.743199348449707
1.7294921839068375e+18,-0.0015548384981229901,-0.029876234009861946,-9.78165054321289
1.7294921839158377e+18,0.058094874024391174,0.1051023006439209,-9.862174987792969
1.729492183924838e+18,-0.08145450055599213,0.032510556280612946,-9.775934219360352
1.729492183933838e+18,0.019341763108968735,0.018260469660162926,-9.78824520111084
1.7294921839428383e+18,0.001947661628946662,0.0201269444078207,-9.721362113952637
1.7294921839518385e+18,0.02709587849676609,-0.06488551944494247,-9.7520170211792
1.7294921839608387e+18,-0.020540274679660797,0.00952741876244545,-9.740549087524414
1.7294921839698388e+18,-0.011378969065845013,0.042793210595846176,-9.71086597442627
1.729492183975839e+18,-0.044186003506183624,0.028167150914669037,-9.799739837646484
1.7294921839848392e+18,-0.07119913399219513,0.048116110265254974,-9.66398811340332
1.7294921839938394e+18,-0.005429250653833151,0.01673644222319126,-9.805350303649902
1.7294921839998395e+18,0.02713313139975071,0.08076086640357971,-9.704816818237305
1.7294921840088397e+18,-0.004171646200120449,0.012637420557439327,-9.78410816192627
1.7294921840178399e+18,-0.002098347758874297,-0.04630046337842941,-9.826017379760742
1.72949218402684e+18,0.032521799206733704,-0.03722654655575752,-9.764598846435547
1.7294921840358403e+18,0.02027142234146595,0.0017777669709175825,-9.745322227478027
1.7294921840418404e+18,-0.03270439803600311,0.018231725320219994,-9.840311050415039
1.7294921840508406e+18,-0.03814670443534851,0.04814136400818825,-9.756054878234863
1.7294921840598408e+18,0.008009363897144794,-0.004100188612937927,-9.803415298461914
1.729492184065841e+18,0.02812780812382698,0.023643292486667633,-9.774638175964355
1.729492184074841e+18,0.037422798573970795,-0.024496043100953102,-9.737282752990723
1.7294921840838413e+18,-0.00530752120539546,-0.011477351188659668,-9.814750671386719
1.7294921840898414e+18,-0.03066120110452175,0.05129406601190567,-9.796564102172852
1.7294921840958415e+18,0.05758610740303993,-0.03063490241765976,-9.761771202087402
1.7294921841048417e+18,-0.0010579373920336366,-0.015813134610652924,-9.763405799865723
1.729492184113842e+18,-0.04858281463384628,-0.013579190708696842,-9.807188034057617
1.729492184119842e+18,0.09735187888145447,0.01626821979880333,-9.792960166931152
1.7294921841288422e+18,-0.0246730986982584,0.050681598484516144,-9.721562385559082
1.7294921841348424e+18,0.003207390895113349,-0.038907960057258606,-9.686856269836426
1.7294921841438426e+18,0.02992353029549122,-0.045149195939302444,-9.79366683959961
1.7294921841528428e+18,-0.07336098700761795,0.08648592978715897,-9.632904052734375
1.729492184158843e+18,-0.0038194030057638884,-0.03866135701537132,-9.80048656463623
1.729492184167843e+18,-0.015966597944498062,-0.10498512536287308,-9.80659008026123
1.7294921841768433e+18,-0.06312953680753708,0.02084403671324253,-9.82021713256836
1.7294921841828434e+18,-0.019186295568943024,0.020108304917812347,-9.75902271270752
1.7294921841918436e+18,0.001641902606934309,-0.08655130863189697,-9.759027481079102
1.7294921841978437e+18,-0.028146153315901756,0.02927110344171524,-9.753168106079102
1.729492184209844e+18,-0.0009435581159777939,-0.02729208767414093,-9.821043968200684
1.7294921842188442e+18,0.029488207772374153,0.03220003843307495,-9.698465347290039
1.7294921842248443e+18,0.0511559434235096,0.037497200071811676,-9.795525550842285
1.7294921842338445e+18,0.016280436888337135,-0.07142572849988937,-9.773407936096191
1.7294921842428447e+18,-0.0381474643945694,0.006038104649633169,-9.71896743774414
1.7294921842488448e+18,-0.009901141747832298,0.075733982026577,-9.764494895935059
1.729492184257845e+18,0.012558439746499062,0.03556334599852562,-9.754176139831543
1.7294921842668452e+18,-0.016117790713906288,-0.05496269837021828,-9.825481414794922
1.7294921842728453e+18,-0.022884998470544815,0.016323918476700783,-9.841251373291016
1.7294921842818455e+18,0.054098401218652725,-0.00047471123980358243,-9.762721061706543
1.7294921842908457e+18,-0.006751874461770058,-0.008266142569482327,-9.736690521240234
1.729492184299846e+18,0.019808847457170486,0.03174589201807976,-9.754802703857422
1.729492184308846e+18,0.056842442601919174,-0.0042016454972326756,-9.690718650817871
1.7294921843178463e+18,0.006705408915877342,-0.059934455901384354,-9.753890991210938
1.7294921843238464e+18,-0.007063073106110096,-0.00015791186888236552,-9.79573917388916
1.7294921843328466e+18,0.026267997920513153,0.018197646364569664,-9.819239616394043
1.7294921843418468e+18,-0.029990069568157196,-0.00765477167442441,-9.714722633361816
1.729492184350847e+18,0.10068096220493317,0.06871122121810913,-9.84543228149414
1.729492184356847e+18,0.003139879321679473,0.026863090693950653,-9.78377628326416
1.7294921843658473e+18,0.05178782716393471,-0.013723434880375862,-9.794809341430664
1.7294921843748475e+18,-0.01885151118040085,0.030250003561377525,-9.835989952087402
1.7294921843838477e+18,-0.07942016422748566,0.006032103206962347,-9.88062858581543
1.7294921843898478e+18,0.06195336952805519,-0.01256657112389803,-9.765170097351074
1.729492184398848e+18,0.04632299765944481,-0.026103151962161064,-9.84335708618164
1.7294921844078482e+18,-0.07369310408830643,0.05470036342740059,-9.826269149780273
1.7294921844168484e+18,-0.004979102872312069,-0.011520137079060078,-9.847606658935547
1.7294921844258486e+18,-0.029498035088181496,0.08308219164609909,-9.800395011901855
1.7294921844318487e+18,-0.0022502869833260775,0.0032028728164732456,-9.809958457946777
1.729492184440849e+18,-0.03192533925175667,-0.022233866155147552,-9.783717155456543
1.729492184449849e+18,0.010799044743180275,-0.03885370120406151,-9.811304092407227
1.7294921844588493e+18,-0.04245641455054283,-0.02123190462589264,-9.795172691345215
1.7294921844678495e+18,-0.0488106794655323,-0.08504650741815567,-9.790579795837402
1.7294921844768497e+18,-0.017056850716471672,0.061173215508461,-9.781061172485352
1.7294921844828498e+18,0.05881424620747566,-0.010316641069948673,-9.845111846923828
1.72949218449185e+18,-0.027871977537870407,-0.025998098775744438,-9.805571556091309
1.7294921845008502e+18,-0.07381942123174667,0.009140568785369396,-9.791027069091797
1.7294921845098504e+18,0.045006267726421356,0.004633679054677486,-9.73621940612793
1.7294921845158505e+18,-0.043698541820049286,0.012111234478652477,-9.844048500061035
1.7294921845248507e+18,0.03284292295575142,-0.06400929391384125,-9.732051849365234
1.729492184533851e+18,0.039753157645463943,0.08204251527786255,-9.800270080566406
1.729492184539851e+18,-0.13056667149066925,0.0002691820845939219,-9.818856239318848
1.7294921845488512e+18,-0.04247592017054558,-0.07578670978546143,-9.89062213897705
1.7294921845578514e+18,0.046686653047800064,-0.07914663851261139,-9.730525970458984
1.7294921845668516e+18,-0.003607814898714423,-0.0028457322623580694,-9.674476623535156
1.7294921845728517e+18,-0.07961931824684143,-0.042733561247587204,-9.684985160827637
1.729492184581852e+18,-0.06107442453503609,-0.020375698804855347,-9.785624504089355
1.729492184590852e+18,0.05095688998699188,-0.07819468528032303,-9.822982788085938
1.7294921845998523e+18,-0.049307242035865784,0.015532845631241798,-9.813894271850586
1.7294921846088525e+18,-0.030059173703193665,0.03878192603588104,-9.798873901367188
1.7294921846148526e+18,-0.14973771572113037,-0.06693270057439804,-9.803394317626953
1.7294921846238528e+18,0.008344299159944057,-0.026534082368016243,-9.832174301147461
1.729492184632853e+18,-0.027547352015972137,-0.09118771553039551,-9.827437400817871
1.729492184638853e+18,0.03704354539513588,-0.002876352984458208,-9.776156425476074
1.7294921846478533e+18,-0.09480518102645874,0.045610781759023666,-9.767786026000977
1.7294921846568535e+18,-0.01663513481616974,0.04804343730211258,-9.806527137756348
1.7294921846628536e+18,0.06198666989803314,0.014275777153670788,-9.741329193115234
1.7294921846718538e+18,0.09329450875520706,0.1037280336022377,-9.790379524230957
1.729492184680854e+18,0.06937102973461151,0.01151286717504263,-9.78699779510498
1.7294921846898542e+18,0.03909856081008911,0.018259957432746887,-9.840736389160156
1.7294921846958543e+18,-0.03333660215139389,-0.0380646288394928,-9.749963760375977
1.7294921847048545e+18,0.01702956296503544,0.032132893800735474,-9.818782806396484
1.7294921847138547e+18,0.05246559530496597,-0.027118293568491936,-9.7833251953125
1.7294921847198548e+18,-0.03525466099381447,-0.01311325840651989,-9.775033950805664
1.729492184728855e+18,0.00414206413552165,0.03322717174887657,-9.741994857788086
1.7294921847348552e+18,-0.005666472017765045,-0.019220450893044472,-9.743352890014648
1.7294921847438554e+18,-0.0007099313661456108,0.0026853319723159075,-9.747448921203613
1.7294921847528556e+18,0.03360828384757042,0.0005849224980920553,-9.857194900512695
1.7294921847618557e+18,-0.01594005897641182,0.017202697694301605,-9.828206062316895
1.7294921847678559e+18,-0.05610164627432823,0.05069749802350998,-9.86971378326416
1.729492184776856e+18,0.025613445788621902,-0.026125600561499596,-9.857205390930176
1.7294921847828562e+18,-0.03751133009791374,0.00854200404137373,-9.787582397460938
1.7294921847918564e+18,-0.07829902321100235,-0.06739436089992523,-9.766304969787598
1.7294921848008566e+18,0.008358992636203766,0.048626143485307693,-9.814966201782227
1.7294921848068567e+18,-0.040759168565273285,-0.041570428758859634,-9.801057815551758
1.729492184815857e+18,0.0013620699755847454,0.00982928927987814,-9.819360733032227
1.729492184824857e+18,0.07462945580482483,-0.1186206042766571,-9.866061210632324
1.7294921848308572e+18,0.002043492393568158,-0.048048608005046844,-9.779869079589844
1.7294921848398574e+18,-0.07296111434698105,0.0039261202327907085,-9.869913101196289
1.7294921848488576e+18,0.032450370490550995,-0.04350404068827629,-9.891035079956055
1.7294921848548577e+18,0.007488819770514965,0.043713461607694626,-9.807299613952637
1.729492184863858e+18,0.026054779067635536,0.05617038533091545,-9.86376667022705
1.729492184872858e+18,-0.02392449788749218,0.06713102012872696,-9.749052047729492
1.7294921848848584e+18,-0.02495807409286499,-0.006446546409279108,-9.787522315979004
1.7294921848968586e+18,0.024821331724524498,-0.03440513089299202,-9.78969669342041
1.7294921849058588e+18,-0.07010406255722046,-0.04027065634727478,-9.810946464538574
1.729492184911859e+18,-0.00891784206032753,-0.03476841747760773,-9.896235466003418
1.7294921849208591e+18,0.0030913471709936857,0.018174445256590843,-9.852592468261719
1.7294921849298593e+18,-0.03282061964273453,-0.0199530441313982,-9.832304954528809
1.7294921849358595e+18,0.05897228792309761,0.03635092079639435,-9.769852638244629
1.7294921849478597e+18,-0.076991967856884,-0.037487760186195374,-9.835092544555664
1.72949218495686e+18,-0.011145930737257004,-0.04556095972657204,-9.823362350463867
1.72949218496586e+18,-0.01741703972220421,-0.00218305760063231,-9.767264366149902
1.7294921849748603e+18,0.01969107799232006,-0.0021400137338787317,-9.79583740234375
1.7294921849808604e+18,-0.10890604555606842,0.012118818238377571,-9.752015113830566
1.7294921849898606e+18,0.05034857988357544,-0.02733059972524643,-9.781360626220703
1.7294921849958607e+18,-0.028298204764723778,-0.00518444599583745,-9.817011833190918
1.729492185004861e+18,0.06451806426048279,0.040256403386592865,-9.805193901062012
1.729492185013861e+18,-0.04688045382499695,0.06736426055431366,-9.731800079345703
1.7294921850198612e+18,-0.11049545556306839,0.009074168279767036,-9.828042984008789
1.7294921850288614e+18,-0.05868595838546753,0.08240959048271179,-9.816214561462402
1.7294921850378616e+18,0.13552363216876984,0.054643500596284866,-9.810409545898438
1.7294921850438618e+18,0.01583041623234749,-0.04138943925499916,-9.80202865600586
1.729492185052862e+18,-0.009557569399476051,0.032377734780311584,-9.846604347229004
1.7294921850618621e+18,-0.01648426428437233,-0.046419836580753326,-9.8715238571167
1.7294921850678623e+18,0.019285742193460464,-0.026478584855794907,-9.761642456054688
1.7294921850768625e+18,-0.0067951856181025505,-0.0752672478556633,-9.776124954223633
1.7294921850828626e+18,0.023372633382678032,0.0899030789732933,-9.790761947631836
1.7294921850918628e+18,0.04619179666042328,-0.05123996362090111,-9.824883460998535
1.729492185097863e+18,-0.03475922346115112,-0.008839703164994717,-9.84512710571289
1.729492185106863e+18,0.017913280054926872,0.07026729732751846,-9.743802070617676
1.7294921851158633e+18,0.03390375152230263,-0.06672344356775284,-9.784390449523926
1.7294921851218634e+18,0.05055078864097595,-0.04220103099942207,-9.8119535446167
1.7294921851308636e+18,-0.04091482236981392,-0.04053754359483719,-9.8452787399292
1.7294921851398638e+18,-0.045340098440647125,0.007506764959543943,-9.826770782470703
1.729492185148864e+18,-0.051395315676927567,-0.02331414818763733,-9.84749698638916
1.7294921851578642e+18,0.02899554930627346,0.0029968046583235264,-9.79836654663086
1.7294921851668644e+18,-0.05715293437242508,-0.03569963201880455,-9.850666999816895
1.7294921851758646e+18,0.035287581384181976,0.006428846623748541,-9.810328483581543
1.7294921851848648e+18,-0.011483348906040192,0.057097550481557846,-9.79178524017334
1.729492185196865e+18,0.027759550139307976,0.06937937438488007,-9.807387351989746
1.7294921852058652e+18,-0.06748560816049576,0.026645120233297348,-9.873152732849121
1.7294921852118653e+18,-0.005372547544538975,0.025755254551768303,-9.798271179199219
1.7294921852208655e+18,-0.03578640893101692,0.052273742854595184,-9.719123840332031
1.7294921852298657e+18,0.004829639568924904,0.03265192732214928,-9.772068977355957
1.729492185238866e+18,0.020843155682086945,0.040769126266241074,-9.815871238708496
1.729492185247866e+18,-0.055620547384023666,-0.03045346960425377,-9.773326873779297
1.7294921852538662e+18,0.007799466606229544,0.0035517369396984577,-9.857041358947754
1.7294921852628664e+18,0.046239741146564484,0.0922095775604248,-9.78895378112793
1.7294921852718666e+18,-0.007128578145056963,-0.020717503502964973,-9.82591438293457
1.7294921852778668e+18,-0.02784598618745804,-0.020826516672968864,-9.735692977905273
1.729492185286867e+18,0.022182652726769447,-0.0730544775724411,-9.827957153320312
1.7294921852988672e+18,0.0019435433205217123,0.02466408908367157,-9.83880615234375
1.7294921853078674e+18,0.04081694036722183,0.058986417949199677,-9.749405860900879
1.7294921853138675e+18,-0.030735399574041367,-0.03229139372706413,-9.770112037658691
1.7294921853228677e+18,0.0030111330561339855,0.04268237575888634,-9.801668167114258
1.729492185331868e+18,-0.022939469665288925,0.009573569521307945,-9.81807804107666
1.729492185340868e+18,-0.03394538164138794,0.040510695427656174,-9.804852485656738
1.7294921853498683e+18,0.03395850211381912,-0.004270292352885008,-9.849815368652344
1.7294921853588685e+18,0.06546170264482498,0.034602243453264236,-9.80616283416748
1.7294921853678687e+18,0.030880678445100784,0.01032200362533331,-9.747549057006836
1.7294921853768689e+18,-0.06055416911840439,0.028348078951239586,-9.800657272338867
1.729492185382869e+18,0.0029644507449120283,-0.00923219881951809,-9.72418212890625
1.7294921853918692e+18,-0.01457273680716753,-0.03373650461435318,-9.738251686096191
1.7294921854008694e+18,-0.008632962591946125,-0.0032401273492723703,-9.791871070861816
1.7294921854068695e+18,-0.03429042175412178,-0.013653159141540527,-9.795742988586426
1.7294921854158697e+18,-0.008136322721838951,0.03237316757440567,-9.817220687866211
1.7294921854218698e+18,-0.028893515467643738,-0.002390650101006031,-9.789873123168945
1.72949218543087e+18,0.025313077494502068,-0.011304543353617191,-9.744547843933105
1.7294921854398702e+18,-0.05345173925161362,-0.04579664766788483,-9.862457275390625
1.7294921854458703e+18,0.017027201130986214,-0.02263510972261429,-9.746718406677246
1.7294921854548705e+18,-0.014609657227993011,0.036770302802324295,-9.827309608459473
1.7294921854608707e+18,0.054505087435245514,-0.05877652019262314,-9.794739723205566
1.7294921854698708e+18,-0.021830199286341667,-0.027569955214858055,-9.777045249938965
1.729492185478871e+18,-0.01675127074122429,0.020731832832098007,-8.644729614257812
1.7294921854848712e+18,-0.035380084067583084,-0.015993673354387283,-7.662210464477539
1.7294921854938714e+18,-0.011754196137189865,-0.00836190115660429,-7.337942600250244
1.7294921854998715e+18,0.07275011390447617,-0.049108028411865234,-7.2617506980896
1.7294921855088717e+18,0.10418915748596191,0.0009857602417469025,-8.53304386138916
1.7294921855178719e+18,0.04695006459951401,-0.0711866095662117,-11.086429595947266
1.729492185526872e+18,0.1350085437297821,-0.19596463441848755,-12.623970031738281
1.7294921855358723e+18,0.11777283996343613,-0.0997898131608963,-12.390424728393555
1.7294921855448724e+18,0.0541146844625473,-0.1395173817873001,-12.670086860656738
1.7294921855508726e+18,0.03433457389473915,-0.06941400468349457,-12.887970924377441
1.7294921855598728e+18,0.085561603307724,-0.16787400841712952,-12.781133651733398
1.729492185568873e+18,0.06202775985002518,-0.10469302535057068,-12.39327335357666
1.7294921855778732e+18,0.00024843961000442505,-0.12650659680366516,-12.530385971069336
1.7294921855838733e+18,0.0910814180970192,-0.20198526978492737,-12.614648818969727
1.7294921855958735e+18,0.14565351605415344,-0.06165003776550293,-12.254738807678223
1.7294921856048737e+18,0.040890827775001526,-0.09774447977542877,-11.765403747558594
1.7294921856108739e+18,0.01867251843214035,-0.18045896291732788,-11.694133758544922
1.729492185619874e+18,0.028250254690647125,-0.10016025602817535,-12.010184288024902
1.7294921856258742e+18,-0.004240266978740692,-0.1125517264008522,-12.00110912322998
1.7294921856348744e+18,-0.036752305924892426,-0.10159610211849213,-11.89285659790039
1.7294921856438746e+18,0.09541058540344238,-0.07192669808864594,-11.821751594543457
1.7294921856498747e+18,0.03753981366753578,-0.02177189290523529,-11.695069313049316
1.729492185658875e+18,0.0795169547200203,-0.012535877525806427,-11.603271484375
1.729492185664875e+18,0.0673207938671112,-0.14390498399734497,-11.57753849029541
1.7294921856738752e+18,0.03161712735891342,-0.10299168527126312,-11.546701431274414
1.7294921856828754e+18,-0.005235081538558006,-0.07978598773479462,-11.350506782531738
1.7294921856918756e+18,0.014371595345437527,-0.0074147991836071014,-11.256017684936523
1.7294921856978757e+18,-0.04088117927312851,-0.08521962910890579,-11.265897750854492
1.729492185706876e+18,-0.04430054873228073,-0.08894863724708557,-11.161377906799316
1.729492185715876e+18,0.031016256660223007,-0.002677144482731819,-11.090974807739258
1.7294921857248763e+18,0.039053961634635925,-0.04193346947431564,-11.026128768920898
1.7294921857308764e+18,0.03292495757341385,-0.05527267977595329,-11.007880210876465
1.7294921857398766e+18,0.09987331926822662,-0.01656421832740307,-10.998591423034668
1.7294921857488768e+18,-0.027360152453184128,0.007146267220377922,-10.968795776367188
1.729492185754877e+18,0.001037663547322154,-0.0331742949783802,-10.844204902648926
1.729492185763877e+18,0.01298416405916214,-0.12482423335313797,-10.877347946166992
1.7294921857728773e+18,0.015889598056674004,0.021691983565688133,-10.813455581665039
1.7294921857818775e+18,-0.01841094344854355,0.004177329130470753,-10.704300880432129
1.7294921857878776e+18,-0.05425667017698288,-0.04809707775712013,-10.686467170715332
1.7294921857968778e+18,-0.05829629302024841,0.0206947922706604,-10.736169815063477
1.729492185805878e+18,-0.008092771284282207,-0.07991740107536316,-10.66959285736084
1.7294921858118781e+18,-0.05415158346295357,-0.020049257203936577,-10.75999641418457
1.7294921858208783e+18,-0.004726675804704428,0.045330483466386795,-10.738500595092773
1.7294921858298785e+18,0.037151265889406204,0.07364340126514435,-10.68892765045166
1.7294921858358787e+18,0.004680182784795761,0.01726635918021202,-10.606247901916504
1.7294921858448788e+18,-0.003916511312127113,-0.029877692461013794,-10.58850383758545
1.729492185853879e+18,-0.02580302208662033,0.07164305448532104,-10.571938514709473
1.7294921858598792e+18,-0.04693210497498512,0.03690669685602188,-10.576589584350586
1.7294921858688794e+18,-0.015504789538681507,0.10861951857805252,-10.516770362854004
1.7294921858778796e+18,-0.036428406834602356,-0.009710026904940605,-10.510042190551758
1.7294921858838797e+18,0.02976291999220848,-0.012270079925656319,-10.548930168151855
1.72949218589288e+18,-0.009882903657853603,0.07570056617259979,-10.521649360656738
1.72949218590188e+18,0.03156657889485359,0.05741596221923828,-10.450650215148926
1.7294921859078802e+18,0.059326983988285065,0.016082827001810074,-10.51585865020752
1.7294921859168804e+18,-0.00623942818492651,0.03426680713891983,-10.527708053588867
1.7294921859258806e+18,-0.08173476904630661,0.03120424598455429,-10.511137962341309
1.7294921859318807e+18,-0.05020744726061821,-0.016451533883810043,-10.462457656860352
1.729492185940881e+18,0.05003426969051361,0.07778257131576538,-10.453081130981445
1.7294921859528812e+18,-0.004397733137011528,-0.0068579670041799545,-10.293899536132812
1.7294921859618813e+18,-0.04095394164323807,-0.01849709451198578,-10.473956108093262
1.7294921859678815e+18,-0.0043408568017184734,0.011492855846881866,-10.368707656860352
1.7294921859768817e+18,-0.06349657475948334,-0.0008279476314783096,-10.394034385681152
1.7294921859828818e+18,-0.06685015559196472,-0.010146019980311394,-10.377577781677246
1.729492185991882e+18,-0.03368823230266571,0.06689037382602692,-10.398954391479492
1.7294921860038822e+18,-0.04049612581729889,0.0074252900667488575,-10.359391212463379
1.7294921860128824e+18,0.009956087917089462,0.05640820041298866,-10.395804405212402
1.7294921860218826e+18,-0.03329189121723175,-0.002927771769464016,-10.303110122680664
1.729492186033883e+18,0.08947590738534927,0.032327547669410706,-10.39930534362793
1.729492186042883e+18,-0.008864587172865868,0.006918509490787983,-10.396916389465332
1.7294921860488832e+18,-0.07495865970849991,0.030012035742402077,-10.353816986083984
1.7294921860578834e+18,-0.016351547092199326,-0.0687187984585762,-10.257219314575195
1.7294921860668836e+18,-0.0071629853919148445,0.015485464595258236,-10.371909141540527
1.7294921860758838e+18,0.0004352484829723835,-0.044755563139915466,-10.28722858428955
1.729492186084884e+18,0.048006147146224976,-0.010175318457186222,-10.33085823059082
1.7294921860938842e+18,-0.0059812297113239765,-0.02673785760998726,-10.28129768371582
1.7294921861028844e+18,-0.047727908939123154,0.03791989013552666,-10.271153450012207
1.7294921861118845e+18,-0.0461663119494915,-0.11251828074455261,-10.216560363769531
1.7294921861208847e+18,-0.0008054770296439528,0.04837662726640701,-10.27418327331543
1.7294921861268849e+18,-0.011407152749598026,-0.0019208744633942842,-10.258198738098145
1.729492186135885e+18,0.03359432518482208,-0.0019600088708102703,-10.225929260253906
1.7294921861448852e+18,-0.02161342464387417,-0.012062462978065014,-10.240921020507812
1.7294921861508854e+18,-0.028279872611165047,-0.04816850647330284,-10.242773056030273
1.7294921861598856e+18,0.035566382110118866,0.05665406212210655,-10.273747444152832
1.7294921861688858e+18,0.0755259320139885,-0.06080884486436844,-10.195629119873047
1.729492186174886e+18,0.05752075836062431,0.024585450068116188,-10.28771686553955
1.729492186183886e+18,-0.06870362162590027,-0.028825923800468445,-10.268450736999512
1.7294921861928863e+18,0.029993832111358643,0.03432851284742355,-10.202099800109863
1.7294921861988864e+18,-0.0279465913772583,0.035949915647506714,-10.176163673400879
1.7294921862078866e+18,-0.0298985056579113,0.014067618176341057,-10.17496109008789
1.7294921862168868e+18,0.04677371680736542,0.02239786460995674,-10.089978218078613
1.729492186225887e+18,0.011834450997412205,-0.07299570739269257,-10.118233680725098
1.729492186231887e+18,-0.002602702472358942,0.009497074410319328,-10.20971393585205
1.7294921862408873e+18,0.012857520952820778,-0.07838360965251923,-10.211731910705566
1.7294921862498875e+18,0.055469200015068054,0.05071570724248886,-10.179824829101562
1.7294921862588877e+18,0.013333904556930065,0.060345038771629333,-10.19519329071045
1.7294921862648878e+18,-0.02814454212784767,0.03484949842095375,-10.136604309082031
1.729492186273888e+18,0.0802374854683876,-0.0019063223153352737,-10.226115226745605
1.7294921862828882e+18,0.02699952945113182,-0.004028456285595894,-10.264331817626953
1.7294921862918884e+18,0.001425139605998993,-0.06289245188236237,-10.229464530944824
1.7294921863008886e+18,0.053405653685331345,-0.10637502372264862,-10.20862865447998
1.7294921863098888e+18,0.08276692032814026,0.0057996101677417755,-10.143033981323242
1.729492186315889e+18,0.061000432819128036,-0.011418897658586502,-10.098005294799805
1.729492186324889e+18,0.055871766060590744,-0.005964145064353943,-10.186789512634277
1.7294921863308892e+18,-0.045185644179582596,0.015114381909370422,-10.118175506591797
1.7294921863398894e+18,-0.0010664267465472221,-0.067473404109478,-10.11284351348877
1.7294921863488896e+18,-0.031216248869895935,0.05205833166837692,-10.145238876342773
1.7294921863578898e+18,-0.009574472904205322,-0.03142396733164787,-10.083098411560059
1.72949218636389e+18,-0.018264535814523697,-0.04082866758108139,-10.134071350097656
1.72949218637289e+18,0.028748229146003723,0.021266277879476547,-10.165892601013184
1.7294921863818903e+18,0.06322884559631348,-0.09514405578374863,-10.16424560546875
1.7294921863878904e+18,0.035632457584142685,-0.094700388610363,-10.236563682556152
1.7294921863968906e+18,0.034280598163604736,-0.01293240301311016,-10.15010929107666
1.7294921864028908e+18,-0.0454479418694973,-0.007678398862481117,-10.15158748626709
1.729492186411891e+18,0.051633238792419434,-0.02965637296438217,-10.14615535736084
1.7294921864208911e+18,-0.0033115167170763016,-0.03408162668347359,-10.180655479431152
1.7294921864268913e+18,-0.01281725987792015,-0.016197441145777702,-10.143190383911133
1.7294921864358915e+18,0.026730885729193687,-0.01445702463388443,-10.20406723022461
1.7294921864448916e+18,0.05576052889227867,-0.04393334686756134,-10.16948127746582
1.7294921864508918e+18,-0.015571735799312592,-0.0653320848941803,-10.182586669921875
