timestamp,gyro_x,gyro_y,gyro_z
1.7294921748166436e+18,-0.0024581437464803457,-0.0021717757917940617,-0.0015363431302830577
1.7294921748256438e+18,-0.00021115409617777914,-0.004394726827740669,-0.0022716291714459658
1.729492174831644e+18,0.001457107369787991,0.0015607288805767894,-0.0007657824316993356
1.729492174840644e+18,0.0007286303443834186,0.00010802698670886457,-0.0010487516410648823
1.7294921748466442e+18,0.0005868530133739114,0.0013556460617110133,0.00027898603002540767
1.7294921748556444e+18,0.0012279889779165387,0.0001711029326543212,-0.002059723949059844
1.7294921748616445e+18,-0.0011917087249457836,-0.0014054722851142287,0.0007022993522696197
1.7294921748706447e+18,0.0019296940881758928,0.0001997494837269187,-0.0018274972680956125
1.7294921748766449e+18,-0.0010968396672978997,-3.859931166516617e-05,0.0037145582027733326
1.729492174885645e+18,-0.0007392390398308635,0.0037412240635603666,0.0007413454004563391
1.7294921748946452e+18,0.001686380710452795,0.0015086123021319509,-0.00019757535483222455
1.7294921749006454e+18,0.0005471405456773937,0.0006272669997997582,-0.0003688242577482015
1.7294921749066455e+18,-0.0027302689850330353,0.00018966119387187064,0.0020023942925035954
1.7294921749156457e+18,0.0023016028571873903,-0.0028028038796037436,-0.0011140526039525867
1.729492174924646e+18,-0.00047707572230137885,-0.0011946181766688824,-0.001199416583403945
1.729492174933646e+18,-0.0002709337859414518,0.00249323807656765,0.0013902204809710383
1.7294921749396462e+18,0.002354780212044716,0.002651772927492857,-0.00018875603564083576
1.7294921749486464e+18,-0.0011553444201126695,-0.001239732257090509,0.0015993211418390274
1.7294921749576466e+18,0.001374170882627368,-0.0013167380820959806,0.0009260813239961863
1.7294921749636467e+18,0.0002575439866632223,-0.001357358880341053,-0.002218897920101881
1.729492174972647e+18,0.0014720357721671462,-0.000402124976972118,3.720996028278023e-05
1.729492174981647e+18,0.002323334338143468,-5.38269778189715e-05,0.0004639882536139339
1.7294921749876472e+18,-0.00019273364159744233,0.00045646363287232816,0.0010030133416876197
1.7294921749966474e+18,-0.0005057475646026433,0.0013466792879626155,0.0006782881100662053
1.7294921750026476e+18,0.0004834876162931323,0.0005700208130292594,-0.0006134466966614127
1.7294921750116477e+18,-0.0003082105831708759,-0.0010257114190608263,-0.000611820025369525
1.729492175020648e+18,-0.0017921257531270385,0.0012778834206983447,-0.0013823943445459008
1.729492175026648e+18,0.002723710611462593,-0.0008071098127402365,-0.0006214035674929619
1.7294921750356483e+18,-0.0007659608963876963,0.0007528956630267203,-0.0004899614723399282
1.7294921750416484e+18,-0.0026435719337314367,0.0030630698893219233,0.0024315277114510536
1.7294921750506486e+18,-0.0007992573664523661,0.0012015585089102387,-0.0009880567668005824
1.7294921750596488e+18,-0.0010388699593022466,-0.0012956059072166681,0.0005090156337246299
1.729492175065649e+18,-0.0014639794826507568,-0.0018461854197084904,0.000774351239670068
1.729492175074649e+18,-0.0007637299713678658,-0.0027284217067062855,-0.003063957206904888
1.7294921750836493e+18,0.0008888432057574391,0.0020563991274684668,-0.0012290900340303779
1.7294921750896494e+18,0.00018271298904437572,-0.0011576579418033361,0.0029915841296315193
1.7294921750986496e+18,0.0006502636824734509,-0.0007551094167865813,-0.0013321490259841084
1.7294921751046497e+18,0.000842266425024718,-0.00020562822464853525,-0.0011961383279412985
1.72949217511365e+18,-0.0013446261873468757,0.0009123983327299356,-0.00033144443295896053
1.72949217511965e+18,0.001749240793287754,-0.0019726280588656664,0.0005650044186040759
1.7294921751286502e+18,0.0007956401095725596,0.0017818388296291232,0.0004764386685565114
1.7294921751346504e+18,0.0015348749002441764,-6.671794108115137e-05,-0.0010260635754093528
1.7294921751436506e+18,0.0021693056914955378,-0.0009689209400676191,0.002534091006964445
1.7294921751526508e+18,-0.001395001308992505,-0.00021152824047021568,-0.0012695672921836376
1.729492175158651e+18,-3.829797788057476e-05,0.00048887386219576,-0.0005040588439442217
1.729492175167651e+18,0.0017289983807131648,-0.00024131326063070446,0.0026602221187204123
1.7294921751736512e+18,-0.0012577124871313572,0.001970376819372177,0.002625098917633295
1.7294921751826514e+18,-0.00023240373411681503,-0.0011279679602012038,-0.0004891252610832453
1.7294921751916516e+18,-0.0017517112428322434,0.0029197554104030132,-0.0009021366131491959
1.7294921751976517e+18,0.0006060666055418551,0.00012429815251380205,0.0013721358263865113
1.729492175206652e+18,0.0012495984556153417,0.0020337074529379606,0.0010152976028621197
1.729492175215652e+18,0.0008819297654554248,0.0012563110794872046,-0.0007967313867993653
1.7294921752216522e+18,-0.0012427547480911016,-0.0006745683494955301,-0.00041003464139066637
1.7294921752306524e+18,-0.0007444552611559629,-0.0004376568249426782,0.00036288934643380344
1.7294921752366525e+18,1.414937401023053e-06,0.000999700860120356,-0.00011103181168437004
1.7294921752456527e+18,0.0020616468973457813,-0.00017860683146864176,-0.0007632506894879043
1.729492175254653e+18,0.001648432924412191,-0.00313199358060956,-0.001356545020826161
1.729492175260653e+18,-0.0010595980565994978,-0.0012644699309021235,0.0005371880833990872
1.7294921752696532e+18,0.001865775091573596,-0.00013201723049860448,0.0016642314149066806
1.7294921752786534e+18,0.001868218882009387,-0.0013168920995667577,0.0012211418943479657
1.7294921752846536e+18,0.0007071900763548911,0.0021296171471476555,-0.002797838067635894
1.7294921752936538e+18,-0.0008107274188660085,0.0014687966322526336,-0.0009649091516621411
1.729492175302654e+18,-0.001217261771671474,0.0002570879878476262,-0.0028815772384405136
1.729492175308654e+18,-0.0002819293295033276,0.0019085528329014778,0.00021590881806332618
1.7294921753176543e+18,-0.0020429755095392466,-0.002608197508379817,-0.0027519117575138807
1.7294921753266545e+18,-0.0007433723076246679,-0.0006429984932765365,0.00033190296380780637
1.7294921753326546e+18,-0.00018940100562758744,0.0008874177583493292,-0.0019076436292380095
1.7294921753416548e+18,0.0011053393827751279,-0.0005580270080827177,6.53704337310046e-05
1.729492175347655e+18,0.0010628310265019536,-0.0034871629904955626,-0.0026180236600339413
1.729492175356655e+18,-0.003835866926237941,-0.0020902040414512157,0.001716025173664093
1.7294921753656553e+18,-0.0006369385519064963,0.00021332594042178243,0.00016311684157699347
1.7294921753746555e+18,-0.0008916113874875009,0.0013004334177821875,0.0011547610629349947
1.7294921753806556e+18,0.0008849564474076033,0.0003728571755345911,-0.0009924196638166904
1.7294921753896558e+18,-0.0027700820937752724,0.0006554847350344062,-0.0015802743146196008
1.729492175395656e+18,-0.0010937113547697663,-0.0004824178176932037,0.0006741859251633286
1.729492175404656e+18,-0.002184913493692875,-0.00011570465721888468,-0.0038615998346358538
1.7294921754136563e+18,-0.0007236787350848317,0.0010027069365605712,-0.0031173485331237316
1.7294921754196564e+18,0.00031546808895654976,-0.0015200275229290128,-0.0011992099462077022
1.7294921754286566e+18,-0.0015696919290348887,0.0014688636874780059,-0.0024297272320836782
1.7294921754376568e+18,-0.0015262202359735966,-0.0018941854359582067,0.00225635664537549
1.729492175443657e+18,0.0014972211793065071,-0.001322498545050621,-0.0013236099621281028
1.7294921754526572e+18,0.0021806317381560802,-0.003144244896247983,-3.4644970583030954e-05
1.7294921754586573e+18,0.0008815438486635685,0.0012841754360124469,-0.000502849230542779
1.7294921754676575e+18,-0.0006537216831929982,0.0016108757117763162,0.0009618698386475444
1.7294921754736576e+18,0.0016616013599559665,0.0008356167236343026,0.0020757480524480343
1.7294921754826578e+18,-0.0019039548933506012,0.002668790752068162,-0.0009676813497208059
1.729492175488658e+18,0.004646810702979565,0.0016442534979432821,0.0035897057969123125
1.729492175497658e+18,0.0005006988649256527,0.0013887209352105856,0.0011509211035445333
1.7294921755066583e+18,0.0006274095503613353,-0.0018382624257355928,0.0026785489171743393
1.7294921755156585e+18,-0.0001666637253947556,-0.0007995072519406676,0.00046778007526881993
1.7294921755216586e+18,-0.0008973944932222366,-0.002488980768248439,0.0013208361342549324
1.7294921755306588e+18,-0.001686042407527566,0.0006728220614604652,0.0004648301692213863
1.729492175536659e+18,0.0005285038496367633,0.001962043344974518,-0.0017926578875631094
1.7294921755456591e+18,-0.0007981678354553878,-0.0018596815643832088,-0.0017656448762863874
1.7294921755546593e+18,0.0011615767143666744,0.000174008309841156,-0.002554232720285654
1.7294921755606595e+18,-0.00018938792345579714,-0.0011550990166142583,0.00032319052843376994
1.7294921755696596e+18,0.0020712027326226234,-0.0014708185335621238,0.0017745539080351591
1.7294921755756598e+18,0.0030274190939962864,0.0018622197676450014,0.00270247645676136
1.72949217558466e+18,0.0007583070546388626,-0.0005610925145447254,0.0002792242739815265
1.7294921755936602e+18,-0.0029338791500777006,4.6346594899659976e-05,-0.0016240763943642378
1.7294921755996603e+18,-0.0005517880781553686,-0.001945560215972364,-0.0015552749391645193
1.7294921756086605e+18,-0.000374278228264302,-0.0006055893609300256,-0.0006947248475626111
1.7294921756146606e+18,0.0006345024448819458,-0.0015743752010166645,0.000647850742097944
1.7294921756236608e+18,0.00012654227612074465,-0.0012701862724497914,-0.0021052027586847544
1.729492175629661e+18,0.0007610362372361124,0.001247479347512126,0.0011376742040738463
1.729492175638661e+18,-0.00016430932737421244,-0.0006362806889228523,0.0005539553239941597
1.7294921756476613e+18,-0.0008115909295156598,-0.0007319235592149198,-0.0002098570257658139
1.7294921756536614e+18,0.000991780194453895,-0.00036355055635794997,-0.000884048524312675
1.7294921756596616e+18,0.0007180818356573582,0.0012037561973556876,-0.00020289589883759618
1.7294921756686618e+18,-0.0010640138061717153,-7.522668965975754e-06,-0.0006401857826858759
1.729492175674662e+18,0.0009181470959447324,0.0010690789204090834,-0.0008786339894868433
1.729492175683662e+18,0.001726454822346568,0.000842881971038878,-0.0034822653979063034
1.7294921756896622e+18,-0.002115742303431034,0.0009157771710306406,0.0006120003527030349
1.7294921756986624e+18,0.0018642573850229383,-0.001807379419915378,-0.0003493382246233523
1.7294921757076626e+18,-0.005086367018520832,-0.0007895096787251532,0.004430149681866169
1.7294921757136627e+18,0.0008268656092695892,-0.0009873548988252878,0.0010197689989581704
1.729492175722663e+18,0.00037548807449638844,-0.003981512039899826,-0.0005681627662852407
1.729492175731663e+18,0.00032057674252428114,9.478188439970836e-05,0.000339312304276973
1.7294921757376632e+18,-0.0017339613987132907,-0.0011326894164085388,-0.00022714775695931166
1.7294921757466634e+18,-0.0012421543942764401,0.0007397206500172615,-0.0013428323436528444
1.7294921757556636e+18,-0.004040902946144342,-0.0010339866857975721,0.0016135011101141572
1.7294921757616637e+18,-0.003724604845046997,-0.0015332099283114076,0.002340352861210704
1.729492175770664e+18,-0.0008220659219659865,-0.0012397837126627564,-0.00112246535718441
1.729492175776664e+18,-0.0015632669674232602,-0.003764218417927623,-0.0025101492647081614
1.7294921757856643e+18,0.0014218955766409636,0.001220865873619914,0.0009903800673782825
1.7294921757946644e+18,0.0040245275013148785,0.0021140752360224724,-0.00025544161326251924
1.7294921758006646e+18,0.001202995888888836,-0.0014030515449121594,0.0015392237110063434
1.7294921758096648e+18,-0.0007878508768044412,0.002008655108511448,-0.0037153970915824175
1.729492175815665e+18,-0.0002176859852625057,-0.003120091278105974,-0.0008148379274643958
1.729492175824665e+18,-0.0017434586770832539,-0.0012191160349175334,-0.0005895596113987267
1.7294921758336653e+18,0.0006786680314689875,-0.00232203328050673,-0.0002519664412830025
1.7294921758396654e+18,-0.0010940514039248228,-0.0015662077348679304,0.0008875203202478588
1.7294921758486656e+18,0.0017848850693553686,0.0015338375233113766,0.002291430253535509
1.7294921758576658e+18,0.0013182417023926973,-0.0019479034235700965,-0.0005029953899793327
1.729492175863666e+18,-2.25735147978412e-05,0.0009179209009744227,-0.003689334262162447
1.729492175872666e+18,-0.0011116517707705498,0.0015087368665263057,-0.0022560700308531523
1.7294921758786662e+18,0.001191339106298983,0.0025595666375011206,-0.00016769306967034936
1.7294921758876664e+18,7.038951298454776e-05,0.0014868705766275525,-0.0019444001372903585
1.7294921758966666e+18,0.003105845535174012,0.00014029102749191225,-5.8493744290899485e-05
1.7294921759056668e+18,-0.003269372507929802,0.0012166820233687758,-0.002916668076068163
1.729492175914667e+18,0.0009540775790810585,0.0010445715161040425,-0.0014758328907191753
1.7294921759206671e+18,0.0008049089228734374,-0.0009947567014023662,6.218704220373183e-05
1.7294921759296673e+18,0.0011102976277470589,0.0023369009140878916,0.000799492874648422
1.7294921759386675e+18,0.002850515069440007,-0.0009042401798069477,-0.0007350133964791894
1.7294921759476677e+18,-0.00038637625402770936,-0.0004019823973067105,0.0011369835119694471
1.7294921759536678e+18,-0.0013134999899193645,-0.0011038521770387888,-0.0004738116404041648
1.729492175962668e+18,0.00014739749894943088,-0.0016882757190614939,0.0007177095976658165
1.7294921759716682e+18,0.003111868863925338,0.0006860484718345106,-0.0004022732609882951
1.7294921759806684e+18,-0.0007962121162563562,-0.0006761762197129428,0.0006753914058208466
1.7294921759896686e+18,0.002042187610641122,0.001918408670462668,-0.001462550600990653
1.7294921759956687e+18,-0.00032181869028136134,0.0021858662366867065,0.0010849523823708296
1.729492176004669e+18,-0.00015037335106171668,0.00016505659732501954,-0.00268147443421185
1.729492176013669e+18,0.00010657669918145984,-0.0009891632944345474,-0.0005409795558080077
1.7294921760196692e+18,4.098353019799106e-05,-0.0005703206988982856,0.0032430763822048903
1.7294921760286694e+18,0.00052558135939762,-0.002873409306630492,-0.0007583607803098857
1.7294921760376696e+18,-0.0035005381796509027,-2.427557046758011e-05,-0.002305082743987441
1.7294921760466698e+18,-0.0007327704224735498,0.0012712250463664532,0.0021645808592438698
1.72949217605267e+18,-0.0005559091223403811,-0.0006126555381342769,-0.00010334898979635909
1.7294921760616701e+18,0.0021850354969501495,0.0014621199807152152,-0.0010017706081271172
1.7294921760706703e+18,0.0014842808013781905,0.001439363812096417,-0.0008059364045038819
1.7294921760796705e+18,-0.002083725528791547,-0.0009215155150741339,0.0027843245770782232
1.7294921760856707e+18,0.0003593431902118027,0.0008594419341534376,-0.0007198512903414667
1.7294921760946708e+18,-0.003022151067852974,-0.0013277361867949367,0.0022710110060870647
1.729492176103671e+18,-0.00245324382558465,-0.0011885316343978047,-0.00011660575546557084
1.7294921761096712e+18,-0.0016064532101154327,-0.0005214414559304714,-0.0017580532003194094
1.7294921761186714e+18,-0.00014900600945111364,0.00030128099024295807,-0.0019403226906433702
1.7294921761276716e+18,0.002153664128854871,-0.0023418148048222065,-0.0032056495547294617
1.7294921761336717e+18,0.0008435209165327251,-0.0004303488240111619,-0.00278367823921144
1.729492176142672e+18,-0.000952749396674335,-0.0019401730969548225,0.00014379162166733295
1.729492176151672e+18,0.0010760886361822486,-0.002986112842336297,-0.0006790930056013167
1.7294921761576722e+18,-0.0007677780231460929,-0.0016781737795099616,-0.0017678375588729978
1.7294921761666724e+18,0.003060661954805255,-0.00032978804665617645,-0.0005887746228836477
1.7294921761756726e+18,0.0014152071671560407,-0.003905656049028039,-0.0004048250266350806
1.7294921761816727e+18,-0.0010613375343382359,0.0015772730112075806,-0.00010930585267487913
1.729492176190673e+18,-0.0022603149991482496,0.00040753668872639537,0.00021377562370616943
1.729492176196673e+18,-0.0015228413976728916,-0.0029265659395605326,-0.0014774154406040907
1.7294921762056732e+18,0.0004103980609215796,0.0018459390848875046,-0.0009267433197237551
1.7294921762116733e+18,0.00037752967909909785,0.0006218026974238455,6.0797690821345896e-05
1.7294921762206735e+18,-0.0007662083953619003,-0.0008978754631243646,0.0006765988655388355
1.7294921762266737e+18,0.0013316343538463116,-0.002624628832563758,-0.00224622106179595
1.7294921762356739e+18,0.00039945225580595434,-0.000709229672793299,0.0018994665006175637
1.729492176241674e+18,-0.0003296538779977709,-5.1252980483695865e-05,0.00069414172321558
1.7294921762506742e+18,-0.0023832761216908693,-0.0009388540056534111,0.0023544251453131437
1.7294921762596744e+18,-0.002324458910152316,0.0044896830804646015,-0.0010199915850535035
1.7294921762656745e+18,-0.0007260766578838229,-0.0017875970806926489,0.0017382786609232426
1.7294921762746747e+18,0.0034603201784193516,0.0004154111084062606,-0.0010032658465206623
1.7294921762806748e+18,-0.0002778308989945799,-0.0011580444406718016,-0.0009698510984890163
1.729492176289675e+18,-0.0011733921710401773,0.0006684345426037908,-0.003150335745885968
1.7294921762956751e+18,0.003297114744782448,-0.0011985312448814511,-0.000114112910523545
1.7294921763046753e+18,0.0012897126143798232,-0.0021191926207393408,0.00023105440777726471
1.7294921763136755e+18,-0.00035365685471333563,-0.001542803249321878,-0.0011348403058946133
1.7294921763226757e+18,0.004236940760165453,-0.0007908105035312474,-0.002477563451975584
1.7294921763286758e+18,0.0013288954505696893,0.0016058498295024037,0.002189378021284938
1.729492176337676e+18,-0.0005134755629114807,-0.0023405300453305244,0.0006540290778502822
1.7294921763466762e+18,0.001754788332618773,0.0018711736192926764,0.0014275035355240107
1.7294921763526764e+18,0.002006374765187502,0.0011809017742052674,-3.347323217894882e-05
1.7294921763616765e+18,0.00047627551248297095,0.0010554393520578742,-0.0007171437027864158
1.7294921763676767e+18,-0.0010480049531906843,-5.0480794016039e-06,0.0003585577942430973
1.7294921763766769e+18,0.001500581158325076,0.0016070955898612738,-0.00015941796300467104
1.729492176385677e+18,0.00027596476138569415,0.001818565302528441,0.0013703436125069857
1.7294921763916772e+18,0.0008405781118199229,0.0013180500827729702,0.000556335668079555
1.7294921764006774e+18,-0.0012180076446384192,0.001853884314186871,-0.0003921911120414734
1.7294921764066775e+18,0.0005205767811276019,0.0022387912031263113,0.000950091693084687
1.7294921764156777e+18,0.0007000407204031944,0.0004434305301401764,0.001357940025627613
1.7294921764216778e+18,-0.001484324806369841,0.0011776827741414309,0.002143600257113576
1.729492176427678e+18,0.0008876001229509711,0.0013945376267656684,-0.0019886314403265715
1.7294921764366781e+18,0.0007625023717992008,-0.0006261436501517892,-0.0017666915664449334
1.7294921764456783e+18,0.0009386540623381734,0.0008008048171177506,0.0012127036461606622
1.7294921764516785e+18,-0.0009913622634485364,-0.003030085004866123,0.0023421142250299454
1.7294921764606787e+18,-0.0005053054774180055,0.0008862147806212306,7.517039921367541e-05
1.7294921764666788e+18,-0.0007840848993510008,0.0015006372705101967,0.00037297449307516217
1.729492176475679e+18,0.004442739300429821,-0.003138929372653365,3.737286169780418e-05
1.7294921764846792e+18,0.0006334908539429307,0.0012252673041075468,0.0027201713528484106
1.7294921764966794e+18,0.000855842197779566,-0.0011495186481624842,0.001207383698783815
1.7294921765056796e+18,0.00010861538612516597,0.0008925888105295599,0.0012449845671653748
1.7294921765146798e+18,0.00034897177829407156,0.0018165857763960958,0.0025319603737443686
1.72949217652068e+18,9.359674004372209e-05,3.645175092970021e-05,-0.002020878018811345
1.7294921765296801e+18,-0.0015525411581620574,-0.0020739606115967035,-0.0008198189316317439
1.7294921765386803e+18,-0.0009861240396276116,-0.0015933498507365584,-0.0006180480704642832
1.7294921765446804e+18,-0.0025790471117943525,-0.0008093516225926578,-0.0002009399322560057
1.7294921765536806e+18,-0.0008116697426885366,-0.0033361383248120546,-0.0012820576084777713
1.7294921765596808e+18,-0.0011202591704204679,0.00011649644875433296,0.0009737834334373474
1.729492176568681e+18,0.002912019146606326,0.0004332849057391286,-0.0006130484398454428
1.7294921765776812e+18,0.001136401784606278,-0.0007065362296998501,0.0010165860876441002
1.7294921765836813e+18,0.00025913529680110514,0.0004804095078725368,-0.0013129282742738724
1.7294921765926815e+18,-0.001019159215502441,-0.0005545973544940352,0.0018259098287671804
1.7294921765986816e+18,0.0006470841472037137,0.0008079794934019446,-0.001165278721600771
1.7294921766076818e+18,0.0034912442788481712,-0.0027897516265511513,0.001261731144040823
1.729492176616682e+18,-6.756427319487557e-05,-0.002765097189694643,0.0009985630167648196
1.729492176622682e+18,0.001222576480358839,0.0008258052403107285,-0.0012910210061818361
1.7294921766316823e+18,0.0015836198581382632,0.0015586110530421138,0.00017858391220215708
1.7294921766406825e+18,0.0006975647993385792,0.003188478061929345,0.0002934766816906631
1.7294921766466826e+18,-0.0013630088651552796,-0.001912207342684269,0.00033715213066898286
1.7294921766556828e+18,0.0016775238327682018,-0.0017285299254581332,0.0020546119194477797
1.729492176661683e+18,0.000514182960614562,-0.00018414157966617495,0.004208175931125879
1.7294921766706831e+18,0.0023393030278384686,-0.0014644518960267305,0.0017125890590250492
1.7294921766796833e+18,-0.0008725643274374306,0.0003871691878885031,0.0008462076657451689
1.7294921766856835e+18,-1.3439640497381333e-05,4.552442624117248e-05,-0.0020248477812856436
1.7294921766946836e+18,0.0010591823374852538,0.0008665623608976603,-2.921512168541085e-05
1.7294921767006838e+18,-0.00011126718163723126,-0.001031721942126751,-0.003218450117856264
1.729492176709684e+18,-0.0016912996070459485,-0.0014863251708447933,-0.0010090162977576256
1.729492176715684e+18,-0.0016990948934108019,0.0016768028726801276,0.0020678893197327852
1.7294921767246843e+18,-0.0013101615477353334,-0.00032707731588743627,0.001969145843759179
1.7294921767306844e+18,0.0016541944351047277,0.0003537512675393373,0.0017845620168372989
1.7294921767396846e+18,-0.00018110800010617822,0.0012900292640551925,0.0009734449558891356
1.7294921767486848e+18,0.004421365913003683,0.00037545099621638656,0.0018900670111179352
1.729492176754685e+18,0.000854720186907798,-0.0019205533899366856,-0.0009475390543229878
1.729492176763685e+18,0.0027682818472385406,3.301453034509905e-05,0.0003564711078070104
1.7294921767696852e+18,-0.001503362087532878,-0.0009183611837215722,-0.0015428647166118026
1.7294921767786854e+18,-0.06751617044210434,-0.036831751465797424,4.6744869905523956e-05
1.7294921767846856e+18,-0.15112905204296112,-0.08914116770029068,-0.0012400370324030519
1.7294921767936858e+18,-0.2820262312889099,-0.16233162581920624,0.0024716034531593323
1.729492176799686e+18,-0.3552568554878235,-0.20900483429431915,0.0007348920917138457
1.729492176808686e+18,-0.4161946773529053,-0.2514002025127411,-0.0023673127871006727
1.7294921768176863e+18,-0.40220439434051514,-0.2550692856311798,-0.0015199751360341907
1.7294921768236864e+18,-0.36434125900268555,-0.24597059190273285,-0.0010685460874810815
1.7294921768326866e+18,-0.2910502552986145,-0.21903541684150696,0.00014782045036554337
1.7294921768386867e+18,-0.2577887177467346,-0.2056044489145279,0.00028818193823099136
1.729492176847687e+18,-0.24898825585842133,-0.1949252337217331,-0.0034586037509143353
1.729492176856687e+18,-0.2767198383808136,-0.20595484972000122,-0.0023760790936648846
1.7294921768626872e+18,-0.31015706062316895,-0.21589408814907074,-0.002605462446808815
1.7294921768716874e+18,-0.3521653711795807,-0.2275363951921463,-0.0007887615356594324
1.7294921768776876e+18,-0.3538694381713867,-0.22491879761219025,-0.0017727172235026956
1.7294921768866877e+18,-0.3237852454185486,-0.21433624625205994,-0.0018155764555558562
1.729492176892688e+18,-0.2794584035873413,-0.19963009655475616,-0.004656578414142132
1.729492176901688e+18,-0.20689404010772705,-0.16825051605701447,-0.0022555787581950426
1.7294921769106883e+18,-0.15016523003578186,-0.14611050486564636,-0.0013682256685569882
1.7294921769166884e+18,-0.1282006949186325,-0.13508372008800507,-0.005414127372205257
1.7294921769256886e+18,-0.12449440360069275,-0.1253221035003662,-0.002133595757186413
1.7294921769316887e+18,-0.13701596856117249,-0.11746520549058914,-0.0007422694470733404
1.729492176940689e+18,-0.15072894096374512,-0.11037136614322662,-0.0022672938648611307
1.729492176946689e+18,-0.15417729318141937,-0.09953795373439789,-0.0021940364968031645
1.7294921769556892e+18,-0.13123150169849396,-0.08371385931968689,-0.0035418414045125246
1.7294921769616893e+18,-0.09890173375606537,-0.06835880130529404,-0.0018869759514927864
1.7294921769706895e+18,-0.04600704088807106,-0.05255379527807236,-0.0021343734115362167
1.7294921769766897e+18,-0.012554414570331573,-0.03550546243786812,-0.004733591340482235
1.7294921769856899e+18,0.019518818706274033,-0.019268440082669258,0.0004465347155928612
1.72949217699169e+18,0.027605675160884857,-0.01016648393124342,-0.0025316562969237566
1.7294921770006902e+18,0.023815080523490906,0.0030566886998713017,-0.0026540406979620457
1.7294921770066903e+18,0.019357413053512573,0.007451904937624931,-0.0022103763185441494
1.7294921770156905e+18,0.011154906824231148,0.021905453875660896,-0.004036766942590475
1.7294921770246907e+18,0.0235246941447258,0.030277369543910027,-0.002449994208291173
1.7294921770306908e+18,0.03903171792626381,0.03649269789457321,-0.0019490222912281752
1.729492177039691e+18,0.07352560758590698,0.04905705153942108,-0.0025030863471329212
1.7294921770456911e+18,0.09345107525587082,0.05809707194566727,-0.00033530849032104015
1.7294921770546913e+18,0.11841615289449692,0.067857526242733,0.0003271559253334999
1.7294921770636915e+18,0.12404045462608337,0.07754489779472351,-0.004680803045630455
1.7294921770696916e+18,0.11844808608293533,0.0804208517074585,-0.0031216058414429426
1.7294921770786918e+18,0.10677268356084824,0.08582085371017456,-0.0014446526765823364
1.729492177087692e+18,0.10016949474811554,0.09233648329973221,-0.0022274742368608713
1.7294921770936922e+18,0.1028514951467514,0.09095098078250885,-0.0026386918034404516
1.7294921771026924e+18,0.11891190707683563,0.09532413631677628,-0.0035953056067228317
1.7294921771086925e+18,0.12612909078598022,0.09668787568807602,-0.0012315098429098725
1.7294921771176927e+18,0.14426369965076447,0.09973137080669403,-0.0037547009997069836
1.7294921771236928e+18,0.14847275614738464,0.10027163475751877,-0.00067719048820436
1.729492177132693e+18,0.14802516996860504,0.10303990542888641,-0.004391906317323446
1.729492177138693e+18,0.1474272608757019,0.10313747078180313,0.00019387598149478436
1.7294921771476933e+18,0.13599276542663574,0.10532203316688538,-0.0030137221328914165
1.7294921771536934e+18,0.1329539567232132,0.10465949028730392,-0.002723120851442218
1.7294921771626936e+18,0.12484141439199448,0.10412107408046722,-0.005193564109504223
1.7294921771716938e+18,0.12800948321819305,0.10509559512138367,-0.0011564940214157104
1.729492177177694e+18,0.13174355030059814,0.1060657650232315,-0.0008416053606197238
1.7294921771866941e+18,0.13927410542964935,0.10641087591648102,-0.00164469622541219
1.7294921771956943e+18,0.1422266960144043,0.1041577160358429,-0.0011976854875683784
1.7294921772016945e+18,0.14232024550437927,0.09974092245101929,-0.001987867522984743
1.7294921772106947e+18,0.1386553943157196,0.09742371737957001,-0.002140616299584508
1.7294921772196948e+18,0.12513241171836853,0.09811235219240189,-0.0020407666452229023
1.729492177225695e+18,0.11941128224134445,0.09689740091562271,0.0008453750051558018
1.7294921772346952e+18,0.11464672535657883,0.09526121616363525,-0.0012037386186420918
1.7294921772406953e+18,0.11708896607160568,0.09499935805797577,-0.0018808153690770268
1.7294921772496955e+18,0.11789306253194809,0.09121332317590714,-3.923859912902117e-05
1.7294921772556956e+18,0.11636947840452194,0.09279749542474747,-0.0017762058414518833
1.7294921772646958e+18,0.11774992942810059,0.08606953918933868,0.0002602883614599705
1.729492177273696e+18,0.11300104856491089,0.08106966316699982,-0.0036190978717058897
1.7294921772796961e+18,0.11026374250650406,0.0825425237417221,-0.00533453281968832
1.7294921772886963e+18,0.10274229943752289,0.07761936634778976,-0.0025502166245132685
1.7294921772976965e+18,0.09239497035741806,0.0729622170329094,-0.0004024418303743005
1.7294921773036966e+18,0.0900992825627327,0.07272754609584808,-0.002480009337887168
1.7294921773126968e+18,0.09285546094179153,0.0681130513548851,-0.0034178830683231354
1.729492177318697e+18,0.08988843113183975,0.07096412032842636,0.0007227801252156496
1.7294921773276972e+18,0.08810851722955704,0.06477344781160355,-0.0025643145199865103
1.7294921773366973e+18,0.09118086099624634,0.060362309217453,-2.3734872229397297e-05
1.7294921773426975e+18,0.08726755529642105,0.06018151715397835,-0.0015708219725638628
1.7294921773516977e+18,0.08305972814559937,0.05805880203843117,-0.0015656930627301335
1.7294921773576978e+18,0.07887232303619385,0.05495378002524376,-0.0010378730949014425
1.729492177366698e+18,0.0745805874466896,0.05388462543487549,-0.0005415335181169212
1.7294921773756982e+18,0.06576067954301834,0.05022067204117775,0.001047349302098155
1.7294921773816983e+18,0.06736141443252563,0.05025337636470795,-0.00452023558318615
1.7294921773906985e+18,0.06656854599714279,0.048213597387075424,-0.00019170658197253942
1.7294921773996987e+18,0.06945104151964188,0.04654109850525856,0.0004170229658484459
1.729492177408699e+18,0.07152628153562546,0.043272536247968674,0.001070434576831758
1.729492177414699e+18,0.0732753723859787,0.044706180691719055,-0.00400865962728858
1.7294921774236992e+18,0.06156656891107559,0.04403451085090637,-0.0028144805692136288
1.7294921774356995e+18,0.05509311705827713,0.04164795204997063,0.001072589075192809
1.7294921774446996e+18,0.053993191570043564,0.03936929628252983,-0.0007656647358089685
1.7294921774506998e+18,0.050800032913684845,0.03750098496675491,-0.0017731280531734228
1.7294921774597e+18,0.056954190135002136,0.03890376538038254,-0.00031516485614702106
1.7294921774687002e+18,0.06062229722738266,0.03539242595434189,-0.0013330556685104966
1.7294921774747003e+18,0.059325382113456726,0.03416111320257187,-0.002060158643871546
1.7294921774837005e+18,0.0573987178504467,0.03318348154425621,-0.004052006173878908
1.7294921774897006e+18,0.05987504869699478,0.031002510339021683,-0.001764137065038085
1.7294921774987008e+18,0.05476387217640877,0.030359454452991486,-0.0012821321142837405
1.729492177507701e+18,0.046471334993839264,0.032019972801208496,-0.0018513130489736795
1.729492177513701e+18,0.04440480098128319,0.02828877419233322,-0.003402105998247862
1.7294921775227013e+18,0.046423763036727905,0.028194529935717583,-0.00209418055601418
1.7294921775317015e+18,0.050646353513002396,0.029484372586011887,-0.002032705582678318
1.7294921775377016e+18,0.04990772530436516,0.027241013944149017,-0.0032789644319564104
1.7294921775467018e+18,0.051730018109083176,0.03049030527472496,-0.0027062315493822098
1.729492177552702e+18,0.04914078116416931,0.030285708606243134,5.7716213632375e-05
1.7294921775617021e+18,0.045929763466119766,0.029872018843889236,-0.001191327697597444
1.7294921775677023e+18,0.045517921447753906,0.02533813938498497,0.0014171061338856816
1.7294921775767025e+18,0.03950153663754463,0.022901607677340508,0.0014487835578620434
1.7294921775827026e+18,0.03964133560657501,0.026127194985747337,-0.0038397926837205887
1.7294921775917028e+18,0.03991357609629631,0.02453199215233326,0.0006798215326853096
1.729492177597703e+18,0.04175334796309471,0.026166288182139397,0.0035864869132637978
1.729492177606703e+18,0.04307292029261589,0.025759059935808182,0.00061530910898
1.7294921776127032e+18,0.045756228268146515,0.025951087474822998,-0.0005435534985736012
1.7294921776217034e+18,0.04140464961528778,0.026581043377518654,0.0031102716457098722
1.7294921776307036e+18,0.03774401172995567,0.024157803505659103,0.001104549621231854
1.7294921776367037e+18,0.0358540304005146,0.026489388197660446,-0.0021331897005438805
1.729492177645704e+18,0.03768360614776611,0.021477876231074333,-0.001882772776298225
1.729492177651704e+18,0.037196721881628036,0.02033466473221779,0.0016181999817490578
1.7294921776607043e+18,0.039240334182977676,0.018633278086781502,0.0007189670577645302
1.7294921776667044e+18,0.03937094658613205,0.020181240513920784,-0.00206188322044909
1.7294921776757046e+18,0.042387813329696655,0.019212106242775917,-0.00013533156015910208
1.7294921776847048e+18,0.043143633753061295,0.024188002571463585,-0.0030919683631509542
1.729492177690705e+18,0.04138673469424248,0.023551085963845253,0.0008261565817520022
1.729492177696705e+18,0.0383390337228775,0.02255708910524845,-0.0007689977646805346
1.7294921777057052e+18,0.03933769091963768,0.022626586258411407,0.003995692823082209
1.7294921777117053e+18,0.03512902930378914,0.01916733756661415,0.0001807762309908867
1.7294921777207055e+18,0.03317389264702797,0.018879668787121773,0.0019161405507475138
1.7294921777267057e+18,0.03354831039905548,0.01899663917720318,-0.003278604941442609
1.7294921777357059e+18,0.03783392533659935,0.016536898910999298,0.0017008458962664008
1.729492177744706e+18,0.03573213145136833,0.015186144970357418,0.0024091918021440506
1.7294921777507062e+18,0.035782717168331146,0.019308015704154968,0.0015503601171076298
1.7294921777597064e+18,0.03405456244945526,0.019349543377757072,0.001659850007854402
1.7294921777687066e+18,0.030840935185551643,0.018159421160817146,-0.0008888599695637822
1.7294921777747067e+18,0.03355797380208969,0.016227491199970245,0.0014725569635629654
1.729492177783707e+18,0.03283228725194931,0.018161913380026817,-0.0013003621716052294
1.729492177792707e+18,0.03136861324310303,0.01571410521864891,-0.0012134939897805452
1.7294921777987072e+18,0.02895507775247097,0.014558358117938042,-0.0006824982701800764
1.7294921778077074e+18,0.0291233379393816,0.017470289021730423,0.00115451670717448
1.7294921778137075e+18,0.030690055340528488,0.01629251427948475,0.0004867033567279577
1.7294921778227077e+18,0.02902602218091488,0.015089225023984909,-0.001164975925348699
1.729492177831708e+18,0.025266744196414948,0.013425532728433609,-0.0019082115031778812
1.729492177837708e+18,0.02598000317811966,0.014086046256124973,3.2262993045151234e-05
1.7294921778467082e+18,0.03110347129404545,0.017417466267943382,-0.0005784581881016493
1.7294921778557084e+18,0.029917964711785316,0.014543081633746624,-0.0003746161237359047
1.7294921778617085e+18,0.033013440668582916,0.01795908249914646,0.004311955999583006
1.7294921778707087e+18,0.030604040250182152,0.020621366798877716,0.002888711402192712
1.7294921778767089e+18,0.028588792309165,0.019157949835062027,0.0015781235415488482
1.729492177885709e+18,0.02507697232067585,0.01721874624490738,0.003986414521932602
1.7294921778947092e+18,0.02281191572546959,0.01451371144503355,-0.0011733954306691885
1.7294921779007094e+18,0.021856432780623436,0.015751738101243973,0.003665709402412176
1.7294921779097096e+18,0.024448169395327568,0.014565898105502129,0.001010111067444086
1.7294921779157097e+18,0.02718229591846466,0.018851501867175102,0.001459364895708859
1.72949217792471e+18,0.028667304664850235,0.01660234108567238,-0.0004785021301358938
1.72949217793071e+18,0.025050494819879532,0.01689511351287365,0.00197707861661911
1.7294921779397102e+18,0.025005130097270012,0.014038621447980404,0.0012462572194635868
1.7294921779457103e+18,0.02325052209198475,0.015852658078074455,0.0027769312728196383
1.7294921779547105e+18,0.019118763506412506,0.013612951152026653,0.0013059121556580067
1.7294921779607107e+18,0.019862977787852287,0.01632888987660408,0.004338828846812248
1.7294921779697108e+18,0.01869148202240467,0.013723328709602356,0.0005073911743238568
1.729492177978711e+18,0.021799718961119652,0.014473914168775082,0.002271010773256421
1.7294921779847112e+18,0.024465151131153107,0.014092789962887764,0.0016698415856808424
1.7294921779937114e+18,0.021826907992362976,0.014328071847558022,0.002960086101666093
1.7294921779997115e+18,0.02340707927942276,0.015741931274533272,0.0030784993432462215
1.7294921780087117e+18,0.021038759499788284,0.010837067849934101,-5.071633495390415e-05
1.7294921780177119e+18,0.018861843273043633,0.012049855664372444,0.0015188923571258783
1.729492178023712e+18,0.015783609822392464,0.010145334526896477,0.0015306336572393775
1.7294921780327122e+18,0.015197992324829102,0.012716352008283138,0.004636980593204498
1.7294921780387123e+18,0.014362051151692867,0.009444650262594223,0.004220835864543915
1.7294921780477125e+18,0.014804075472056866,0.010287405923008919,-7.502618245780468e-05
1.7294921780567127e+18,0.021649468690156937,0.010647043585777283,0.0033987488131970167
1.729492178065713e+18,0.013680003583431244,0.008645793423056602,0.004511469509452581
1.729492178071713e+18,0.0161118246614933,0.006599287502467632,0.0031205127015709877
1.7294921780807132e+18,0.014338992536067963,0.0072428081184625626,0.0030049397610127926
1.7294921780897134e+18,0.011446201242506504,0.005794408731162548,0.001084446907043457
1.7294921780957135e+18,0.012259192764759064,0.006811227649450302,0.0006218097405508161
1.7294921781047137e+18,0.009360343217849731,0.0055168624967336655,0.003868813393637538
1.729492178113714e+18,0.00890499260276556,0.011036418378353119,0.0034957267343997955
1.729492178122714e+18,0.009862936101853848,0.0063438136130571365,-0.00013800384476780891
1.7294921781287142e+18,0.013605334796011448,0.004220427479594946,0.0020779198966920376
1.7294921781377144e+18,0.014606346376240253,0.007443296257406473,0.0016216530930250883
1.7294921781467146e+18,0.00831003487110138,0.005829095374792814,0.002393415430560708
1.7294921781527148e+18,0.007638563867658377,0.0033675269223749638,0.0027880386915057898
1.729492178161715e+18,0.0043960451148450375,0.005835649557411671,-0.00017582764849066734
1.729492178167715e+18,0.00591082451865077,0.0024208971299231052,0.0015294738113880157
1.7294921781767153e+18,0.0002522950526326895,0.005314516369253397,0.002609661314636469
1.7294921781857155e+18,0.005635843146592379,0.006878562271595001,0.002831317950040102
1.7294921781947156e+18,0.005800998769700527,0.0031510593835264444,0.0027397333178669214
1.7294921782007158e+18,0.0038319509476423264,0.00464762793853879,0.0005721272900700569
1.729492178209716e+18,0.00918553490191698,0.002322707325220108,0.0028629987500607967
1.729492178215716e+18,0.005414486397057772,0.006004983093589544,0.0009605651721358299
1.7294921782247163e+18,0.004358100704848766,0.0018403319409117103,-0.00047450989950448275
1.7294921782307164e+18,0.0010376479476690292,0.0018747997237369418,0.0012558904709294438
1.7294921782397166e+18,0.003104145871475339,0.003556294133886695,0.0027759866788983345
1.7294921782487168e+18,0.001296246307902038,0.0004578621010296047,-0.0003484371118247509
1.729492178254717e+18,0.0008324040682055056,-0.0019750772044062614,0.001517926575616002
1.729492178263717e+18,0.0022269824985414743,0.0025205675046890974,0.0016074799932539463
1.7294921782727173e+18,0.004263004288077354,-0.0014017324429005384,0.0017456643981859088
1.7294921782787174e+18,0.006657500751316547,-0.0011817554477602243,0.0008943877764977515
1.7294921782877176e+18,0.007130390498787165,0.0024332820903509855,0.0012976243160665035
1.7294921782967178e+18,0.00848081149160862,0.002314069075509906,-0.0008747087558731437
1.729492178302718e+18,0.006407448090612888,-0.00020399002823978662,0.00010696204844862223
1.7294921783117181e+18,0.0032737785950303078,0.0016086065443232656,0.0018950176890939474
1.7294921783177183e+18,0.00216640904545784,9.111063263844699e-05,0.005109804216772318
1.7294921783267185e+18,0.00046578189358115196,-0.0010571489110589027,0.00023314374266192317
1.7294921783357187e+18,0.003609616542235017,0.0020071370527148247,0.000949752633459866
1.7294921783447188e+18,0.004865795839577913,0.0010776587296277285,0.002369204768911004
1.729492178350719e+18,0.006021582521498203,0.0007287979824468493,-0.00131214689463377
1.7294921783597192e+18,0.0009413543157279491,-0.0013119676150381565,0.001312802080065012
1.7294921783687194e+18,0.0025715194642543793,0.0001506035914644599,0.0012935095001012087
1.7294921783777196e+18,-0.0003100273897871375,-0.0031350371427834034,-0.0018417749088257551
1.7294921783837197e+18,0.001655803993344307,-0.0015958620933815837,0.002770455088466406
1.72949217839272e+18,-0.004591260105371475,-0.0030389255844056606,-0.00021180283511057496
1.72949217839872e+18,-0.0015896582044661045,0.0004067640984430909,0.00122301175724715
1.72949217840472e+18,-0.0008624305482953787,0.0007214440847747028,-0.0010080032516270876
1.7294921784137203e+18,-0.0007009727996774018,-0.00238990830257535,-0.0008816503104753792
1.7294921784227205e+18,0.0015913897659629583,-0.0037435158155858517,-0.000982925877906382
1.7294921784317207e+18,-8.02975264377892e-05,6.029428914189339e-05,-0.0002337936602998525
1.7294921784377208e+18,-0.001694614184089005,-0.0033842106349766254,-0.0036332332529127598
1.729492178446721e+18,0.00014670088421553373,-0.0019901806954294443,0.002176505047827959
1.7294921784557212e+18,0.0005162660963833332,-0.004705280996859074,0.0010650822659954429
1.7294921784617213e+18,2.5608111172914505e-05,-0.003311845939606428,-0.0013583601685240865
1.7294921784707215e+18,-0.003400510875508189,-0.0004570677410811186,6.988074164837599e-05
1.7294921784767217e+18,-0.001680614659562707,-0.0061291279271245,-0.00041967706056311727
1.7294921784857219e+18,-0.00018197018653154373,-0.0029634390957653522,-0.0009085539495572448
1.729492178494722e+18,-0.0048043010756373405,-0.002239618916064501,0.0007387877558358014
1.7294921785007222e+18,-0.002792409621179104,-0.004860050976276398,-0.00254144798964262
1.7294921785097224e+18,-0.0011394480243325233,-0.004925981163978577,0.0027517438866198063
1.7294921785187226e+18,-0.004115361254662275,-0.003490210510790348,-0.0018051231745630503
1.7294921785247227e+18,-0.006507817655801773,0.0009189584525302052,0.0018544686026871204
1.729492178533723e+18,-0.0020837809424847364,-0.000826372648589313,-0.0005606943741440773
1.729492178542723e+18,-0.0030715512111783028,0.0017233091639354825,-0.0032553672790527344
1.7294921785487232e+18,-0.001209127251058817,7.153302431106567e-05,-0.0015435423702001572
1.7294921785577234e+18,-0.003879394382238388,-0.0014631383819505572,-0.002170003717765212
1.7294921785637235e+18,-0.0026187580078840256,-0.0007947853300720453,-0.0020449107978492975
1.7294921785727237e+18,-0.004659485071897507,-0.0025561186484992504,-0.002227849792689085
1.729492178581724e+18,-0.0014932339545339346,-0.005735709331929684,0.0014730524271726608
1.729492178587724e+18,-0.0024040560238063335,-0.003294682130217552,-0.002661065896973014
1.7294921785967242e+18,-0.0045776162296533585,-0.0004352293908596039,-0.001960732275620103
1.7294921786027244e+18,-0.003036445239558816,-0.0022473055869340897,-0.0014726190129294991
1.7294921786117245e+18,-0.006693900562822819,-0.0019353940151631832,-0.004259391222149134
1.7294921786207247e+18,-0.007534094154834747,-0.0028503125067800283,0.0009585404768586159
1.7294921786267249e+18,-0.00923376064747572,-0.0039474843069911,-0.002059402409940958
1.729492178635725e+18,-0.008861890062689781,-0.00548807205632329,-0.0015698743518441916
1.7294921786447252e+18,-0.009501137770712376,-0.005913311615586281,-0.0033868923783302307
1.7294921786507254e+18,-0.007577130571007729,-0.00665619969367981,-0.002974557923153043
1.7294921786597256e+18,-0.009504573419690132,-0.005674989894032478,-0.0028209160082042217
1.7294921786657257e+18,-0.0028915421571582556,-0.0062357415445148945,-0.0008672051480971277
1.729492178674726e+18,-0.004306947346776724,-0.00300159165635705,-0.0013638536911457777
1.729492178683726e+18,-0.005457386374473572,-0.005863870494067669,-0.001287950435653329
1.7294921786897262e+18,-0.007582660298794508,-0.0032779276371002197,-0.002870854688808322
1.7294921786987264e+18,-0.004067040979862213,-0.0037785954773426056,0.0019045592052862048
1.7294921787047265e+18,-0.007433589547872543,-0.004258946515619755,0.0016120682703331113
1.7294921787137267e+18,-0.01022718008607626,-0.009056945331394672,-0.0022474464494735003
1.729492178722727e+18,-0.008896240033209324,-0.00653837900608778,-0.002972725313156843
1.729492178728727e+18,-0.009655593894422054,-0.0035394830629229546,-0.0011672840919345617
1.7294921787377272e+18,-0.007705165538936853,-0.003965316340327263,-0.0030547077767550945
1.7294921787437274e+18,-0.010524852201342583,-0.004580611363053322,-0.0015366122825071216
1.7294921787527276e+18,-0.009061610326170921,-0.0069525898434221745,0.0012657970655709505
1.7294921787617277e+18,-0.010670476593077183,-0.004525217227637768,-0.0017302677733823657
1.7294921787677279e+18,-0.010564072988927364,-0.0017924865242093801,-0.0005171849625185132
1.729492178776728e+18,-0.008416200056672096,-0.004914960358291864,0.00034368690103292465
1.7294921787827282e+18,-0.011068870313465595,-0.00516841234639287,0.0016539845382794738
1.7294921787917284e+18,-0.012258602306246758,-0.006792400497943163,-0.0011471835896372795
1.7294921788007286e+18,-0.013400603085756302,-0.0007633618079125881,-0.0011684151832014322
1.7294921788067287e+18,-0.012035609222948551,-0.004893784876912832,-0.001346987672150135
1.729492178815729e+18,-0.012251229956746101,-0.002131914719939232,6.645114626735449e-05
1.729492178821729e+18,-0.00948711670935154,0.0015296204946935177,-0.0017319712787866592
1.7294921788307292e+18,-0.010884416289627552,-0.0036201055627316236,-0.000983810517936945
1.7294921788367293e+18,-0.013415325433015823,-0.00013925903476774693,-0.00025332183577120304
1.7294921788457295e+18,-0.009623182937502861,-0.0034968045074492693,0.0029813782311975956
1.7294921788517297e+18,-0.013485678471624851,-0.003855709219351411,-0.0005512615898624063
1.7294921788607299e+18,-0.013166960328817368,-0.004351145587861538,-0.0035414486192166805
1.72949217886973e+18,-0.013990755192935467,-0.007441804278641939,-0.000690377433784306
1.7294921788757302e+18,-0.016606003046035767,-0.004939126316457987,0.002122413134202361
1.7294921788847304e+18,-0.01318743173032999,-0.0054712072014808655,-0.004552141297608614
1.7294921788907305e+18,-0.015386458486318588,-0.005725175142288208,-0.0028939475305378437
1.7294921788997307e+18,-0.01382554229348898,-0.007423782721161842,-0.00019609311129897833
1.729492178908731e+18,-0.014729473739862442,-0.008821782656013966,-0.002304929308593273
1.729492178914731e+18,-0.013630363158881664,-0.005363311618566513,-0.001656626584008336
1.7294921789237312e+18,-0.014094280079007149,-0.00386159960180521,-0.005131631623953581
1.7294921789327314e+18,-0.017943186685442924,-0.009978849440813065,-0.0009492128156125546
1.7294921789387315e+18,-0.018473127856850624,-0.004729933105409145,-0.0029770336113870144
1.7294921789477317e+18,-0.017181651666760445,-0.011626924388110638,-0.0031338543631136417
1.729492178956732e+18,-0.016978077590465546,-0.011732610873878002,-0.0042144255712628365
1.729492178965732e+18,-0.014074641279876232,-0.012237542308866978,-0.0021960607264190912
1.7294921789717322e+18,-0.018050866201519966,-0.009978005662560463,-0.001813540467992425
1.7294921789807324e+18,-0.016431694850325584,-0.007126748561859131,-0.0006186624523252249
1.7294921789867325e+18,-0.01869487389922142,-0.008472321555018425,-0.0014115244848653674
1.7294921789957327e+18,-0.017450537532567978,-0.008707909844815731,-0.0023977626115083694
1.729492179004733e+18,-0.01868339069187641,-0.011490078642964363,0.001349360914900899
1.729492179010733e+18,-0.01930762641131878,-0.011096801608800888,-0.003162241308018565
1.7294921790197332e+18,-0.018049832433462143,-0.008814023807644844,-0.003351940307766199
1.7294921790287334e+18,-0.013381932862102985,-0.00928220059722662,-0.0003951462567783892
1.7294921790347336e+18,-0.018109411001205444,-0.006712418049573898,0.0015304834814742208
1.7294921790437338e+18,-0.017578931525349617,-0.007365728262811899,-0.0016715205274522305
1.729492179052734e+18,-0.01990327425301075,-0.010647628456354141,-0.0009504142799414694
1.729492179058734e+18,-0.01808822713792324,-0.004356504883617163,0.002947738626971841
1.7294921790677343e+18,-0.019450435414910316,-0.01315696258097887,-0.0029640509746968746
1.7294921790737344e+18,-0.019839301705360413,-0.010119798593223095,0.002227682387456298
1.7294921790827346e+18,-0.02141738124191761,-0.009193181991577148,0.0008851450402289629
1.7294921790917348e+18,-0.020911619067192078,-0.007283351384103298,-0.0014960609842091799
1.729492179103735e+18,-0.020106270909309387,-0.00514996936544776,-0.003350211773067713
1.7294921791157353e+18,-0.02096826769411564,-0.0037480273749679327,0.004565943032503128
1.7294921791217354e+18,-0.02181789092719555,-0.009902557358145714,0.004628496244549751
1.7294921791307356e+18,-0.01476559229195118,-0.015944823622703552,-0.0006441541481763124
1.7294921791367357e+18,-0.005912677384912968,-0.023294679820537567,-0.008223723620176315
1.729492179145736e+18,-6.045392365194857e-05,-0.035194795578718185,-0.021687591448426247
1.729492179154736e+18,0.0037064075004309416,-0.03369954973459244,-0.027378883212804794
1.7294921791607363e+18,0.0005257382290437818,-0.03492029011249542,-0.026886915788054466
1.7294921791697364e+18,-0.005393726751208305,-0.02596099302172661,-0.025273660197854042
1.7294921791787366e+18,-0.010018199682235718,-0.022143583744764328,-0.02673550508916378
1.7294921791847368e+18,-0.01549303438514471,-0.017478076741099358,-0.02676227316260338
1.729492179193737e+18,-0.013535856269299984,-0.014551503583788872,-0.027771160006523132
1.7294921792027372e+18,-0.01299356296658516,-0.021553337574005127,-0.02718842588365078
1.7294921792117373e+18,-0.008138764649629593,-0.02255573682487011,-0.029539400711655617
1.7294921792177375e+18,-0.008851505815982819,-0.024125197902321815,-0.02889585681259632
1.7294921792267377e+18,-0.007537671830505133,-0.02519909478724003,-0.027571573853492737
1.7294921792327378e+18,-0.008383628912270069,-0.02520902454853058,-0.02511388249695301
1.729492179241738e+18,-0.01004041638225317,-0.023138990625739098,-0.02193276770412922
1.729492179247738e+18,-0.010777873918414116,-0.01817394234240055,-0.022715196013450623
1.7294921792567383e+18,-0.016947688534855843,-0.018043000251054764,-0.022875990718603134
1.7294921792627384e+18,-0.014862590469419956,-0.01218161266297102,-0.024135775864124298
1.7294921792717386e+18,-0.016877826303243637,-0.013840238563716412,-0.01971295103430748
1.7294921792807388e+18,-0.01804712414741516,-0.013431091792881489,-0.018307913094758987
1.729492179286739e+18,-0.015404265373945236,-0.01777493581175804,-0.018599901348352432
1.7294921792957391e+18,-0.01260503102093935,-0.015915660187602043,-0.018643705174326897
1.7294921793047393e+18,-0.016165900975465775,-0.01287386380136013,-0.017336949706077576
1.7294921793137395e+18,-0.017171677201986313,-0.008723374456167221,-0.014262734912335873
1.7294921793197396e+18,-0.020089223980903625,-0.004055829253047705,-0.012731763534247875
1.7294921793287398e+18,-0.019543157890439034,-0.0030959725845605135,-0.009764022193849087
1.72949217933474e+18,-0.021931258961558342,-0.002963671227917075,-0.012005003169178963
1.7294921793437402e+18,-0.022888237610459328,-0.003541777143254876,-0.006074520293623209
1.7294921793527404e+18,-0.020612753927707672,-0.002707690466195345,-0.006844538729637861
1.7294921793587405e+18,-0.024848397821187973,-0.004635497462004423,-0.003759372513741255
1.7294921793677407e+18,-0.022178439423441887,-0.003113469108939171,0.0005563528975471854
1.7294921793737408e+18,-0.02293734811246395,-0.003709222888574004,-0.0012744046980515122
1.729492179382741e+18,-0.02490650676190853,0.0006912257522344589,0.0019827992655336857
1.729492179388741e+18,-0.022784827277064323,-0.002794747706502676,0.005972051527351141
1.7294921793977413e+18,-0.02664254605770111,0.000581583590246737,0.008677548728883266
1.7294921794037414e+18,-0.025376275181770325,-0.0005007031140848994,0.009717641398310661
1.7294921794127416e+18,-0.02570880576968193,3.8618956750724465e-05,0.010632313787937164
1.7294921794217418e+18,-0.030306994915008545,-0.00019652594346553087,0.01630961336195469
1.729492179427742e+18,-0.025989988818764687,-0.0018737998325377703,0.017148729413747787
1.7294921794367421e+18,-0.023284684866666794,-0.0021165315993130207,0.02199084497988224
1.7294921794457423e+18,-0.02747313864529133,0.0009106009965762496,0.02365019917488098
1.7294921794517425e+18,-0.026127325370907784,-0.0018935452681034803,0.025624819099903107
1.7294921794607427e+18,-0.025609740987420082,7.799896411597729e-05,0.027965176850557327
1.7294921794697428e+18,-0.02712309919297695,0.0009630722925066948,0.03182559087872505
1.729492179475743e+18,-0.02671145088970661,0.0003880977747030556,0.03615680709481239
1.7294921794847432e+18,-0.025346454232931137,-0.0013059565098956227,0.0388176254928112
1.7294921794907433e+18,-0.0235767662525177,0.00037183589302003384,0.03965850546956062
1.7294921794997435e+18,-0.02310890704393387,-0.007129865698516369,0.04202136769890785
1.7294921795057436e+18,-0.025814317166805267,-0.0061333090998232365,0.04115777090191841
1.7294921795147438e+18,-0.024068092927336693,-0.005209888331592083,0.044959768652915955
1.729492179523744e+18,-0.02814875915646553,-0.0011683885240927339,0.04758615046739578
1.7294921795297441e+18,-0.0238460972905159,0.0006380457198247313,0.05089332163333893
1.7294921795387443e+18,-0.025663064792752266,0.0013189087621867657,0.053351327776908875
1.7294921795477445e+18,-0.023174719884991646,-0.0009759721579030156,0.055458806455135345
1.7294921795537446e+18,-0.02249845862388611,-0.0017938293749466538,0.05814642086625099
1.7294921795627448e+18,-0.021336061879992485,-0.005280701443552971,0.061044447124004364
1.729492179568745e+18,-0.021555429324507713,-0.006287400145083666,0.06135547161102295
1.7294921795777452e+18,-0.02487485110759735,-0.007549742236733437,0.06597385555505753
1.7294921795867453e+18,-0.023610329255461693,-0.005212864838540554,0.06700914353132248
1.7294921795957455e+18,-0.02655457891523838,-0.003754956880584359,0.0719175785779953
1.7294921796047457e+18,-0.024911100044846535,-0.0076855807565152645,0.07088902592658997
1.7294921796107459e+18,-0.02498486638069153,-0.006640146486461163,0.07249316573143005
1.729492179619746e+18,-0.020666353404521942,-0.009510712698101997,0.07598312944173813
1.7294921796257462e+18,-0.02042481116950512,-0.007002842612564564,0.07574687153100967
1.7294921796347464e+18,-0.019231680780649185,-0.008710973896086216,0.07803241163492203
1.7294921796407465e+18,-0.020652538165450096,-0.0072164577431976795,0.08054815232753754
1.7294921796497467e+18,-0.024011926725506783,-0.005508252419531345,0.0817299485206604
1.7294921796557468e+18,-0.024054158478975296,-0.006080716848373413,0.08356906473636627
1.729492179664747e+18,-0.028233826160430908,-0.0063852290622889996,0.08369894325733185
1.7294921796707471e+18,-0.022189345210790634,-0.007505855057388544,0.08568189293146133
1.7294921796797473e+18,-0.023413721472024918,-0.00999736599624157,0.08358064293861389
1.7294921796857475e+18,-0.020820854231715202,-0.00827112514525652,0.08685194700956345
1.7294921796947476e+18,-0.017645366489887238,-0.00628398172557354,0.08866290748119354
1.7294921797037478e+18,-0.016268793493509293,-0.010969110764563084,0.09414178878068924
1.729492179709748e+18,-0.019458850845694542,-0.009065316058695316,0.0942196249961853
1.7294921797187482e+18,-0.020581213757395744,-0.009166980162262917,0.09261149913072586
1.7294921797247483e+18,-0.02607450634241104,-0.006614852696657181,0.10038316994905472
1.7294921797337485e+18,-0.023638632148504257,-0.005991275422275066,0.10066883265972137
1.7294921797427487e+18,-0.024903221055865288,-0.0053671905770897865,0.10292107611894608
1.7294921797487488e+18,-0.019677557051181793,-0.0081031434237957,0.10305333882570267
1.729492179757749e+18,-0.020449016243219376,-0.009187315590679646,0.10448410362005234
1.729492179763749e+18,-0.01917535625398159,-0.01037688460201025,0.1061105877161026
1.7294921797727493e+18,-0.015878478065133095,-0.008510304614901543,0.10769227147102356
1.7294921797817495e+18,-0.01824253611266613,-0.006012165918946266,0.10773690789937973
1.7294921797877496e+18,-0.019602999091148376,-0.004548946395516396,0.11063601076602936
1.7294921797967498e+18,-0.02381936088204384,-0.007998783141374588,0.1109052374958992
1.72949217980275e+18,-0.021014204248785973,-0.0030195554718375206,0.11134909093379974
1.7294921798117501e+18,-0.02211686223745346,-0.009226381778717041,0.11513134092092514
1.7294921798177503e+18,-0.021962085738778114,-0.007981929928064346,0.11525275558233261
1.7294921798267505e+18,-0.017918899655342102,-0.004451242741197348,0.11588288843631744
1.7294921798357507e+18,-0.014477428048849106,-0.00623290566727519,0.11703206598758698
1.7294921798417508e+18,-0.010858229361474514,-0.005343101918697357,0.11651106923818588
1.729492179850751e+18,-0.013860547915101051,-0.006986284162849188,0.11599814891815186
1.7294921798597512e+18,-0.019787834957242012,-0.006970270071178675,0.11929500848054886
1.7294921798657513e+18,-0.022978411987423897,-0.007937855087220669,0.11909221857786179
1.7294921798747515e+18,-0.018483638763427734,-0.010432127863168716,0.11957551538944244
1.7294921798807516e+18,-0.021664408966898918,-0.008658893406391144,0.11966776102781296
1.7294921798897518e+18,-0.016096442937850952,-0.007408402860164642,0.11939474940299988
1.729492179898752e+18,-0.015835370868444443,-0.007767937146127224,0.12362584471702576
1.729492179904752e+18,-0.01386291068047285,-0.005319520831108093,0.12142953276634216
1.7294921799137523e+18,-0.01585131697356701,-0.0035021777730435133,0.11976327002048492
1.7294921799227525e+18,-0.018065407872200012,-0.008389951661229134,0.124981589615345
1.7294921799317527e+18,-0.019391288980841637,-0.007914253510534763,0.12530897557735443
1.729492179940753e+18,-0.023388367146253586,-0.0052552735432982445,0.1285715401172638
1.729492179949753e+18,-0.02212744578719139,-0.008762580342590809,0.12479346245527267
1.7294921799557532e+18,-0.020334333181381226,-0.005509944632649422,0.12349732220172882
1.7294921799647534e+18,-0.019476646557450294,-0.00861666165292263,0.1262253224849701
1.7294921799707535e+18,-0.019185658544301987,-0.008998250588774681,0.12572675943374634
1.7294921799797537e+18,-0.018657198175787926,-0.008907375857234001,0.12400425225496292
1.7294921799857539e+18,-0.020294934511184692,-0.01139136590063572,0.12442579865455627
1.729492179994754e+18,-0.019639672711491585,-0.008221060037612915,0.12560930848121643
1.7294921800007542e+18,-0.024231072515249252,-0.012246247380971909,0.12616336345672607
1.7294921800097544e+18,-0.022888801991939545,-0.009826757945120335,0.12805302441120148
1.7294921800187546e+18,-0.020894180983304977,-0.00728646432980895,0.12423311918973923
1.7294921800277548e+18,-0.021946916356682777,-0.010624556802213192,0.12428770214319229
1.729492180036755e+18,-0.018775511533021927,-0.008823525160551071,0.12544572353363037
1.729492180042755e+18,-0.0168850626796484,-0.007795651908963919,0.12498289346694946
1.7294921800517553e+18,-0.017690572887659073,-0.00595242902636528,0.12188301980495453
1.7294921800607555e+18,-0.017339464277029037,-0.009120509028434753,0.12413105368614197
1.7294921800697556e+18,-0.01867225393652916,-0.005343107972294092,0.12307431548833847
1.7294921800787558e+18,-0.019335344433784485,-0.005566838197410107,0.12307967990636826
1.729492180084756e+18,-0.021685251966118813,-0.005927296355366707,0.12026245146989822
1.7294921800937562e+18,-0.01691734977066517,-0.0055333757773041725,0.1201743334531784
1.7294921801027564e+18,-0.010501754470169544,-0.009495892561972141,0.11985109001398087
1.7294921801087565e+18,-0.012467507272958755,-0.00799070205539465,0.11937367916107178
1.7294921801177567e+18,-0.0156327523291111,-0.008781052194535732,0.11709406226873398
1.7294921801267569e+18,-0.01063469983637333,-0.0068227872252464294,0.11351807415485382
1.729492180135757e+18,-0.01294733677059412,-0.006465731654316187,0.11325763911008835
1.7294921801417572e+18,-0.013718546368181705,-0.006469753570854664,0.11715538799762726
1.7294921801507574e+18,-0.015177587978541851,-0.006866347044706345,0.11162690073251724
1.7294921801597576e+18,-0.01657787151634693,-0.003357027191668749,0.11364279687404633
1.7294921801687578e+18,-0.017437726259231567,-0.00595909683033824,0.11016891896724701
1.729492180174758e+18,-0.014093473553657532,-0.005630364175885916,0.10907021164894104
1.729492180183758e+18,-0.009985054843127728,-0.006584703456610441,0.11027617007493973
1.7294921801927583e+18,-0.013684163801372051,-0.0034411048982292414,0.10731755197048187
1.7294921802017585e+18,-0.011680173687636852,-0.0048636929132044315,0.10577446967363358
1.7294921802107587e+18,-0.010354788973927498,-0.0021047487389296293,0.10212200880050659
1.7294921802167588e+18,-0.01132245548069477,-0.002453078282997012,0.10388248413801193
1.729492180225759e+18,-0.012739473022520542,-0.0020117084495723248,0.09760355204343796
1.7294921802347592e+18,-0.012456311844289303,-0.00434048380702734,0.10010869055986404
1.7294921802437594e+18,-0.012200766243040562,-0.004841589834541082,0.09741406887769699
1.7294921802497595e+18,-0.01192255225032568,-0.002732578432187438,0.09441252797842026
1.7294921802587597e+18,-0.01221512258052826,-0.007089963648468256,0.0956859141588211
1.7294921802677599e+18,-0.011538069695234299,-0.0060087693855166435,0.09280911833047867
1.72949218027376e+18,-0.012698302045464516,-0.0009603427024558187,0.0910111665725708
1.7294921802827602e+18,-0.014226388186216354,-0.002050050301477313,0.08790463209152222
1.7294921802917604e+18,-0.013359172269701958,-0.003876220900565386,0.08594109117984772
1.7294921802977605e+18,-0.00788248609751463,-0.003989618271589279,0.08345537632703781
1.7294921803067607e+18,-0.009009959176182747,-0.0036135686095803976,0.08343431353569031
1.7294921803127608e+18,-0.00786784291267395,-0.0027055619284510612,0.0838126540184021
1.729492180321761e+18,-0.007641295902431011,-0.0010378970764577389,0.08074245601892471
1.7294921803307612e+18,-0.005319417454302311,-0.0018005840247496963,0.07627398520708084
1.7294921803367613e+18,-0.010564388707280159,-0.002328051021322608,0.07639995217323303
1.7294921803457615e+18,-0.008615704253315926,-0.00471166055649519,0.07331661880016327
1.7294921803547617e+18,-0.01066234428435564,-0.0038371807895600796,0.07070460915565491
1.7294921803607619e+18,-0.01376169640570879,-0.00894040334969759,0.0674092024564743
1.729492180369762e+18,-0.024349704384803772,-0.02030293084681034,0.0668947696685791
1.7294921803787622e+18,-0.03781928867101669,-0.03184426575899124,0.06680791079998016
1.7294921803877624e+18,-0.055843647569417953,-0.038985222578048706,0.0646478459239006
1.7294921803937626e+18,-0.05698133632540703,-0.042026497423648834,0.06457259505987167
1.7294921804027628e+18,-0.060385145246982574,-0.042524561285972595,0.061092961579561234
1.729492180411763e+18,-0.05756955221295357,-0.04284992441534996,0.05679311230778694
1.7294921804207631e+18,-0.05979587137699127,-0.041537877172231674,0.05831874534487724
1.7294921804297633e+18,-0.05614868178963661,-0.046182554215192795,0.05950330197811127
1.7294921804357635e+18,-0.058946993201971054,-0.04569670930504799,0.056940559297800064
1.7294921804447636e+18,-0.05921749398112297,-0.04987029358744621,0.054416876286268234
1.7294921804507638e+18,-0.06639759242534637,-0.053618624806404114,0.05340440571308136
1.729492180459764e+18,-0.06959111243486404,-0.05621214956045151,0.054755330085754395
1.729492180465764e+18,-0.074691042304039,-0.05789415165781975,0.05195167660713196
1.7294921804747643e+18,-0.06794823706150055,-0.05374355614185333,0.05369460582733154
1.7294921804807644e+18,-0.06864599138498306,-0.051975805312395096,0.05152784660458565
1.7294921804897646e+18,-0.06087563559412956,-0.05184555798768997,0.05051431059837341
1.7294921804987648e+18,-0.051789335906505585,-0.043701522052288055,0.04764610901474953
1.729492180504765e+18,-0.048125676810741425,-0.04597485437989235,0.04769523814320564
1.729492180513765e+18,-0.04980132728815079,-0.04306619614362717,0.045061029493808746
1.7294921805227653e+18,-0.048130299896001816,-0.04597979038953781,0.049318425357341766
1.7294921805287654e+18,-0.05422905832529068,-0.04567724093794823,0.042299747467041016
1.7294921805377656e+18,-0.05633699148893356,-0.04626789689064026,0.04550708830356598
1.7294921805467658e+18,-0.05746059492230415,-0.04420970380306244,0.043771274387836456
1.729492180555766e+18,-0.04997136816382408,-0.03882411867380142,0.044621579349040985
1.7294921805617661e+18,-0.04601287096738815,-0.037049777805805206,0.04100572317838669
1.7294921805707663e+18,-0.03663063794374466,-0.02985542267560959,0.04021885246038437
1.7294921805767665e+18,-0.03130611032247543,-0.028920600190758705,0.04126323014497757
1.7294921805857667e+18,-0.027775121852755547,-0.027634955942630768,0.03709806874394417
1.7294921805917668e+18,-0.02880299650132656,-0.025771671906113625,0.04003134369850159
1.729492180600767e+18,-0.029647117480635643,-0.020448295399546623,0.03769836574792862
1.729492180606767e+18,-0.024086089804768562,-0.021207548677921295,0.035572998225688934
1.7294921806157673e+18,-0.02210959792137146,-0.021785138174891472,0.034058380872011185
1.7294921806217674e+18,-0.026007378473877907,-0.015785980969667435,0.0375632643699646
1.7294921806307676e+18,-0.023424990475177765,-0.013020692393183708,0.031262028962373734
1.7294921806367677e+18,-0.016687706112861633,-0.009785668924450874,0.031365569680929184
1.729492180645768e+18,-0.013748697005212307,-0.006856369785964489,0.03314102441072464
1.729492180651768e+18,-0.009775830432772636,-0.004542558919638395,0.03497929871082306
1.7294921806607683e+18,-0.0046337926760315895,-0.007838365621864796,0.03069552406668663
1.7294921806667684e+18,-0.0027620000764727592,-0.0058365496806800365,0.03284385800361633
1.7294921806757686e+18,-0.0034753424115478992,-0.001372297527268529,0.0324571393430233
1.7294921806817687e+18,0.0002716807648539543,-0.0004832217819057405,0.02716219052672386
1.729492180690769e+18,-0.007045436650514603,-0.0012851341161876917,0.029006576165556908
1.729492180699769e+18,-0.007956210523843765,0.004448949359357357,0.02846960537135601
1.7294921807057692e+18,-0.004625051282346249,0.001431928714737296,0.027177900075912476
1.7294921807147694e+18,-0.005609775427728891,0.001158472034148872,0.025829775258898735
1.7294921807207695e+18,-0.0025813833344727755,0.0022421677131205797,0.026592325419187546
1.7294921807297697e+18,0.002032581716775894,0.001373987877741456,0.02560655027627945
1.7294921807357699e+18,0.005652236752212048,0.0025744005106389523,0.024181652814149857
1.72949218074477e+18,0.007186513859778643,0.003815688891336322,0.024237988516688347
1.7294921807537702e+18,0.008540778420865536,0.006671820301562548,0.025712192058563232
1.7294921807597704e+18,0.008965179324150085,0.006860417313873768,0.025186266750097275
1.7294921807687706e+18,0.002849408658221364,0.008855597116053104,0.021708983927965164
1.7294921807777708e+18,0.004194631241261959,0.011745011433959007,0.020314496010541916
1.729492180783771e+18,0.0036948262713849545,0.007039502263069153,0.021164488047361374
1.729492180792771e+18,0.0037195866461843252,0.007960444316267967,0.020310623571276665
1.7294921808017713e+18,0.007371036801487207,0.009015784598886967,0.023564085364341736
1.7294921808107715e+18,0.010870510712265968,0.006954250857234001,0.019384972751140594
1.7294921808167716e+18,0.01402992568910122,0.01129363477230072,0.020107164978981018
1.7294921808257718e+18,0.011251760646700859,0.00856776349246502,0.019529197365045547
1.729492180834772e+18,0.009004159830510616,0.01083515677601099,0.019134875386953354
1.729492180840772e+18,0.009409172460436821,0.011043130420148373,0.014511153101921082
1.7294921808497723e+18,0.009916402399539948,0.010231099091470242,0.014052096754312515
1.7294921808557724e+18,0.007400136440992355,0.010263948701322079,0.018069814890623093
1.7294921808647726e+18,0.009610024280846119,0.010858927853405476,0.017785238102078438
1.7294921808737728e+18,0.01286981999874115,0.0111209312453866,0.015855668112635612
1.729492180879773e+18,0.011576521210372448,0.010200087912380695,0.01641668751835823
1.729492180888773e+18,0.010792184621095657,0.004327944479882717,0.014997967518866062
1.7294921808947732e+18,0.012255484238266945,0.0033893194049596786,0.014311037957668304
1.7294921809037734e+18,0.007706422358751297,0.002736674388870597,0.015684200450778008
1.7294921809127736e+18,0.0072265430353581905,0.003343071322888136,0.01195644773542881
1.7294921809187738e+18,0.01047186553478241,0.0029808662366122007,0.011584694497287273
1.729492180927774e+18,0.011378323659300804,0.006136209238320589,0.012515808455646038
1.729492180933774e+18,0.00868251919746399,0.006312864366918802,0.014316115528345108
1.7294921809427743e+18,0.01016927883028984,0.005607426632195711,0.012559888884425163
1.7294921809487744e+18,0.008821148425340652,0.007198430597782135,0.013171384111046791
1.7294921809577746e+18,0.011233141645789146,0.002775619737803936,0.010378682985901833
1.7294921809667748e+18,0.006999323610216379,0.004224161617457867,0.012516964226961136
1.729492180972775e+18,0.013332832604646683,0.002352435141801834,0.01218720804899931
1.729492180981775e+18,0.013552453368902206,0.00015598780009895563,0.011788466945290565
1.7294921809907753e+18,0.012251417152583599,0.0014557276153936982,0.011215870268642902
1.7294921809967754e+18,0.01680096425116062,0.004631643183529377,0.011837339028716087
1.7294921810057756e+18,0.015620949678122997,0.000761362025514245,0.01263326033949852
1.7294921810117757e+18,0.014754526317119598,0.005978514906018972,0.010801572352647781
1.729492181020776e+18,0.01509961485862732,0.006794409826397896,0.0110800014808774
1.7294921810297761e+18,0.01685810275375843,0.005439211148768663,0.007026055362075567
1.7294921810387763e+18,0.01808972656726837,0.0046949004754424095,0.00863084476441145
1.7294921810477765e+18,0.0173106137663126,0.004127848893404007,0.011425293050706387
1.7294921810567767e+18,0.01811731792986393,0.004198295995593071,0.007760064210742712
1.729492181065777e+18,0.017651662230491638,0.004918789491057396,0.007128718309104443
1.729492181074777e+18,0.021000443026423454,0.0057145399041473866,0.006219631060957909
1.7294921810807772e+18,0.018682431429624557,0.005927957594394684,0.00927624013274908
1.7294921810897774e+18,0.01764373481273651,0.007378633599728346,0.007871672511100769
1.7294921810957775e+18,0.021900996565818787,0.008585180155932903,0.006609559990465641
1.7294921811047777e+18,0.022694144397974014,0.009533719159662724,0.008245331235229969
1.7294921811107779e+18,0.01970822550356388,0.011052567511796951,0.005105312913656235
1.729492181119778e+18,0.020856985822319984,0.010325707495212555,0.004889404401183128
1.7294921811257782e+18,0.01947629638016224,0.010076049715280533,0.008159071207046509
1.7294921811347784e+18,0.021445633843541145,0.011949265375733376,0.005794368218630552
1.7294921811437786e+18,0.01916665770113468,0.009755079634487629,0.006899902131408453
1.7294921811527788e+18,0.018299534916877747,0.01147998496890068,0.005982462782412767
1.729492181161779e+18,0.01851293258368969,0.0067096068523824215,0.006032395176589489
1.7294921811707791e+18,0.01984243467450142,0.009237331338226795,0.0033821677789092064
1.7294921811767793e+18,0.02015184611082077,0.007485575973987579,0.006041277199983597
1.7294921811857795e+18,0.019607635214924812,0.00941305048763752,0.002977583557367325
1.7294921811947796e+18,0.023819349706172943,0.011331915855407715,0.0031725792214274406
1.7294921812037798e+18,0.024043487384915352,0.010108654387295246,0.001310412073507905
1.72949218121278e+18,0.019938940182328224,0.010032754391431808,0.007661023177206516
1.7294921812217802e+18,0.02353537455201149,0.009537391364574432,0.0017955976072698832
1.7294921812307804e+18,0.020246164873242378,0.010379311628639698,0.005535230040550232
1.7294921812397806e+18,0.02240147814154625,0.006868584081530571,0.004960613325238228
1.7294921812487808e+18,0.021633489057421684,0.005530545953661203,0.0031503967475146055
1.729492181254781e+18,0.026486733928322792,0.004936729557812214,0.0015965299680829048
1.729492181263781e+18,0.028024766594171524,0.005132253281772137,0.0025276492815464735
1.7294921812727813e+18,0.029226381331682205,0.005708971060812473,0.005360208451747894
1.7294921812787814e+18,0.03121970407664776,0.007533814758062363,0.0008554941741749644
1.7294921812967818e+18,0.03030487895011902,0.008267213590443134,0.0026068976148962975
1.729492181302782e+18,0.028347907587885857,0.010917465202510357,0.002740133786574006
1.7294921813117821e+18,0.031169820576906204,0.008942807093262672,0.002789456630125642
1.7294921813207823e+18,0.03390922024846077,0.008794641122221947,0.0009537707082927227
1.7294921813267825e+18,0.028788303956389427,0.003426037263125181,0.00037757493555545807
1.7294921813357827e+18,0.02939622476696968,0.008368344977498055,0.001466436660848558
1.7294921813417828e+18,0.029570305719971657,0.0033312132582068443,0.0006163463112898171
1.729492181350783e+18,0.02965846285223961,0.003800666658207774,-0.001131536322645843
1.729492181356783e+18,0.028506716713309288,0.012011672370135784,-0.0006279167137108743
1.7294921813657833e+18,0.026598447933793068,0.008628048934042454,0.002809251891449094
1.7294921813747835e+18,0.026283465325832367,0.009093662723898888,0.00346840126439929
1.7294921813807836e+18,0.029456276446580887,0.008167899213731289,0.0007895464659668505
1.7294921813897838e+18,0.028691262006759644,0.007039571180939674,0.0012228614650666714
1.729492181398784e+18,0.031804490834474564,0.009190721437335014,-0.0008686051005497575
1.729492181404784e+18,0.02938549965620041,0.007250627502799034,0.0015593874268233776
1.7294921814137843e+18,0.031142832711338997,0.008308203890919685,0.0009802498389035463
1.7294921814197844e+18,0.027266183868050575,0.008101244457066059,-0.001269354484975338
1.7294921814287846e+18,0.02892199158668518,0.011779190972447395,-0.0015021148137748241
1.7294921814347848e+18,0.0284571535885334,0.008276169188320637,-0.001233129994943738
1.729492181443785e+18,0.027352385222911835,0.009019129909574986,0.00035436172038316727
1.7294921814527852e+18,0.03315427526831627,0.011598153971135616,-0.002530342200770974
1.7294921814587853e+18,0.03420282527804375,0.010207589715719223,0.0018980535678565502
1.7294921814677855e+18,0.037392452359199524,0.008746367879211903,-0.0019720573909580708
1.7294921814767857e+18,0.03346117585897446,0.006715289317071438,0.0005987006588838995
1.7294921814827858e+18,0.035508956760168076,0.011616595089435577,-0.004653356038033962
1.729492181491786e+18,0.031499169766902924,0.011725283227860928,0.0014553888468071818
1.7294921815007862e+18,0.03364747390151024,0.010535966604948044,-0.003930049017071724
1.7294921815067863e+18,0.031767215579748154,0.01483115553855896,-0.0013851579278707504
1.7294921815157865e+18,0.03262512385845184,0.011111779138445854,0.00016072450671344995
1.7294921815217866e+18,0.03251904621720314,0.014504660852253437,-0.0017760352930054069
1.7294921815307868e+18,0.03207402303814888,0.012831924483180046,-0.0022055115550756454
1.729492181539787e+18,0.03364219889044762,0.01337932888418436,0.0009930767118930817
1.7294921815487872e+18,0.029117401689291,0.01036816742271185,-0.002943282015621662
1.7294921815577874e+18,0.030100926756858826,0.012650132179260254,-0.003110487014055252
1.7294921815697876e+18,0.030291462317109108,0.011925672180950642,-0.0003131384728476405
1.7294921815787878e+18,0.024996574968099594,0.014418873004615307,-0.0011128814658150077
1.729492181584788e+18,0.02648262493312359,0.014767436310648918,-0.005852479953318834
1.7294921815937882e+18,0.025505252182483673,0.010215852409601212,0.001073692925274372
1.7294921816027884e+18,0.027548465877771378,0.012596679851412773,-0.0025474370922893286
1.7294921816087885e+18,0.03002772480249405,0.013672553934156895,-0.0017448979197070003
1.7294921816237888e+18,0.03441774100065231,0.011481568217277527,-0.003969334997236729
1.729492181632789e+18,0.02780184894800186,0.012390182353556156,-0.0022335457615554333
1.7294921816417892e+18,0.030421676114201546,0.011889154091477394,-0.002214922569692135
1.7294921816507894e+18,0.02513132244348526,0.008469054475426674,0.00043980381451547146
1.7294921816597896e+18,0.023712284862995148,0.008649450726807117,-0.004029278177767992
1.7294921816717898e+18,0.02701628766953945,0.00797964259982109,-0.0044030724093317986
1.72949218168079e+18,0.02782321348786354,0.013537470251321793,-0.0037165284156799316
1.7294921816867901e+18,0.029230482876300812,0.01266411878168583,-0.004919236991554499
1.7294921816957903e+18,0.030720770359039307,0.014040729030966759,-0.0028357617557048798
1.7294921817047905e+18,0.027667345479130745,0.011886010877788067,-0.004048052243888378
1.7294921817137907e+18,0.028814801946282387,0.013008605688810349,-0.004100065678358078
1.729492181725791e+18,0.02780449390411377,0.00973497424274683,-0.005345203448086977
1.7294921817347912e+18,0.027317356318235397,0.010713096708059311,-0.003725246759131551
1.7294921817437914e+18,0.029691647738218307,0.009747877717018127,-0.004668903071433306
1.7294921817527916e+18,0.030923902988433838,0.010346854105591774,-0.00582349207252264
1.7294921817617917e+18,0.032997697591781616,0.011135123670101166,-0.0033649024553596973
1.729492181770792e+18,0.03707320615649223,0.013287991285324097,-0.003004914615303278
1.7294921817797921e+18,0.03511976823210716,0.010583050549030304,-0.003599864896386862
1.7294921817857923e+18,0.03546523302793503,0.01060275174677372,-0.0027158837765455246
1.7294921817947924e+18,0.032005902379751205,0.01089073158800602,-0.0006007167976349592
1.7294921818037926e+18,0.029461784288287163,0.010229022242128849,-0.006386189721524715
1.7294921818097928e+18,0.028930434957146645,0.007767110131680965,-0.004263354931026697
1.729492181818793e+18,0.030856965109705925,0.006091896910220385,-0.004040412604808807
1.7294921818277932e+18,0.029594924300909042,0.0053435517475008965,-0.0024580261670053005
1.7294921818337933e+18,0.030867287889122963,0.005092330276966095,-0.002927140798419714
1.7294921818427935e+18,0.03723941370844841,0.006711052730679512,-0.0030079397838562727
1.7294921818517937e+18,0.03782973811030388,0.007278002332895994,-0.006570844911038876
1.7294921818577938e+18,0.03470507264137268,0.008399881422519684,-0.0003362526185810566
1.729492181866794e+18,0.032182615250349045,0.008494329638779163,-0.005146699491888285
1.7294921818757942e+18,0.027902817353606224,0.00965023972094059,-0.002339255064725876
1.7294921818817943e+18,0.028373200446367264,0.007028758525848389,-0.0027545816265046597
1.7294921818907945e+18,0.023975031450390816,0.007416455540806055,-0.0038871420547366142
1.7294921818967946e+18,0.03126857802271843,0.0070763882249593735,-0.004392759408801794
1.7294921819057948e+18,0.03192630410194397,0.006966346874833107,-0.0034865671768784523
1.729492181914795e+18,0.03336379677057266,0.006079176906496286,-0.0046086120419204235
1.7294921819207951e+18,0.03539375960826874,0.008763828314840794,-0.005561697296798229
1.7294921819297953e+18,0.030826248228549957,0.009523707441985607,-0.003994737286120653
1.7294921819387955e+18,0.02735031582415104,0.00879674218595028,-0.003287307685241103
1.7294921819447956e+18,0.024361271411180496,0.0070045869797468185,-0.0027382210828363895
1.7294921819537958e+18,0.023270459845662117,0.009025322273373604,-0.004919501952826977
1.729492181959796e+18,0.02532900869846344,0.00871716346591711,-0.0063056545332074165
1.7294921819687962e+18,0.022011559456586838,0.007736873812973499,-0.0066291578114032745
1.7294921819747963e+18,0.023257378488779068,0.007615721318870783,-0.006400327198207378
1.7294921819837965e+18,0.031029775738716125,0.005753824487328529,-0.004091406706720591
1.7294921819927967e+18,0.026280172169208527,0.006815581116825342,-0.0026962226256728172
1.7294921819987968e+18,0.026763033121824265,0.00621923478320241,-0.0020224160980433226
1.729492182007797e+18,0.024863768368959427,0.007484073285013437,-0.0038652147632092237
1.7294921820167972e+18,0.021717870607972145,0.0066055720672011375,-0.006327355280518532
1.7294921820257974e+18,0.023400824517011642,0.005046539008617401,-0.003940025344491005
1.7294921820317975e+18,0.025071600452065468,0.00943580362945795,-0.005574344657361507
1.7294921820407977e+18,0.022199265658855438,0.005677562206983566,-0.0029313962440937757
1.729492182049798e+18,0.02795230783522129,0.007213398814201355,-0.006864795461297035
1.729492182055798e+18,0.029133407399058342,0.006670995615422726,-0.0054021659307181835
1.7294921820647982e+18,0.027948884293437004,0.006183258257806301,-0.003946483600884676
1.7294921820737984e+18,0.028008436784148216,0.00963984802365303,-0.004710569977760315
1.7294921820797985e+18,0.02460460737347603,0.009739297442138195,-0.004507720936089754
1.7294921820887987e+18,0.023919418454170227,0.01039929874241352,-0.0037976871244609356
1.7294921820947988e+18,0.021244360134005547,0.009837244637310505,-0.004291125573217869
1.729492182103799e+18,0.024886390194296837,0.006845089606940746,-0.004049598705023527
1.7294921821127992e+18,0.02413010783493519,0.009294301271438599,-0.004380354657769203
1.7294921821187994e+18,0.028098775073885918,0.008277875371277332,-0.005917360540479422
1.7294921821277996e+18,0.02634894661605358,0.010694451630115509,-0.005799115635454655
1.7294921821367997e+18,0.02784339338541031,0.008084473200142384,-0.004352687392383814
1.7294921821428e+18,0.02601351961493492,0.010708324611186981,-0.005072313826531172
1.7294921821518e+18,0.024662386626005173,0.0060046338476240635,-0.006187461316585541
1.7294921821608003e+18,0.02318742126226425,0.005876961629837751,-0.006808580830693245
1.7294921821698004e+18,0.022297779098153114,0.005430499091744423,-0.004498727153986692
1.7294921821788006e+18,0.022251470014452934,0.00495059322565794,-0.0043723369017243385
1.7294921821878008e+18,0.028123894706368446,0.008970438502728939,-0.008550252765417099
1.729492182193801e+18,0.023663219064474106,0.00726420059800148,-0.00550953671336174
1.7294921822028012e+18,0.02307981438934803,0.008177102543413639,-0.006175919435918331
1.7294921822118013e+18,0.02067543752491474,0.009211967699229717,-0.005349950864911079
1.7294921822178015e+18,0.021255258470773697,0.00494919391348958,-0.006805630400776863
1.7294921822268017e+18,0.02230079472064972,0.006678354926407337,-0.0046555963344872
1.7294921822358019e+18,0.017201466485857964,0.008280603215098381,-0.005562969949096441
1.729492182244802e+18,0.019631201401352882,0.005210195668041706,-0.004746049176901579
1.7294921822538022e+18,0.016808561980724335,0.009289258159697056,-0.006089692935347557
1.7294921822628024e+18,0.018630467355251312,0.012676368467509747,-0.0029626258183270693
1.7294921822688026e+18,0.017487814649939537,0.010292654857039452,-0.0054249949753284454
1.7294921822778028e+18,0.017700210213661194,0.011759752407670021,-0.00612964341416955
1.729492182286803e+18,0.016420546919107437,0.009987972676753998,-0.002918215934187174
1.729492182292803e+18,0.01571040414273739,0.006627350114285946,-0.0034519729670137167
1.7294921823018033e+18,0.016888663172721863,0.004135627765208483,-0.0050241281278431416
1.7294921823108035e+18,0.016342123970389366,0.00441137608140707,-0.002441775519400835
1.7294921823168036e+18,0.01454673521220684,0.004241404123604298,-0.0027380650863051414
1.7294921823258038e+18,0.01511250901967287,0.009480191394686699,-0.005909533239901066
1.729492182334804e+18,0.016828162595629692,0.006168726831674576,-0.005909565836191177
1.7294921823438042e+18,0.01849675551056862,0.004389181267470121,-0.0060011837631464005
1.7294921823528044e+18,0.01458186935633421,0.006329136434942484,-0.008904121816158295
1.7294921823618045e+18,0.015442931093275547,0.009617602452635765,-0.004728253465145826
1.7294921823678047e+18,0.012109496630728245,0.00412749545648694,-0.004085807129740715
1.729492182379805e+18,0.009566416963934898,0.0056244549341499805,-0.006820240058004856
1.729492182385805e+18,0.006466307211667299,0.004672386217862368,-0.0019382357131689787
1.7294921823948052e+18,0.01198627520352602,0.004082944244146347,-0.004927349742501974
1.7294921824038054e+18,0.010979381389915943,0.008010348305106163,-0.0031513674184679985
1.7294921824128056e+18,0.01160522922873497,0.007109166122972965,-0.004948921035975218
1.7294921824218058e+18,0.012750467285513878,0.008160770870745182,-0.00379255716688931
1.729492182427806e+18,0.01228908821940422,0.008512102998793125,-0.004734465852379799
1.7294921824368061e+18,0.011472517624497414,0.010365942493081093,-0.0066343084909021854
1.7294921824458063e+18,0.010303499177098274,0.006678484845906496,-0.0050536650232970715
1.7294921824548065e+18,0.009799490682780743,0.00716227013617754,-0.0048635369166731834
1.7294921824638067e+18,0.011434157378971577,0.007057318929582834,-0.006128018721938133
1.729492182472807e+18,0.013543594628572464,0.005329507868736982,-0.0034041106700897217
1.729492182481807e+18,0.007056606933474541,0.006059193983674049,-0.005196078214794397
1.7294921824908073e+18,0.007568922825157642,0.006142574828118086,-0.0035454914905130863
1.7294921824968074e+18,0.0056709409691393375,0.006321972701698542,-0.005773710086941719
1.7294921825058076e+18,0.007512055337429047,0.0036234513390809298,-0.0066157057881355286
1.7294921825148078e+18,0.010212955996394157,0.006971239112317562,-0.006210485473275185
1.729492182523808e+18,0.009620883502066135,0.004026161972433329,-0.006631340365856886
1.7294921825328082e+18,0.010425434447824955,0.003740692511200905,-0.009039001539349556
1.7294921825418084e+18,0.005286860279738903,0.0030092820525169373,-0.0030769556760787964
1.7294921825478085e+18,0.002660798840224743,0.00153905781917274,-0.005492084659636021
1.7294921825568087e+18,0.0018642193172127008,0.004398366902023554,-0.00393493939191103
1.729492182568809e+18,0.0017289555398747325,0.0008558114059269428,-0.007139718160033226
1.7294921825778092e+18,0.004214562941342592,0.004760834388434887,-0.004860934801399708
1.7294921825868093e+18,0.007508580572903156,0.00360677158460021,-0.0036781118251383305
1.7294921825988096e+18,0.008601443842053413,0.0021056258119642735,-0.005067805759608746
1.7294921826078098e+18,0.0060318345203995705,6.078049773350358e-05,-0.003250052919611335
1.72949218261681e+18,-0.0003059247974306345,5.329964915290475e-05,-0.0032342197373509407
1.7294921826288102e+18,-0.0031966790556907654,-0.0007212930358946323,-0.007039391435682774
1.7294921826378104e+18,0.0004134079208597541,0.00023046304704621434,-0.0044249556958675385
1.7294921826468106e+18,0.0028555451426655054,-0.0002909819595515728,-0.005220477469265461
1.729492182658811e+18,0.0012427817564457655,0.0018815540242940187,-0.005250736605376005
1.729492182667811e+18,0.0007892689318396151,0.0038504689000546932,-0.005824485328048468
1.7294921826768113e+18,-0.000544984417501837,-0.0008402981329709291,-0.0014723283238708973
1.7294921826888115e+18,-0.002814321545884013,0.0011898116208612919,-0.0029389478731900454
1.7294921826978117e+18,-0.0023950303439050913,0.0012201751815155149,-0.003616943024098873
1.729492182706812e+18,-0.0006168237887322903,-0.0009868019260466099,-0.005360047332942486
1.7294921827188122e+18,-0.0020278282463550568,-0.0008731340640224516,-0.0026172716170549393
1.7294921827278124e+18,-0.0060591124929487705,-0.0027240333147346973,-0.002285898197442293
1.7294921827398126e+18,-0.005295064300298691,-0.0008583671879023314,-0.0008485210128128529
1.7294921827518129e+18,-0.0016570014413446188,-0.0028501844499260187,-0.003690124489367008
1.729492182760813e+18,-0.004169021733105183,-0.0005283219506964087,-0.00665108859539032
1.7294921827698132e+18,-0.0030667041428387165,-0.0030320468358695507,-0.005976510234177113
1.7294921827788134e+18,-0.002573933219537139,0.00018034607637673616,-0.0026745859067887068
1.7294921827878136e+18,-0.002871840726584196,-0.001392247504554689,-0.0038809417746961117
1.729492182799814e+18,-0.0054900161921978,0.0016053852159529924,-0.006564858835190535
1.7294921828118141e+18,-0.0007406957447528839,0.00032610789639875293,-0.003677789121866226
1.7294921828238144e+18,-0.0011354123707860708,-0.002251032507047057,-0.0028414269909262657
1.7294921828358147e+18,-0.0021387366577982903,-0.0014994145603850484,0.001469010952860117
1.729492182847815e+18,-0.004585579037666321,0.0016442558262497187,-0.005068495403975248
1.729492182856815e+18,-0.010712908580899239,-0.001339091220870614,-0.0021938818972557783
1.7294921828658153e+18,-0.009902472607791424,-0.0028442980255931616,-0.0044445255771279335
1.7294921828778156e+18,-0.010389482602477074,-0.0029614458326250315,-0.004822475835680962
1.7294921828868157e+18,-0.009835674427449703,0.0002478189708199352,-0.005393132567405701
1.729492182895816e+18,-0.008253232575953007,-0.00022487479145638645,-0.008769904263317585
1.7294921829078162e+18,-0.0049515413120388985,-0.0006645910325460136,-0.0022630891762673855
1.7294921829168164e+18,-0.007090700790286064,-0.0009148179669864476,-0.004681038670241833
1.7294921829258166e+18,-0.011605316773056984,0.0004947539418935776,-0.005817864090204239
1.7294921829348168e+18,-0.01369520928710699,-0.003881218144670129,-0.002433913527056575
1.729492182946817e+18,-0.013996117748320103,-0.0031338634435087442,-0.0027240896597504616
1.7294921829558172e+18,-0.012225337326526642,-0.0018682770896703005,-0.002948550973087549
1.7294921829648174e+18,-0.009934596717357635,0.0001653763756621629,-0.003373171202838421
1.7294921829768177e+18,-0.009679442271590233,0.0018190436530858278,-0.003507903078570962
1.729492182988818e+18,-0.010085545480251312,-0.0011135218665003777,-0.00375725026242435
1.7294921830008182e+18,-0.01355768833309412,-0.0040980433113873005,-0.0018000472337007523
1.7294921830128184e+18,-0.01885765977203846,-0.006089260336011648,-0.002370270900428295
1.7294921830248187e+18,-0.015504637733101845,-0.0005279396427795291,-0.004169759340584278
1.729492183033819e+18,-0.014781616628170013,0.00018763559637591243,-0.0027373437769711018
1.729492183042819e+18,-0.013141542673110962,-8.38667037896812e-05,-0.0013952741865068674
1.7294921830518193e+18,-0.01650792732834816,-0.0010177579242736101,-0.0065092770382761955
1.7294921830608195e+18,-0.01481673028320074,-0.0009874372044578195,-0.003033253364264965
1.7294921830698196e+18,-0.016760922968387604,0.0033035599626600742,-0.0060898978263139725
1.7294921830788198e+18,-0.01739545352756977,-0.0023792381398379803,-0.0029505775310099125
1.72949218308782e+18,-0.019054435193538666,-0.00391435157507658,-0.005484411958605051
1.7294921830968202e+18,-0.014736483804881573,-0.00208832323551178,-0.0007634754292666912
1.7294921831058204e+18,-0.013225873000919819,-0.0023953751660883427,-0.0017636858392506838
1.7294921831148206e+18,-0.009478738531470299,0.00063427968416363,-0.004856118466705084
1.7294921831238208e+18,-0.013177437707781792,0.002285731490701437,-0.005161220207810402
1.729492183132821e+18,-0.011656977236270905,0.0027335183694958687,-0.002260192297399044
1.7294921831418212e+18,-0.01648140139877796,0.0005994852399453521,-0.002680653939023614
1.7294921831478213e+18,-0.01950722374022007,-0.0009124195203185081,-0.0023545376025140285
1.7294921831568215e+18,-0.015562604181468487,0.0007930720457807183,-0.0034476935397833586
1.7294921831658217e+18,-0.0155617855489254,-0.0008069136529229581,-0.004375496879220009
1.729492183174822e+18,-0.017072618007659912,0.0003089131787419319,0.0010565752163529396
1.729492183180822e+18,-0.017232485115528107,-0.002161011565476656,-0.003375883447006345
1.7294921831898222e+18,-0.01506333239376545,-0.004086269531399012,-0.0012287453282624483
1.7294921831988224e+18,-0.016094129532575607,-0.000752820516936481,-0.003483386477455497
1.7294921832078226e+18,-0.01571931131184101,0.0006637707119807601,-0.0018112770048901439
1.7294921832168228e+18,-0.018319137394428253,0.002058030804619193,-0.004456039983779192
1.729492183225823e+18,-0.016825448721647263,0.0017490711761638522,-0.0033242041245102882
1.7294921832348232e+18,-0.02037145383656025,-0.002141296863555908,-0.0035472321324050426
1.7294921832438234e+18,-0.018784306943416595,-0.0008213295368477702,-0.006726006977260113
1.7294921832528236e+18,-0.02149176597595215,-0.0013033237773925066,-0.005449377465993166
1.7294921832618237e+18,-0.020036891102790833,-0.002969159744679928,-0.0030895560048520565
1.729492183273824e+18,-0.017368130385875702,-0.0008890553144738078,-0.003555089235305786
1.7294921832798241e+18,-0.01913660205900669,-0.002059431280940771,-0.0029123767744749784
1.7294921832888243e+18,-0.021564902737736702,-0.002567746676504612,-0.003861265257000923
1.7294921833008246e+18,-0.019733887165784836,-0.0003765516448765993,-0.004382912069559097
1.7294921833098248e+18,-0.0207435991615057,-0.0011175504187121987,-0.004920831881463528
1.729492183318825e+18,-0.024139201268553734,-7.275200914591551e-05,-0.004289032891392708
1.7294921833278252e+18,-0.019865458831191063,-0.000945418025366962,-0.004626130219548941
1.7294921833368253e+18,-0.019436556845903397,-0.0016405069036409259,-0.0015379934338852763
1.7294921833458255e+18,-0.01776650734245777,0.0018280406948179007,0.000118207186460495
1.7294921833548257e+18,-0.017861129716038704,0.0008822423405945301,-0.003427739953622222
1.729492183363826e+18,-0.019570177420973778,-0.004665830638259649,-0.0034883045591413975
1.729492183372826e+18,-0.021718407049775124,-0.0017856558552011847,-0.003340426366776228
1.7294921833818263e+18,-0.023715712130069733,-0.0021693678572773933,-0.0038892875891178846
1.7294921833908265e+18,-0.021139709278941154,-0.0008407514542341232,-0.002952157286927104
1.7294921833998267e+18,-0.020960252732038498,0.00021221954375505447,-0.005721425637602806
1.729492183408827e+18,-0.015765011310577393,-0.00025832385290414095,-0.00405625207349658
1.729492183417827e+18,-0.013931849971413612,-0.002463078359141946,-0.002463430631905794
1.7294921834268273e+18,-0.018903033807873726,-0.003667111974209547,-0.0014649295480921865
1.7294921834358275e+18,-0.02363608218729496,-0.0010708275949582458,-0.0028976770117878914
1.7294921834448276e+18,-0.02392876334488392,-0.004645817447453737,-0.0040270560421049595
1.7294921834508278e+18,-0.028882481157779694,-0.0033441237173974514,-0.0015542315086349845
1.729492183459828e+18,-0.024491598829627037,-0.0030012154020369053,-0.002180918585509062
1.7294921834688282e+18,-0.019561564549803734,-0.005103013943880796,-0.00416994234547019
1.7294921834778284e+18,-0.017831042408943176,-0.007243678905069828,-0.0011843466199934483
1.7294921834838285e+18,-0.013589219190180302,-0.004104387015104294,-0.00278673623688519
1.7294921834928287e+18,-0.016329478472471237,-0.003750944510102272,-0.0034150434657931328
1.7294921835018289e+18,-0.018816405907273293,-0.002343301195651293,-0.005361856892704964
1.729492183510829e+18,-0.018285539001226425,-0.002558391075581312,-0.005096957087516785
1.7294921835198292e+18,-0.021267687901854515,-0.003996473737061024,-0.001004133140668273
1.7294921835288294e+18,-0.02228204905986786,-0.003958879038691521,-0.002541744150221348
1.7294921835378296e+18,-0.018781602382659912,-0.006589481141418219,-0.003496611723676324
1.7294921835438298e+18,-0.020196344703435898,-0.005318122450262308,-0.002872165758162737
1.72949218355283e+18,-0.01842578314244747,-0.006511945277452469,-0.0020136123057454824
1.7294921835618301e+18,-0.017687328159809113,-0.0013237313833087683,-0.0033673879224807024
1.7294921835678303e+18,-0.015498019754886627,-0.0032073240727186203,-0.005911537911742926
1.7294921835768305e+18,-0.015385948121547699,-0.00039452267810702324,-0.001122708898037672
1.7294921835858307e+18,-0.018389815464615822,-0.0037403805181384087,-0.003629368729889393
1.7294921835918308e+18,-0.01701434701681137,-0.0022360808216035366,-0.0016037444584071636
1.729492183600831e+18,-0.020345496013760567,-0.0035826568491756916,-0.002230048179626465
1.729492183606831e+18,-0.02097843587398529,-0.005999483168125153,-0.003484228625893593
1.7294921836158313e+18,-0.021483289077878,-0.005487797781825066,-0.0021900262217968702
1.7294921836248315e+18,-0.020132629200816154,-0.007752722129225731,-0.0024221069179475307
1.7294921836308316e+18,-0.021094460040330887,-0.004729798994958401,-0.003093910403549671
1.7294921836398318e+18,-0.0205677580088377,-0.0036331447772681713,-0.0017906707944348454
1.729492183648832e+18,-0.0211636982858181,-0.0022516376338899136,-0.0027796144131571054
1.7294921836578322e+18,-0.024110734462738037,-0.0027604245115071535,-0.0021905717439949512
1.7294921836668324e+18,-0.023773668333888054,-0.00483282282948494,-0.0028643133118748665
1.7294921836728325e+18,-0.023387858644127846,-0.0020300503820180893,-0.0005572889931499958
1.7294921836818327e+18,-0.0276375450193882,-0.007003110833466053,-0.002279599430039525
1.729492183690833e+18,-0.02020268514752388,-0.004671159200370312,-0.005104611627757549
1.729492183699833e+18,-0.025828586891293526,-0.007552172988653183,-0.0036041918210685253
1.7294921837058332e+18,-0.022913938388228416,-0.004363477695733309,-0.004607236944139004
1.7294921837148334e+18,-0.02218237891793251,-0.0037574744783341885,-0.0024621300399303436
1.7294921837238336e+18,-0.022732336074113846,-0.006314911879599094,-0.0020002685487270355
1.7294921837298337e+18,-0.024544423446059227,-0.0011108480393886566,-0.0009685006225481629
1.729492183738834e+18,-0.02164064720273018,-0.005107808858156204,-0.001839746255427599
1.729492183747834e+18,-0.019289199262857437,-0.004641777835786343,-0.0008870189776644111
1.7294921837538342e+18,-0.019608356058597565,-0.0050636171363294125,-0.0029245810583233833
1.7294921837628344e+18,-0.02031329646706581,-0.004715781658887863,-0.0019850810058414936
1.7294921837718346e+18,-0.025080354884266853,-0.002666302490979433,-0.0025411900132894516
1.7294921837808348e+18,-0.024081379175186157,-0.0026810094714164734,-0.0007832538103684783
1.729492183786835e+18,-0.02279704436659813,-0.003190755844116211,-0.0006084905471652746
1.7294921837958351e+18,-0.02272029221057892,-0.0024282922968268394,-0.0024009053595364094
1.7294921838048353e+18,-0.017416540533304214,-0.003775605233386159,-0.0043718344531953335
1.7294921838138355e+18,-0.019774867221713066,-0.004755467176437378,-0.001950529869645834
1.7294921838228357e+18,-0.02062259055674076,-0.005190721247345209,-0.0017358423210680485
1.7294921838288358e+18,-0.018558010458946228,-0.002207839395850897,-0.0031110800337046385
1.729492183837836e+18,-0.0220499187707901,-0.004529738798737526,-0.0019314972450956702
1.7294921838438362e+18,-0.0242385845631361,-0.0037491428665816784,-0.002264890819787979
1.7294921838528364e+18,-0.022490661591291428,-0.0019549475982785225,-0.001528935506939888
1.7294921838618365e+18,-0.020987551659345627,-0.0009674795437604189,-0.00037380156572908163
1.7294921838678367e+18,-0.020141365006566048,-0.0028517059981822968,-0.0017346114618703723
1.7294921838768369e+18,-0.019609171897172928,-0.004786194302141666,-0.00302101974375546
1.729492183882837e+18,-0.021526575088500977,-0.005074686836451292,-0.0016518138581886888
1.7294921838918372e+18,-0.02007504552602768,-0.007583580911159515,-0.0028377787675708532
1.7294921838978373e+18,-0.02139229141175747,-0.008197132498025894,-0.002084511797875166
1.7294921839068375e+18,-0.023610446602106094,-0.005610298831015825,-0.0011363221565261483
1.7294921839158377e+18,-0.02389916591346264,-0.003984468523412943,-0.0019307907205075026
1.729492183924838e+18,-0.019218256697058678,-0.0051642050966620445,0.0006280627567321062
1.729492183933838e+18,-0.02457408607006073,-0.005233337637037039,-0.003771797753870487
1.7294921839428383e+18,-0.021548323333263397,-0.00633439002558589,-0.002166089368984103
1.7294921839518385e+18,-0.02325824648141861,-0.006396664306521416,-0.002334970748052001
1.7294921839608387e+18,-0.024345288053154945,-0.009532766416668892,-0.003794289194047451
1.7294921839698388e+18,-0.020353801548480988,-0.004377355799078941,-0.00024215737357735634
1.729492183975839e+18,-0.024746021255850792,-0.003911522217094898,-0.004245047457516193
1.7294921839848392e+18,-0.02159988507628441,-0.00223426497541368,-0.0019040197366848588
1.7294921839938394e+18,-0.020580720156431198,-0.01015383005142212,-0.004272622987627983
1.7294921839998395e+18,-0.020718228071928024,-0.009783614426851273,0.0006333452183753252
1.7294921840088397e+18,-0.023124724626541138,-0.006351654417812824,-0.001062398194335401
1.7294921840178399e+18,-0.022053077816963196,-0.008850498124957085,-0.0002974595408886671
1.72949218402684e+18,-0.023939311504364014,-0.0090102544054389,-0.0034133675508201122
1.7294921840358403e+18,-0.018906597048044205,-0.009587576612830162,0.0006452214438468218
1.7294921840418404e+18,-0.021076863631606102,-0.004035924095660448,-0.0040168436244130135
1.7294921840508406e+18,-0.016625847667455673,-0.004565543029457331,-0.002986490959301591
1.7294921840598408e+18,-0.013760935515165329,-0.004714243579655886,-0.0010438777972012758
1.729492184065841e+18,-0.01637677662074566,-0.006739326752722263,-0.004558133892714977
1.729492184074841e+18,-0.011296771466732025,-0.004887852817773819,-0.0003489159280434251
1.7294921840838413e+18,-0.01704631745815277,-0.005462639965116978,-0.005181298591196537
1.7294921840898414e+18,-0.015397518873214722,-0.005273743066936731,-0.001739724655635655
1.7294921840958415e+18,-0.016280945390462875,-0.00918177142739296,-0.002934854244813323
1.7294921841048417e+18,-0.020220883190631866,-0.004375717602670193,-0.002877095714211464
1.729492184113842e+18,-0.019336486235260963,-0.0028580399230122566,-0.002853389596566558
1.729492184119842e+18,-0.019450156018137932,-0.0046076993457973,0.0004765574121847749
1.7294921841288422e+18,-0.017350763082504272,-0.00489506172016263,-0.004086276516318321
1.7294921841348424e+18,-0.017133835703134537,-0.004028660245239735,-0.004665027372539043
1.7294921841438426e+18,-0.015797065570950508,-0.005452502053231001,-0.003414454869925976
1.7294921841528428e+18,-0.015118051320314407,-0.004365242086350918,-0.001067053759470582
1.729492184158843e+18,-0.016838671639561653,-0.005052455700933933,-0.0012576756998896599
1.729492184167843e+18,-0.02112392894923687,-0.006669183261692524,-0.002964229788631201
1.7294921841768433e+18,-0.019174475222826004,-0.008291598409414291,-0.00018338847439736128
1.7294921841828434e+18,-0.016362180933356285,-0.0071168821305036545,-0.0018273964524269104
1.7294921841918436e+18,-0.02060963399708271,-0.007460001856088638,-0.0020599951967597008
1.7294921841978437e+18,-0.016819732263684273,-0.0070878686383366585,-0.0023812190629541874
1.729492184209844e+18,-0.012060420587658882,-0.004536116495728493,-0.0026099460665136576
1.7294921842188442e+18,-0.0067887213081121445,-0.0046547106467187405,-0.0004458248149603605
1.7294921842248443e+18,-0.008467946201562881,-0.004630500450730324,-0.004202212672680616
1.7294921842338445e+18,-0.00993854459375143,-0.006377042271196842,-0.0027732490561902523
1.7294921842428447e+18,-0.007404612377285957,-0.00697037810459733,-0.0002034478820860386
1.7294921842488448e+18,-0.006798591464757919,-0.00813498254865408,-0.0033097700215876102
1.729492184257845e+18,-0.009150158613920212,-0.0033039753325283527,-0.0021252238657325506
1.7294921842668452e+18,-0.010907046496868134,-0.0034130604472011328,-0.0039543271996080875
1.7294921842728453e+18,-0.011626698076725006,-0.0006086720386520028,-0.002961796009913087
1.7294921842818455e+18,-0.011104951612651348,0.0013269197661429644,-0.0016870727995410562
1.7294921842908457e+18,-0.00832915399223566,-0.003830318571999669,-0.004072458948940039
1.729492184299846e+18,-0.010116729885339737,-0.0031730076298117638,0.0012564234202727675
1.729492184308846e+18,-0.007432366255670786,-0.0032586255110800266,-0.004154750145971775
1.7294921843178463e+18,-0.007498510181903839,-0.0020507676526904106,0.0010701343417167664
1.7294921843238464e+18,-0.005814275238662958,-0.0025274655781686306,-0.00254751555621624
1.7294921843328466e+18,-0.01130867563188076,-0.0006157626630738378,0.0012991795083507895
1.7294921843418468e+18,-0.014290252700448036,0.00015815277583897114,-0.0017934652278199792
1.729492184350847e+18,-0.01286346185952425,0.00037281750701367855,0.0016779581783339381
1.729492184356847e+18,-0.01660357043147087,-0.005223465152084827,0.00010850292164832354
1.7294921843658473e+18,-0.01257591973990202,-0.0014721282059326768,-0.0005914352368563414
1.7294921843748475e+18,-0.007054897956550121,-0.0010591247119009495,-0.0029704137705266476
1.7294921843838477e+18,-0.006157576106488705,-0.0020104963332414627,-0.0008406129782088101
1.7294921843898478e+18,-0.00866192951798439,-0.0069953566417098045,-0.00033811270259320736
1.729492184398848e+18,-0.008025486022233963,-0.007713012397289276,-0.0002945774467661977
1.7294921844078482e+18,-0.010823030956089497,-0.0033321515657007694,-0.0009467730415053666
1.7294921844168484e+18,-0.010464159771800041,-0.001644289935939014,-0.003215481759980321
1.7294921844258486e+18,-0.010570159181952477,0.0018471629591658711,-0.0010577363427728415
1.7294921844318487e+18,-0.011104526929557323,-0.0020269749220460653,-4.642095882445574e-05
1.729492184440849e+18,-0.009454285725951195,-0.005076136440038681,-0.0023074818309396505
1.729492184449849e+18,-0.007787840906530619,-0.005003820173442364,-0.0015759746311232448
1.7294921844588493e+18,-0.010263515636324883,-0.0027718860656023026,0.001453745411708951
1.7294921844678495e+18,-0.008054952137172222,-0.0032474433537572622,-0.0020731540862470865
1.7294921844768497e+18,-0.010292062535881996,-0.00353819178417325,-0.001580727519467473
1.7294921844828498e+18,-0.00896768644452095,3.53700015693903e-05,0.0008613821119070053
1.72949218449185e+18,-0.009780356660485268,-0.001437715720385313,-0.002796643413603306
1.7294921845008502e+18,-0.00888375099748373,-0.00393262691795826,-0.0006453373935073614
1.7294921845098504e+18,-0.008898100815713406,-0.005205770954489708,-0.0006990966503508389
1.7294921845158505e+18,-0.005067222751677036,-0.010340100154280663,-0.0011122538708150387
1.7294921845248507e+18,-0.0054524680599570274,-0.00423244945704937,-0.0004139685770496726
1.729492184533851e+18,-0.005635065957903862,-0.009941400960087776,-0.0010123022366315126
1.729492184539851e+18,-0.0005372518207877874,-0.007543456275016069,-0.0013184045674279332
1.7294921845488512e+18,-0.007894176058471203,-0.004306159447878599,-0.0026163263246417046
1.7294921845578514e+18,-0.006205517798662186,-0.005251804832369089,-0.0016540862852707505
1.7294921845668516e+18,-0.005952087230980396,-0.0055648633278906345,-0.0021019172854721546
1.7294921845728517e+18,-0.010201271623373032,-0.003976098727434874,-0.0009685056284070015
1.729492184581852e+18,-0.010402283631265163,-0.0048980917781591415,0.0003426667535677552
1.729492184590852e+18,-0.006002858281135559,-0.007045949809253216,-0.0004303139867261052
1.7294921845998523e+18,-0.0033025185111910105,-0.009704935364425182,-0.0016399339074268937
1.7294921846088525e+18,-0.003515897784382105,-0.006890853866934776,-0.001427824841812253
1.7294921846148526e+18,-0.00410850066691637,-0.00887095183134079,-0.004251150414347649
1.7294921846238528e+18,-0.0023810258135199547,-0.008602229878306389,-0.0016753502422943711
1.729492184632853e+18,9.204103844240308e-05,-0.011160294525325298,-0.0029128645546734333
1.729492184638853e+18,-0.0022872427944093943,-0.009379275143146515,-0.0006068408256396651
1.7294921846478533e+18,-0.0015311161987483501,-0.007369718514382839,-0.002671244088560343
1.7294921846568535e+18,0.002150803105905652,-0.005463020410388708,-0.001772133051417768
1.7294921846628536e+18,0.004696079529821873,-0.006839660927653313,-0.0015268122078850865
1.7294921846718538e+18,0.0036336565390229225,-0.007341871969401836,-0.001569909043610096
1.729492184680854e+18,0.00629369355738163,-0.006106351036578417,-0.002227259334176779
1.7294921846898542e+18,0.005582125391811132,-0.006695269141346216,-0.005529683083295822
1.7294921846958543e+18,0.0032116463407874107,-0.004433325491845608,-0.0019293875666335225
1.7294921847048545e+18,0.0013872131239622831,-0.006477933377027512,-0.0015579330502077937
1.7294921847138547e+18,0.003211145754903555,-0.005485400557518005,0.0016389049123972654
1.7294921847198548e+18,0.0005105435848236084,-0.0033084547612816095,-0.0015491025988012552
1.729492184728855e+18,0.0009162357309833169,-0.0007018756587058306,-0.0053009334951639175
1.7294921847348552e+18,0.0019164644181728363,-0.0014803705271333456,-0.0014499792596325278
1.7294921847438554e+18,-0.0014446554705500603,-0.0022384892217814922,-0.0035209949128329754
1.7294921847528556e+18,-0.004627124406397343,-0.004196989815682173,-0.0030383416451513767
1.7294921847618557e+18,0.0005806342232972383,-0.005447178613394499,-0.002844985108822584
1.7294921847678559e+18,0.000795775733422488,-0.00756143219769001,-0.002844284987077117
1.729492184776856e+18,0.0034452422987669706,-0.004061192739754915,-0.001836856477893889
1.7294921847828562e+18,0.007176127750426531,-0.004725474398583174,-0.0003237578785046935
1.7294921847918564e+18,0.00451654102653265,-0.003660281654447317,-0.0024518738500773907
1.7294921848008566e+18,0.001735598430968821,-0.001241742167621851,-0.0010056054452434182
1.7294921848068567e+18,0.0014609743375331163,-0.0010688728652894497,0.0003053179243579507
1.729492184815857e+18,-0.0015300355153158307,-0.002544962801039219,0.0026811067946255207
1.729492184824857e+18,-0.003312593325972557,-0.002551899291574955,-0.0033315042965114117
1.7294921848308572e+18,0.0018387571908533573,-0.0024068886414170265,-0.0018832869827747345
1.7294921848398574e+18,0.0037930901162326336,0.001838096184656024,-0.0005812258459627628
1.7294921848488576e+18,0.0041371677070856094,-0.0035541981924325228,-0.0007217926904559135
1.7294921848548577e+18,0.006274484097957611,-0.005032280460000038,-0.0014034307096153498
1.729492184863858e+18,0.006636215839534998,-0.001827759901061654,0.0008356042671948671
1.729492184872858e+18,0.002984569640830159,-0.0030243094079196453,-0.0012138101737946272
1.7294921848848584e+18,0.0043839276768267155,-0.0019374496769160032,-0.0002015950158238411
1.7294921848968586e+18,0.006711353547871113,-0.005094892345368862,-0.00460874754935503
1.7294921849058588e+18,0.007323435507714748,-0.0031775478273630142,-0.0036002802662551403
1.729492184911859e+18,0.00780276907607913,-0.00017499993555247784,0.00046996260061860085
1.7294921849208591e+18,0.005137208383530378,-0.002088726032525301,-0.0015860645798966289
1.7294921849298593e+18,0.0073700835928320885,-0.0018714398611336946,-0.0013698512921109796
1.7294921849358595e+18,0.0049680802039802074,-0.0030320486985147,-0.002456690650433302
1.7294921849478597e+18,0.005913922563195229,-0.004992413334548473,-0.002773293759673834
1.72949218495686e+18,0.004520453047007322,-0.004671251866966486,-0.00040285009890794754
1.72949218496586e+18,0.006405122112482786,-0.0038893907330930233,-0.0014501874102279544
1.7294921849748603e+18,0.0076040420681238174,-0.002514227759093046,-0.00046674907207489014
1.7294921849808604e+18,0.005361668765544891,-0.004584160167723894,-0.0014529227046296
1.7294921849898606e+18,0.011068245396018028,-0.0038342736661434174,-0.005570694804191589
1.7294921849958607e+18,0.009750151075422764,-0.0013609395828098059,-0.0012985931243747473
1.729492185004861e+18,0.009410243481397629,0.0006021056324243546,-0.001957753673195839
1.729492185013861e+18,0.009332108311355114,-0.0035811983980238438,-0.0006235775072127581
1.7294921850198612e+18,0.009286301210522652,-0.0008132031070999801,-0.003072379855439067
1.7294921850288614e+18,0.011205450631678104,-0.0036615650169551373,-0.0005660462775267661
1.7294921850378616e+18,0.013053268194198608,0.000602952903136611,-0.0015409410698339343
1.7294921850438618e+18,0.00924140028655529,-0.00023709854576736689,-0.0018822138663381338
1.729492185052862e+18,0.011847218498587608,-0.0021273959428071976,-0.00041485356632620096
1.7294921850618621e+18,0.006560178939253092,-0.0015419743722304702,-0.004520455375313759
1.7294921850678623e+18,0.008872680366039276,-0.0020527876913547516,-0.0020695056300610304
1.7294921850768625e+18,0.004822597838938236,-0.0022369050420820713,-0.0001726351911202073
1.7294921850828626e+18,0.008520440198481083,0.0002539271954447031,-0.0036548469215631485
1.7294921850918628e+18,0.007913115434348583,-0.0018984663765877485,0.0011526281014084816
1.729492185097863e+18,0.010664710775017738,-0.0009075085399672389,-0.0006365289445966482
1.729492185106863e+18,0.008839811198413372,-0.00039733608718961477,-0.0038526118732988834
1.7294921851158633e+18,0.0059967669658362865,-0.0012576542794704437,-0.0003717869985848665
1.7294921851218634e+18,0.0072469389997422695,0.0012999309692531824,-5.4600764997303486e-05
1.7294921851308636e+18,0.007607458624988794,0.00023037090431898832,-0.0037825361359864473
1.7294921851398638e+18,0.007631204556673765,0.0031888135708868504,-0.002714394824579358
1.729492185148864e+18,0.006860027555376291,0.0006085939821787179,-0.0035676644183695316
1.7294921851578642e+18,0.0056964680552482605,0.002042568987235427,-0.0010935282334685326
1.7294921851668644e+18,0.007823934778571129,0.0007412855047732592,-0.0013025656808167696
1.7294921851758646e+18,0.006721208803355694,0.005373727530241013,-0.001176450401544571
1.7294921851848648e+18,0.007824664935469627,0.0032643619924783707,-0.002015414647758007
1.729492185196865e+18,0.012815400026738644,0.004847534000873566,-0.0032186629250645638
1.7294921852058652e+18,0.007650074549019337,0.0018212242284789681,-0.0035255770199000835
1.7294921852118653e+18,0.008785057812929153,0.0010893885046243668,-0.0014168134657666087
1.7294921852208655e+18,0.010698403231799603,0.0016750232316553593,-0.0004861664492636919
1.7294921852298657e+18,0.006762536242604256,7.495586760342121e-05,-0.0010329161304980516
1.729492185238866e+18,0.007407438941299915,0.0030066263861954212,-0.003119753673672676
1.729492185247866e+18,0.006677714642137289,0.001989088486880064,-0.0027358033694326878
1.7294921852538662e+18,0.010324953123927116,0.004277647472918034,-0.002872300799936056
1.7294921852628664e+18,0.0072241369634866714,0.0010576265631243587,-0.0021794659551233053
1.7294921852718666e+18,0.010091019794344902,-0.0007165690185502172,-0.0031799403950572014
1.7294921852778668e+18,0.008094806224107742,-0.0015049604699015617,-0.0008133348310366273
1.729492185286867e+18,0.008889799937605858,-0.00036474852822721004,-0.0007915410678833723
1.7294921852988672e+18,0.012218564748764038,-0.0025301440618932247,0.002083317842334509
1.7294921853078674e+18,0.011565074324607849,0.00033638474997133017,-0.001476061879657209
1.7294921853138675e+18,0.011267099529504776,0.0026685884222388268,-0.0035896047484129667
1.7294921853228677e+18,0.012090001255273819,0.0027677041944116354,-0.00224347785115242
1.729492185331868e+18,0.011484231799840927,0.0014632418751716614,-0.00012696953490376472
1.729492185340868e+18,0.010978654958307743,-0.0036247738171368837,-0.001243839506059885
1.7294921853498683e+18,0.008404217660427094,0.00034715409856289625,-0.004513717256486416
1.7294921853588685e+18,0.013002658262848854,0.0009579501347616315,0.0010280422866344452
1.7294921853678687e+18,0.011133627034723759,0.0040430836379528046,0.0007151596946641803
1.7294921853768689e+18,0.014873177744448185,0.00300409784540534,-0.00016642763512209058
1.729492185382869e+18,0.013850283809006214,-0.0006055209087207913,-0.0018527272623032331
1.7294921853918692e+18,0.011607670225203037,0.0009699282236397266,-0.0024843518622219563
1.7294921854008694e+18,0.011583658866584301,0.000709750282112509,-0.001092307735234499
1.7294921854068695e+18,0.010344861075282097,0.00023125146981328726,-0.0011175447143614292
1.7294921854158697e+18,0.012389582581818104,-0.0025731977075338364,-0.0019958014599978924
1.7294921854218698e+18,0.01516385842114687,-0.00030344066908583045,-0.0041046300902962685
1.72949218543087e+18,0.014714065939188004,0.0005611426895484328,0.0006289596203714609
1.7294921854398702e+18,0.014656057581305504,0.0006379036349244416,0.0005628109211102128
1.7294921854458703e+18,0.012251880951225758,-0.0010857842862606049,0.001706878188997507
1.7294921854548705e+18,0.012524278834462166,0.00023835129104554653,0.0017388392006978393
1.7294921854608707e+18,0.01145687885582447,-0.0021940344013273716,-0.0003565454971976578
1.7294921854698708e+18,0.012795149348676205,-0.0028828559443354607,-0.00253319856710732
1.729492185478871e+18,0.0637127235531807,0.04051581397652626,-0.0013572219759225845
1.7294921854848712e+18,0.38675689697265625,0.298758864402771,-0.009479762986302376
1.7294921854938714e+18,1.056817889213562,0.8358266353607178,-0.020077861845493317
1.7294921854998715e+18,1.5432467460632324,1.2069485187530518,-0.02873750403523445
1.7294921855088717e+18,2.314836025238037,1.6819926500320435,-0.04130755737423897
1.7294921855178719e+18,2.9189178943634033,1.9227083921432495,-0.05711532384157181
1.729492185526872e+18,3.1827356815338135,1.9183719158172607,-0.07665441185235977
1.7294921855358723e+18,3.171945095062256,1.7882541418075562,-0.09330268949270248
1.7294921855448724e+18,3.01694393157959,1.65964937210083,-0.11002561450004578
1.7294921855508726e+18,2.931631565093994,1.6227352619171143,-0.11990619450807571
1.7294921855598728e+18,2.9131510257720947,1.6636635065078735,-0.13421858847141266
1.729492185568873e+18,3.0421388149261475,1.7709355354309082,-0.14747768640518188
1.7294921855778732e+18,3.2401983737945557,1.86313796043396,-0.1606435477733612
1.7294921855838733e+18,3.3255159854888916,1.8806476593017578,-0.17659416794776917
1.7294921855958735e+18,3.287391424179077,1.7785745859146118,-0.19248487055301666
1.7294921856048737e+18,3.0371553897857666,1.6089363098144531,-0.20813633501529694
1.7294921856108739e+18,2.8132219314575195,1.4862948656082153,-0.2149067521095276
1.729492185619874e+18,2.4860074520111084,1.3284666538238525,-0.22751811146736145
1.7294921856258742e+18,2.312962293624878,1.25199294090271,-0.23232708871364594
1.7294921856348744e+18,2.1830458641052246,1.1903475522994995,-0.24474845826625824
1.7294921856438746e+18,2.1415207386016846,1.1463971138000488,-0.250444233417511
1.7294921856498747e+18,2.131643295288086,1.1099170446395874,-0.2573414444923401
1.729492185658875e+18,2.069011926651001,1.0335780382156372,-0.26543402671813965
1.729492185664875e+18,1.9657434225082397,0.956279993057251,-0.26805490255355835
1.7294921856738752e+18,1.725167989730835,0.8191665410995483,-0.2751978635787964
1.7294921856828754e+18,1.4309186935424805,0.675061047077179,-0.28264060616493225
1.7294921856918756e+18,1.1574920415878296,0.5535640120506287,-0.2846682071685791
1.7294921856978757e+18,1.0133260488510132,0.4885897636413574,-0.29071712493896484
1.729492185706876e+18,0.8841434121131897,0.4079163670539856,-0.2918756306171417
1.729492185715876e+18,0.8222215175628662,0.34326082468032837,-0.2965086102485657
1.7294921857248763e+18,0.7689585089683533,0.2785893976688385,-0.2955757677555084
1.7294921857308764e+18,0.7233433127403259,0.23454466462135315,-0.2995385229587555
1.7294921857398766e+18,0.5928564071655273,0.15573978424072266,-0.3042890429496765
1.7294921857488768e+18,0.4243071377277374,0.07793751358985901,-0.3035365045070648
1.729492185754877e+18,0.29920053482055664,0.0274975448846817,-0.3041076362133026
1.729492185763877e+18,0.1311308890581131,-0.03698408603668213,-0.30411165952682495
1.7294921857728773e+18,0.008305955678224564,-0.09500454366207123,-0.3052179515361786
1.7294921857818775e+18,-0.053760506212711334,-0.1393929123878479,-0.3033141791820526
1.7294921857878776e+18,-0.07176504284143448,-0.16753125190734863,-0.3041614890098572
1.7294921857968778e+18,-0.08481572568416595,-0.20334826409816742,-0.30358514189720154
1.729492185805878e+18,-0.1091105118393898,-0.2320866733789444,-0.30343949794769287
1.7294921858118781e+18,-0.14532434940338135,-0.24884077906608582,-0.3029712736606598
1.7294921858208783e+18,-0.22232700884342194,-0.27377578616142273,-0.30019399523735046
1.7294921858298785e+18,-0.3139019310474396,-0.297259658575058,-0.300121933221817
1.7294921858358787e+18,-0.3720893859863281,-0.3191906213760376,-0.2993156909942627
1.7294921858448788e+18,-0.4404028654098511,-0.34702828526496887,-0.2952703833580017
1.729492185853879e+18,-0.4812363088130951,-0.3710588812828064,-0.29646772146224976
1.7294921858598792e+18,-0.48455074429512024,-0.38226285576820374,-0.29657524824142456
1.7294921858688794e+18,-0.47573035955429077,-0.3943462073802948,-0.2935561239719391
1.7294921858778796e+18,-0.4682001769542694,-0.39795178174972534,-0.28866735100746155
1.7294921858838797e+18,-0.4704000949859619,-0.4035130441188812,-0.28631022572517395
1.72949218589288e+18,-0.4918746054172516,-0.4053567051887512,-0.2824675440788269
1.72949218590188e+18,-0.5283496379852295,-0.4054427742958069,-0.2802315652370453
1.7294921859078802e+18,-0.5464491844177246,-0.40570130944252014,-0.27640417218208313
1.7294921859168804e+18,-0.5688257813453674,-0.40798306465148926,-0.27440983057022095
1.7294921859258806e+18,-0.5674288868904114,-0.4044981002807617,-0.2728012502193451
1.7294921859318807e+18,-0.5489485263824463,-0.4026631712913513,-0.26901766657829285
