timestamp,accel_x,accel_y,accel_z
1.7294961897932946e+18,-0.04919198900461197,-0.04482162743806839,-9.868268966674805
1.7294961898022948e+18,0.006136675365269184,-0.0900927409529686,-9.870076179504395
1.729496189811295e+18,0.03428037837147713,0.039514705538749695,-9.735645294189453
1.7294961898202952e+18,-0.015755383297801018,0.035402677953243256,-9.817802429199219
1.7294961898292954e+18,0.04707831144332886,-0.013447346165776253,-9.810659408569336
1.7294961898352955e+18,-0.017727961763739586,0.025423740968108177,-9.802088737487793
1.7294961898442957e+18,-0.015132973901927471,-0.022667614743113518,-9.768010139465332
1.7294961898502958e+18,-0.013329530134797096,0.03318000212311745,-9.803832054138184
1.729496189859296e+18,0.010899622924625874,-0.03900100663304329,-9.784843444824219
1.7294961898682962e+18,0.00567384110763669,0.04722253605723381,-9.77676773071289
1.7294961898742963e+18,0.02406216226518154,-0.019541410729289055,-9.759146690368652
1.7294961898832965e+18,0.01660866290330887,0.0180151779204607,-9.799818992614746
1.7294961898892966e+18,-0.029918773099780083,0.09086018055677414,-9.860705375671387
1.7294961898982968e+18,-0.015098356641829014,0.030148711055517197,-9.789223670959473
1.729496189907297e+18,0.012671487405896187,-0.028671855106949806,-9.806451797485352
1.7294961899132972e+18,-0.00048292684368789196,-0.04258309677243233,-9.760255813598633
1.7294961899222973e+18,-0.05369369685649872,-0.06535959988832474,-9.79823112487793
1.7294961899312975e+18,0.0008740611956454813,0.022966913878917694,-9.766192436218262
1.7294961899372977e+18,-0.02460184507071972,0.06605715304613113,-9.81414794921875
1.7294961899462979e+18,-0.06696561723947525,-0.04107064753770828,-9.782149314880371
1.729496189952298e+18,-0.029932454228401184,-0.01829363778233528,-9.805990219116211
1.7294961899612982e+18,-0.06248828023672104,0.045183490961790085,-9.892616271972656
1.7294961899702984e+18,-0.014502000994980335,-0.02405061572790146,-9.871596336364746
1.7294961899762985e+18,0.02169930934906006,-0.02540266141295433,-9.868770599365234
1.7294961899852987e+18,0.01180721540004015,-0.0232117660343647,-9.83268928527832
1.7294961899912988e+18,-0.007805355824530125,-0.025229981169104576,-9.795127868652344
1.729496190000299e+18,-0.007361136376857758,-0.011455433443188667,-9.792326927185059
1.7294961900062991e+18,-0.02540050446987152,0.014140186831355095,-9.7924222946167
1.7294961900152993e+18,0.017845427617430687,-0.02836085855960846,-9.743936538696289
1.7294961900212995e+18,0.039086729288101196,-0.0870753675699234,-9.837879180908203
1.7294961900302996e+18,-0.07924745231866837,-0.028788015246391296,-9.836050033569336
1.7294961900392998e+18,0.0003989138058386743,-0.012024711817502975,-9.761825561523438
1.7294961900483e+18,-0.028661362826824188,0.005405670963227749,-9.807454109191895
1.7294961900543002e+18,0.029140302911400795,0.02085406333208084,-9.78711223602295
1.7294961900633004e+18,-0.04765871539711952,-0.04319722577929497,-9.90082836151123
1.7294961900693005e+18,-0.017953095957636833,0.07392063736915588,-9.809532165527344
1.7294961900783007e+18,0.0016651643672958016,0.0034330529160797596,-9.825844764709473
1.7294961900873009e+18,-0.0633973777294159,0.010658716782927513,-9.784028053283691
1.729496190093301e+18,0.022008057683706284,-0.007214344572275877,-9.873727798461914
1.7294961901023012e+18,0.0021171008702367544,-0.020259911194443703,-9.82311725616455
1.7294961901113014e+18,-0.040243666619062424,0.057574108242988586,-9.80494213104248
1.7294961901173015e+18,-0.028262685984373093,0.06255178898572922,-9.82391357421875
1.7294961901263017e+18,0.05991601198911667,0.12071096897125244,-9.807211875915527
1.729496190135302e+18,-0.11761768907308578,0.013014121912419796,-9.897490501403809
1.729496190141302e+18,0.04530812427401543,0.0562792532145977,-9.807668685913086
1.7294961901503022e+18,-0.05570068955421448,-0.04334833845496178,-9.769091606140137
1.7294961901593024e+18,-0.02125009149312973,0.011538623832166195,-9.836063385009766
1.7294961901653025e+18,0.035097796469926834,-0.00866871327161789,-9.843134880065918
1.7294961901743027e+18,0.028476232662796974,0.05236589536070824,-9.825302124023438
1.7294961901803028e+18,0.019760699942708015,-0.0045153736136853695,-9.827776908874512
1.729496190189303e+18,0.01468844898045063,-0.013126949779689312,-9.846542358398438
1.7294961901983032e+18,0.06057032570242882,0.0724363848567009,-9.819462776184082
1.7294961902043034e+18,-0.009989642538130283,-0.059127114713191986,-9.816329002380371
1.7294961902133036e+18,0.030138783156871796,-0.05182858929038048,-9.736516952514648
1.7294961902223037e+18,-0.03409900888800621,0.0753636434674263,-9.822455406188965
1.729496190228304e+18,0.008953210897743702,0.02835918962955475,-9.763175964355469
1.729496190237304e+18,-0.05905193090438843,-0.01988089829683304,-9.732492446899414
1.7294961902463043e+18,0.03211527317762375,-0.02560388296842575,-9.821611404418945
1.7294961902553044e+18,-0.06327524036169052,0.04649108648300171,-9.787466049194336
1.7294961902643046e+18,0.03210962563753128,0.05797990784049034,-9.797587394714355
1.7294961902703048e+18,-0.04545982554554939,-0.006268584635108709,-9.815282821655273
1.729496190279305e+18,-0.000587599293794483,-0.103573277592659,-9.768234252929688
1.7294961902883052e+18,-0.001321645569987595,0.0010899630142375827,-9.802484512329102
1.7294961902973053e+18,0.014179278165102005,0.03493468835949898,-9.780373573303223
1.7294961903033055e+18,0.03595725819468498,0.08430632948875427,-9.87629222869873
1.7294961903123057e+18,0.010578114539384842,0.03647468984127045,-9.809823989868164
1.7294961903213059e+18,0.010262588039040565,-0.09143698215484619,-9.813708305358887
1.729496190327306e+18,-0.031184639781713486,0.052423495799303055,-9.806046485900879
1.7294961903363062e+18,-0.0345877967774868,0.03832760080695152,-9.78500747680664
1.7294961903423063e+18,0.040735162794589996,-0.03304104879498482,-9.78690242767334
1.7294961903513065e+18,0.036835938692092896,0.03307809680700302,-9.785660743713379
1.7294961903603067e+18,-0.02036009356379509,-0.037802550941705704,-9.86363697052002
1.7294961903663068e+18,-0.04002804681658745,0.008884785696864128,-9.877579689025879
1.729496190375307e+18,0.07424895465373993,-0.011978630907833576,-9.772392272949219
1.7294961903843072e+18,0.039623577147722244,-0.09853912144899368,-9.849115371704102
1.7294961903903073e+18,0.015370198525488377,-0.015120407566428185,-9.822662353515625
1.7294961903993075e+18,0.03540622815489769,0.01787707582116127,-9.789268493652344
1.7294961904053076e+18,0.031268782913684845,-0.04765475541353226,-9.740517616271973
1.7294961904143078e+18,-0.025083491578698158,0.05609310418367386,-9.84146785736084
1.729496190423308e+18,0.024056438356637955,-0.03951505571603775,-9.763608932495117
1.7294961904293082e+18,-0.0015561900800094008,0.02758544683456421,-9.857006072998047
1.7294961904383084e+18,0.0666745975613594,-0.032471057027578354,-9.829381942749023
1.7294961904443085e+18,-0.053336940705776215,-0.043398384004831314,-9.860771179199219
1.7294961904533087e+18,0.01756216213107109,0.06501344591379166,-9.788208961486816
1.7294961904623089e+18,-0.07339800149202347,0.015534855425357819,-9.784435272216797
1.729496190468309e+18,-0.028045082464814186,0.010359642095863819,-9.795180320739746
1.7294961904773092e+18,-0.07478506863117218,-0.0005735553568229079,-9.839313507080078
1.7294961904833093e+18,0.06969722360372543,0.043929871171712875,-9.765244483947754
1.7294961904923095e+18,0.09220020473003387,0.014987950213253498,-9.76577377319336
1.7294961905013097e+18,0.0069624921306967735,0.0032918977085500956,-9.842967987060547
1.72949619051031e+18,0.05296751484274864,0.026218002662062645,-9.829421043395996
1.72949619051631e+18,-0.008766974322497845,-0.0536031611263752,-9.850542068481445
1.7294961905253102e+18,-0.010152708739042282,-0.09046056866645813,-9.76369857788086
1.7294961905313103e+18,0.029617229476571083,-0.008951266296207905,-9.84619140625
1.7294961905403105e+18,0.06785571575164795,0.02811683900654316,-9.793943405151367
1.7294961905493107e+18,-0.09563009440898895,0.02118392288684845,-9.793513298034668
1.7294961905553108e+18,0.03650607913732529,-0.06327452510595322,-9.806169509887695
1.729496190564311e+18,-0.022282319143414497,-0.023648153990507126,-9.763611793518066
1.7294961905703112e+18,0.004463444463908672,0.03369760885834694,-9.798949241638184
1.7294961905793114e+18,-0.03696060553193092,-0.03620494157075882,-9.79162883758545
1.7294961905853115e+18,-0.028855139389634132,-0.01654786989092827,-9.807746887207031
1.7294961905943117e+18,-0.013068522326648235,-0.0027563231997191906,-9.847212791442871
1.7294961906003118e+18,-0.013381927274167538,-0.05335300415754318,-9.824251174926758
1.729496190609312e+18,-0.006896436680108309,0.003358428366482258,-9.8737154006958
1.7294961906183122e+18,0.024138210341334343,0.036552295088768005,-9.755887985229492
1.7294961906243123e+18,-0.05415527895092964,-0.07633175700902939,-9.824080467224121
1.7294961906333125e+18,0.02404150925576687,-0.005761824082583189,-9.80664348602295
1.7294961906423127e+18,-0.03530101105570793,0.03500129282474518,-9.843363761901855
1.7294961906483128e+18,0.013221930712461472,0.07103396952152252,-9.883398056030273
1.729496190657313e+18,-0.0002935144875664264,-0.01543523371219635,-9.746631622314453
1.7294961906633132e+18,-0.01784672774374485,-0.03619863837957382,-9.92641544342041
1.7294961906723133e+18,0.007469535805284977,-0.045231178402900696,-9.789632797241211
1.7294961906813135e+18,-0.029894618317484856,-0.024200238287448883,-9.864625930786133
1.7294961906903137e+18,-0.02319626323878765,-0.02522238716483116,-9.816137313842773
1.7294961906963139e+18,0.04238363727927208,0.08684016764163971,-9.810433387756348
1.729496190705314e+18,0.02892478182911873,0.0002037212543655187,-9.79733943939209
1.7294961907113142e+18,0.03122037649154663,-0.02608346752822399,-9.746155738830566
1.7294961907203144e+18,-0.05300452560186386,-0.00036090207868255675,-9.866612434387207
1.7294961907263145e+18,-0.039579126983881,-0.013559249229729176,-9.790780067443848
1.7294961907353147e+18,0.026782361790537834,-0.001120150089263916,-9.873002052307129
1.7294961907413148e+18,-0.042697448283433914,0.051592253148555756,-9.768735885620117
1.729496190750315e+18,0.02780088782310486,-0.013889327645301819,-9.918142318725586
1.7294961907563151e+18,0.06466545909643173,0.04551862180233002,-9.795849800109863
1.7294961907653153e+18,-0.044037673622369766,-0.028267644345760345,-9.828371047973633
1.7294961907743155e+18,0.030453059822320938,-0.12664258480072021,-9.822937965393066
1.7294961907803156e+18,0.08909869939088821,0.04391704127192497,-9.82276725769043
1.7294961907893158e+18,-0.030380217358469963,-0.0163621474057436,-9.788997650146484
1.729496190798316e+18,-0.05182443559169769,-0.021364517509937286,-9.785737991333008
1.7294961908043162e+18,-0.019735926762223244,0.07599086314439774,-9.846854209899902
1.7294961908133164e+18,-0.028802167624235153,-0.030889326706528664,-9.834558486938477
1.7294961908223165e+18,0.015492758713662624,0.02991478703916073,-9.824310302734375
1.7294961908283167e+18,-0.03581315651535988,0.10000582784414291,-9.848381996154785
1.7294961908373169e+18,-0.03587149828672409,0.005017193034291267,-9.799612045288086
1.729496190846317e+18,-0.009516570717096329,-0.08164989203214645,-9.833657264709473
1.7294961908523172e+18,-0.02797495201230049,-0.012670604512095451,-9.801032066345215
1.7294961908613174e+18,-0.013486064970493317,0.09062863886356354,-9.838116645812988
1.7294961908703176e+18,0.00795464776456356,-0.016139063984155655,-9.809728622436523
1.7294961908763177e+18,-0.030145535245537758,-0.03452051430940628,-9.811646461486816
1.729496190885318e+18,-0.027575958520174026,0.031052332371473312,-9.774909019470215
1.729496190894318e+18,-0.014923347160220146,0.054100699722766876,-9.762846946716309
1.7294961909033183e+18,-0.01175500825047493,-0.04121227562427521,-9.737922668457031
1.7294961909093184e+18,0.04153042286634445,-0.017585908994078636,-9.737284660339355
1.7294961909183186e+18,0.06057601794600487,-0.01215355098247528,-9.842623710632324
1.7294961909243187e+18,0.026733411476016045,0.04709159955382347,-9.863249778747559
1.729496190933319e+18,-0.0012374658836051822,0.018397320061922073,-9.81994342803955
1.729496190939319e+18,0.01717301644384861,-0.05936247855424881,-9.872514724731445
1.7294961909483192e+18,0.0412728413939476,0.03186566010117531,-9.760178565979004
1.7294961909543194e+18,-0.0143752945587039,0.006134897470474243,-9.870954513549805
1.7294961909633196e+18,0.05458961799740791,-0.003644207725301385,-9.826676368713379
1.7294961909723197e+18,-0.051650334149599075,-0.002469578292220831,-9.80600357055664
1.72949619097832e+18,0.01620088890194893,0.020682239904999733,-9.80211067199707
1.72949619098732e+18,0.05940667539834976,-0.008929252624511719,-9.866532325744629
1.7294961909963203e+18,0.027456721290946007,-0.031533464789390564,-9.756671905517578
1.7294961910053204e+18,-0.016490954905748367,-0.03822868689894676,-9.808956146240234
1.7294961910113206e+18,0.019430648535490036,0.008354774676263332,-9.828083992004395
1.7294961910203208e+18,-0.023905768990516663,0.06730887293815613,-9.792069435119629
1.729496191029321e+18,0.04001341387629509,0.016857674345374107,-9.733414649963379
1.7294961910383212e+18,-0.01563072018325329,0.08150922507047653,-9.830726623535156
1.7294961910473213e+18,0.019941478967666626,-0.03458362817764282,-9.810515403747559
1.7294961910563215e+18,-0.02357635088264942,-0.0038919104263186455,-9.885910987854004
1.7294961910623217e+18,0.0019358816789463162,0.006206775549799204,-9.785975456237793
1.7294961910713219e+18,-0.027515754103660583,0.013251300901174545,-9.828972816467285
1.729496191080322e+18,0.011118879541754723,-0.019260291010141373,-9.831182479858398
1.7294961910893222e+18,0.10214530676603317,-0.04156625270843506,-9.710442543029785
1.7294961910983224e+18,0.0018620203481987119,-0.045051850378513336,-9.805887222290039
1.7294961911073226e+18,0.02915075235068798,0.02966669760644436,-9.801945686340332
1.7294961911163228e+18,-0.08425582945346832,0.023535246029496193,-9.814369201660156
1.729496191125323e+18,0.01394588965922594,0.03495124354958534,-9.791642189025879
1.7294961911343232e+18,-0.011665049940347672,-0.002944646868854761,-9.800641059875488
1.7294961911433234e+18,0.03469012305140495,-0.06288286298513412,-9.745174407958984
1.7294961911523236e+18,0.0070591820403933525,0.005391979124397039,-9.826952934265137
1.7294961911613238e+18,0.06085643917322159,-0.044899385422468185,-9.875990867614746
1.729496191170324e+18,0.009882566519081593,-0.02639780566096306,-9.82959270477295
1.7294961911793242e+18,0.06765236705541611,0.018305549398064613,-9.81389045715332
1.7294961911853243e+18,-0.07792298495769501,-0.016909737139940262,-9.791519165039062
1.7294961911943245e+18,0.02472991682589054,0.06084323301911354,-9.76488208770752
1.7294961912033247e+18,0.01922225020825863,0.05035170912742615,-9.78319263458252
1.7294961912123249e+18,0.05261174589395523,0.07973241806030273,-9.801493644714355
1.729496191221325e+18,-0.008859475143253803,0.0020394304301589727,-9.780421257019043
1.7294961912303252e+18,0.051126111298799515,-0.0632079467177391,-9.7694730758667
1.7294961912393254e+18,0.059290189296007156,0.03568493202328682,-9.942926406860352
1.7294961912483256e+18,-0.03651588782668114,-0.051187679171562195,-9.910239219665527
1.7294961912573258e+18,-0.07789522409439087,-0.043109335005283356,-9.936922073364258
1.729496191266326e+18,-0.003922706004232168,-0.023463869467377663,-10.02386474609375
1.7294961912753262e+18,0.10313093662261963,-0.01366015151143074,-10.136414527893066
1.7294961912843264e+18,-0.045425985008478165,-0.008372381329536438,-10.168715476989746
1.7294961912933266e+18,0.017873387783765793,0.055694468319416046,-10.187865257263184
1.7294961913023268e+18,-0.03501223400235176,0.014449863694608212,-10.241058349609375
1.729496191311327e+18,0.0159944798797369,-0.010625103488564491,-10.23725700378418
1.7294961913203272e+18,0.03150413930416107,0.02813052386045456,-10.271184921264648
1.7294961913293274e+18,0.046805109828710556,-0.021925602108240128,-10.196881294250488
1.7294961913383276e+18,-0.09487400949001312,0.023228127509355545,-10.29771900177002
1.7294961913473277e+18,0.0810527577996254,0.013500930741429329,-10.312557220458984
1.729496191356328e+18,0.019332408905029297,-0.023066693916916847,-10.313725471496582
1.7294961913653281e+18,0.07752006500959396,0.126591756939888,-10.292032241821289
1.7294961913743283e+18,-0.014490583911538124,0.03930092602968216,-10.373771667480469
1.7294961913833285e+18,0.025814158841967583,0.0003630091669037938,-10.3898344039917
1.7294961913923287e+18,-0.021458584815263748,0.017239609733223915,-10.310943603515625
1.7294961913983288e+18,0.002292824909090996,-0.018372273072600365,-10.315093040466309
1.729496191407329e+18,0.03705373778939247,-0.021363215520977974,-10.440629959106445
1.7294961914163292e+18,-0.018130695447325706,-0.025232311338186264,-10.3826265335083
1.7294961914223293e+18,0.04639463871717453,0.05130394548177719,-10.37350082397461
1.7294961914313295e+18,-0.011460069566965103,-0.04429677128791809,-10.415395736694336
1.7294961914403297e+18,-0.007765390444546938,0.008802365511655807,-10.421608924865723
1.72949619144933e+18,-0.015747584402561188,-0.043190740048885345,-10.362277030944824
1.72949619145833e+18,-0.03978845104575157,-0.05600936710834503,-10.418814659118652
1.7294961914643302e+18,-0.015390230342745781,-0.005784351844340563,-10.396672248840332
1.7294961914733304e+18,-0.0800568237900734,0.03560195490717888,-10.47496223449707
1.7294961914823306e+18,0.037729810923337936,-0.04905854910612106,-10.406389236450195
1.729496191494331e+18,-0.06487203389406204,0.10434867441654205,-10.474435806274414
1.729496191503331e+18,-0.07457853108644485,0.023828860372304916,-10.403154373168945
1.7294961915123313e+18,0.01964321918785572,-0.0682537853717804,-10.463094711303711
1.7294961915243315e+18,0.02620537020266056,-0.07607372850179672,-10.48425579071045
1.7294961915333317e+18,0.09939148277044296,-0.12935517728328705,-10.410877227783203
1.729496191542332e+18,0.003507075132802129,-0.005594958085566759,-10.522201538085938
1.729496191551332e+18,0.11241189390420914,-0.04473884031176567,-10.527259826660156
1.7294961915603323e+18,-0.02103884518146515,0.01551054697483778,-10.480456352233887
1.7294961915723325e+18,-0.021318327635526657,0.061676327139139175,-10.500457763671875
1.7294961915813327e+18,-0.04086045175790787,0.1034105122089386,-10.537598609924316
1.729496191590333e+18,-0.019142596051096916,-0.049406424164772034,-10.565177917480469
1.729496191599333e+18,-0.017029760405421257,-0.0579100139439106,-10.57404899597168
1.7294961916113334e+18,-0.059719301760196686,0.06393901258707047,-10.556413650512695
1.7294961916203336e+18,0.031235842034220695,0.08301287889480591,-10.520218849182129
1.7294961916293338e+18,0.025580748915672302,-0.07865429669618607,-10.548069953918457
1.729496191638334e+18,0.0303830336779356,0.04802130535244942,-10.550655364990234
1.7294961916473341e+18,-0.07036092877388,-0.006973124574869871,-10.576944351196289
1.7294961916563343e+18,0.010990865528583527,-0.004899538122117519,-10.59435749053955
1.7294961916653345e+18,-0.01657046191394329,-0.03485530614852905,-10.576107025146484
1.7294961916743347e+18,-0.03796868771314621,-0.012514322064816952,-10.550192832946777
1.729496191683335e+18,0.09796775877475739,-0.010638616979122162,-10.549936294555664
1.729496191692335e+18,0.02694040536880493,-0.11017481237649918,-10.580718040466309
1.7294961917013353e+18,-0.03793534263968468,-0.02990911155939102,-10.550837516784668
1.7294961917073354e+18,0.03706996515393257,0.002061765640974045,-10.638933181762695
1.7294961917163356e+18,-0.03878733888268471,0.06755942106246948,-10.610872268676758
1.7294961917253358e+18,0.05767378583550453,-0.0374731570482254,-10.565080642700195
1.729496191734336e+18,0.0878126323223114,-0.04969901219010353,-10.561300277709961
1.7294961917433362e+18,-0.034062791615724564,0.05153176188468933,-10.53435230255127
1.7294961917493363e+18,-0.007665846962481737,-0.003720923326909542,-10.620843887329102
1.7294961917583365e+18,-0.021724572405219078,0.02011762000620365,-10.586695671081543
1.7294961917673367e+18,-0.038490284234285355,0.06326204538345337,-10.74401569366455
1.729496191776337e+18,-0.05116681382060051,0.01730756275355816,-10.703975677490234
1.729496191782337e+18,0.053631626069545746,0.022786658257246017,-10.585299491882324
1.7294961917913372e+18,-0.0026943660341203213,-0.026720905676484108,-10.6661958694458
1.7294961918003374e+18,0.04446304216980934,0.008188759908080101,-10.529151916503906
1.7294961918093376e+18,-0.047381963580846786,0.0015168553218245506,-10.6411714553833
1.7294961918153377e+18,0.0028499504551291466,-0.026393959298729897,-10.559229850769043
1.729496191824338e+18,0.04506843537092209,-0.09789810329675674,-10.67196273803711
1.729496191833338e+18,-0.0390152744948864,0.010811425745487213,-10.710933685302734
1.7294961918423383e+18,0.04338263347744942,0.02229294553399086,-10.54887866973877
1.7294961918513385e+18,-0.024471279233694077,-0.04279978200793266,-10.680330276489258
1.7294961918603387e+18,-0.0784263163805008,0.007357927970588207,-10.680419921875
1.729496191869339e+18,0.07167474180459976,0.010740299709141254,-10.62736988067627
1.729496191875339e+18,0.017339063808321953,-0.026232004165649414,-10.58808422088623
1.7294961918843392e+18,-0.03781018778681755,-0.08696102350950241,-10.642380714416504
1.7294961918933394e+18,0.04029618948698044,0.08520108461380005,-10.612527847290039
1.7294961919023396e+18,-0.028360635042190552,0.007522115483880043,-10.64877986907959
1.7294961919083397e+18,-0.026653321459889412,0.0031617481727153063,-10.716771125793457
1.72949619191734e+18,0.004397920332849026,-0.06254561245441437,-10.633550643920898
1.72949619192634e+18,0.015625406056642532,0.11835964024066925,-10.598920822143555
1.7294961919353403e+18,0.004624920431524515,0.06633546203374863,-10.684840202331543
1.7294961919443405e+18,0.003143372479826212,0.044235359877347946,-10.711179733276367
1.7294961919533407e+18,0.0536234974861145,0.028734080493450165,-10.651928901672363
1.7294961919623409e+18,0.014321329072117805,-0.0077788131311535835,-10.65349006652832
1.729496191971341e+18,0.07147055864334106,-0.012485578656196594,-10.63597583770752
1.7294961919803412e+18,0.05412835255265236,0.018505243584513664,-10.730774879455566
1.7294961919863414e+18,-0.05812016502022743,-0.052799124270677567,-10.630644798278809
1.7294961919953416e+18,-0.03887973353266716,-0.008799097500741482,-10.562962532043457
1.7294961920043418e+18,-0.001323723467066884,-0.06335610896348953,-10.639307022094727
1.729496192013342e+18,-0.04301617294549942,0.03233277052640915,-10.669438362121582
1.7294961920223421e+18,-0.006387386936694384,0.05051666498184204,-10.655365943908691
1.7294961920433426e+18,-0.012758185155689716,0.036174096167087555,-10.71961784362793
1.7294961920523428e+18,-0.029515622183680534,0.014226922765374184,-10.697418212890625
1.729496192061343e+18,-0.03578775003552437,-0.07976803183555603,-10.653886795043945
1.729496192067343e+18,0.016326747834682465,0.023586157709360123,-10.650007247924805
1.7294961920763433e+18,0.022317374125123024,0.011158788576722145,-10.711721420288086
1.7294961920853435e+18,-0.002300357213243842,-0.01956447958946228,-10.684768676757812
1.7294961920913436e+18,0.03168579190969467,-0.0037419444415718317,-10.762015342712402
1.7294961921003438e+18,-0.013042593374848366,-0.07705354690551758,-10.64588737487793
1.729496192109344e+18,0.04596078395843506,0.0029249300714582205,-10.735757827758789
1.7294961921153441e+18,0.02794736623764038,0.0009625713573768735,-10.653719902038574
1.7294961921243443e+18,0.042361751198768616,0.05964380130171776,-10.686064720153809
1.7294961921333445e+18,0.026573849841952324,0.09174522012472153,-10.671146392822266
1.7294961921393446e+18,-0.01862672157585621,-0.06474584341049194,-10.648143768310547
1.7294961921483448e+18,0.07297055423259735,0.053924307227134705,-10.673848152160645
1.729496192157345e+18,0.0014448575675487518,0.0929335206747055,-10.596918106079102
1.7294961921633452e+18,-0.03747522458434105,-0.004207628779113293,-10.609274864196777
1.7294961921723453e+18,-0.034434475004673004,-0.0550064854323864,-10.699233055114746
1.7294961921813455e+18,0.07893811911344528,0.03614405542612076,-10.628683090209961
1.7294961921903457e+18,0.0009870454668998718,0.011650011874735355,-10.703550338745117
1.7294961921963459e+18,0.01225245650857687,0.05529621243476868,-10.591636657714844
1.729496192205346e+18,-0.00883141253143549,0.007195311598479748,-10.747864723205566
1.7294961922143462e+18,-0.014870122075080872,0.019298439845442772,-10.754535675048828
1.7294961922233464e+18,0.05643096938729286,-0.07118897140026093,-10.66406536102295
1.7294961922293466e+18,0.0013929223641753197,-0.033259131014347076,-10.623909950256348
1.7294961922383468e+18,0.027456535026431084,0.06757095456123352,-10.690995216369629
1.729496192247347e+18,-0.053878966718912125,-0.011992133222520351,-10.703548431396484
1.729496192253347e+18,-0.04993567243218422,0.0465899333357811,-10.685285568237305
1.7294961922623473e+18,0.023802166804671288,-0.042732466012239456,-10.648500442504883
1.7294961922713475e+18,-0.00550096295773983,-0.03880871832370758,-10.710723876953125
1.7294961922773476e+18,-0.05876913666725159,-0.0011728961253538728,-10.626751899719238
1.7294961922863478e+18,0.033017225563526154,0.02739175409078598,-10.595331192016602
1.729496192292348e+18,-0.05825711041688919,-0.09749185293912888,-10.657719612121582
1.729496192301348e+18,0.0387890599668026,-0.051030974835157394,-10.680676460266113
1.7294961923103483e+18,0.04161469265818596,0.013698267750442028,-10.677021980285645
1.7294961923163484e+18,0.002775803441181779,-0.06969704478979111,-10.60862922668457
1.7294961923253486e+18,-0.012622554786503315,-0.06936192512512207,-10.704075813293457
1.7294961923313487e+18,-0.0544779896736145,0.007350776344537735,-10.670144081115723
1.729496192340349e+18,-0.014476023614406586,0.003356551518663764,-10.630454063415527
1.729496192346349e+18,-0.03196364641189575,-0.04920085892081261,-10.573051452636719
1.7294961923553492e+18,-0.014964129775762558,0.0038724802434444427,-10.686029434204102
1.7294961923643494e+18,0.011291299015283585,0.0159150380641222,-10.713295936584473
1.7294961923703496e+18,0.06488680839538574,0.025615312159061432,-10.664941787719727
1.7294961923793498e+18,-0.03138904273509979,-0.012077598832547665,-10.663456916809082
1.72949619238835e+18,-0.027609482407569885,-0.009624410420656204,-10.635536193847656
1.72949619239435e+18,-0.02938108891248703,-0.07805702090263367,-10.624299049377441
1.7294961924033503e+18,0.06170407682657242,0.037280838936567307,-10.599160194396973
1.7294961924123505e+18,0.04072301834821701,0.013442307710647583,-10.576606750488281
1.7294961924183506e+18,-0.07264033704996109,-0.02171393111348152,-10.754334449768066
1.7294961924273508e+18,-0.03837217763066292,0.1124441996216774,-10.77389144897461
1.729496192436351e+18,0.10057440400123596,0.07515375316143036,-10.675609588623047
1.729496192442351e+18,0.016736388206481934,-0.07856989651918411,-10.642666816711426
1.7294961924513513e+18,-0.054777588695287704,-0.008893859572708607,-10.585558891296387
1.7294961924603515e+18,0.06541095674037933,-0.017636602744460106,-10.601222038269043
1.7294961924663516e+18,-0.007079539820551872,-0.08265567570924759,-10.61393928527832
1.7294961924753518e+18,0.06166398525238037,0.030801627784967422,-10.522172927856445
1.729496192484352e+18,-0.0009721466340124607,-0.0014271184336394072,-10.500432014465332
1.729496192490352e+18,0.004329839255660772,-0.0002277493622386828,-10.520425796508789
1.7294961924993523e+18,-0.04418300464749336,-0.01395268552005291,-10.4321870803833
1.7294961925053524e+18,-0.05108438804745674,0.027282830327749252,-10.427083015441895
1.7294961925143526e+18,-0.01039217785000801,0.019206102937459946,-10.354155540466309
1.7294961925233528e+18,-0.03628390282392502,-0.01328481175005436,-10.26246452331543
1.729496192529353e+18,0.014485159888863564,-0.008944525383412838,-10.26663875579834
1.7294961925383532e+18,-0.02097333036363125,-0.08723023533821106,-10.272220611572266
1.7294961925443533e+18,-0.06271827220916748,0.07049908488988876,-10.20588493347168
1.7294961925533535e+18,-0.04938618093729019,-0.011777179315686226,-10.268446922302246
1.7294961925623537e+18,-0.031395163387060165,0.01538277231156826,-10.223504066467285
1.7294961925683538e+18,0.02280280366539955,-7.672794163227081e-05,-10.178263664245605
1.729496192577354e+18,-0.010163932107388973,-0.02829415164887905,-10.148784637451172
1.7294961925863542e+18,0.018798746168613434,0.04420723021030426,-10.186258316040039
1.7294961925953544e+18,-0.014614557847380638,-0.007671554572880268,-10.183331489562988
1.7294961926043546e+18,-0.04358982294797897,0.008781777694821358,-10.148098945617676
1.7294961926103547e+18,-0.023665716871619225,-0.06658688932657242,-10.198412895202637
1.729496192619355e+18,0.034581683576107025,-0.019678089767694473,-10.118029594421387
1.729496192625355e+18,-0.06128982827067375,-0.03247943893074989,-10.104870796203613
1.7294961926343552e+18,0.01071289461106062,0.06804442405700684,-10.058883666992188
1.7294961926403553e+18,0.05256733298301697,-0.0008395921904593706,-10.157384872436523
1.7294961926493555e+18,-0.016013121232390404,-0.026476839557290077,-10.085731506347656
1.7294961926583557e+18,-0.029402393847703934,-0.09689151495695114,-10.104412078857422
1.7294961926643558e+18,-0.010086125694215298,2.019432940869592e-05,-10.05178451538086
1.729496192673356e+18,-0.012294860556721687,-0.011646364815533161,-10.01465892791748
1.7294961926793562e+18,-0.06554397940635681,0.0003637408372014761,-10.138333320617676
1.7294961926883564e+18,0.002221834845840931,0.04138815402984619,-10.066534996032715
1.7294961926943565e+18,-0.009451059624552727,-0.004376637749373913,-10.076276779174805
1.7294961927033567e+18,0.045739635825157166,-0.06385388225317001,-10.094059944152832
1.7294961927123569e+18,0.04978296905755997,-0.0288199782371521,-10.067527770996094
1.729496192718357e+18,-0.0346379317343235,-0.010541483759880066,-10.068696975708008
1.7294961927273572e+18,0.029053548350930214,0.05247408151626587,-10.07263469696045
1.7294961927363574e+18,-0.009081631898880005,-0.038929589092731476,-10.11540699005127
1.7294961927453576e+18,0.054840847849845886,-0.02760782092809677,-9.997743606567383
1.7294961927543578e+18,-0.05091587081551552,0.038006991147994995,-9.999540328979492
1.729496192760358e+18,-0.053182560950517654,-0.030950693413615227,-10.039005279541016
1.729496192769358e+18,0.0012524786870926619,-0.05219316855072975,-9.992420196533203
1.7294961927753582e+18,-0.06627988070249557,0.042466916143894196,-10.031476020812988
1.7294961927843584e+18,-0.004709817934781313,0.028560051694512367,-9.969114303588867
1.7294961927903585e+18,0.060415882617235184,-0.043312348425388336,-10.03079891204834
1.7294961927993587e+18,0.026230622082948685,0.018771303817629814,-9.925960540771484
1.729496192808359e+18,-0.02306308224797249,0.03718707337975502,-10.031116485595703
1.729496192814359e+18,0.01696944609284401,0.02895512618124485,-9.920524597167969
1.7294961928233592e+18,-0.02056536078453064,0.06546341627836227,-9.907289505004883
1.7294961928293594e+18,-0.017205476760864258,-0.018196558579802513,-9.935308456420898
1.7294961928383596e+18,0.03147641569375992,0.06269130855798721,-9.932165145874023
1.7294961928473597e+18,-0.04225112125277519,0.020632142201066017,-9.988242149353027
1.7294961928533599e+18,-0.027793394401669502,0.0611116848886013,-9.95693588256836
1.72949619286236e+18,-0.05750828608870506,0.010345515795052052,-9.909026145935059
1.7294961928683602e+18,0.01050320640206337,0.004003808833658695,-9.893925666809082
1.7294961928773604e+18,-0.005844063591212034,-0.015481625683605671,-9.868412017822266
1.7294961928833605e+18,0.06606389582157135,-0.05999220535159111,-9.88329029083252
1.7294961928923607e+18,-0.0011661435710266232,-0.06371242552995682,-9.866052627563477
1.729496192901361e+18,0.07938370853662491,0.04315520077943802,-9.977675437927246
1.729496192910361e+18,-0.016674065962433815,0.040230643004179,-9.864725112915039
1.7294961929163612e+18,0.01557005662471056,0.017162758857011795,-9.933547973632812
1.7294961929253614e+18,0.013548137620091438,-0.020698480308055878,-9.83800983428955
1.7294961929313615e+18,0.10496889054775238,-0.024615474045276642,-9.896103858947754
1.7294961929403617e+18,0.007320794276893139,0.011480503715574741,-9.905637741088867
1.7294961929463619e+18,0.013299585320055485,0.06683501601219177,-9.819631576538086
1.729496192955362e+18,0.03657444566488266,-0.005874149966984987,-9.872944831848145
1.7294961929643622e+18,0.10111944377422333,-0.06140139326453209,-9.74327564239502
1.7294961929733624e+18,-0.04595457389950752,-0.02871854417026043,-9.912705421447754
1.7294961929823626e+18,0.02628103643655777,-0.03631480038166046,-9.813807487487793
1.7294961929883628e+18,0.05625579506158829,-0.05456143245100975,-9.767911911010742
1.729496192997363e+18,0.03453867509961128,-0.04336358606815338,-9.817424774169922
1.7294961930063631e+18,-0.002232425147667527,0.038812924176454544,-9.761327743530273
1.7294961930153633e+18,0.023518627509474754,-0.025518912822008133,-9.805156707763672
1.7294961930243635e+18,-0.009955858811736107,-0.008745292201638222,-9.81534481048584
1.7294961930333637e+18,-0.06043843924999237,0.04270555078983307,-9.816852569580078
1.7294961930393638e+18,0.09226866066455841,0.060735270380973816,-9.805032730102539
1.729496193048364e+18,-0.026529042050242424,0.043144822120666504,-9.759000778198242
1.7294961930573642e+18,0.09966403990983963,-0.09747269749641418,-9.77060317993164
1.7294961930663644e+18,0.04585232213139534,-0.07049553096294403,-9.803624153137207
1.7294961930723645e+18,0.011143508367240429,-0.10675179958343506,-9.773764610290527
1.7294961930813647e+18,0.052977945655584335,0.010412858799099922,-9.86644458770752
1.729496193090365e+18,-0.02283618599176407,0.016561055555939674,-9.77759075164795
1.729496193096365e+18,0.03513798490166664,-0.0045729149132966995,-9.838713645935059
1.7294961931053652e+18,0.021255016326904297,-0.01693674363195896,-9.816429138183594
1.7294961931113654e+18,0.0949082225561142,-0.04532969370484352,-9.712323188781738
1.7294961931203656e+18,-0.01906917802989483,0.016510196030139923,-9.757813453674316
1.7294961931263657e+18,-0.030705705285072327,-0.05528343841433525,-9.77173137664795
1.729496193135366e+18,0.01422115508466959,0.01686183363199234,-9.727436065673828
1.729496193144366e+18,0.0011515012010931969,-0.022596610710024834,-9.750038146972656
1.7294961931503662e+18,0.08433003723621368,-0.036166027188301086,-9.72907829284668
1.7294961931593664e+18,0.0961717963218689,-0.004765646997839212,-9.657682418823242
1.7294961931653665e+18,-0.09713664650917053,-0.011380166746675968,-9.698379516601562
1.7294961931743667e+18,-0.06556135416030884,0.026310008019208908,-9.766430854797363
1.729496193183367e+18,0.032091476023197174,0.023055294528603554,-9.687685012817383
1.729496193189367e+18,-0.004904037807136774,0.007177337072789669,-9.707125663757324
1.7294961931983672e+18,-0.03874865919351578,-0.03897145390510559,-9.62008285522461
1.7294961932043674e+18,0.046624310314655304,0.10542163997888565,-9.635552406311035
1.7294961932133676e+18,-0.038277097046375275,0.08745498955249786,-9.737518310546875
1.7294961932223677e+18,0.11194823682308197,0.021245941519737244,-9.702044486999512
1.729496193228368e+18,-0.01963900215923786,-0.02507716976106167,-9.685342788696289
1.729496193237368e+18,0.013660484924912453,0.009137187153100967,-9.717052459716797
1.7294961932433682e+18,-0.01885949820280075,-0.06258342415094376,-9.603914260864258
1.7294961932523684e+18,-0.056674811989068985,0.016280433163046837,-9.696213722229004
1.7294961932613686e+18,0.006559725850820541,0.012610191479325294,-9.70470142364502
1.7294961932673687e+18,0.0017937335651367903,-0.015930358320474625,-9.721161842346191
1.7294961932733688e+18,-0.02618156187236309,-0.04163993149995804,-9.653897285461426
1.729496193282369e+18,0.05472005158662796,-0.04210565611720085,-9.687973976135254
1.7294961932913692e+18,0.008394571952521801,-0.0238482728600502,-9.72938060760498
1.7294961932973693e+18,0.03868244215846062,-0.04055476933717728,-9.748200416564941
1.7294961933063695e+18,0.018710318952798843,-0.0037188008427619934,-9.613666534423828
1.7294961933153697e+18,-0.03344026207923889,-0.02168789692223072,-9.664937019348145
1.7294961933213699e+18,0.04674461483955383,0.01341888215392828,-9.658135414123535
1.72949619333037e+18,-0.05843038856983185,0.07051664590835571,-9.667064666748047
1.7294961933363702e+18,0.10348153114318848,-0.0453827865421772,-9.658167839050293
1.7294961933453704e+18,0.006347511429339647,0.04212385043501854,-9.619014739990234
1.7294961933513705e+18,-0.058193378150463104,-0.028393549844622612,-9.673542976379395
1.7294961933603707e+18,0.017385387793183327,-0.013711498118937016,-9.596572875976562
1.729496193369371e+18,-0.02738247998058796,0.08707568049430847,-9.605806350708008
1.729496193378371e+18,0.023120490834116936,-0.07209661602973938,-9.658567428588867
1.7294961933843712e+18,0.06853312999010086,-0.057580772787332535,-9.590011596679688
1.7294961933933714e+18,0.017985953018069267,0.01848718151450157,-9.555733680725098
1.7294961934023716e+18,0.08602655678987503,0.0481855683028698,-9.59408950805664
1.7294961934083717e+18,-0.009622578509151936,0.040791191160678864,-9.580653190612793
1.729496193417372e+18,-0.060295723378658295,-0.03899043798446655,-9.66606616973877
1.729496193423372e+18,0.017853623256087303,-0.039285946637392044,-9.56110954284668
1.7294961934323722e+18,-0.011552521958947182,-0.0031068893149495125,-9.61910343170166
1.7294961934383724e+18,-0.009097935631871223,-0.024966001510620117,-9.602424621582031
1.7294961934473725e+18,-0.10744304209947586,0.04939178377389908,-9.574494361877441
1.7294961934563727e+18,-0.002167954808101058,0.03189065307378769,-9.552557945251465
1.7294961934623729e+18,0.04580696299672127,-0.030108217149972916,-9.610803604125977
1.729496193471373e+18,-0.03843406215310097,-0.03200967237353325,-9.553580284118652
1.7294961934773732e+18,-0.0450410358607769,-0.0019224376883357763,-9.582196235656738
1.7294961934863734e+18,-0.0001584845595061779,0.0016481649363413453,-9.65115737915039
1.7294961934923735e+18,0.02221500687301159,0.00017821197980083525,-9.638550758361816
1.7294961935013737e+18,-0.013395655900239944,0.03275062516331673,-9.5665864944458
1.729496193510374e+18,0.036092452704906464,0.04749336838722229,-9.566536903381348
1.729496193516374e+18,0.03614139184355736,0.06475857645273209,-9.685525894165039
1.7294961935253742e+18,0.004816100932657719,0.0006596178864128888,-9.651837348937988
1.7294961935343744e+18,-0.01054134126752615,-0.005701190326362848,-9.62169361114502
1.7294961935403745e+18,0.07266003638505936,0.002446957165375352,-9.635600090026855
1.7294961935493747e+18,0.005689661484211683,0.01432729046791792,-9.581133842468262
1.7294961935553748e+18,-0.05107599496841431,0.049703553318977356,-9.602543830871582
1.729496193564375e+18,0.02517692930996418,0.001110227545723319,-9.621234893798828
1.7294961935703752e+18,-0.024975784122943878,0.000534019956830889,-9.628260612487793
1.7294961935793754e+18,-0.020493341609835625,-0.043345820158720016,-9.645101547241211
1.7294961935853755e+18,-0.03233584761619568,0.05731339380145073,-9.63296127319336
1.7294961935943757e+18,0.08676037937402725,0.009894896298646927,-9.513578414916992
1.7294961936033759e+18,-0.0019506956450641155,-0.01543821394443512,-9.630192756652832
1.729496193612376e+18,-0.06567109376192093,0.03765994682908058,-9.53514289855957
1.7294961936183762e+18,-0.012461594305932522,0.008570470847189426,-9.520303726196289
1.7294961936273764e+18,-0.0479859858751297,0.13421499729156494,-9.60434627532959
1.7294961936363766e+18,0.00624363636597991,0.05218910053372383,-9.655750274658203
1.7294961936453768e+18,0.012223277240991592,-0.00495318416506052,-9.574077606201172
1.729496193657377e+18,0.03255242481827736,-0.09049446135759354,-9.51954460144043
1.7294961936663772e+18,0.018689606338739395,-0.04797294735908508,-9.493894577026367
1.7294961936723773e+18,0.0009045065380632877,-0.07901839911937714,-9.526288032531738
1.7294961936813775e+18,0.0032234143000096083,-0.02552855759859085,-9.521153450012207
1.7294961936903777e+18,-0.078901506960392,-0.028033671900629997,-9.54536247253418
1.7294961936963779e+18,-0.011443540453910828,0.005783577915281057,-9.600570678710938
1.729496193705378e+18,-0.007266037166118622,0.003824530867859721,-9.511234283447266
1.7294961937113782e+18,-0.06410109251737595,0.010407038033008575,-9.547852516174316
1.7294961937203784e+18,0.017152458429336548,-0.025677630677819252,-9.455161094665527
1.7294961937263785e+18,-0.050933513790369034,0.02911296859383583,-9.544657707214355
1.7294961937353787e+18,-0.06854028254747391,0.03597366064786911,-9.526375770568848
1.729496193744379e+18,0.07236243039369583,0.01683192513883114,-9.57928466796875
1.729496193750379e+18,0.014656702056527138,-0.019408762454986572,-9.571818351745605
1.7294961937593792e+18,0.006615062709897757,-0.08597937971353531,-9.55801773071289
1.7294961937683794e+18,0.028713833540678024,-0.08016195893287659,-9.54338550567627
1.7294961937773796e+18,0.007828607223927975,-0.03322746604681015,-9.465801239013672
1.7294961937833797e+18,-0.028333883732557297,-0.025078630074858665,-9.446318626403809
1.72949619379238e+18,-0.008638682775199413,-0.0025410475209355354,-9.55679988861084
1.72949619380138e+18,-0.03099152259528637,-0.009810752235352993,-9.526911735534668
1.7294961938073802e+18,-0.015768812969326973,-0.0489642433822155,-9.586941719055176
1.7294961938163804e+18,0.02107216790318489,-0.03825518488883972,-9.58370304107666
1.7294961938223805e+18,-0.030393216758966446,0.046408846974372864,-9.530190467834473
1.7294961938313807e+18,0.01446350198239088,-0.033117685467004776,-9.528491973876953
1.7294961938373809e+18,0.061186350882053375,-0.013744267635047436,-9.498479843139648
1.729496193846381e+18,0.04118146002292633,0.014624149538576603,-9.495613098144531
1.7294961938553812e+18,0.055059194564819336,0.022480588406324387,-9.431550979614258
1.7294961938613814e+18,0.050805531442165375,-0.0743359848856926,-9.460938453674316
1.7294961938703816e+18,0.024505669251084328,-0.014103679917752743,-9.587035179138184
1.7294961938793818e+18,0.054831571877002716,-0.026297857984900475,-9.540358543395996
1.729496193885382e+18,0.021696902811527252,-0.0419951006770134,-9.51225471496582
1.729496193894382e+18,0.04850442707538605,-0.05515548214316368,-9.573537826538086
1.7294961939033823e+18,0.011789599433541298,-0.01184861734509468,-9.519889831542969
1.7294961939093824e+18,-0.07258756458759308,0.022133957594633102,-9.524327278137207
1.7294961939183826e+18,-0.018719878047704697,0.07210200279951096,-9.447113037109375
1.7294961939273828e+18,0.07227262109518051,-0.010429895482957363,-9.501080513000488
1.729496193933383e+18,0.020109303295612335,0.05938146263360977,-9.503024101257324
1.729496193942383e+18,-0.0007233862997964025,0.014637971296906471,-9.535491943359375
1.7294961939513833e+18,0.020730920135974884,-0.013037084601819515,-9.54626750946045
1.7294961939573834e+18,0.02093423344194889,-0.024511711671948433,-9.493063926696777
1.7294961939663836e+18,0.053176309913396835,-0.01799696870148182,-9.396464347839355
1.7294961939753838e+18,0.04369469732046127,0.04216078668832779,-9.518987655639648
1.729496193981384e+18,-0.05356210842728615,-0.026429777964949608,-9.556472778320312
1.729496193990384e+18,0.0009041994926519692,0.006905700545758009,-9.534401893615723
1.7294961939993843e+18,-0.022106803953647614,0.017809204757213593,-9.569486618041992
1.7294961940083845e+18,-0.06524329632520676,-0.03416208550333977,-9.465633392333984
1.7294961940173847e+18,-0.09795356541872025,0.04499644786119461,-9.532203674316406
1.729496194026385e+18,0.0173591747879982,-0.034179169684648514,-9.487606048583984
1.729496194035385e+18,-0.012918884865939617,-0.059611089527606964,-9.509631156921387
1.7294961940413852e+18,0.0032761618494987488,-0.09552040696144104,-9.487992286682129
1.7294961940503854e+18,0.014479470439255238,-0.06874506920576096,-9.512496948242188
1.7294961940593856e+18,0.003769057570025325,-0.018787454813718796,-9.4415283203125
1.7294961940683858e+18,0.0018002553842961788,0.010543854907155037,-9.435744285583496
1.729496194077386e+18,-0.0023418564815074205,-0.034941770136356354,-9.422931671142578
1.729496194083386e+18,-0.028019219636917114,-0.06517542898654938,-9.417182922363281
1.7294961940923863e+18,-0.043709345161914825,0.03620833531022072,-9.454838752746582
1.7294961941013865e+18,0.055138442665338516,0.09504975378513336,-9.46144962310791
1.7294961941103867e+18,0.04809236153960228,-0.03466029837727547,-9.446428298950195
1.7294961941163868e+18,0.041506364941596985,-0.07707158476114273,-9.464093208312988
1.729496194125387e+18,0.03413308784365654,0.012003208510577679,-9.479544639587402
1.7294961941313871e+18,0.037117354571819305,-0.03671703115105629,-9.40568733215332
1.7294961941403873e+18,0.08211862295866013,-0.0904458686709404,-9.505151748657227
1.7294961941463875e+18,-0.008636374957859516,-0.026043834164738655,-9.466268539428711
1.7294961941553876e+18,-0.04549736902117729,0.053165778517723083,-9.415236473083496
1.7294961941643878e+18,0.035575274378061295,-0.035110991448163986,-9.525385856628418
1.729496194173388e+18,0.027523236349225044,0.008407056331634521,-9.469620704650879
1.7294961941793882e+18,-0.025867056101560593,0.03616666421294212,-9.465198516845703
1.7294961941883884e+18,0.08437574654817581,-0.04077522084116936,-9.401463508605957
1.7294961941943885e+18,0.02987850271165371,-0.027631599456071854,-9.408445358276367
1.7294961942033887e+18,-0.0011090436019003391,-0.0010781085584312677,-9.43806266784668
1.7294961942093888e+18,-0.018517430871725082,-0.1155475601553917,-9.492988586425781
1.729496194218389e+18,0.03403064236044884,-0.006296704523265362,-9.457635879516602
1.7294961942273892e+18,0.012398610822856426,0.09126966446638107,-9.496748924255371
1.7294961942333893e+18,-0.025837484747171402,0.04357132688164711,-9.437686920166016
1.7294961942423895e+18,0.007090660277754068,0.05174391344189644,-9.452959060668945
1.7294961942513897e+18,0.03997061774134636,0.05074384808540344,-9.431659698486328
1.7294961942573898e+18,-0.0922897681593895,-0.06923428922891617,-9.468737602233887
1.72949619426639e+18,0.021282603964209557,0.03105468489229679,-9.490424156188965
1.7294961942753902e+18,0.019590411335229874,-0.04716245085000992,-9.389853477478027
1.7294961942813903e+18,0.026850201189517975,0.08065156638622284,-9.496419906616211
1.7294961942903905e+18,-0.002433780115097761,-0.012290412560105324,-9.495889663696289
1.7294961942993907e+18,0.047545887529850006,-0.03989248350262642,-9.475702285766602
1.729496194308391e+18,0.02934063784778118,0.06696509569883347,-9.4946870803833
1.729496194314391e+18,-0.024192780256271362,-0.03699348494410515,-9.46898365020752
1.7294961943233912e+18,-0.052179738879203796,0.019296349957585335,-9.467000007629395
1.7294961943323914e+18,0.006261029280722141,-0.07683544605970383,-9.406755447387695
1.7294961943413916e+18,0.09087271988391876,-0.011132712475955486,-9.481136322021484
1.7294961943503918e+18,0.012056101113557816,-0.005239517893642187,-9.464476585388184
1.729496194356392e+18,0.03489740565419197,-0.025779470801353455,-9.507303237915039
1.7294961943653921e+18,-0.002541851717978716,0.016902076080441475,-9.398199081420898
1.7294961943743923e+18,-0.019084537401795387,-0.03382156416773796,-9.482168197631836
1.7294961943833925e+18,0.020208990201354027,-0.04468313977122307,-9.401315689086914
1.7294961943923927e+18,-0.07524753361940384,-0.025056740269064903,-9.464263916015625
1.7294961943983928e+18,-0.08945545554161072,0.009157446213066578,-9.451189994812012
1.729496194407393e+18,-0.03237570449709892,0.03464604914188385,-9.458054542541504
1.7294961944133932e+18,-0.008550508879125118,-0.06621136516332626,-9.42699909210205
1.7294961944223933e+18,0.05233607813715935,-0.026575187221169472,-9.403059959411621
1.7294961944313935e+18,0.05461464449763298,0.03148685395717621,-9.433165550231934
1.7294961944403937e+18,0.020709792152047157,-0.027358530089259148,-9.350255012512207
1.7294961944463939e+18,0.020065732300281525,-0.011545971035957336,-9.308038711547852
1.729496194455394e+18,-0.05920659005641937,-0.07184185832738876,-9.425854682922363
1.7294961944643942e+18,0.015883592888712883,-0.028890591114759445,-9.3229398727417
1.7294961944733944e+18,0.048240818083286285,-0.014907479286193848,-9.286147117614746
1.7294961944793946e+18,-0.04312094673514366,-0.07350121438503265,-9.270872116088867
1.7294961944883948e+18,0.028712382540106773,0.038095325231552124,-9.279232025146484
1.729496194497395e+18,-0.029134200885891914,-0.0188644677400589,-9.268178939819336
1.729496194503395e+18,-0.055458489805459976,-0.0017335996963083744,-9.206339836120605
1.7294961945123953e+18,0.0009849322959780693,-0.04368831217288971,-9.245394706726074
1.7294961945213955e+18,0.0686902180314064,0.025359686464071274,-9.174748420715332
1.7294961945303956e+18,0.05680616945028305,-0.02456352487206459,-9.130724906921387
1.7294961945363958e+18,-0.028085920959711075,0.007795139215886593,-9.06381607055664
1.729496194545396e+18,0.06115579605102539,-0.09795963019132614,-9.078011512756348
1.7294961945543962e+18,-0.020549694076180458,0.048142414540052414,-9.048389434814453
1.7294961945633964e+18,-0.029114171862602234,-0.032978542149066925,-8.945369720458984
1.7294961945723965e+18,0.002290223026648164,0.014412950724363327,-8.928122520446777
1.7294961945783967e+18,-0.045238494873046875,0.004412321839481592,-8.97297477722168
1.7294961945873969e+18,0.013474470004439354,0.11476404964923859,-8.934735298156738
1.729496194596397e+18,-0.054590143263339996,-0.04663766920566559,-8.998351097106934
1.7294961946023972e+18,0.07734978944063187,0.012609041295945644,-8.8565034866333
1.7294961946113974e+18,0.0694335401058197,0.05377580597996712,-8.86336898803711
1.7294961946203976e+18,0.03930483013391495,-0.0015632143476977944,-8.830273628234863
1.7294961946293978e+18,0.05378458648920059,-0.04794619232416153,-8.86653995513916
1.729496194638398e+18,0.030761880800127983,-0.013096455484628677,-8.816028594970703
1.7294961946473981e+18,-0.019263073801994324,-0.04673367738723755,-8.712418556213379
1.7294961946533983e+18,0.004184430465102196,0.04491831362247467,-8.765436172485352
1.7294961946623985e+18,-0.019916919991374016,-0.02192997746169567,-8.749055862426758
1.7294961946683986e+18,-0.015470117330551147,0.02393469400703907,-8.666999816894531
1.7294961946773988e+18,0.08479579538106918,-0.0547729954123497,-8.625012397766113
1.729496194686399e+18,0.08874881267547607,-0.028920738026499748,-8.60512924194336
1.7294961946953992e+18,0.01433677226305008,0.0018082995666190982,-8.602956771850586
1.7294961947013993e+18,-0.0017916152719408274,-0.01265046838670969,-8.639004707336426
1.7294961947103995e+18,0.035720497369766235,0.014825431630015373,-8.616415023803711
1.7294961947193997e+18,-0.018459774553775787,0.09066814184188843,-8.749467849731445
1.7294961947284e+18,0.07534340023994446,0.01768038235604763,-8.691315650939941
1.7294961947344e+18,0.02220928482711315,-0.0322469137609005,-8.605366706848145
1.7294961947434002e+18,-0.09829256683588028,0.051076702773571014,-8.733321189880371
1.7294961947494003e+18,0.017154065892100334,0.03793119639158249,-8.745628356933594
1.7294961947584005e+18,0.013724436052143574,0.007661678362637758,-8.74348258972168
1.7294961947674007e+18,-0.03255727142095566,-0.04289049282670021,-8.77318000793457
1.7294961947734008e+18,-0.09709179401397705,0.008839366026222706,-8.747199058532715
1.729496194782401e+18,0.01132509671151638,-0.04442710801959038,-8.731724739074707
1.7294961947914012e+18,-0.008670831099152565,-0.04243042692542076,-8.857162475585938
1.7294961948004014e+18,0.020464690402150154,-0.04769355058670044,-8.82485580444336
1.7294961948094016e+18,0.02992808260023594,0.020774947479367256,-14.03198528289795
1.7294961948184018e+18,-0.05498058348894119,-0.0056339772418141365,-15.969771385192871
1.729496194824402e+18,0.10799309611320496,0.08100321143865585,-16.24408531188965
1.729496194833402e+18,-0.0067367274314165115,-0.019687753170728683,-16.27324104309082
1.7294961948424023e+18,0.03221573308110237,-0.00898476131260395,-16.287385940551758
1.7294961948514025e+18,-0.016094427555799484,-0.03563427925109863,-16.215940475463867
1.7294961948604027e+18,0.052289485931396484,0.06522535532712936,-16.215423583984375
1.7294961948664028e+18,-0.016894735395908356,0.016830258071422577,-16.123727798461914
1.729496194875403e+18,0.08355244994163513,0.0009521402535028756,-15.88044548034668
1.7294961948844032e+18,-0.012434426695108414,0.007278516888618469,-15.78751277923584
1.7294961948934034e+18,0.028709713369607925,0.006170635111629963,-15.623248100280762
1.7294961949024036e+18,-0.05415717884898186,-0.03752351924777031,-15.44682788848877
1.7294961949084037e+18,-0.0042091053910553455,0.02323080785572529,-15.560479164123535
1.729496194917404e+18,0.06712561845779419,-0.008145302534103394,-15.399170875549316
1.729496194926404e+18,0.0505155473947525,-0.09119326621294022,-15.209970474243164
1.7294961949354043e+18,0.06474082171916962,-0.0423087403178215,-15.050926208496094
1.7294961949444045e+18,0.005449818447232246,-0.06485355645418167,-14.890336990356445
1.7294961949504046e+18,0.06028395891189575,0.022166335955262184,-14.829967498779297
1.7294961949594048e+18,0.06074792519211769,0.02327309362590313,-14.680577278137207
1.729496194968405e+18,-0.11754553020000458,-0.058209378272295,-14.515674591064453
1.7294961949774052e+18,0.06242431327700615,0.06672985106706619,-14.488274574279785
1.7294961949864054e+18,-0.06420915573835373,-0.023061899468302727,-14.335580825805664
1.7294961949954056e+18,0.04429314658045769,0.02486664615571499,-14.305495262145996
1.7294961950014057e+18,0.05466490238904953,-0.05125991627573967,-14.173831939697266
1.729496195010406e+18,-0.027333399280905724,0.07077943533658981,-14.107095718383789
1.729496195019406e+18,0.02059401571750641,0.007050489075481892,-13.993736267089844
1.7294961950284063e+18,-0.0492362342774868,0.012286116369068623,-13.89552116394043
1.7294961950344064e+18,0.023387843742966652,0.11522924154996872,-13.75268268585205
1.7294961950434066e+18,-0.03297436609864235,0.033670250326395035,-13.702749252319336
1.7294961950524068e+18,0.10474370419979095,0.0078546442091465,-13.71117877960205
1.729496195061407e+18,0.0032253649551421404,-0.0015969736268743873,-13.529778480529785
1.729496195067407e+18,-0.08241356909275055,-0.008090384304523468,-13.444035530090332
1.7294961950764073e+18,0.06486041843891144,0.0011468237498775125,-13.36874771118164
1.7294961950854075e+18,-0.020004909485578537,0.08034809678792953,-13.372197151184082
1.7294961950944077e+18,0.04902546852827072,0.08360884338617325,-13.225652694702148
1.7294961951034079e+18,-0.010377662256360054,0.03154878690838814,-13.203219413757324
1.729496195109408e+18,-0.05876314640045166,0.013295318931341171,-13.11080265045166
1.7294961951184082e+18,-0.046112723648548126,0.06779773533344269,-13.035628318786621
1.7294961951274084e+18,0.09688675403594971,0.0026793787255883217,-12.907179832458496
1.7294961951364086e+18,0.0369638130068779,0.0215497687458992,-12.82375717163086
1.7294961951424087e+18,0.038161467760801315,0.015194879844784737,-12.85407543182373
1.729496195151409e+18,0.03163845092058182,0.0023211450316011906,-12.77183723449707
1.729496195160409e+18,-0.05403389781713486,0.035451121628284454,-12.59367561340332
1.7294961951694093e+18,-0.020829854533076286,-0.05341240018606186,-12.62952709197998
1.7294961951754094e+18,0.04628795385360718,0.008250905200839043,-12.543197631835938
1.7294961951844096e+18,0.00766999926418066,0.07435380667448044,-12.49876594543457
1.7294961951934098e+18,0.029508136212825775,0.037987709045410156,-12.439629554748535
1.72949619519941e+18,-0.07231727987527847,-0.038882091641426086,-12.311628341674805
1.72949619520841e+18,-0.0027985309716314077,-0.0005096407840028405,-12.280170440673828
1.7294961952174103e+18,-0.06336475908756256,-0.06746724247932434,-12.300247192382812
1.7294961952264105e+18,-0.028858724981546402,0.009147022850811481,-12.211790084838867
1.7294961952354107e+18,-0.04471730440855026,0.05097849667072296,-12.224170684814453
1.7294961952414108e+18,0.02076951041817665,0.026805154979228973,-12.134928703308105
1.729496195250411e+18,-0.0418175607919693,0.02318275161087513,-12.11281967163086
1.7294961952594112e+18,-0.07424525916576385,-0.01202778983861208,-12.075684547424316
1.7294961952654113e+18,-0.07152364403009415,-0.033931221812963486,-12.055243492126465
1.7294961952744115e+18,-0.022210106253623962,0.012918364256620407,-11.945507049560547
1.7294961952834117e+18,0.07060222327709198,-0.019068432971835136,-11.937891006469727
1.7294961952894118e+18,0.053721047937870026,-0.027068641036748886,-11.935096740722656
1.729496195298412e+18,-0.016483576968312263,0.03274056687951088,-11.909241676330566
1.7294961953074122e+18,-0.03405465930700302,0.04208720102906227,-11.793051719665527
1.7294961953134124e+18,-0.02148047462105751,-0.04949459806084633,-11.836130142211914
1.7294961953224125e+18,0.012011509388685226,-0.012506430968642235,-11.718520164489746
1.7294961953314127e+18,0.06774722784757614,-0.012366889975965023,-11.703076362609863
1.729496195343413e+18,-0.036961838603019714,0.03447643294930458,-11.591968536376953
1.7294961953554132e+18,0.09476674348115921,0.014231064356863499,-11.54214859008789
1.7294961953614134e+18,0.06332063674926758,0.012278154492378235,-11.546286582946777
1.7294961953704136e+18,0.008143365383148193,-0.03817521408200264,-11.482029914855957
1.7294961953794138e+18,-0.055965546518564224,-0.0016661136178299785,-11.460831642150879
1.729496195388414e+18,-0.06549043953418732,-0.052533432841300964,-11.501297950744629
1.7294961953974141e+18,-0.020013781264424324,-0.03285856917500496,-11.369236946105957
1.7294961954064143e+18,0.009635036811232567,0.058377910405397415,-11.385177612304688
1.7294961954154145e+18,-0.04971178621053696,-0.005601402837783098,-11.298617362976074
1.7294961954214147e+18,0.002504849573597312,0.035976361483335495,-11.324666023254395
1.7294961954304148e+18,0.024922069162130356,-0.03379390016198158,-11.270058631896973
1.729496195439415e+18,0.02205066755414009,0.09565405547618866,-11.20671558380127
1.7294961954484152e+18,0.015492732636630535,0.02381817065179348,-11.182069778442383
1.7294961954544154e+18,-0.011457318440079689,0.015408175997436047,-11.234146118164062
1.7294961954634156e+18,-0.04580269381403923,0.04576602205634117,-11.167745590209961
1.7294961954724157e+18,-0.025030069053173065,0.01622183434665203,-11.122110366821289
1.729496195481416e+18,0.03636780381202698,-0.06060938537120819,-11.171098709106445
1.729496195490416e+18,-0.06553970277309418,0.050601180642843246,-11.088189125061035
1.7294961954994163e+18,-0.05851443111896515,-0.07410909235477448,-11.125831604003906
1.7294961955084165e+18,0.0843123346567154,-0.03959045186638832,-11.011009216308594
1.7294961955144166e+18,0.009569033980369568,0.02435891516506672,-11.038774490356445
1.7294961955234168e+18,0.029549695551395416,-0.03457168489694595,-11.048585891723633
1.729496195532417e+18,0.013113987632095814,0.05191333219408989,-10.928067207336426
1.7294961955414172e+18,0.0016355265397578478,-0.023975443094968796,-10.958454132080078
1.7294961955504174e+18,-0.018254823982715607,0.02158944122493267,-10.907894134521484
1.7294961955594176e+18,0.01485577691346407,0.003716963343322277,-10.951000213623047
1.7294961955654177e+18,0.03576513007283211,0.011890201829373837,-10.912172317504883
1.729496195574418e+18,0.00698661245405674,-0.0023244654294103384,-10.911684036254883
1.729496195583418e+18,-0.004983232822269201,0.05535929277539253,-10.814361572265625
1.7294961955924183e+18,0.0016627393197268248,-0.058467231690883636,-10.778432846069336
1.7294961956014185e+18,-0.03772887960076332,0.06141297519207001,-10.801408767700195
1.7294961956104187e+18,0.01089976541697979,0.009286797605454922,-10.773597717285156
1.7294961956164188e+18,0.03627241030335426,0.0006823324365541339,-10.736594200134277
1.729496195625419e+18,0.026153091341257095,0.07488231360912323,-10.680523872375488
1.7294961956344192e+18,-0.046858809888362885,-0.05735936015844345,-10.700973510742188
1.7294961956434194e+18,0.01622367836534977,0.018554197624325752,-10.664307594299316
1.7294961956524196e+18,0.008034523576498032,0.03234563395380974,-10.62131404876709
1.7294961956584197e+18,-0.01040895376354456,0.09159035235643387,-10.63907241821289
1.72949619566742e+18,-0.017608292400836945,0.08001293987035751,-10.57237720489502
1.72949619567642e+18,-0.007556580007076263,-0.018795885145664215,-10.606158256530762
1.7294961956854203e+18,-0.02761916071176529,0.01580016314983368,-10.581391334533691
1.7294961956914204e+18,-0.08153454959392548,0.015495278872549534,-10.580592155456543
1.7294961957004206e+18,-0.00181683455593884,-0.003537189681082964,-10.576438903808594
1.7294961957094208e+18,-0.056398507207632065,0.005664018914103508,-10.579087257385254
1.729496195718421e+18,-0.018232133239507675,0.004749826621264219,-10.509503364562988
1.729496195724421e+18,-0.04195479676127434,0.051555924117565155,-10.468705177307129
1.7294961957334213e+18,0.09045661240816116,-0.007197324652224779,-10.543498992919922
1.7294961957424215e+18,0.010291052982211113,-0.007391463499516249,-10.492476463317871
1.7294961957484216e+18,0.07865748554468155,0.025595568120479584,-10.447976112365723
1.7294961957574218e+18,0.020420823246240616,0.04683450609445572,-10.48755168914795
1.729496195766422e+18,-0.009679926559329033,0.025167126208543777,-10.535161018371582
1.7294961957754222e+18,-0.014166995882987976,0.039339739829301834,-10.391488075256348
1.7294961957844224e+18,-0.0632036030292511,-0.07788421213626862,-10.418522834777832
1.7294961957904225e+18,-0.039888981729745865,0.030946452170610428,-10.374523162841797
1.7294961957994227e+18,-0.04596349596977234,0.010913717560470104,-10.44898509979248
1.729496195808423e+18,-0.015810977667570114,-0.009791366755962372,-10.326743125915527
1.729496195814423e+18,-0.03494613245129585,-0.0257096067070961,-10.349865913391113
1.7294961958234232e+18,0.034617818892002106,-0.012492098845541477,-10.321234703063965
1.7294961958324234e+18,0.0444931723177433,-0.014322283677756786,-10.353446960449219
1.7294961958384236e+18,0.14024169743061066,-0.008956431411206722,-10.355889320373535
1.7294961958474237e+18,-0.037960004061460495,-0.036814089864492416,-10.320877075195312
1.729496195856424e+18,0.0021450084168463945,0.011566529050469398,-10.300625801086426
1.7294961958654241e+18,0.025378461927175522,-0.030739299952983856,-10.30394172668457
1.7294961958744243e+18,-0.0469505600631237,0.029314851388335228,-10.277637481689453
1.7294961958804244e+18,0.04593045637011528,-0.0014972875360399485,-10.234585762023926
1.7294961958894246e+18,0.05044155195355415,0.0015486585907638073,-10.212056159973145
1.7294961958984248e+18,-0.04278718680143356,-0.0679185688495636,-10.252006530761719
1.729496195907425e+18,-0.016698088496923447,0.021186916157603264,-10.190266609191895
1.7294961959134252e+18,-0.0413752906024456,0.0711386501789093,-10.23115062713623
1.7294961959224253e+18,-0.038833122700452805,-0.018972942605614662,-10.22959041595459
1.7294961959314255e+18,0.07969304174184799,0.1075984314084053,-10.159090995788574
1.7294961959374257e+18,-0.04289510101079941,0.006843568757176399,-10.182944297790527
1.7294961959464259e+18,0.015143132768571377,0.036492884159088135,-10.209588050842285
1.729496195955426e+18,0.041139163076877594,-0.0491383858025074,-10.170588493347168
1.7294961959614262e+18,0.0636199489235878,-0.03442184254527092,-10.150555610656738
1.7294961959704264e+18,0.008595487102866173,-0.04346757009625435,-10.115652084350586
1.7294961959794266e+18,-0.010093682445585728,0.012911093421280384,-10.254167556762695
1.7294961959854267e+18,-0.03981047123670578,0.026977751404047012,-10.157337188720703
1.729496195994427e+18,-0.05893833190202713,0.030454237014055252,-10.158544540405273
1.729496196003427e+18,-0.06072811409831047,-0.006512424908578396,-10.20294189453125
1.7294961960124273e+18,-0.054216716438531876,-0.03866692632436752,-10.0730619430542
1.7294961960184274e+18,0.02659851685166359,-0.04047395661473274,-10.096146583557129
1.7294961960274276e+18,-0.049649547785520554,-0.01983065716922283,-10.006316184997559
1.7294961960364278e+18,-0.10275997221469879,-0.03466201201081276,-10.139511108398438
1.729496196045428e+18,0.018801435828208923,-0.002141457051038742,-10.004922866821289
1.729496196051428e+18,0.005858022719621658,0.003757503116503358,-10.017708778381348
1.7294961960604283e+18,-0.005852381698787212,0.0008673660922795534,-10.066435813903809
1.7294961960694285e+18,-0.005601081531494856,-0.06267804652452469,-10.030893325805664
1.7294961960784287e+18,0.03864961117506027,0.05476231500506401,-10.128479957580566
1.7294961960874289e+18,0.06359677761793137,-0.027330098673701286,-10.057393074035645
1.729496196093429e+18,-0.0755152478814125,-0.022795412689447403,-9.991575241088867
1.7294961961024292e+18,0.030517350882291794,0.03518989682197571,-10.032596588134766
1.7294961961084293e+18,-0.0069007850252091885,0.060477498918771744,-10.057723045349121
1.7294961961174295e+18,-0.03984324634075165,0.015740152448415756,-9.926156997680664
1.7294961961264297e+18,0.014335615560412407,-0.01836194470524788,-9.957860946655273
1.72949619613543e+18,-0.046083949506282806,0.03425649181008339,-9.938176155090332
1.72949619614443e+18,0.013793621212244034,-0.03801840543746948,-9.968084335327148
1.7294961961564303e+18,0.07820779830217361,-0.008955318480730057,-10.000938415527344
1.7294961961624305e+18,-0.02954520657658577,0.0005183606408536434,-10.0130033493042
1.7294961961744307e+18,0.040013380348682404,0.007995231077075005,-10.0111083984375
1.729496196183431e+18,0.00238594226539135,0.00253480626270175,-10.015539169311523
1.729496196189431e+18,-0.05469835549592972,-0.009756791405379772,-9.90872859954834
1.7294961961984312e+18,0.05158504098653793,-0.0007873315480537713,-9.932045936584473
1.7294961962074314e+18,-0.03190957009792328,-0.05655434727668762,-9.950349807739258
1.7294961962164316e+18,0.02997954562306404,0.002869559917598963,-9.947964668273926
1.7294961962254318e+18,0.025024306029081345,0.022456087172031403,-9.971721649169922
1.729496196234432e+18,-0.01714254356920719,0.00017110472253989428,-9.870340347290039
1.7294961962434322e+18,-0.10247695446014404,-0.04809195175766945,-9.919108390808105
1.7294961962524324e+18,-0.07221943140029907,-0.01931612938642502,-9.913570404052734
1.7294961962614326e+18,0.04026162996888161,-0.048871323466300964,-9.876686096191406
1.7294961962674327e+18,-0.039098262786865234,-0.04044472426176071,-9.78604793548584
1.729496196276433e+18,-0.04411206394433975,0.013389840722084045,-9.909425735473633
1.729496196285433e+18,0.08334457874298096,0.05275046080350876,-9.885083198547363
1.7294961962944333e+18,0.01127058919519186,-0.0007354556582868099,-9.836292266845703
1.7294961963034335e+18,-0.05252183973789215,0.014171505346894264,-9.838801383972168
1.7294961963124337e+18,-0.017863240092992783,-0.07855934649705887,-9.8497953414917
1.7294961963214339e+18,-0.00178553129080683,0.0150518249720335,-9.870241165161133
1.729496196330434e+18,-0.030874796211719513,-0.029025306925177574,-9.881628036499023
1.7294961963394342e+18,0.02847793698310852,0.051307208836078644,-9.875121116638184
1.7294961963454344e+18,-0.03652581200003624,-0.00038504277472384274,-9.943668365478516
1.7294961963544346e+18,0.006571258883923292,-0.0012028772616758943,-9.831384658813477
1.7294961963634348e+18,-0.042598068714141846,0.09701768308877945,-9.79561996459961
1.729496196372435e+18,0.05491076782345772,0.006130452733486891,-9.842966079711914
1.7294961963814351e+18,-0.05278100445866585,0.06130950525403023,-9.929978370666504
1.7294961963904353e+18,-0.0021911896765232086,-0.012714708223938942,-9.862899780273438
1.7294961963964355e+18,0.05364774167537689,-0.005511900410056114,-9.877833366394043
1.7294961964054356e+18,0.004543515387922525,-0.013324419036507607,-9.838150978088379
1.7294961964144358e+18,0.046402569860219955,0.0005146258044987917,-9.839276313781738
1.729496196423436e+18,-0.053385186940431595,0.06920570135116577,-9.783337593078613
1.7294961964324362e+18,-0.10372903198003769,0.04448007047176361,-9.833148002624512
1.7294961964384364e+18,-0.030691320076584816,0.05168954282999039,-9.881685256958008
1.7294961964474365e+18,0.05577508732676506,-0.005505195818841457,-9.814966201782227
1.7294961964564367e+18,-0.03328077867627144,0.07267747819423676,-9.775665283203125
1.729496196465437e+18,-0.016322411596775055,-0.04858606681227684,-9.776535034179688
1.729496196471437e+18,-0.05695527419447899,-0.03196002542972565,-9.866847038269043
1.7294961964804372e+18,0.044068533927202225,0.026690948754549026,-9.80384635925293
1.7294961964894374e+18,-0.04950663447380066,-0.017007961869239807,-9.779017448425293
1.7294961964984376e+18,0.009739408269524574,-0.03712911158800125,-9.770288467407227
1.7294961965044378e+18,0.012453209608793259,-0.037741851061582565,-9.849542617797852
1.729496196513438e+18,0.012131987139582634,0.02624676004052162,-9.793668746948242
1.7294961965224381e+18,-0.016407424584031105,-0.02485944703221321,-9.723132133483887
1.7294961965314383e+18,0.044071175158023834,-0.01283764187246561,-9.794381141662598
1.7294961965404385e+18,-0.08188679814338684,-0.006104480940848589,-9.765924453735352
1.7294961965464387e+18,-0.04279037564992905,-0.004119567573070526,-9.811012268066406
1.7294961965554388e+18,-0.029579952359199524,0.022796515375375748,-9.830222129821777
1.729496196564439e+18,-0.027498679235577583,0.005455756559967995,-9.750579833984375
1.7294961965704392e+18,-0.025069257244467735,0.020306618884205818,-9.717672348022461
1.7294961965794394e+18,0.042130246758461,-0.05105730518698692,-9.837404251098633
1.7294961965884396e+18,0.030655551701784134,0.011029647663235664,-9.734588623046875
1.7294961965944397e+18,0.007601612247526646,-0.08648231625556946,-9.792577743530273
1.7294961966034399e+18,0.07706484943628311,0.018321650102734566,-9.76390266418457
1.72949619660944e+18,0.003561559831723571,0.008385926485061646,-9.75491714477539
1.7294961966184402e+18,0.021147161722183228,0.042858563363552094,-9.747054100036621
1.7294961966274404e+18,0.0563715398311615,-0.011945510283112526,-9.749040603637695
1.7294961966334405e+18,0.0035178966354578733,-0.053647980093955994,-9.766030311584473
1.7294961966424407e+18,-0.020432913675904274,0.005748901981860399,-9.71741771697998
1.729496196651441e+18,-0.04163870960474014,-0.03356315940618515,-9.6932954788208
1.729496196657441e+18,0.01232023723423481,0.03177081421017647,-9.760560035705566
1.7294961966664412e+18,0.04199860244989395,0.00021253741579130292,-9.790708541870117
1.7294961966754414e+18,-0.04064885154366493,0.05563464015722275,-9.790499687194824
1.7294961966814415e+18,-0.11898791044950485,-0.03198805823922157,-9.785430908203125
1.7294961966904417e+18,-0.005263333208858967,0.022382661700248718,-9.776464462280273
1.729496196699442e+18,0.010750982910394669,-0.026589715853333473,-9.613004684448242
1.729496196705442e+18,0.06805707514286041,0.04292599856853485,-9.784326553344727
1.7294961967144422e+18,0.01633477210998535,-0.033672995865345,-9.733846664428711
1.7294961967234424e+18,0.03032497502863407,0.045494724065065384,-9.780264854431152
1.7294961967294426e+18,-0.04184309393167496,-0.02505258284509182,-9.754420280456543
1.7294961967384428e+18,-0.04396123066544533,-0.0223072562366724,-9.72803783416748
1.729496196747443e+18,-0.027361927554011345,0.04887189343571663,-9.738734245300293
1.7294961967564431e+18,0.04965517297387123,0.041523613035678864,-9.760502815246582
1.7294961967624433e+18,-0.05284934118390083,3.8920359656913206e-05,-9.679638862609863
1.7294961967714435e+18,-0.02631833776831627,-0.030230021104216576,-9.712462425231934
1.7294961967804436e+18,-0.01203209813684225,-0.0812913253903389,-9.716878890991211
1.7294961967864438e+18,-0.016613436862826347,0.07398177683353424,-9.778292655944824
1.729496196795444e+18,0.009913251735270023,0.00567290186882019,-9.726631164550781
1.729496196801444e+18,-0.05615786463022232,0.06845355033874512,-9.736684799194336
1.7294961968074442e+18,-0.017215341329574585,0.039877016097307205,-9.71606159210205
1.7294961968164444e+18,-0.021299567073583603,-0.015597567893564701,-9.781200408935547
1.7294961968254446e+18,-0.030090685933828354,-0.05033542588353157,-9.674958229064941
1.7294961968344448e+18,0.033918753266334534,0.027278218418359756,-9.723724365234375
1.729496196840445e+18,0.009286069311201572,-0.06954892724752426,-9.707732200622559
1.729496196849445e+18,-0.03315593674778938,0.012653590179979801,-9.743867874145508
1.7294961968584453e+18,0.006122150458395481,-0.023184839636087418,-9.750712394714355
1.7294961968674455e+18,-0.011016860604286194,-0.008917601779103279,-9.863162994384766
1.7294961968764457e+18,0.030890893191099167,0.004808011930435896,-9.882146835327148
1.7294961968824458e+18,-0.10221191495656967,-0.05268941447138786,-9.846802711486816
1.729496196891446e+18,-0.040828075259923935,0.002777881221845746,-9.816312789916992
1.7294961969004462e+18,0.06392558664083481,-0.007374819368124008,-9.79938793182373
1.7294961969064463e+18,-0.005612769164144993,-0.02959446609020233,-9.803144454956055
1.7294961969154465e+18,0.005477741826325655,-0.036912694573402405,-9.907424926757812
1.7294961969244467e+18,-0.06048628315329552,-0.04676240310072899,-9.823376655578613
1.7294961969304468e+18,0.0014535977970808744,-0.036241013556718826,-9.764862060546875
1.729496196939447e+18,0.04875849187374115,-0.08235155791044235,-9.852519035339355
1.7294961969484472e+18,0.05537392199039459,-0.017514867708086967,-9.869545936584473
1.7294961969574474e+18,-0.026790248230099678,-0.08015439659357071,-9.738880157470703
1.7294961969634476e+18,0.022564943879842758,-0.033792175352573395,-9.806170463562012
1.7294961969724477e+18,-0.0032036006450653076,0.06552271544933319,-9.726128578186035
1.729496196981448e+18,-0.013324355706572533,-0.0679108202457428,-9.7552490234375
1.729496196987448e+18,-0.03692720830440521,-0.03517017886042595,-9.787055015563965
1.7294961969964483e+18,-0.00048190445522777736,-0.07728991657495499,-9.779563903808594
1.7294961970054484e+18,-0.012821467593312263,-0.04168042540550232,-9.781299591064453
1.7294961970114486e+18,0.02046198584139347,0.013713224790990353,-9.770732879638672
1.7294961970204488e+18,0.020389793440699577,-0.014481116086244583,-9.797203063964844
1.729496197029449e+18,-0.015585608780384064,-0.06619402766227722,-9.78005313873291
1.7294961970384492e+18,0.05301465094089508,0.05257757380604744,-9.786155700683594
1.7294961970444493e+18,0.03051266446709633,-0.05175089091062546,-9.782541275024414
1.7294961970534495e+18,0.02820863574743271,-0.07379433512687683,-9.787677764892578
1.7294961970594496e+18,0.012230373919010162,-0.026994019746780396,-9.731135368347168
1.7294961970684498e+18,-0.03263282775878906,-0.0001394309801980853,-9.832868576049805
1.72949619707745e+18,0.025704894214868546,-0.028930136933922768,-9.743474006652832
1.7294961970864502e+18,-0.02447723038494587,0.0007678839610889554,-9.7440824508667
1.7294961970954504e+18,0.03248904272913933,-0.0034027216024696827,-9.785360336303711
1.7294961971014505e+18,0.07502163201570511,-0.08337229490280151,-9.843587875366211
1.7294961971104507e+18,-0.019670801237225533,0.09615755081176758,-9.804831504821777
1.729496197119451e+18,-0.018675152212381363,-0.01352967694401741,-9.803776741027832
1.729496197125451e+18,-0.029796481132507324,0.036514826118946075,-9.754353523254395
1.7294961971344512e+18,0.056140247732400894,-0.0136845912784338,-9.785240173339844
1.7294961971434514e+18,-0.014575162902474403,0.06844545155763626,-9.800378799438477
1.7294961971524516e+18,0.05795370787382126,-0.022721227258443832,-9.677634239196777
1.7294961971584517e+18,0.08028216660022736,0.037116728723049164,-9.70002269744873
1.729496197167452e+18,-0.01807563193142414,0.045369260013103485,-9.791205406188965
1.729496197173452e+18,-0.022159146144986153,-0.025958029553294182,-9.800514221191406
1.7294961971824522e+18,-0.10405438393354416,-0.05269209295511246,-9.697803497314453
1.7294961971914524e+18,-0.009005381725728512,-0.015271028503775597,-9.668329238891602
1.7294961972004526e+18,-0.031729284673929214,-0.09211936593055725,-9.746391296386719
1.7294961972064527e+18,0.03712620958685875,-0.03277994319796562,-9.759422302246094
1.729496197215453e+18,-0.06103777885437012,-0.03466559946537018,-9.718753814697266
1.729496197224453e+18,-0.002239005407318473,-0.0012149405665695667,-9.681074142456055
1.7294961972304532e+18,0.05684380605816841,-0.08251284062862396,-9.703775405883789
1.7294961972394534e+18,-0.006595015060156584,0.029159443452954292,-9.712665557861328
1.7294961972484536e+18,-0.009997164830565453,-0.011132494546473026,-9.730191230773926
1.7294961972574538e+18,-0.03799007087945938,-0.024562638252973557,-9.776445388793945
1.729496197263454e+18,0.035570744425058365,-0.10190177708864212,-9.755046844482422
1.7294961972724541e+18,-0.00933003518730402,-0.012713349424302578,-9.782108306884766
1.7294961972784543e+18,-0.0005075696390122175,-0.0384335033595562,-9.758498191833496
1.7294961972874545e+18,-0.07922407239675522,-0.02516062743961811,-9.80979061126709
1.7294961972964547e+18,-0.02951950952410698,0.015033119358122349,-9.747777938842773
1.7294961973024548e+18,-0.025695396587252617,0.09216652810573578,-9.750070571899414
1.729496197311455e+18,-0.01955786533653736,-0.014496750198304653,-9.71307373046875
1.729496197317455e+18,-0.049976833164691925,-0.032578930258750916,-9.756531715393066
1.7294961973264553e+18,0.0025867579970508814,-0.045220281928777695,-9.763258934020996
1.7294961973324554e+18,-0.04572172462940216,-0.07029590010643005,-9.809013366699219
1.7294961973414556e+18,-0.040800925344228745,0.011883938685059547,-9.753192901611328
1.7294961973504558e+18,-0.0067992196418344975,0.002441198332235217,-9.77932357788086
1.729496197359456e+18,-0.028560398146510124,-0.07034823298454285,-9.76724910736084
1.7294961973684562e+18,0.0015325115527957678,0.058723531663417816,-9.789180755615234
1.7294961973774564e+18,-0.08808048069477081,-0.028470739722251892,-9.74039363861084
1.7294961973834565e+18,-0.005577769596129656,0.03433964028954506,-9.7139253616333
1.7294961973924567e+18,0.04261265695095062,-0.026959804818034172,-9.821420669555664
1.729496197401457e+18,-0.04011260345578194,0.08519530296325684,-9.779376029968262
1.729496197407457e+18,0.00014248456864152104,0.011305016465485096,-9.690608024597168
1.7294961974164572e+18,0.05470383167266846,0.012433871626853943,-9.75468635559082
1.7294961974224573e+18,0.05396144092082977,-0.021293623372912407,-9.7135009765625
1.7294961974314575e+18,0.10673558712005615,-0.009484673850238323,-9.757743835449219
1.7294961974404577e+18,-0.06199207901954651,-0.0405585952103138,-9.773177146911621
1.729496197449458e+18,-0.01693330518901348,-0.03997524827718735,-9.723968505859375
1.729496197455458e+18,0.031947020441293716,0.0075355274602770805,-9.77196216583252
1.7294961974644582e+18,0.05612486973404884,0.03647039458155632,-9.754798889160156
1.7294961974704584e+18,0.0839034840464592,-0.07294911891222,-9.695369720458984
1.7294961974794586e+18,0.07142582535743713,-0.0067778220400214195,-9.744989395141602
1.7294961974884588e+18,0.0530393049120903,0.01419672742486,-9.731435775756836
1.729496197494459e+18,0.010544258169829845,-0.025401810184121132,-9.766916275024414
1.729496197503459e+18,0.04838695004582405,-0.04221106693148613,-9.787129402160645
1.7294961975124593e+18,-0.003993547987192869,-0.01669619232416153,-9.79904842376709
1.7294961975184594e+18,0.024518493562936783,0.020111186429858208,-9.690521240234375
1.7294961975274596e+18,0.01162598468363285,0.05351518839597702,-9.668170928955078
1.7294961975394598e+18,-0.045743636786937714,-0.020640939474105835,-9.762310028076172
1.72949619754846e+18,-0.024112369865179062,0.04281299188733101,-9.736242294311523
1.7294961975544602e+18,0.0250899288803339,-0.08850590884685516,-9.719734191894531
1.7294961975634604e+18,0.007519237231463194,-0.029665756970643997,-9.677647590637207
1.7294961975694605e+18,-0.05898698419332504,0.02095707505941391,-9.693965911865234
1.7294961975784607e+18,-0.033347003161907196,0.005568161141127348,-9.650782585144043
1.7294961975874609e+18,0.06362934410572052,0.11614930629730225,-9.781784057617188
1.729496197596461e+18,0.0020729785319417715,0.056870538741350174,-9.747940063476562
1.7294961976024612e+18,-0.029045235365629196,0.004188969731330872,-9.779830932617188
1.7294961976114614e+18,-0.022755898535251617,0.054510533809661865,-9.712568283081055
1.7294961976204616e+18,-0.04129130765795708,0.05305391177535057,-9.768977165222168
1.7294961976264617e+18,-0.02110564522445202,-0.045214634388685226,-9.693371772766113
1.729496197635462e+18,-0.035740986466407776,0.0055955019779503345,-9.716099739074707
1.729496197641462e+18,-0.06164524704217911,-0.010120019316673279,-9.720589637756348
1.7294961976504622e+18,-0.0028517127502709627,0.012718761339783669,-9.714348793029785
1.7294961976594624e+18,0.04543258994817734,0.027869222685694695,-9.753006935119629
1.7294961976654625e+18,-0.03685252368450165,0.043155014514923096,-9.693404197692871
1.7294961976744627e+18,0.02418985776603222,-0.026300575584173203,-9.75247859954834
1.729496197683463e+18,0.006461904849857092,0.017075983807444572,-9.845475196838379
1.729496197689463e+18,0.06282354146242142,0.0445164330303669,-9.683684349060059
1.7294961976984632e+18,-0.022384941577911377,-0.11789192259311676,-9.740643501281738
1.7294961977074634e+18,0.06629400700330734,-0.017330247908830643,-9.737485885620117
1.7294961977164636e+18,-0.07949387282133102,-0.0022215964272618294,-9.742387771606445
1.7294961977254638e+18,-0.004682591650635004,0.05906875431537628,-9.775032043457031
1.729496197731464e+18,0.03429616987705231,0.015275671146810055,-9.710447311401367
1.729496197740464e+18,0.022014157846570015,0.05720837041735649,-9.76696491241455
1.7294961977494643e+18,-0.10934356600046158,-0.005517131183296442,-9.680885314941406
1.7294961977554644e+18,0.06277599930763245,0.1374039351940155,-9.76237678527832
1.7294961977644646e+18,-0.014521794393658638,-0.013001189567148685,-9.613595962524414
1.7294961977734648e+18,-0.030948087573051453,0.02272905595600605,-9.663044929504395
1.729496197779465e+18,-0.017204899340867996,0.011345058679580688,-9.789148330688477
1.7294961977884652e+18,-0.05312475189566612,0.01523702684789896,-9.813840866088867
1.7294961977974653e+18,-0.011577509343624115,0.004015829414129257,-9.72364616394043
1.7294961978064655e+18,0.06750735640525818,0.00033980351872742176,-9.714000701904297
1.7294961978124657e+18,0.06565451622009277,-0.005654954817146063,-9.692852973937988
1.7294961978214659e+18,-0.021344203501939774,0.026952527463436127,-9.720181465148926
1.729496197827466e+18,-0.02199115790426731,0.005482077598571777,-9.726993560791016
1.7294961978364662e+18,-0.05202062055468559,-0.0782201737165451,-9.812883377075195
1.7294961978454664e+18,-0.008410539478063583,0.010901594534516335,-9.7463960647583
1.7294961978514665e+18,0.03766658902168274,-0.0572395846247673,-9.727002143859863
1.7294961978604667e+18,-0.03391861543059349,0.009161271154880524,-9.697559356689453
1.729496197869467e+18,0.019654395058751106,-0.029032189399003983,-9.725702285766602
1.729496197875467e+18,0.03019862063229084,0.009003739804029465,-9.793828010559082
1.7294961978844672e+18,0.020505351945757866,0.07787017524242401,-9.729816436767578
1.7294961978934674e+18,-0.06938699632883072,-0.03732403740286827,-9.840930938720703
1.7294961979024676e+18,0.060722582042217255,-0.0173519104719162,-9.790492057800293
1.7294961979084677e+18,0.06460626423358917,0.09521447867155075,-9.675419807434082
1.729496197917468e+18,0.034311216324567795,-0.06844764947891235,-9.817734718322754
1.729496197923468e+18,-0.027662960812449455,-0.004793173633515835,-9.666604995727539
1.7294961979324682e+18,0.027601270005106926,-0.049393001943826675,-9.802446365356445
1.7294961979414684e+18,0.0038026722613722086,-0.0014429795555770397,-9.790911674499512
1.7294961979474685e+18,-0.03208816424012184,-0.004288807045668364,-9.77779483795166
1.7294961979564687e+18,-0.0438188798725605,-0.07044099271297455,-9.766067504882812
1.729496197965469e+18,0.04546453431248665,0.006548565812408924,-9.804181098937988
1.729496197971469e+18,0.02466301992535591,0.049224063754081726,-9.682340621948242
1.7294961979804692e+18,0.029154730960726738,0.002618631348013878,-9.66356086730957
1.7294961979894694e+18,0.0653080865740776,0.029058823361992836,-9.703230857849121
1.7294961979954696e+18,0.07073108851909637,0.04126506671309471,-9.815962791442871
1.7294961980044698e+18,0.02854330465197563,0.05045101046562195,-9.767196655273438
1.72949619801347e+18,0.02115623466670513,0.015220105648040771,-9.728354454040527
1.72949619801947e+18,-0.0013895968440920115,-0.051306139677762985,-9.724311828613281
1.7294961980284703e+18,6.30180657026358e-05,-3.406770701985806e-05,-9.771591186523438
1.7294961980344704e+18,0.06013234332203865,0.05316976085305214,-9.721311569213867
1.7294961980434706e+18,0.024615753442049026,0.020652102306485176,-9.72951889038086
1.7294961980524708e+18,-0.04624956473708153,0.09651809185743332,-9.711501121520996
1.729496198058471e+18,0.005859230645000935,-0.014216937124729156,-9.723419189453125
1.729496198067471e+18,-0.03840647265315056,0.017256153747439384,-9.760479927062988
1.7294961980764713e+18,0.01382802426815033,-0.0288223959505558,-9.666686058044434
1.7294961980854715e+18,0.08310320973396301,0.023517241701483727,-9.758167266845703
1.7294961981004718e+18,-0.015214583836495876,0.0007682809373363853,-9.670539855957031
1.729496198109472e+18,0.015182459726929665,-0.05079495906829834,-9.747173309326172
1.7294961981184722e+18,-0.06039411947131157,0.08105049282312393,-9.76264476776123
1.7294961981244723e+18,0.06097204610705376,-0.08213593810796738,-9.725950241088867
1.7294961981334725e+18,-0.0066736796870827675,0.025098728016018867,-9.768420219421387
1.7294961981424727e+18,-0.03490746393799782,0.03714525327086449,-9.717889785766602
1.729496198151473e+18,0.023990264162421227,0.06056079640984535,-9.775494575500488
1.729496198157473e+18,-0.06199095770716667,0.01523591112345457,-9.717594146728516
1.7294961981664732e+18,0.00678856810554862,0.007254530675709248,-9.706310272216797
1.7294961981754734e+18,0.020917829126119614,-0.011893014423549175,-9.71571159362793
1.7294961981814735e+18,-0.0030763796530663967,-0.029035868123173714,-9.753561973571777
1.7294961981904737e+18,0.0074755786918103695,0.04974747821688652,-9.75613021850586
1.729496198199474e+18,0.007428039330989122,-0.05483034998178482,-9.783869743347168
1.729496198205474e+18,-0.014646042138338089,-0.03274615854024887,-9.77184009552002
1.7294961982144742e+18,0.06896062195301056,-0.015967534855008125,-9.75820541381836
1.7294961982234744e+18,0.02533717080950737,0.03410261124372482,-9.754548072814941
1.7294961982324746e+18,-0.03337714448571205,-0.00011269722017459571,-9.774555206298828
1.7294961982414748e+18,0.005736544728279114,-0.028101377189159393,-9.808274269104004
1.729496198247475e+18,0.10392411053180695,-0.03912031278014183,-9.707409858703613
1.7294961982564751e+18,0.03615657612681389,0.07889402657747269,-9.808067321777344
1.7294961982654753e+18,-0.09528344124555588,-0.022879624739289284,-9.75388240814209
1.7294961982714755e+18,-0.021175092086195946,0.04324346408247948,-9.722295761108398
1.7294961982804756e+18,-0.013324997387826443,0.05464284494519234,-9.74980640411377
1.7294961982894758e+18,0.013909609988331795,0.03819141164422035,-9.751893997192383
1.729496198298476e+18,-0.08573290705680847,-0.008580630645155907,-9.747075080871582
1.7294961983044762e+18,0.04009518027305603,0.040850929915905,-9.784283638000488
1.7294961983134764e+18,-0.05596903711557388,-0.06961672008037567,-9.748087882995605
1.7294961983194765e+18,0.04982496052980423,0.012771817855536938,-9.735483169555664
1.7294961983284767e+18,-0.038534484803676605,-0.044378556311130524,-9.740821838378906
1.7294961983374769e+18,-0.005327380262315273,0.03436829149723053,-9.736655235290527
1.729496198343477e+18,-0.03436921164393425,0.03525283932685852,-9.742589950561523
1.7294961983524772e+18,0.012176137417554855,0.02726537361741066,-9.71535587310791
1.7294961983614774e+18,0.05452039837837219,-0.01954588294029236,-9.790498733520508
1.7294961983704776e+18,0.08667470514774323,-0.06651380658149719,-9.807623863220215
1.7294961983794778e+18,0.007181111257523298,-0.016546420753002167,-9.744046211242676
1.729496198388478e+18,-0.0022738738916814327,-0.06752178817987442,-9.748421669006348
1.729496198394478e+18,0.044908951967954636,-0.018875639885663986,-9.702008247375488
1.7294961984034783e+18,-0.007934344932436943,-0.018784290179610252,-9.82929801940918
1.7294961984124785e+18,0.04017236456274986,0.013233556412160397,-9.691943168640137
1.7294961984184786e+18,0.024723485112190247,-0.002445225603878498,-9.741156578063965
1.7294961984274788e+18,-0.03505588322877884,0.00541582889854908,-9.796090126037598
1.729496198436479e+18,-0.007113500032573938,-0.019647004082798958,-9.754097938537598
1.729496198442479e+18,-0.009514587931334972,-0.01920519396662712,-9.84459114074707
1.7294961984514793e+18,-0.0019309689523652196,-0.06749782711267471,-9.76840877532959
1.7294961984604795e+18,-0.05677729472517967,0.020901860669255257,-9.780537605285645
1.7294961984664796e+18,-0.03615913167595863,-0.02664175070822239,-9.72075366973877
1.7294961984754798e+18,-0.025615619495511055,0.007953019812703133,-9.79866886138916
1.72949619848448e+18,-0.025433672592043877,0.03879211097955704,-9.8525390625
1.72949619849048e+18,-0.027536354959011078,0.030986443161964417,-9.77989673614502
1.7294961984994803e+18,0.009143149480223656,-0.04874083399772644,-9.72983455657959
1.7294961985084805e+18,0.0027166944928467274,-0.06233206391334534,-9.734128952026367
1.7294961985174807e+18,0.04069605842232704,0.012042353861033916,-9.763654708862305
1.729496198526481e+18,0.08720564097166061,-0.0349024273455143,-9.791360855102539
1.729496198532481e+18,-0.017630817368626595,0.01978185772895813,-9.770020484924316
1.7294961985414812e+18,0.012475471943616867,-0.023846039548516273,-9.754451751708984
1.7294961985504814e+18,0.05214393511414528,-0.05153026804327965,-9.761808395385742
1.7294961985564815e+18,-0.008575266227126122,0.05639217421412468,-9.823441505432129
1.7294961985654817e+18,-0.0643123909831047,-0.03841341286897659,-9.821100234985352
1.729496198574482e+18,-0.0269289743155241,0.04879463091492653,-9.79165267944336
1.729496198583482e+18,-0.05006282776594162,-0.011642293073236942,-9.804129600524902
1.7294961985894822e+18,-0.04526695981621742,-0.0024239560589194298,-9.797616958618164
1.7294961985984824e+18,0.04155829921364784,0.049834270030260086,-9.79504108428955
1.7294961986074826e+18,-0.020782342180609703,-0.017742939293384552,-9.71075439453125
1.7294961986164828e+18,-0.013609073124825954,-0.06577344238758087,-9.758378028869629
1.729496198622483e+18,-0.012821181677281857,-0.07250848412513733,-9.783798217773438
1.7294961986314831e+18,-0.024676047265529633,0.005002002697438002,-9.750797271728516
1.7294961986404833e+18,-0.038772422820329666,-0.047498978674411774,-9.818302154541016
1.7294961986494835e+18,0.06384946405887604,-0.02547266148030758,-9.767019271850586
1.7294961986554836e+18,0.07445375621318817,0.013509253039956093,-9.751236915588379
1.7294961986644838e+18,0.0005499050603248179,-0.039075132459402084,-9.718481063842773
1.729496198673484e+18,0.04909919574856758,-0.08694867044687271,-9.810173034667969
1.7294961986794842e+18,-0.01104943547397852,0.036069951951503754,-9.753155708312988
1.7294961986884844e+18,0.02176341414451599,0.049307916313409805,-9.87516975402832
1.7294961986974845e+18,0.030829956755042076,0.04653816670179367,-9.832822799682617
1.7294961987034847e+18,0.10461000353097916,0.11364691704511642,-9.773449897766113
1.7294961987124849e+18,0.022179264575242996,-0.018260236829519272,-9.788838386535645
1.729496198721485e+18,-0.04651410132646561,-0.011072799563407898,-9.76752758026123
1.7294961987304852e+18,-0.02038836106657982,0.04163415729999542,-9.824542999267578
1.7294961987364854e+18,0.03305201604962349,0.021987443789839745,-9.786494255065918
1.7294961987454856e+18,-0.01261599175632,-0.05875731632113457,-9.664109230041504
1.7294961987544858e+18,0.037222933024168015,-0.01272075530141592,-9.724943161010742
1.729496198760486e+18,0.04455395042896271,0.006992802955210209,-9.709969520568848
1.729496198769486e+18,0.033063795417547226,-0.05643215402960777,-9.738380432128906
1.7294961987784863e+18,0.028883816674351692,-0.009969979524612427,-9.763508796691895
1.7294961987874865e+18,-0.016092469915747643,-0.048068817704916,-9.738731384277344
1.7294961987934866e+18,-0.004775857087224722,-0.04048534110188484,-9.81557846069336
1.7294961988024868e+18,-0.04110908508300781,0.011381948366761208,-9.794468879699707
1.729496198811487e+18,-0.03481153026223183,-0.001842843135818839,-9.78662109375
1.7294961988204872e+18,-0.026421045884490013,0.06931442767381668,-9.795609474182129
1.7294961988264873e+18,-0.0283113531768322,-0.04712981730699539,-9.735932350158691
1.7294961988354875e+18,0.05423812195658684,0.061569925397634506,-9.681586265563965
1.7294961988444877e+18,-0.08375456184148788,-0.0011173970997333527,-9.783611297607422
1.7294961988534879e+18,-0.025101156905293465,0.06350649148225784,-9.823714256286621
1.729496198862488e+18,-0.02026297152042389,-0.00968510378152132,-9.770116806030273
1.7294961988684882e+18,-0.022679468616843224,-0.041742682456970215,-9.792595863342285
1.7294961988774884e+18,0.020253870636224747,-0.024054430425167084,-9.845967292785645
1.7294961988864886e+18,0.02365749515593052,0.018616916611790657,-9.769033432006836
1.7294961988954888e+18,0.05788673087954521,0.07746941596269608,-9.727686882019043
1.729496198901489e+18,0.06467776745557785,0.020559925585985184,-9.90369987487793
1.729496198910489e+18,-0.02572711557149887,-0.08211750537157059,-9.777167320251465
1.7294961989194893e+18,0.027451828122138977,0.0009800971020013094,-9.7901611328125
1.7294961989284895e+18,-0.0018672795267775655,-0.021029483526945114,-9.760309219360352
1.7294961989344896e+18,-0.03120654821395874,0.03626006096601486,-9.782398223876953
1.7294961989434898e+18,-0.04715760424733162,0.01603560708463192,-9.846512794494629
1.72949619895249e+18,-0.04976171255111694,0.058803852647542953,-9.742303848266602
1.72949619895849e+18,0.004921958316117525,0.02477479912340641,-9.843266487121582
1.7294961989674903e+18,-0.028747733682394028,0.04497727379202843,-9.768364906311035
1.7294961989764905e+18,0.02200387790799141,0.07488497346639633,-9.790238380432129
1.7294961989824906e+18,0.019511977210640907,0.09918172657489777,-9.876039505004883
1.7294961989914908e+18,0.09041078388690948,0.006879745051264763,-9.759920120239258
1.729496198997491e+18,-0.009807154536247253,-0.02555777132511139,-9.800254821777344
1.7294961990064911e+18,-0.04677438363432884,-0.01636473275721073,-9.856555938720703
1.7294961990154913e+18,0.005280823912471533,-0.0753539577126503,-9.899811744689941
1.7294961990244915e+18,0.05532613769173622,-0.03394458070397377,-9.779688835144043
1.7294961990304916e+18,-0.044588353484869,-0.009259385988116264,-9.786066055297852
1.7294961990394918e+18,-0.046107567846775055,0.06336481869220734,-9.85693073272705
1.729496199048492e+18,-0.00836227647960186,-0.02022787369787693,-9.713480949401855
1.7294961990604923e+18,0.01405943464487791,-0.0025327373296022415,-9.769763946533203
1.7294961990664924e+18,-0.003061524825170636,0.04626970365643501,-9.7658052444458
1.7294961990754926e+18,0.03973681852221489,-0.0001092574093490839,-9.768582344055176
1.7294961990844928e+18,0.0025917445309460163,-0.0412798747420311,-9.780695915222168
1.729496199093493e+18,-0.062256574630737305,-0.02978619933128357,-9.810696601867676
1.729496199099493e+18,-0.031897976994514465,0.015583069063723087,-9.753313064575195
1.7294961991084933e+18,0.030116943642497063,0.02943744696676731,-9.772749900817871
1.7294961991174935e+18,0.055384792387485504,-0.017927493900060654,-9.784133911132812
1.7294961991234936e+18,-0.015316707082092762,0.10550928860902786,-9.825824737548828
1.7294961991324938e+18,-0.07332587242126465,-0.06363389641046524,-9.825752258300781
1.729496199138494e+18,-0.005886197555810213,-0.06041739881038666,-9.848831176757812
1.7294961991474941e+18,-0.01926172897219658,-0.04127805680036545,-9.814009666442871
1.7294961991564943e+18,-0.01421602163463831,0.05122574418783188,-9.821012496948242
1.7294961991624945e+18,0.024085426703095436,-0.05079697072505951,-9.810591697692871
1.7294961991714947e+18,-0.0789974108338356,-0.03159083425998688,-9.831073760986328
1.7294961991804948e+18,-0.03565676882863045,-0.0016997186467051506,-9.782220840454102
1.729496199186495e+18,0.007775407284498215,-0.029386311769485474,-9.778810501098633
1.7294961991954952e+18,0.008206916972994804,0.0010585961863398552,-9.75782299041748
1.7294961992044954e+18,0.041528329253196716,0.02295766957104206,-9.782587051391602
1.7294961992104955e+18,-0.021884914487600327,-0.06557293981313705,-9.773433685302734
1.7294961992194957e+18,0.010266924276947975,-0.026872344315052032,-9.79404067993164
1.7294961992254958e+18,-0.011994266882538795,0.031908102333545685,-9.86922550201416
1.729496199234496e+18,-0.030916821211576462,0.005468593444675207,-9.796273231506348
1.7294961992434962e+18,-0.03305326774716377,0.037351541221141815,-9.785953521728516
1.7294961992494963e+18,0.0022551738657057285,-0.13292135298252106,-9.85802173614502
1.7294961992584965e+18,-0.015341264195740223,0.010802856646478176,-9.793580055236816
1.7294961992674967e+18,-0.08543270081281662,0.06676017493009567,-9.774714469909668
1.729496199276497e+18,-0.00043865846237167716,-0.018956124782562256,-9.816174507141113
1.729496199285497e+18,-0.0301508828997612,-0.035093531012535095,-9.772356033325195
1.7294961992914972e+18,0.1006489098072052,-0.01878388412296772,-9.82165241241455
1.7294961993004974e+18,-0.04568447917699814,0.06750257313251495,-9.787869453430176
1.7294961993094976e+18,-0.01972881704568863,0.0065884580835700035,-9.800926208496094
1.7294961993154977e+18,0.07708603888750076,0.029426967725157738,-9.77575969696045
1.729496199324498e+18,0.005267808213829994,0.02231532894074917,-9.813505172729492
1.729496199333498e+18,-0.014884710311889648,-0.03601431846618652,-9.847783088684082
1.7294961993394982e+18,-0.049164243042469025,0.0027054487727582455,-9.730388641357422
1.7294961993484984e+18,0.02215179242193699,0.011198146268725395,-9.777853012084961
1.7294961993574986e+18,0.0603146031498909,-0.02488827519118786,-9.723739624023438
1.7294961993664988e+18,-0.05710474029183388,0.04150252044200897,-9.768035888671875
1.729496199372499e+18,-0.003964324947446585,0.006593681406229734,-9.820358276367188
1.7294961993814991e+18,-0.0822242945432663,0.006450080778449774,-9.811038970947266
1.7294961993904993e+18,-0.023084526881575584,-0.020446740090847015,-9.857665061950684
1.7294961993994995e+18,-0.025104612112045288,0.03803255036473274,-9.770875930786133
1.7294961994054996e+18,0.028538348153233528,0.08155431598424911,-9.790580749511719
1.7294961994144998e+18,0.11406359821557999,0.10700922459363937,-9.83957576751709
1.7294961994235e+18,0.04330446943640709,0.007405930198729038,-9.744515419006348
1.7294961994295002e+18,-0.0031971074640750885,-0.016054313629865646,-9.756954193115234
1.7294961994385004e+18,0.05901690945029259,0.09622341394424438,-9.814775466918945
1.7294961994475005e+18,-0.016651462763547897,-0.006460943259298801,-9.791017532348633
1.7294961994535007e+18,-0.026278948411345482,-0.06027188152074814,-9.753540992736816
1.7294961994625009e+18,-0.0028019247110933065,0.03589538484811783,-9.87066650390625
1.729496199471501e+18,0.07220260053873062,-0.02775977924466133,-9.803199768066406
1.7294961994775012e+18,-0.014792810194194317,0.020347783342003822,-9.86611270904541
1.7294961994865014e+18,-0.027556749060750008,0.05522817000746727,-9.8700590133667
1.7294961994955016e+18,0.029863916337490082,-0.071408212184906,-9.815827369689941
1.7294961995045018e+18,-0.09782755374908447,0.003519544843584299,-9.829920768737793
1.729496199513502e+18,-0.020690331235527992,0.022216644138097763,-9.808318138122559
1.729496199519502e+18,0.008209975436329842,-0.004819232039153576,-9.771998405456543
1.7294961995285023e+18,-0.029185578227043152,-0.06522487848997116,-9.81988525390625
1.7294961995375025e+18,-0.055325571447610855,-0.030916064977645874,-9.79185676574707
1.7294961995435026e+18,-0.0021920944564044476,-0.001076058717444539,-9.736557960510254
1.7294961995525028e+18,0.026903484016656876,-0.001782313222065568,-9.802160263061523
1.729496199561503e+18,0.04172380268573761,0.002362034050747752,-9.820574760437012
1.729496199567503e+18,-0.03153224661946297,0.04219132661819458,-9.789220809936523
1.7294961995765033e+18,-0.07537638396024704,-0.031944189220666885,-9.824438095092773
1.7294961995855035e+18,-0.05813172832131386,0.03092554584145546,-9.797364234924316
1.7294961995945037e+18,-0.01673286221921444,-0.031112391501665115,-9.790596008300781
1.7294961996035039e+18,-0.019064025953412056,-0.0040287841111421585,-9.836861610412598
1.729496199609504e+18,-0.03628586605191231,-0.032862234860658646,-9.842089653015137
1.7294961996185042e+18,0.038087498396635056,-0.019193843007087708,-9.713035583496094
1.7294961996275044e+18,0.018309712409973145,-0.036004919558763504,-9.794832229614258
1.7294961996365046e+18,-0.04349042847752571,0.03558357432484627,-9.829782485961914
1.7294961996455048e+18,0.03413400799036026,-0.05236660689115524,-9.813128471374512
1.729496199651505e+18,-0.026096876710653305,0.06969058513641357,-9.807318687438965
1.729496199660505e+18,-0.061231888830661774,-0.05946695804595947,-9.894800186157227
1.7294961996695053e+18,0.02532113902270794,0.031845539808273315,-9.796982765197754
1.7294961996785055e+18,0.0030139009468257427,-0.03631122037768364,-9.884172439575195
1.7294961996845056e+18,-0.02504580467939377,-0.05005623400211334,-9.805766105651855
1.7294961996935058e+18,0.0011671051615849137,-0.05623212456703186,-9.79668140411377
1.729496199702506e+18,0.0021804706193506718,-0.018639851361513138,-9.74417781829834
1.7294961997115062e+18,-0.061202745884656906,0.012947477400302887,-9.830084800720215
1.7294961997205064e+18,0.02512911520898342,-0.11462841182947159,-9.793004989624023
1.7294961997295066e+18,-0.05374809727072716,0.07170231640338898,-9.803622245788574
1.7294961997385068e+18,-0.010200719349086285,-0.059800274670124054,-9.808815956115723
1.729496199747507e+18,0.00016419637540820986,0.04936734959483147,-9.799395561218262
1.7294961997565071e+18,-0.07533152401447296,-0.0482415035367012,-9.822858810424805
1.7294961997655073e+18,-0.07090652734041214,-0.03585388883948326,-9.780476570129395
1.7294961997715075e+18,0.015179488807916641,-0.05967181548476219,-9.817469596862793
1.7294961997805076e+18,0.04873209819197655,0.02676885947585106,-9.77994441986084
1.7294961997895078e+18,-0.04034780338406563,-0.030251601710915565,-9.856302261352539
1.729496199798508e+18,0.05413821339607239,-0.014338450506329536,-9.856758117675781
1.7294961998045082e+18,-0.019108295440673828,0.017626363784074783,-9.834495544433594
1.7294961998135084e+18,-0.007079246919602156,0.06093873456120491,-9.867280960083008
1.7294961998225085e+18,0.010800773277878761,-0.0029570700135082006,-9.840770721435547
1.7294961998315087e+18,-0.01412133127450943,0.0001256997638847679,-9.829376220703125
1.7294961998375089e+18,-0.04971494898200035,-0.0294969379901886,-9.864598274230957
1.729496199846509e+18,0.019694628193974495,-0.00866905227303505,-9.830827713012695
1.7294961998555092e+18,0.0910741463303566,-0.013215512037277222,-9.799079895019531
1.7294961998645094e+18,0.013303951360285282,-0.07768305391073227,-9.685172080993652
1.7294961998735096e+18,0.055922068655490875,0.05637643486261368,-9.828907012939453
1.7294961998825098e+18,0.006014168728142977,0.00870688445866108,-9.82165241241455
1.72949619988851e+18,-0.06709184497594833,0.06584076583385468,-9.841606140136719
1.7294961998975101e+18,0.015356490388512611,-0.013721046969294548,-9.83583927154541
1.7294961999065103e+18,-0.0359259769320488,-0.07967513054609299,-9.858519554138184
1.7294961999155105e+18,-0.0026267198845744133,-0.005090855527669191,-9.8294038772583
1.7294961999245107e+18,-0.00033346732379868627,0.016262449324131012,-9.86775016784668
1.7294961999305108e+18,-0.02985880896449089,0.019382866099476814,-7.646574974060059
1.729496199939511e+18,0.007074672728776932,0.014431130141019821,-6.877004623413086
1.7294961999485112e+18,0.029512930661439896,0.06050163879990578,-6.743278503417969
1.7294961999575114e+18,0.005786288529634476,-0.035028547048568726,-8.452465057373047
1.7294961999665116e+18,-0.07789391279220581,0.1268002688884735,-11.290534973144531
1.7294961999755118e+18,-0.05084586516022682,0.17178596556186676,-11.386185646057129
1.729496199984512e+18,-0.05809658765792847,0.17224913835525513,-11.059642791748047
1.729496199990512e+18,0.04192866384983063,0.0943002849817276,-11.5851469039917
1.7294961999995123e+18,0.011214692145586014,0.08721454441547394,-12.513249397277832
1.7294962000085125e+18,-0.009429797530174255,0.09791915863752365,-11.58768367767334
1.7294962000145126e+18,-0.14734652638435364,0.06861742585897446,-11.147461891174316
1.7294962000235128e+18,0.07130275666713715,0.05354135483503342,-11.534632682800293
1.729496200032513e+18,-0.0016266480088233948,0.14938755333423615,-12.412745475769043
1.7294962000385132e+18,-0.03687809780240059,0.18566656112670898,-11.818849563598633
1.7294962000475133e+18,-0.10057790577411652,0.07800642400979996,-10.961080551147461
1.7294962000565135e+18,-0.09502342343330383,0.11619434505701065,-10.534830093383789
1.7294962000625137e+18,-0.022882813587784767,0.1076691597700119,-10.83069133758545
1.7294962000715139e+18,-0.01759757474064827,0.09459828585386276,-12.013322830200195
1.729496200080514e+18,-0.05295465886592865,0.03326190263032913,-12.153707504272461
1.7294962000895142e+18,-0.0264667347073555,0.1356014609336853,-12.147831916809082
1.7294962000985144e+18,-0.051423005759716034,0.08069025725126266,-12.096301078796387
1.7294962001045146e+18,-0.042661234736442566,0.0005743652582168579,-12.058734893798828
1.7294962001135148e+18,2.6736408472061157e-05,0.1146734207868576,-11.872384071350098
1.729496200122515e+18,0.003914462402462959,0.0627765953540802,-11.636043548583984
1.729496200128515e+18,0.04994960129261017,-0.01930907368659973,-11.59133243560791
1.7294962001375153e+18,-0.04095809906721115,0.017191853374242783,-11.666885375976562
1.7294962001465155e+18,-0.0005444129928946495,0.028020236641168594,-11.570038795471191
1.7294962001525156e+18,0.008575796149671078,0.07342422008514404,-11.601322174072266
1.7294962001615158e+18,0.04671303555369377,-0.030098523944616318,-11.482721328735352
1.729496200170516e+18,-0.0314859002828598,0.06325173377990723,-11.4098482131958
1.7294962001795162e+18,0.07395703345537186,0.04039299488067627,-11.058124542236328
1.7294962001855163e+18,0.01813425123691559,0.03834565728902817,-10.97543716430664
1.7294962001945165e+18,0.033974453806877136,0.07098276168107986,-10.889934539794922
1.7294962002035167e+18,-0.006817707791924477,-0.06545095145702362,-10.915986061096191
1.7294962002095168e+18,0.0040580094791948795,-0.010511554777622223,-10.797746658325195
1.729496200218517e+18,-0.024883465841412544,-0.019066672772169113,-10.644614219665527
1.7294962002275172e+18,-0.005450568161904812,-0.013449554331600666,-10.482821464538574
1.7294962002365174e+18,0.04883959889411926,-0.012689879164099693,-10.469128608703613
1.7294962002425175e+18,0.03798934444785118,-0.04724358767271042,-10.46102237701416
1.7294962002515177e+18,-0.020461732521653175,0.021354196593165398,-10.345561981201172
1.729496200260518e+18,-0.04235207289457321,-0.0440388061106205,-10.173746109008789
1.729496200269518e+18,-0.01421685516834259,-0.05406506732106209,-10.146899223327637
1.7294962002755182e+18,0.03411930799484253,-0.011229475028812885,-10.10417366027832
1.7294962002845184e+18,-0.06918205320835114,-0.02562025561928749,-10.114519119262695
1.7294962002935186e+18,0.02968703769147396,-0.018364889547228813,-9.991554260253906
1.7294962003025188e+18,-0.025843754410743713,0.0037738699465990067,-9.966403007507324
1.729496200311519e+18,0.031062480062246323,0.03148747608065605,-9.826028823852539
1.7294962003205192e+18,-0.017675088718533516,-0.06254159659147263,-9.736815452575684
1.7294962003265193e+18,-0.0413881279528141,0.041241273283958435,-9.819948196411133
1.7294962003355195e+18,-0.014637315645813942,0.03136830031871796,-9.77548599243164
1.7294962003445197e+18,-0.011613642796874046,-0.042422544211149216,-9.608196258544922
1.7294962003535199e+18,0.06461460888385773,-0.04450785741209984,-9.668840408325195
1.72949620035952e+18,0.01744873821735382,0.04389443248510361,-9.691741943359375
1.7294962003715203e+18,-0.041724998503923416,-0.09213455766439438,-9.673929214477539
1.7294962003805204e+18,0.003567327279597521,-0.038671448826789856,-9.67544937133789
1.7294962003895206e+18,-0.00827079452574253,0.06179211288690567,-9.557992935180664
1.7294962003955208e+18,-0.009008929133415222,0.03528551384806633,-9.552669525146484
1.729496200404521e+18,0.017548151314258575,0.01459309458732605,-9.594253540039062
1.7294962004135212e+18,0.0020994958467781544,-0.06609758734703064,-9.499048233032227
1.7294962004225213e+18,0.010003776289522648,-0.01595715992152691,-9.522245407104492
1.7294962004315215e+18,0.03020237572491169,-0.06216685473918915,-9.531229972839355
1.7294962004405217e+18,0.05965019017457962,0.00022507738322019577,-9.514911651611328
1.729496200449522e+18,-0.028232868760824203,0.01707807369530201,-9.530290603637695
1.729496200455522e+18,0.018752988427877426,-0.060708530247211456,-9.454873085021973
1.7294962004645222e+18,0.0032695047557353973,0.023005425930023193,-9.510486602783203
1.7294962004735224e+18,-0.028871137648820877,0.018187472596764565,-9.37706470489502
1.7294962004825226e+18,0.025038769468665123,-0.029125593602657318,-9.418974876403809
1.7294962004915228e+18,0.01446079183369875,-0.06267747282981873,-9.415809631347656
1.729496200497523e+18,-0.006916901096701622,9.639933705329895e-05,-9.353252410888672
1.7294962005065231e+18,0.026667138561606407,0.03140838071703911,-9.458600997924805
1.7294962005155233e+18,-0.020819831639528275,0.024845236912369728,-9.455912590026855
1.7294962005245235e+18,0.020995264872908592,-0.05109487846493721,-9.468696594238281
1.7294962005335237e+18,-0.0009726886637508869,-0.006699578836560249,-9.40516185760498
1.7294962005395238e+18,-0.018209390342235565,-0.08465567976236343,-9.425026893615723
1.729496200548524e+18,0.08509141206741333,0.02858872339129448,-9.384483337402344
1.7294962005575242e+18,-0.05658598244190216,-0.011079846881330013,-9.361028671264648
1.7294962005665244e+18,0.013963592238724232,0.029679976403713226,-9.368062973022461
1.7294962005755246e+18,0.028920024633407593,0.0528353676199913,-9.415655136108398
1.7294962005845248e+18,0.05020499974489212,-0.018312470987439156,-9.393757820129395
1.729496200593525e+18,0.044159382581710815,0.03526326268911362,-9.382458686828613
1.7294962006025252e+18,0.06939984112977982,0.05787014961242676,-9.453753471374512
1.7294962006115254e+18,0.050082702189683914,0.03241059184074402,-9.451279640197754
1.7294962006175255e+18,0.015879951417446136,0.0733293741941452,-9.46871280670166
1.7294962006265257e+18,-0.025561509653925896,0.009969173930585384,-9.398505210876465
1.729496200635526e+18,-0.03416839987039566,-0.026806287467479706,-9.373584747314453
1.729496200644526e+18,-0.006677612662315369,0.014823811128735542,-9.35618782043457
1.7294962006535263e+18,-0.03031250834465027,0.04047299176454544,-9.331061363220215
1.7294962006625265e+18,0.012491646222770214,0.040671996772289276,-9.464895248413086
1.7294962006715267e+18,-0.05547572299838066,0.108706533908844,-9.461430549621582
1.7294962006805268e+18,0.005533365532755852,0.04207237437367439,-9.489432334899902
1.729496200689527e+18,0.011118562892079353,0.08336663246154785,-9.390027046203613
1.7294962006985272e+18,0.014697292819619179,0.007327272556722164,-9.404461860656738
1.7294962007075274e+18,-0.04453901946544647,-0.04302005469799042,-9.51337718963623
1.7294962007135276e+18,-0.08269768953323364,0.033324941992759705,-9.390900611877441
1.7294962007225277e+18,0.004011002369225025,0.0361630916595459,-9.43706226348877
1.729496200731528e+18,0.023182783275842667,-0.005233053117990494,-9.49840259552002
1.729496200740528e+18,-0.03551995009183884,-0.039790939539670944,-9.560850143432617
1.7294962007465283e+18,0.0665023922920227,-0.0007359106093645096,-9.50350284576416
1.7294962007585285e+18,0.04632503166794777,0.02799907512962818,-9.571392059326172
1.7294962007675287e+18,0.0017542066052556038,-0.06838466227054596,-9.535022735595703
1.7294962007735288e+18,-0.0009864876046776772,-0.039023831486701965,-9.519889831542969
1.729496200782529e+18,0.06290151178836823,0.03654809296131134,-9.55678653717041
1.7294962007915292e+18,-0.04475251957774162,0.10788771510124207,-9.49158763885498
1.7294962008005294e+18,-0.05002884194254875,0.005634676665067673,-9.499841690063477
1.7294962008065295e+18,0.04115442931652069,0.029547784477472305,-9.59675121307373
1.7294962008155297e+18,-0.050710078328847885,-0.011473726481199265,-9.571088790893555
1.72949620082453e+18,-0.06664405763149261,0.1477489024400711,-9.544353485107422
1.72949620083353e+18,-0.031295955181121826,0.0474519282579422,-9.577792167663574
1.7294962008395302e+18,-0.02244516648352146,0.042307622730731964,-9.610152244567871
1.7294962008485304e+18,0.031063992530107498,0.09550309926271439,-9.651150703430176
1.7294962008575306e+18,-0.003588743507862091,0.04576735198497772,-9.62504768371582
1.7294962008665308e+18,-0.05484426021575928,0.05287763103842735,-9.61617374420166
1.729496200872531e+18,0.09223636984825134,-0.020939122885465622,-9.723531723022461
1.7294962008815311e+18,0.015259575098752975,0.1073828935623169,-9.699016571044922
1.7294962008905313e+18,-0.060352228581905365,0.06962858885526657,-9.709428787231445
1.7294962008965315e+18,-0.05141975358128548,-0.04402027279138565,-9.68456745147705
1.7294962009055316e+18,-0.027119694277644157,0.044987887144088745,-9.693562507629395
1.7294962009145318e+18,-0.008896470069885254,0.06568662077188492,-9.692986488342285
1.729496200920532e+18,0.005804074928164482,0.042643677443265915,-9.705036163330078
1.7294962009295322e+18,-0.010790303349494934,0.04051986709237099,-9.765338897705078
1.7294962009385324e+18,0.038595717400312424,0.04411042481660843,-9.662312507629395
1.7294962009475325e+18,-0.09240277856588364,0.05833015590906143,-9.808919906616211
1.7294962009565327e+18,0.034425314515829086,0.0009260624647140503,-9.786894798278809
1.729496200965533e+18,-0.09048433601856232,0.04123339429497719,-9.80053424835205
1.729496200974533e+18,-0.06443758308887482,0.07393531501293182,-9.891610145568848
1.7294962009835333e+18,0.07926863431930542,0.05870615690946579,-9.80933666229248
1.7294962009925335e+18,-0.03974858671426773,0.14532390236854553,-9.92763900756836
1.7294962010045338e+18,0.008401535451412201,0.0454164519906044,-9.892716407775879
1.729496201010534e+18,-0.04346199333667755,0.10787533223628998,-9.820083618164062
1.729496201019534e+18,-0.09340078383684158,0.06859046220779419,-9.839105606079102
1.7294962010285343e+18,-0.07447411119937897,-0.007871262729167938,-9.927672386169434
1.7294962010375345e+18,-0.06626018136739731,-0.02853674441576004,-10.010079383850098
1.7294962010465347e+18,0.007650565356016159,0.06144065037369728,-9.952412605285645
1.7294962010525348e+18,-0.07650606334209442,0.017370834946632385,-9.954249382019043
1.729496201061535e+18,-0.04164043813943863,0.1229131668806076,-10.030722618103027
1.7294962010705352e+18,0.041113197803497314,0.006339915096759796,-10.028144836425781
1.7294962010765353e+18,-0.05007842928171158,0.04956841468811035,-10.067447662353516
1.7294962010855355e+18,0.01861436665058136,0.04424983263015747,-10.038032531738281
1.7294962010915356e+18,-0.03349757194519043,-0.018197335302829742,-10.093908309936523
1.7294962011005358e+18,-0.01051994040608406,0.09305094182491302,-10.097186088562012
1.729496201109536e+18,-0.02825365960597992,0.06341146677732468,-10.099699020385742
1.7294962011185362e+18,-0.0735425353050232,0.1043100506067276,-10.119239807128906
1.7294962011245363e+18,-0.059437450021505356,0.020138684660196304,-10.142682075500488
1.7294962011335365e+18,-0.01109345443546772,-0.029917694628238678,-10.015512466430664
1.7294962011425367e+18,0.004840780049562454,0.23112784326076508,-10.046369552612305
1.7294962011485368e+18,-0.02159677818417549,0.06549675762653351,-10.130816459655762
1.729496201157537e+18,-0.06790801137685776,0.11577951908111572,-10.140477180480957
1.7294962011665372e+18,-0.00038880109786987305,0.0854739397764206,-10.20227336883545
1.7294962011755374e+18,-0.03989904746413231,0.15196305513381958,-10.182552337646484
1.7294962011815375e+18,-0.058062843978405,0.04859999567270279,-10.122605323791504
1.7294962011905377e+18,0.0015529878437519073,0.04068237170577049,-10.20313835144043
1.729496201199538e+18,0.027617335319519043,0.06791304796934128,-10.199831008911133
1.729496201208538e+18,-0.04581467807292938,0.07221223413944244,-10.163582801818848
1.7294962012145382e+18,-0.010280482470989227,0.06089988350868225,-10.209505081176758
1.7294962012235384e+18,-0.014992685988545418,0.09835401177406311,-10.231094360351562
1.7294962012325386e+18,-0.09896762669086456,0.08116738498210907,-10.218713760375977
1.7294962012415388e+18,-0.08458538353443146,0.051641035825014114,-10.201553344726562
1.729496201250539e+18,0.00952170416712761,0.04613415524363518,-10.296794891357422
1.7294962012595392e+18,-0.04536951333284378,0.0744001716375351,-10.408238410949707
1.7294962012685394e+18,-0.11321581900119781,0.10124973952770233,-10.383367538452148
1.7294962012775396e+18,-0.05739927291870117,0.07201382517814636,-10.333678245544434
1.7294962012865398e+18,-0.06347399204969406,0.07241358608007431,-10.455181121826172
1.72949620129554e+18,0.01586148515343666,0.16472189128398895,-10.316962242126465
1.7294962013075402e+18,-0.028636783361434937,0.05984700098633766,-10.353501319885254
1.7294962013165404e+18,-0.026717213913798332,0.032935574650764465,-10.331619262695312
1.7294962013255406e+18,0.03747458755970001,0.2012287974357605,-10.467555046081543
1.7294962013345408e+18,0.004739046096801758,0.06513386219739914,-10.535096168518066
1.729496201343541e+18,-0.057405781000852585,0.09152364730834961,-10.410103797912598
1.7294962013525412e+18,-0.051615871489048004,0.10596667230129242,-10.368836402893066
1.7294962013615414e+18,-0.043702494353055954,0.08843594044446945,-10.468648910522461
1.7294962013705416e+18,0.010715994983911514,0.01938139647245407,-10.512600898742676
1.7294962013795418e+18,-0.039494842290878296,0.07232940942049026,-10.551071166992188
1.729496201388542e+18,-0.04581127688288689,0.18145397305488586,-10.515297889709473
1.7294962013975421e+18,0.021248474717140198,0.06095120310783386,-10.556926727294922
1.7294962014095424e+18,-0.10360343009233475,0.19825135171413422,-10.482415199279785
1.7294962014185426e+18,-0.1354817897081375,0.10601916164159775,-10.624610900878906
1.7294962014275428e+18,-0.02144857868552208,0.10913307964801788,-10.576056480407715
1.729496201436543e+18,-0.12345647066831589,0.04861075431108475,-10.624004364013672
1.7294962014455432e+18,-0.07300952076911926,0.11400148272514343,-10.603011131286621
1.7294962014545434e+18,-0.03096866048872471,0.06833192706108093,-10.676607131958008
1.7294962014635436e+18,-0.04240574315190315,0.08997026085853577,-10.650062561035156
1.7294962014725437e+18,-0.06382825970649719,0.16448624432086945,-10.66458511352539
1.729496201481544e+18,-0.1313009113073349,0.11926429718732834,-10.698493003845215
1.7294962014935442e+18,-0.0032644420862197876,0.10844442248344421,-10.701224327087402
1.7294962015025444e+18,-0.01654188334941864,0.10379572212696075,-10.611100196838379
1.7294962015115446e+18,0.012470748275518417,0.15842735767364502,-10.656091690063477
1.7294962015205448e+18,-0.019443148747086525,0.18582558631896973,-10.755864143371582
1.729496201529545e+18,0.054109688848257065,0.1923511028289795,-10.6805419921875
1.7294962015385452e+18,-0.042367495596408844,0.17867229878902435,-10.6842679977417
1.7294962015475453e+18,-0.018156716600060463,0.20332865417003632,-10.790152549743652
1.7294962015565455e+18,-0.013104815036058426,0.11844460666179657,-10.7811918258667
1.7294962015655457e+18,-0.10108881443738937,0.15651586651802063,-10.788036346435547
1.729496201574546e+18,-0.0621657595038414,0.14799095690250397,-10.766580581665039
1.729496201583546e+18,-0.010505609214305878,0.01645588129758835,-10.707100868225098
