timestamp,gyro_x,gyro_y,gyro_z
1.7294248586651558e+18,-0.0021629147231578827,-0.0022750007919967175,0.000521763926371932
1.729424858671156e+18,0.0015272992895916104,0.0005270908586680889,-0.0015008728951215744
1.729424858677156e+18,0.0014668944058939815,-0.00011981179704889655,-0.000662492006085813
1.7294248586801562e+18,-0.0006566738011315465,-0.0003986151423305273,0.0002487285528331995
1.7294248586861563e+18,0.0019393666880205274,0.0006883568130433559,0.0008888017619028687
1.7294248586921564e+18,0.000479755864944309,-0.0003740014508366585,0.001495756907388568
1.7294248586951565e+18,-0.0005975234089419246,0.0017298281891271472,-3.9326027035713196e-05
1.7294248587011566e+18,-0.0003354825312271714,0.0023261690512299538,0.002128597581759095
1.7294248587071567e+18,-0.001713358797132969,-0.0012183215003460646,-0.0002650172682479024
1.7294248587101568e+18,-0.0003360303526278585,0.0019181565148755908,0.00018555336282588542
1.729424858716157e+18,-0.0009187153773382306,0.0019704897422343493,0.0014295802684500813
1.729424858722157e+18,-0.0029490143060684204,0.00025827661738730967,-0.001214154763147235
1.7294248587281572e+18,0.0018268494168296456,-0.0004994127666577697,-0.0020095384679734707
1.7294248587311572e+18,-0.001541531877592206,0.0011076328810304403,0.00023951369803398848
1.7294248587371574e+18,8.91008457983844e-05,-0.004070325754582882,0.0017009347211569548
1.7294248587431575e+18,-0.000694454472977668,0.001899059396237135,-0.0026163619477301836
1.7294248587461576e+18,0.004279911983758211,0.0009783200221136212,0.0017064425628632307
1.7294248587521577e+18,-0.0010744562605395913,0.0012668989365920424,-0.0006830186466686428
1.7294248587581578e+18,-0.0019445674261078238,-0.0004233787767589092,-0.0041205729357898235
1.729424858761158e+18,0.0004539700457826257,0.0006514886044897139,-0.0007031987770460546
1.729424858767158e+18,-0.00042938688420690596,0.0025448305532336235,0.0019502515206113458
1.7294248587731581e+18,-0.0003829878696706146,-0.0008149956120178103,0.0011613350361585617
1.7294248587761582e+18,0.001831962144933641,0.0018766348948702216,0.002173585817217827
1.7294248587821583e+18,0.00018517403805162758,-0.001146349823102355,0.002453889697790146
1.7294248587881585e+18,-0.0016822455218061805,-0.0017105811275541782,-0.0012999390019103885
1.7294248587911585e+18,0.0019343661842867732,0.00046929711243137717,-0.0003572796122170985
1.7294248587971587e+18,0.0002146014157915488,0.001478491467423737,0.00073698052437976
1.7294248588031588e+18,0.0007166460272856057,-5.918793613091111e-05,-5.049908213550225e-05
1.7294248588061588e+18,-0.0007169351447373629,3.086762080783956e-05,-8.788786362856627e-05
1.729424858812159e+18,0.0015088390791788697,0.0005080057890154421,-0.0008324678638018668
1.729424858818159e+18,-8.988052286440507e-05,-0.0042876917868852615,0.001498097088187933
1.7294248588241592e+18,6.644751556450501e-05,0.0014828296843916178,0.0001239248813362792
1.7294248588271593e+18,-3.145833397866227e-05,-0.0003748335293494165,-0.0016953174490481615
1.7294248588331594e+18,0.0013454084983095527,-0.003746382426470518,0.001361270435154438
1.7294248588391596e+18,0.0008346950635313988,0.0017446862766519189,-0.000931141315959394
1.7294248588421596e+18,0.003654299071058631,0.00014664781338069588,0.0005039800307713449
1.7294248588481597e+18,-0.002318357117474079,-0.0004459713236428797,-0.0018914045067504048
1.72942485885416e+18,0.0003709212760441005,0.0009911798406392336,-0.002200926188379526
1.72942485886016e+18,-0.00038968052831478417,-0.0017404977697879076,-0.0006048900540918112
1.72942485886616e+18,-0.0018101519672200084,0.0032514845952391624,-0.00023505263379774988
1.7294248588691602e+18,-0.0006506193894892931,0.0012451742077246308,0.001872735796496272
1.7294248588751603e+18,-0.0007083542877808213,-0.0021454677917063236,-0.0002303404180565849
1.7294248588811604e+18,0.0013848980888724327,0.0001435465965187177,0.0017792396247386932
1.7294248588841605e+18,0.0010240693809464574,0.0007085666875354946,-0.0008524085278622806
1.7294248588901606e+18,-0.0023728932719677687,-0.000538152817171067,-0.0007933849119581282
1.7294248588961608e+18,-0.00027647928800433874,0.0009743188275024295,-0.0025961848441511393
1.7294248588991608e+18,-0.0010574273765087128,-0.0002347722474951297,-0.0017543985741212964
1.729424858905161e+18,0.0017829039134085178,-0.0003734213823918253,0.0012533406261354685
1.729424858911161e+18,0.0013141896342858672,0.0012126837391406298,-0.0023122765123844147
1.7294248589171612e+18,-0.00022966941469348967,0.0005681732436642051,0.002739603165537119
1.7294248589201613e+18,0.002232317579910159,-0.0003028516366612166,-0.0005898713134229183
1.7294248589261614e+18,0.0009440467692911625,-0.002978074597194791,-0.0017570113996043801
1.7294248589321615e+18,0.0003207489789929241,0.0012080221204087138,-0.0009945313213393092
1.7294248589351616e+18,0.0011746229138225317,0.0009324410930275917,0.0007511939038522542
1.7294248589411617e+18,0.004104249179363251,-0.0034445442724972963,0.0005515639204531908
1.7294248589471619e+18,0.0004981245147064328,-0.00033714226447045803,0.0030300787184387445
1.729424858950162e+18,-0.0024251958820968866,7.05504544384894e-06,-0.0006017331033945084
1.729424858956162e+18,0.001037285546772182,-0.0013697867980226874,-0.0005269519751891494
1.7294248589621622e+18,-0.0002544298768043518,0.0006887178169563413,0.0029095157515257597
1.7294248589681623e+18,-4.1788138332776725e-05,-0.0010077889310196042,-0.0007186354487203062
1.7294248589711624e+18,-0.0012977879960089922,-0.000699823081959039,0.0010576894273981452
1.7294248589771625e+18,-0.0006689670262858272,-0.00036479675327427685,-2.1893250959692523e-05
1.7294248589831626e+18,-0.0011352510191500187,0.0016542056109756231,-0.00025702250422909856
1.7294248589891628e+18,-0.003076193854212761,3.1099778425414115e-05,-0.001983335241675377
1.7294248589921628e+18,-0.0006878676358610392,-0.0003909753868356347,0.001499122940003872
1.729424858998163e+18,0.0006862761219963431,-0.002571827732026577,0.001693977857939899
1.729424859001163e+18,0.0011443860130384564,0.003111559897661209,0.0005443364498205483
1.7294248590071631e+18,0.0007599631790071726,0.0007809344097040594,0.0015912661328911781
1.7294248590131633e+18,-0.00042482808930799365,-0.00047672944492660463,0.0005572205991484225
1.7294248590191634e+18,-0.0003489592927508056,0.0009343151468783617,0.0004437983443494886
1.7294248590221635e+18,0.0010648630559444427,-0.001606629346497357,0.00012556051660794765
1.7294248590281636e+18,0.0012335388455539942,-0.00018116044520866126,0.0002758049522526562
1.7294248590341637e+18,0.0012801761040464044,-0.0024865902960300446,0.0025703636929392815
1.7294248590371638e+18,-0.0028163683600723743,-0.0009411603095941246,0.0008089973125606775
1.729424859043164e+18,0.0012219358468428254,0.0007841720362193882,0.0021490121725946665
1.729424859049164e+18,0.003929262515157461,0.00043714421917684376,0.0007180712418630719
1.7294248590551642e+18,-0.0020465110428631306,-0.0030157321598380804,-0.0006977370358072221
1.7294248590581642e+18,-0.002063663210719824,-0.001300389994867146,0.00169186235871166
1.7294248590641644e+18,0.001872982713393867,6.95295530022122e-05,0.0011388915590941906
1.7294248590701645e+18,0.00035273583489470184,0.00017677454161457717,0.00047222687862813473
1.7294248590731645e+18,-5.64504080102779e-05,-0.0017307413509115577,9.641616634326056e-05
1.7294248590791647e+18,-0.002488312777131796,-0.0027989614754915237,-0.002146253827959299
1.7294248590851648e+18,0.0028919456526637077,0.004423618316650391,0.000848865311127156
1.7294248590881649e+18,-0.0014980114065110683,-0.00344449607655406,-0.0021040078718215227
1.729424859094165e+18,-0.0034072676207870245,-0.0026022056117653847,0.0003708206058945507
1.729424859100165e+18,0.0018143007764592767,-0.00051490607438609,0.002728026360273361
1.7294248591061652e+18,0.00028332704096101224,8.925532893044874e-05,0.0002474531647749245
1.7294248591121654e+18,0.0029750363901257515,-0.0007268586196005344,-0.0009943548357114196
1.7294248591151654e+18,-0.000966596940997988,0.003360581584274769,0.0011342742945998907
1.7294248591211656e+18,7.393658597720787e-05,-0.0009692818275652826,0.0007782245520502329
1.7294248591271657e+18,0.0010504990350455046,-0.0005433132173493505,-9.086210047826171e-05
1.7294248591301658e+18,0.00018994457786902785,-1.0346255294280127e-05,-0.0009119089809246361
1.729424859136166e+18,-0.0002970722271129489,0.00029399339109659195,-0.0014466100838035345
1.729424859142166e+18,-0.0014336364110931754,0.0007768217474222183,-0.0005595406983047724
1.7294248591481661e+18,0.002038627630099654,0.0032202410511672497,0.00012490115477703512
1.7294248591511662e+18,0.00024755881167948246,-0.0010896548628807068,-0.0029609983321279287
1.7294248591571663e+18,0.001444413443095982,-0.001939093112014234,-0.0004924762179143727
1.7294248591631665e+18,0.001997465966269374,0.000756440160330385,0.0008217402501031756
1.7294248591691666e+18,-0.0011935230577364564,0.0006235374021343887,0.00023867696290835738
1.7294248591721667e+18,-0.0005881332326680422,-0.0007756873965263367,0.0022104233503341675
1.7294248591781668e+18,-0.000880998617503792,0.0026862495578825474,-0.0009134648717008531
1.729424859184167e+18,-0.002855464117601514,-0.0005236241267994046,-0.0007329945801757276
1.729424859187167e+18,0.0006449271459132433,0.0008491775952279568,0.0006297528743743896
1.729424859193167e+18,-0.0014572349609807134,-0.00143939268309623,-0.0009714484331198037
1.7294248591991672e+18,-0.002008858835324645,-0.0014295057626441121,-0.0009747251751832664
1.7294248592021673e+18,0.002034709556028247,0.00012519495794549584,-0.0001325633202213794
1.7294248592081674e+18,-0.00025723743601702154,-0.001964379334822297,0.0014311617705971003
1.7294248592141676e+18,0.003537612035870552,0.002349365269765258,0.0018341357354074717
1.7294248592201677e+18,0.0022084626834839582,-6.951680552447215e-05,-0.00011562149302335456
1.7294248592231677e+18,-0.0009739565430209041,0.0005120306741446257,0.0007012371206656098
1.7294248592291679e+18,0.0009186965762637556,-0.0016217610100284219,-0.004610744304955006
1.729424859235168e+18,0.0005013141199015081,-0.0008696111035533249,0.0006372544448822737
1.729424859238168e+18,-0.0010186932049691677,0.00032616371754556894,0.0015447726473212242
1.7294248592441682e+18,0.0006178818875923753,0.0021430880296975374,-0.0018165616784244776
1.7294248592501683e+18,-0.0005799619830213487,-0.00018783417181111872,-0.00039325322723016143
1.7294248592531684e+18,0.0020718444138765335,0.000716867798473686,0.00015076999261509627
1.7294248592591685e+18,0.0012613540748134255,-0.00028322567231953144,-0.0005441246903501451
1.7294248592651686e+18,-0.0013424615608528256,-0.0010232627391815186,0.000646470463834703
1.7294248592681687e+18,0.0022336728870868683,-0.0016647693701088428,-0.0021124938502907753
1.7294248592741688e+18,-0.0012316538486629725,0.0006285303388722241,-0.0010371804237365723
1.729424859280169e+18,0.0005465505528263748,0.0010860094334930182,-0.002300282707437873
1.729424859286169e+18,-0.0006196744507178664,0.0007333576795645058,0.0026271380484104156
1.7294248592891692e+18,-0.00046163954539224505,0.0009202473447658122,-0.000719432660844177
1.7294248592951693e+18,0.0035719445440918207,0.002964473096653819,-0.0013412598054856062
1.7294248592981693e+18,-0.0013007275993004441,0.00042551150545477867,-0.0006567065720446408
1.7294248593041695e+18,0.0005242223269306123,-0.000322456267895177,0.001491338131017983
1.7294248593101696e+18,-0.0015797866508364677,-0.0022725271992385387,0.001280595432035625
1.7294248593131697e+18,-0.0009933109395205975,-5.679117384715937e-05,-0.0003143709618598223
1.7294248593191698e+18,0.00037907305522821844,0.0022358298301696777,0.0004528172721620649
1.72942485932517e+18,0.0007785053458064795,0.0035151871852576733,0.001969731878489256
1.72942485933117e+18,0.000411592802265659,-0.0020377207547426224,-0.0015243816887959838
1.72942485933417e+18,-0.0010606617433950305,-0.00450900848954916,0.002132643712684512
1.7294248593401702e+18,-0.0014680653112009168,-0.0015299215447157621,-0.00012577643792610615
1.7294248593461704e+18,-0.001269561005756259,-0.00043417769484221935,-0.001048155128955841
1.7294248593491704e+18,8.443467231700197e-05,0.0012938744621351361,-0.000945619831327349
1.7294248593551706e+18,-0.000931103597395122,-0.0013636874500662088,0.0006407386972568929
1.7294248593611707e+18,0.0010632149642333388,4.5435528591042385e-05,-0.003470782423391938
1.7294248593641708e+18,-0.0018171966075897217,-5.128784687258303e-05,-0.0003673821338452399
1.729424859370171e+18,0.0012081887107342482,-0.000997203285805881,-0.0005816278862766922
1.729424859376171e+18,0.00031666771974414587,0.0026539932005107403,0.001022053649649024
1.729424859379171e+18,0.000865295238327235,-0.002780221402645111,-0.002920502331107855
1.7294248593851712e+18,0.00014909994206391275,-0.0014967600582167506,0.00046272907638922334
1.7294248593911713e+18,0.0007982903625816107,-0.0012695080367848277,-0.0018272388260811567
1.7294248593971715e+18,-0.002816759981215,-0.0015393381472676992,0.0011781053617596626
1.7294248594001715e+18,0.0004606785951182246,0.000562413944862783,0.0016426900401711464
1.7294248594061716e+18,0.0008405034895986319,-0.0013221590779721737,0.0002935772354248911
1.7294248594121718e+18,0.000225497642531991,0.0009700083173811436,0.0027005395386368036
1.7294248594151718e+18,0.0008362338994629681,0.0017565216403454542,0.0006912443786859512
1.729424859421172e+18,0.002009253017604351,0.0013563132379204035,0.001282574376091361
1.729424859427172e+18,-0.002115054987370968,-0.0006142692291177809,0.0011538361432030797
1.7294248594331722e+18,0.001563908183015883,-0.001847555860877037,6.864118768135086e-05
1.7294248594361723e+18,-0.0013664498692378402,0.00020933247287757695,0.000312312098685652
1.7294248594421724e+18,0.0006429897621273994,0.001511447480879724,-0.0005657245055772364
1.7294248594481725e+18,0.0013875090517103672,-0.0018583600176498294,0.0014367039548233151
1.7294248594511726e+18,0.002380205551162362,0.0007546354318037629,0.00078813690925017
1.7294248594571727e+18,0.0013945066602900624,-0.0030673432629555464,0.0019832381512969732
1.7294248594631729e+18,-0.0002817838394548744,-0.002143851015716791,0.0006939185550436378
1.729424859469173e+18,0.001971152378246188,0.0027353691402822733,0.0010020022746175528
1.729424859472173e+18,-0.0018808471504598856,-0.0021244115196168423,-0.002269906923174858
1.7294248594781732e+18,0.0005042036063969135,0.002491442020982504,0.0007747944910079241
1.7294248594841733e+18,0.0012777849333360791,-0.0004990373854525387,0.0004591262259054929
1.7294248594871734e+18,0.0017200635047629476,-0.0021567100193351507,0.0016044091898947954
1.7294248594931735e+18,-0.00255051557905972,-0.0003049421648029238,2.158669667551294e-05
1.7294248594991736e+18,0.0019015590660274029,0.002370859030634165,-0.002430450636893511
1.7294248595021737e+18,-0.0016909093828871846,0.00024356131325475872,-0.0018491463270038366
1.7294248595081738e+18,-0.000850571203045547,-0.0005379190552048385,-0.0022433705162256956
1.729424859514174e+18,-0.010690256021916866,0.0026990072801709175,-0.0010679163970053196
1.729424859517174e+18,-0.01927766390144825,0.0064572179690003395,-0.002554976614192128
1.7294248595231741e+18,-0.02803974039852619,0.01301746629178524,-0.001739955972880125
1.7294248595291743e+18,-0.04585042968392372,0.019795959815382957,-0.00033091005752794445
1.7294248595321743e+18,-0.05012016370892525,0.02020021714270115,0.0022843447513878345
1.7294248595381745e+18,-0.061512239277362823,0.023904887959361076,2.248984174002544e-06
1.7294248595441746e+18,-0.0630420669913292,0.02581552229821682,-0.0003603444783948362
1.7294248595501747e+18,-0.06577169895172119,0.026450717821717262,-0.001459574792534113
1.7294248595531748e+18,-0.062432270497083664,0.0286248866468668,-0.0017487588338553905
1.729424859559175e+18,-0.056929104030132294,0.025150517001748085,-0.001334845437668264
1.729424859565175e+18,-0.04812275245785713,0.02537202462553978,-0.00326779717579484
1.729424859568175e+18,-0.04708144813776016,0.021936997771263123,0.0006313826888799667
1.7294248595741752e+18,-0.04096130654215813,0.019995760172605515,0.0026027599815279245
1.7294248595801754e+18,-0.04255657270550728,0.019850395619869232,0.0006279140943661332
1.7294248595861755e+18,-0.04095997288823128,0.02208460494875908,0.0017021787352859974
1.7294248595891756e+18,-0.04421847686171532,0.025369593873620033,-0.001699911430478096
1.7294248595951757e+18,-0.04895874485373497,0.02454547956585884,0.0011187461204826832
1.7294248596011758e+18,-0.05445174127817154,0.022197837010025978,0.0009953841799870133
1.729424859607176e+18,-0.056572966277599335,0.025268208235502243,0.0008591205114498734
1.729424859610176e+18,-0.057880789041519165,0.024542763829231262,9.246941772289574e-07
1.729424859616176e+18,-0.058333709836006165,0.0235739778727293,-0.0007898668991401792
1.7294248596221763e+18,-0.055340442806482315,0.026401417329907417,-0.001801082631573081
1.7294248596251763e+18,-0.05020920932292938,0.021358640864491463,0.0006627527764067054
1.7294248596311764e+18,-0.04274708405137062,0.023824475705623627,0.0008647751528769732
1.7294248596371766e+18,-0.03418712690472603,0.021575763821601868,0.0008874888881109655
1.7294248596431767e+18,-0.02884521707892418,0.019023096188902855,2.7962931198999286e-05
1.7294248596461768e+18,-0.026398083195090294,0.018617410212755203,-0.0003946933429688215
1.729424859652177e+18,-0.019658131524920464,0.016323473304510117,0.0006450499058701098
1.729424859658177e+18,-0.022387180477380753,0.015851788222789764,0.0012259401846677065
1.7294248596641772e+18,-0.0215007271617651,0.015105273574590683,-0.0024878070689737797
1.7294248596701773e+18,-0.02482752501964569,0.017893364652991295,0.00010772584937512875
1.7294248596731773e+18,-0.025198770686984062,0.015817338600754738,0.0017983134603127837
1.7294248596791775e+18,-0.026523221284151077,0.013126688078045845,-0.00017714768182486296
1.7294248596851776e+18,-0.023256495594978333,0.011208867654204369,-0.001555916853249073
1.7294248596881777e+18,-0.022647492587566376,0.010249042883515358,-0.0005162548623047769
1.7294248596941778e+18,-0.018317006528377533,0.011185163632035255,0.0014187679626047611
1.729424859700178e+18,-0.01700592041015625,0.008931453339755535,-0.0025696991942822933
1.729424859706178e+18,-0.007044654339551926,0.012602122500538826,-0.001014125533401966
1.729424859709178e+18,-0.004414913710206747,0.00633280398324132,-0.00038426966057159007
1.7294248597151782e+18,-0.002879911568015814,0.0059530166909098625,-0.0007891601999290287
1.7294248597211784e+18,-0.00024132989346981049,0.004454304929822683,-0.0023578591644763947
1.7294248597241784e+18,0.001367980265058577,0.004564926493912935,-0.0015043654711917043
1.7294248597301786e+18,0.0045940689742565155,0.0037008561193943024,-0.0013053425354883075
1.7294248597361787e+18,0.0019233777420595288,0.0006726166466251016,0.00042279844637960196
1.7294248597421788e+18,0.005658991634845734,0.001354801468551159,0.00041600296390242875
1.729424859745179e+18,0.007397287525236607,2.6606256142258644e-05,0.0002001069369725883
1.729424859751179e+18,0.0031897970475256443,-0.002961114514619112,-0.0013544474495574832
1.7294248597571791e+18,0.005856553558260202,-0.0029110789764672518,-0.0019574437756091356
1.7294248597601792e+18,0.006194178480654955,-0.0034588617272675037,-0.00029296032153069973
1.7294248597661793e+18,0.0013450081460177898,-0.005285087041556835,-0.001285484409891069
1.7294248597721795e+18,0.009893370792269707,-0.0020053512416779995,0.0017063452396541834
1.7294248597781796e+18,0.009926223196089268,-0.004777173977345228,-0.0005443051923066378
1.7294248597811796e+18,0.01463340874761343,-0.00456945551559329,0.00017561684944666922
1.7294248597871798e+18,0.017260000109672546,-0.004463576711714268,-0.0005878816591575742
1.72942485979318e+18,0.02113853022456169,-0.0018635201267898083,0.0006789558101445436
1.72942485979918e+18,0.01974443532526493,-0.005027723032981157,0.00040931376861408353
1.72942485980218e+18,0.01963810808956623,-0.006227531004697084,-0.00040786221507005394
1.7294248598081802e+18,0.020570416003465652,-0.008691743947565556,0.0010818549199029803
1.7294248598141804e+18,0.018265251070261,-0.008653703145682812,0.001516921678557992
1.7294248598201805e+18,0.017450319603085518,-0.007503240369260311,-0.0021239714697003365
1.7294248598261806e+18,0.01454174518585205,-0.008765787817537785,-0.0011682483600452542
1.7294248598291807e+18,0.014993837103247643,-0.007731688674539328,0.0018635953310877085
1.7294248598351808e+18,0.015557054430246353,-0.008657919242978096,-0.003037548391148448
1.729424859841181e+18,0.01886555552482605,-0.008355828933417797,-0.001762857660651207
1.729424859844181e+18,0.022205568850040436,-0.005594306625425816,0.00033622089540585876
1.729424859850181e+18,0.019466230645775795,-0.008805623278021812,0.0001500310900155455
1.7294248598561812e+18,0.020647700875997543,-0.011582431383430958,-0.00016690237680450082
1.7294248598621814e+18,0.024807237088680267,-0.00770548265427351,-0.001755954115651548
1.7294248598681815e+18,0.022364886477589607,-0.009342165663838387,-0.00033278344199061394
1.7294248598711816e+18,0.02538469061255455,-0.008929761126637459,0.0012307451106607914
1.7294248598771817e+18,0.021784069016575813,-0.012245210818946362,0.0003814234514720738
1.7294248598831818e+18,0.020577244460582733,-0.00979361031204462,0.0018503727624192834
1.729424859889182e+18,0.020045705139636993,-0.010334616526961327,-0.0009811472846195102
1.729424859892182e+18,0.02076837606728077,-0.010899034328758717,-0.0003437868435867131
1.7294248598981821e+18,0.018784984946250916,-0.012945870868861675,0.0005272948183119297
1.7294248599041823e+18,0.016531119123101234,-0.011920515447854996,-0.0004322370805311948
1.7294248599071823e+18,0.01597551256418228,-0.010971611365675926,0.0008032756159082055
1.7294248599131825e+18,0.019226033240556717,-0.009524533525109291,0.0008353852899745107
1.7294248599191826e+18,0.01909666880965233,-0.011706533841788769,0.001749373972415924
1.7294248599251827e+18,0.021790649741888046,-0.008641627617180347,-0.001598746981471777
1.7294248599311828e+18,0.0224589966237545,-0.009302680380642414,-0.00017270934768021107
1.729424859934183e+18,0.025474995374679565,-0.009080576710402966,-0.000788863399066031
1.729424859940183e+18,0.025407517328858376,-0.01019774004817009,4.9064226914197206e-05
1.7294248599461832e+18,0.023872843012213707,-0.010473577305674553,-0.0010409889509901404
1.7294248599521833e+18,0.02075757086277008,-0.011320739053189754,-5.9021636843681335e-05
1.7294248599551834e+18,0.02010992355644703,-0.01072805467993021,-0.00013410093379206955
1.7294248599611835e+18,0.019242268055677414,-0.010433947667479515,-0.0001332017418462783
1.7294248599671836e+18,0.018748760223388672,-0.014081119559705257,-0.0028148165438324213
1.7294248599731837e+18,0.013396602123975754,-0.008533462882041931,-0.0008587597985751927
1.7294248599761838e+18,0.014464370906352997,-0.012747936882078648,-0.0027309407014399767
1.729424859982184e+18,0.01971610262989998,-0.014593609608709812,-0.0020055770874023438
1.729424859988184e+18,0.01602841541171074,-0.012010402977466583,-0.0009617208270356059
1.7294248599911841e+18,0.018281368538737297,-0.010398177430033684,-0.0025909568648785353
1.7294248599971843e+18,0.01780432090163231,-0.009556645527482033,-0.0047662630677223206
1.7294248600031844e+18,0.016636017709970474,-0.008288336917757988,-0.0004445390368346125
1.7294248600091845e+18,0.017706917598843575,-0.009959502145648003,0.00011209258809685707
1.7294248600121846e+18,0.018449950963258743,-0.00974048301577568,-0.0015293010510504246
1.7294248600181847e+18,0.018642906099557877,-0.009687257930636406,-0.0014474436175078154
1.7294248600241848e+18,0.017110802233219147,-0.011915428563952446,-0.0015033372910693288
1.729424860030185e+18,0.016699157655239105,-0.005485184490680695,-0.0002773058949969709
1.729424860033185e+18,0.01318101305514574,-0.009529870003461838,0.0009877231204882264
1.7294248600391852e+18,0.009376095607876778,-0.007967155426740646,-0.0018719256622716784
1.7294248600451853e+18,0.011484232731163502,-0.008904129266738892,-0.0012693891767412424
1.7294248600511854e+18,0.008324110880494118,-0.006816552020609379,-0.00029951886972412467
1.7294248600541855e+18,0.012229172512888908,-0.01264718733727932,-0.003199645085260272
1.7294248600601856e+18,0.008838066831231117,-0.00565992621704936,0.0007448116084560752
1.7294248600661857e+18,0.01279541291296482,-0.008029320277273655,0.0024411948397755623
1.7294248600691858e+18,0.013585612177848816,-0.008524708449840546,-0.00038754899287596345
1.729424860075186e+18,0.015306052751839161,-0.006382311694324017,-0.0001762021565809846
1.729424860081186e+18,0.013361306861042976,-0.0036343177780508995,-0.0006844393210485578
1.7294248600871862e+18,0.0132492920383811,-0.008377086371183395,-0.0023631511721760035
1.7294248600901862e+18,0.013721900060772896,-0.005327930673956871,-0.0010002288036048412
1.7294248600961864e+18,0.010665797628462315,-0.006961477920413017,-0.0020231332164257765
1.7294248601021865e+18,0.006743882782757282,-0.007150445133447647,-0.0021172657143324614
1.7294248601081866e+18,0.007218968588858843,-0.008141127415001392,0.0009950294625014067
1.7294248601111867e+18,0.008906391449272633,-0.009350784122943878,-0.0033423679415136576
1.7294248601171868e+18,0.006070672534406185,-0.008716641925275326,-0.0012817634269595146
1.729424860123187e+18,0.005975544452667236,-0.00861169584095478,-0.0006989013636484742
1.729424860129187e+18,0.008126095868647099,-0.010724402964115143,-0.0012301558163017035
1.7294248601351872e+18,0.008301706053316593,-0.01001553051173687,0.0009336916264146566
1.7294248601381873e+18,0.011148831807076931,-0.007396550849080086,-0.0005972047802060843
1.7294248601441874e+18,0.01054417435079813,-0.007615410722792149,0.0007442899513989687
1.7294248601501875e+18,0.00924543384462595,-0.0049737123772501945,-0.0009476296836510301
1.7294248601561876e+18,0.012578479014337063,-0.0061734942719340324,-0.003696886822581291
1.7294248601621878e+18,0.009086180478334427,-0.00884962733834982,-0.0003713062033057213
1.7294248601651878e+18,0.008238974958658218,-0.005744943395256996,0.002172253094613552
1.729424860171188e+18,0.006723957136273384,-0.006601289380341768,0.0008940881816670299
1.729424860177188e+18,0.0071343001909554005,-0.0066880639642477036,0.0016375636914744973
1.7294248601831882e+18,0.006131309550255537,-0.005741975270211697,-0.004191557411104441
1.7294248601891884e+18,0.006262683309614658,-0.007584291975945234,0.0033482657745480537
1.7294248601951885e+18,0.007376182824373245,-0.01235747430473566,0.0003889465006068349
1.7294248602011886e+18,0.0060546244494616985,-0.007181283552199602,-8.675569551996887e-05
1.7294248602071887e+18,0.008634413592517376,-0.006532421335577965,-0.00017354535521008074
1.7294248602101888e+18,0.01063808985054493,-0.009630799293518066,0.0005734619335271418
1.729424860216189e+18,0.008061773143708706,-0.008642219007015228,-0.0010672928765416145
1.729424860222189e+18,0.006813589483499527,-0.008508574217557907,0.0011546193854883313
1.7294248602281892e+18,0.008595379069447517,-0.007979612797498703,-0.0007802457548677921
1.7294248602341893e+18,0.007583534345030785,-0.011709691025316715,0.0002621063031256199
1.7294248602401894e+18,0.008487518876791,-0.006174218840897083,0.0008720251498743892
1.7294248602461896e+18,0.007435164414346218,-0.006390682887285948,-0.002319950144737959
1.7294248602491896e+18,0.007761955726891756,-0.008424303494393826,0.0011843845713883638
1.7294248602551898e+18,0.008383668027818203,-0.00586734339594841,-0.0016310540959239006
1.72942486026119e+18,0.009389213286340237,-0.00456107035279274,-0.0006295823841355741
1.72942486026719e+18,0.0063897231593728065,-0.002983148442581296,-0.0018860059790313244
1.7294248602731901e+18,0.007223373278975487,-0.0072802649810910225,0.0004506545956246555
1.7294248602791903e+18,0.003702628193423152,-0.0061565968208014965,-0.0024459355045109987
1.7294248602851904e+18,0.0050779106095433235,-0.0037600158248096704,-0.0004183193086646497
1.7294248602881905e+18,0.0042366464622318745,-0.005434743594378233,-0.001553999725729227
1.7294248602941906e+18,0.0019442990887910128,-0.0058285873383283615,-0.0017296255100518465
1.7294248603001907e+18,0.006031785160303116,-0.0021721592638641596,0.0006174258887767792
1.7294248603061908e+18,0.004372435621917248,-0.003732450306415558,-0.0017553635407239199
1.729424860312191e+18,0.0023333285935223103,-0.004042493645101786,-0.0008868661243468523
1.729424860318191e+18,0.005760958418250084,-0.005269726738333702,0.004518131259828806
1.7294248603241912e+18,0.005324405152350664,-0.003226814791560173,0.0018621246563270688
1.7294248603271913e+18,0.006405799649655819,-0.007601303048431873,-0.0013270389754325151
1.7294248603331914e+18,0.00872840080410242,-0.005009148269891739,0.0014571105130016804
1.7294248603391916e+18,0.008891860023140907,-0.005540572106838226,0.001354197971522808
1.7294248603451917e+18,0.007054342422634363,-0.004220932722091675,0.0016846511280164123
1.7294248603511918e+18,0.005867232568562031,-0.007306148763746023,-0.0027116669807583094
1.729424860354192e+18,0.008233301341533661,-0.005055130925029516,-0.0011049999156966805
1.729424860360192e+18,0.005913750268518925,-0.005430267192423344,-0.0016758060082793236
1.729424860366192e+18,0.005299936048686504,-0.004091871436685324,0.0022712992504239082
1.7294248603721923e+18,0.005281338468194008,-0.0052402811124920845,0.0002914387732744217
1.7294248603781924e+18,0.005774117540568113,-0.00755105447024107,-0.0008235157583840191
1.7294248603841925e+18,0.0053274002857506275,-0.0022274665534496307,-0.003517469856888056
1.7294248603871926e+18,0.00615406921133399,0.0006324439309537411,0.000645264342892915
1.7294248603931927e+18,0.0069537111558020115,-0.0028067827224731445,-6.9201341830194e-05
1.7294248603991928e+18,0.011693708598613739,-0.004259277135133743,-0.0028904066421091557
1.729424860405193e+18,0.008677239529788494,-0.004703951999545097,-0.0017945929430425167
1.729424860411193e+18,0.007521894760429859,-0.004401407204568386,0.0015635685995221138
1.7294248604171932e+18,0.00865293201059103,-0.00454725744202733,-0.0022707562893629074
1.7294248604231933e+18,0.0034307935275137424,-0.0036827055737376213,-0.00020601836149580777
1.7294248604261934e+18,0.004826172720640898,-0.005605950020253658,-0.00034528705873526633
1.7294248604321935e+18,0.0016651649493724108,-0.004777930676937103,-0.002350624417886138
1.7294248604381937e+18,0.0020140698179602623,-0.000927605084143579,0.0012437638361006975
1.7294248604441938e+18,-7.214955985546112e-06,0.0011756288586184382,-0.0008180043660104275
1.729424860450194e+18,0.0036867125891149044,-0.0034180262591689825,0.0009035600814968348
1.729424860453194e+18,0.0025877971202135086,-0.0002623350010253489,-0.001899786526337266
1.729424860459194e+18,0.007787465117871761,4.6045228373259306e-05,-0.0017685641068965197
1.7294248604651942e+18,0.009240588173270226,-0.0027367451693862677,-0.0019325277535244823
1.7294248604681943e+18,0.008405258879065514,-0.0014642506139352918,0.0023006817791610956
1.7294248604741944e+18,0.00816008448600769,-0.0003338088281452656,-0.000338024168740958
1.7294248604801946e+18,0.003679020330309868,-0.004744870122522116,0.0002520756097510457
1.7294248604861947e+18,0.0047469292767345905,0.00044329056981951,-0.0008208925137296319
1.7294248604891948e+18,0.0026264728512614965,-0.0006931679090484977,0.00015016965335235
1.729424860495195e+18,-0.0005757410544902086,-0.0005153935635462403,0.005309979431331158
1.729424860501195e+18,0.001230132533237338,0.0017135987291112542,-0.00232778862118721
1.7294248605071951e+18,0.0007482192013412714,-0.0016163148684427142,-0.0006757986848242581
1.7294248605131953e+18,0.0009908986976370215,-2.6414767489768565e-05,-0.00034116083406843245
1.7294248605161953e+18,-0.0007441744673997164,-0.00019167058053426445,-0.0006416561082005501
1.7294248605221955e+18,0.0017526405863463879,-0.0012000640854239464,-0.0009378288523294032
1.7294248605281956e+18,0.002755873603746295,0.00036069867201149464,0.00091538205742836
1.7294248605311956e+18,0.0069642565213143826,-0.0026638112030923367,-0.0008331261342391372
1.7294248605371958e+18,0.0019008410163223743,-0.0004592518089339137,-0.005224889609962702
1.729424860543196e+18,0.0058245183899998665,-0.0030983765609562397,0.003257512114942074
1.729424860549196e+18,0.006650002207607031,0.0014663378242403269,-0.0002836052153725177
1.729424860552196e+18,0.007956016808748245,-0.001013562548905611,0.001010538311675191
1.7294248605581962e+18,0.004596536047756672,-0.0040118759498000145,0.0013504188973456621
1.7294248605641964e+18,0.005216486752033234,-0.0016223336569964886,0.0007017625612206757
1.7294248605701965e+18,0.0066377450712025166,-0.00032109429594129324,-0.0010531876469030976
1.7294248605731965e+18,0.004916877020150423,-0.000678960932418704,0.001735934754833579
1.7294248605791967e+18,0.0038697468116879463,-0.0018112947000190616,-0.0041921744123101234
1.7294248605851968e+18,0.0020256908610463142,-0.0006564154755324125,-0.00034515553852543235
1.729424860591197e+18,0.0006529213860630989,-0.0017417711205780506,-0.0005365928518585861
1.729424860594197e+18,0.005123755428940058,-0.0007582645630463958,-0.0013866061344742775
1.729424860600197e+18,0.0065714274533092976,-0.001389780081808567,0.001486903172917664
1.7294248606061972e+18,0.006630506366491318,0.0016584855038672686,0.0005231474060565233
1.7294248606121974e+18,0.00976717658340931,-0.0019512152066454291,-0.00348867941647768
1.7294248606151974e+18,0.005291221663355827,0.0031920664478093386,6.821437273174524e-05
1.7294248606211976e+18,0.004551118239760399,0.002747242571786046,-0.0005786346737295389
1.7294248606271977e+18,0.0019097821786999702,0.004173930734395981,-0.002945657353848219
1.7294248606331978e+18,0.003948267083615065,0.0005744287045672536,-0.0012520337477326393
1.729424860636198e+18,0.0022710170596837997,-0.0011558097321540117,-0.000529625394847244
1.729424860642198e+18,0.0020941393449902534,-0.0028411296661943197,0.00033121509477496147
1.7294248606481981e+18,-0.0002866106806322932,0.0025381743907928467,-0.0014351075515151024
1.7294248606541983e+18,0.002560882829129696,0.0005976501852273941,-0.002894116099923849
1.7294248606571983e+18,-0.0010027631651610136,-0.0015887467889115214,-0.00292610889300704
1.7294248606631985e+18,0.0038856444880366325,0.0006709576700814068,-0.0010355114936828613
1.7294248606691986e+18,0.0012029540957883,0.0014020809903740883,-0.0010296712862327695
1.7294248606721987e+18,0.0055353823117911816,-0.0018082328606396914,-0.0005688616074621677
1.7294248606781988e+18,0.0020670811645686626,-0.0025100386701524258,0.002595932222902775
1.729424860684199e+18,-0.0004902209620922804,-0.00032228429336100817,-0.0005647832877002656
1.729424860687199e+18,0.003979452885687351,2.6230118237435818e-05,0.00021013611694797873
1.729424860693199e+18,-0.0006479264702647924,-0.0020212780218571424,-0.0008124741143546999
1.7294248606991992e+18,0.00046157679753378034,-0.0016614006599411368,0.00046282802941277623
1.7294248607051994e+18,0.0021003438159823418,-0.0009863817831501365,-0.0004002828209195286
1.7294248607081994e+18,-0.0020793757867068052,-0.0009595914743840694,-0.0032236212864518166
1.7294248607141996e+18,0.0036008437164127827,-0.00033841095864772797,0.0019952270667999983
1.7294248607201997e+18,0.0018852211069315672,-0.0006498236325569451,-0.00048129353672266006
1.7294248607261998e+18,0.007697700522840023,0.0020322066266089678,-0.0005513527430593967
1.7294248607291999e+18,0.0031238761730492115,0.0028416025452315807,-0.0019413505215197802
1.7294248607352e+18,0.008031092584133148,0.0012333161430433393,-0.0023052324540913105
1.7294248607412001e+18,0.005665140692144632,0.003054751316085458,-0.0033251747954636812
1.7294248607472003e+18,0.0034991861321032047,-0.0011916225776076317,-0.00256764842197299
1.7294248607502003e+18,0.007112191990017891,0.0019033487187698483,-0.001018895418383181
1.7294248607562004e+18,0.005235351622104645,-0.0008748770924285054,-8.289801189675927e-05
1.7294248607622006e+18,0.002484146971255541,-0.0021593202836811543,0.002482013776898384
1.7294248607682007e+18,0.004312207922339439,-0.0005714059807360172,0.0018694305326789618
1.7294248607712008e+18,0.002366097178310156,-0.00042993936222046614,0.001590265310369432
1.729424860777201e+18,0.004893114324659109,-0.0010572278406471014,-0.0022946158424019814
1.729424860783201e+18,0.003169379662722349,0.00013146002311259508,-0.0012428706977516413
1.7294248607892012e+18,0.007019964978098869,0.0018572988919913769,-0.0010419373866170645
1.7294248607922012e+18,0.0074461838230490685,0.002201925264671445,-0.0012461699079722166
1.7294248607982013e+18,0.007597521413117647,-0.0011584796011447906,-0.0002416677598375827
1.7294248608042015e+18,0.003069994505494833,0.0012756179785355926,-0.003517604898661375
1.7294248608102016e+18,0.0046724737621843815,-0.0003522034967318177,-0.0009474912658333778
1.7294248608132017e+18,0.006337614730000496,0.003228523302823305,0.0013970526633784175
1.7294248608192018e+18,-0.0009756204672157764,0.0020131284836679697,-0.001733880490064621
1.729424860825202e+18,0.0014813446905463934,0.00012882670853286982,-0.003019873518496752
1.729424860831202e+18,-0.0011987268226221204,-4.8183195758610964e-05,-0.00023666999186389148
1.729424860834202e+18,-0.00020210219372529536,0.00012121211329940706,-0.00016739597776904702
1.7294248608402022e+18,0.000998838571831584,0.0033846176229417324,9.8728749435395e-05
1.7294248608462024e+18,-0.0013180781388655305,-0.0017277270089834929,-0.0012411910574883223
1.7294248608522025e+18,0.00012588012032210827,-0.004156139679253101,-0.0009653084562160075
1.7294248608552026e+18,0.0018832276109606028,-0.0018021325813606381,-0.0016886652447283268
1.7294248608612027e+18,0.00782790221273899,-0.0007534167962148786,0.0008107764879241586
1.7294248608672028e+18,0.0033339750953018665,-0.0015760492533445358,-0.0008188378415070474
1.729424860873203e+18,0.0060687800869345665,0.0003697337815538049,0.000265157432295382
1.729424860876203e+18,0.0010514752939343452,-0.0007515573524869978,-0.0005770825664512813
1.7294248608822031e+18,0.003764195367693901,-0.0006168741965666413,-0.004294601269066334
1.7294248608882033e+18,0.00298342970199883,-0.0005016470095142722,0.000670402601826936
1.7294248608942034e+18,0.0016496754251420498,-0.0009285283740609884,0.00045546022010967135
1.7294248608972035e+18,-0.000540694163646549,-0.0001906439138110727,-0.0013785548508167267
1.7294248609032036e+18,-0.0027951649390161037,-0.0009030048386193812,0.0004128008149564266
1.7294248609092037e+18,0.00024255592143163085,0.0014387904666364193,-0.0006919280858710408
1.7294248609122038e+18,0.0014504725113511086,-0.002862436231225729,-0.0009369985782541335
1.729424860918204e+18,0.0002924134023487568,0.001573002664372325,-0.0003255556512158364
1.729424860924204e+18,0.005272856447845697,-0.0017510298639535904,0.0018641799688339233
1.7294248609302042e+18,0.004911520052701235,-0.006045754067599773,0.0001247443724423647
1.7294248609332042e+18,0.0057501355186104774,-0.0014152100775390863,-0.0031785285100340843
1.7294248609392044e+18,0.009141122922301292,-0.0017291076947003603,0.0008026764844544232
1.7294248609452045e+18,0.0070359669625759125,-0.00021186296362429857,-0.000213724619243294
1.7294248609512046e+18,0.007045813370496035,-0.003576893825083971,-0.001449780073016882
1.7294248609542047e+18,0.005532127805054188,-0.0028342418372631073,-0.0010412803385406733
1.7294248609602048e+18,0.005763049703091383,-0.000341838866006583,-0.00109898392111063
1.729424860966205e+18,0.002433869056403637,0.002463708631694317,0.0005455570644699037
1.729424860972205e+18,0.00635529262945056,-0.001196222030557692,-0.002038344508036971
1.7294248609782052e+18,0.0009176316671073437,-0.0003722739056684077,0.0006249276339076459
1.7294248609812052e+18,0.00033617508597671986,-0.0030577005818486214,-0.0030415281653404236
1.7294248609872054e+18,0.00269529246725142,-0.001701168017461896,-0.0016780808800831437
1.7294248609932055e+18,0.0017528872704133391,-0.0006924360059201717,0.001098310574889183
1.7294248609962056e+18,0.004729150794446468,-0.003922108095139265,-0.0015603270148858428
1.7294248610022057e+18,0.003983772825449705,-0.005478934850543737,-6.103166379034519e-05
1.7294248610082058e+18,0.001162747386842966,-0.00394598999992013,-0.0002163840108551085
1.729424861011206e+18,0.003158985171467066,-0.0017828980926424265,0.0012828565668314695
1.729424861017206e+18,0.004315831698477268,-0.005198546685278416,-0.0006279631052166224
1.7294248610232061e+18,0.0038758902810513973,-0.0017229017103090882,-0.001488464418798685
1.7294248610292063e+18,0.000364913372322917,-0.0011659134179353714,-0.0024865504819899797
1.7294248610322063e+18,0.002135571325197816,0.0007565828273072839,-0.0014855595072731376
1.7294248610382065e+18,0.0008384662796743214,-0.0013836033176630735,0.0016464504878968
1.7294248610442066e+18,0.0009455934632569551,0.0013700291747227311,-0.0006958688609302044
1.7294248610502067e+18,-0.0021351096220314503,0.0014047243166714907,0.001620525261387229
1.7294248610532068e+18,0.0038672955706715584,0.0015075700357556343,-0.00254152063280344
1.729424861059207e+18,-0.0018735197372734547,-0.0002863944973796606,-0.00048623408656567335
1.729424861065207e+18,0.004085300490260124,-0.001578947645612061,0.0021832347847521305
1.729424861068207e+18,0.004611524753272533,0.0018158878665417433,-0.002898389706388116
1.7294248610742072e+18,0.004604410845786333,0.003123894101008773,0.001629228238016367
1.7294248610802074e+18,0.0037218912038952112,0.00036720989737659693,0.002366364933550358
1.7294248610862075e+18,0.004353727214038372,-0.0026201687287539244,-0.0024054814130067825
1.7294248610892076e+18,0.004759878385812044,0.0026019250508397818,-0.0023871224839240313
1.7294248610952077e+18,0.001960677094757557,0.0011548481415957212,-0.0007483717054128647
1.7294248611012078e+18,0.0008949562907218933,-0.0008556614629924297,-0.0036925477907061577
1.729424861107208e+18,0.001745310495607555,0.00039759266655892134,0.0005668115336447954
1.729424861113208e+18,0.0019701733253896236,0.0015839239349588752,0.0030218875035643578
1.729424861116208e+18,0.002249880926683545,4.7754496335983276e-05,0.005712552461773157
1.7294248611222083e+18,0.004700228106230497,0.0007737736450508237,0.0044405339285731316
1.7294248611282084e+18,0.001082442351616919,-0.0008333255536854267,0.007489274255931377
1.7294248611312084e+18,0.0010962565429508686,-0.0005317394388839602,0.008212363347411156
1.7294248611372086e+18,-0.00018332188483327627,-0.001973053440451622,0.010246774181723595
1.7294248611432087e+18,-9.812467033043504e-05,-0.008327660150825977,0.007744800299406052
1.7294248611492088e+18,0.0001829427492339164,-0.00659089395776391,0.00694639515131712
1.729424861152209e+18,-0.00022087761317379773,-0.006225081626325846,0.005743391811847687
1.729424861158209e+18,0.0018715495243668556,-0.008767697960138321,0.00999574363231659
1.7294248611642092e+18,0.002716509159654379,-0.008695675060153008,0.005707967560738325
1.7294248611702093e+18,0.0004364777123555541,-0.009877323172986507,0.009396681562066078
1.7294248611762094e+18,0.0027332021854817867,-0.009344927035272121,0.005751053802669048
1.7294248611792095e+18,-0.0009156453888863325,-0.007347365375608206,0.005102465860545635
1.7294248611852096e+18,0.0017877928912639618,-0.006466877646744251,0.007160793524235487
1.7294248611912097e+18,-0.0006840782007202506,-0.008952670730650425,0.006648182403296232
1.7294248611972099e+18,-0.0042449599131941795,-0.009110046550631523,0.008273569867014885
1.72942486120021e+18,-0.0032034798059612513,-0.009924700483679771,0.0042703766375780106
1.72942486120621e+18,-0.00288702012039721,-0.009581184946000576,0.008618086576461792
1.7294248612122102e+18,-0.0015266148839145899,-0.008978752419352531,0.006645828019827604
1.7294248612182103e+18,-0.0011616299161687493,-0.0116270761936903,0.008280056528747082
1.7294248612242104e+18,-0.005448952317237854,-0.010554026812314987,0.004825367592275143
1.7294248612272105e+18,-0.002664439380168915,-0.012529943138360977,0.00674757594242692
1.7294248612332106e+18,-0.0017982259159907699,-0.01121456641703844,0.007029340602457523
1.7294248612392108e+18,-0.00015168345998972654,-0.011733541265130043,0.007632621098309755
1.729424861245211e+18,0.003334230277687311,-0.010514099150896072,0.006817899644374847
1.729424861251211e+18,0.0018233365844935179,-0.00790171604603529,0.008959626778960228
1.729424861254211e+18,0.0035753054544329643,-0.008476453833281994,0.006199500989168882
1.7294248612602112e+18,0.0036703962832689285,-0.008017311803996563,0.007932227104902267
1.7294248612662113e+18,0.00013316224794834852,-0.006607586983591318,0.007008485496044159
1.7294248612692114e+18,0.0015563052147626877,-0.007797679398208857,0.005656394176185131
1.7294248612752115e+18,0.0008233559783548117,-0.011359238997101784,0.00487709604203701
1.7294248612812116e+18,-0.0038559865206480026,-0.006523138843476772,0.007785547990351915
1.7294248612872118e+18,-0.003955249208956957,-0.007795015815645456,0.006772692780941725
1.7294248612902118e+18,-0.0026657450944185257,-0.007249909453094006,0.008511651307344437
1.729424861296212e+18,-0.0005514300428330898,-0.005233485251665115,0.008361095562577248
1.729424861302212e+18,-0.0020094241481274366,-0.005776957608759403,0.006680796854197979
1.7294248613052122e+18,-0.00044370483374223113,-0.005697679240256548,0.0064288172870874405
1.7294248613112123e+18,0.0010687254834920168,-0.0008785841055214405,0.005892660468816757
1.7294248613172124e+18,0.0025914476718753576,-0.00435048621147871,0.010731813497841358
1.7294248613232125e+18,0.0011549320770427585,-0.00327564449980855,0.007046471815556288
1.7294248613292127e+18,0.0015364278806373477,-0.003586455015465617,0.00527538638561964
1.7294248613322127e+18,0.0016308737685903907,-0.00072033132892102,0.00850541703402996
1.7294248613382129e+18,0.0016334602842107415,-0.0030326521955430508,0.00572773115709424
1.729424861344213e+18,0.0014623895986005664,-0.0019261800916865468,0.006685958709567785
1.729424861350213e+18,-0.0019022430060431361,-0.0003499132872093469,0.005713478662073612
1.7294248613532132e+18,-0.0011553018121048808,-0.0008252920815721154,0.007297331467270851
1.7294248613592133e+18,-0.0035942706745117903,0.001797979581169784,0.00519671943038702
1.7294248613652134e+18,-0.003946885000914335,-0.00017588201444596052,0.0074118622578680515
1.7294248613712136e+18,-0.004626346752047539,0.0015629406552761793,0.008945541456341743
1.7294248613742136e+18,-0.0012095418060198426,0.0031860379967838526,0.008322193287312984
1.7294248613802138e+18,-0.0009699211223050952,0.003371728118509054,0.006306982599198818
1.729424861386214e+18,-0.0013188336743041873,7.196166552603245e-05,0.0038943318650126457
1.729424861389214e+18,-0.0012359630782157183,0.00578230619430542,0.00901417713612318
1.729424861395214e+18,-0.0018867234466597438,0.004340626765042543,0.006872253026813269
1.7294248614012142e+18,0.0038353779818862677,0.004745920188724995,0.007390347309410572
1.7294248614072143e+18,-0.0009007492335513234,0.006803961470723152,0.005449454765766859
1.7294248614132145e+18,-0.0022429833188652992,0.008237598463892937,0.007623034995049238
1.7294248614162145e+18,-0.0015501584857702255,0.006700827740132809,0.008157129399478436
1.7294248614222147e+18,-0.00010962376836687326,0.008871294558048248,0.008185280486941338
1.7294248614282148e+18,-0.0034227436408400536,0.006902994122356176,0.0051845526322722435
1.729424861434215e+18,0.00027445144951343536,0.011614915914833546,0.006138708908110857
1.729424861437215e+18,-0.0010573714971542358,0.006075622513890266,0.006108645815402269
1.729424861443215e+18,-0.0028035216964781284,0.00974898412823677,0.008569331839680672
1.7294248614492152e+18,0.0007728686323389411,0.005543733946979046,0.004994094371795654
1.7294248614522153e+18,0.00470385979861021,0.0058629196137189865,0.009917528368532658
1.7294248614582154e+18,0.000878465361893177,0.004486548248678446,0.0054898252710700035
1.7294248614642156e+18,0.002081860089674592,0.007388438563793898,0.00616791658103466
1.7294248614702157e+18,0.006132017821073532,0.005625644698739052,0.009500769898295403
1.7294248614732157e+18,0.0010835445718839765,0.0082146767526865,0.006237725727260113
1.7294248614792159e+18,0.0026311841793358326,0.009704625234007835,0.009488137438893318
1.729424861485216e+18,0.00045581511221826077,0.005199299193918705,0.0076158312149345875
1.7294248614912161e+18,0.0013292388757690787,0.00742883887141943,0.0019202148541808128
1.7294248614942162e+18,0.002084454521536827,0.0074365753680467606,0.006413779221475124
1.7294248615002163e+18,0.00330247706733644,0.010663436725735664,0.007296887692064047
1.7294248615062164e+18,0.0017094092909246683,0.006389324553310871,0.0052503435872495174
1.7294248615092165e+18,0.004683973733335733,0.0069940644316375256,0.007697915192693472
1.7294248615152166e+18,0.0028358616400510073,0.009683721698820591,0.006487496197223663
1.7294248615212168e+18,0.008321177214384079,0.0073395902290940285,0.008174633607268333
1.729424861527217e+18,0.006806019693613052,0.005725863389670849,0.008309057913720608
1.729424861530217e+18,0.004079235717654228,0.00596285006031394,0.006491750944405794
1.729424861536217e+18,0.004021421540528536,0.0060431985184550285,0.007967093959450722
1.7294248615422172e+18,0.006166783161461353,0.006671895273029804,0.006687148008495569
1.7294248615482173e+18,0.004434310365468264,0.004825312178581953,0.004900010302662849
1.7294248615512174e+18,0.002913476899266243,0.007585875689983368,0.007865886203944683
1.7294248615572175e+18,0.002671947004273534,0.007079152390360832,0.008160093799233437
1.7294248615632177e+18,0.004184218123555183,0.0070909252390265465,0.005198013968765736
1.7294248615662177e+18,0.005840361583977938,0.008145291358232498,0.008616684004664421
1.7294248615722179e+18,0.003316194750368595,0.006956790573894978,0.005370175465941429
1.729424861578218e+18,0.0024889628402888775,0.006055665202438831,0.007185632828623056
1.729424861581218e+18,0.003968862351030111,0.004418577533215284,0.0062416670843958855
1.7294248615872182e+18,0.003910406492650509,0.0035685980692505836,0.006815757602453232
1.7294248615932183e+18,0.0036699145566672087,0.006505033001303673,0.006278553977608681
1.7294248615992184e+18,0.0020615754183381796,0.0061588408425450325,0.004307922907173634
1.7294248616022185e+18,0.0019406778737902641,0.0068431030958890915,0.005746214650571346
1.7294248616082186e+18,0.002512676175683737,0.003672774415463209,0.007783479057252407
1.7294248616142188e+18,0.0008363094530068338,0.0034924654755741358,0.010037888772785664
1.729424861620219e+18,0.000493517960421741,0.004158658906817436,0.006641256622970104
1.729424861623219e+18,0.000640339043457061,0.003419571090489626,0.005347555503249168
1.729424861629219e+18,-0.0005200707237236202,0.004174147732555866,0.0033472594805061817
1.7294248616352192e+18,-0.002252778736874461,0.0042427172884345055,0.004562437534332275
1.7294248616412193e+18,0.0017681161407381296,0.004795323126018047,0.008885612711310387
1.7294248616442194e+18,0.0004465817182790488,0.0013112104497849941,0.006309434771537781
1.7294248616502195e+18,0.0005539888516068459,0.006914661265909672,0.006446483079344034
1.7294248616562196e+18,-0.0007953993044793606,0.0018719254294410348,0.008086029440164566
1.7294248616622198e+18,-0.0009876780677586794,0.002207026816904545,0.007789527997374535
1.7294248616652198e+18,-0.00018950499361380935,0.0038901185616850853,0.0035996197257190943
1.72942486167122e+18,-0.00684138061478734,0.0007855085423216224,0.00441909721121192
1.72942486167722e+18,-0.002835839753970504,0.002739252056926489,0.007719130255281925
1.7294248616802202e+18,-0.0034263653215020895,0.0028168358840048313,0.005012807436287403
1.7294248616862203e+18,-0.0012508407235145569,-0.0003224313841201365,0.001025260891765356
1.7294248616922204e+18,-0.002562598790973425,-0.0014994950033724308,0.007013090420514345
1.7294248616952205e+18,-0.002053287345916033,-0.0006185933016240597,0.004324805922806263
1.7294248617042207e+18,0.00018053734675049782,0.00247246865183115,0.00426435936242342
1.7294248617072207e+18,3.443891182541847e-05,0.0020880955271422863,0.008851589635014534
1.7294248617132209e+18,0.00010815390851348639,-0.0019449456594884396,0.004770823288708925
1.729424861719221e+18,-0.002924461616203189,0.003089002100750804,0.0075712380930781364
1.729424861725221e+18,-0.0016570744337514043,0.00223448034375906,0.0044325487688183784
1.7294248617282212e+18,-0.000993446446955204,0.0003735515056177974,0.005533178336918354
1.7294248617342213e+18,-0.0016080101486295462,0.0014607467455789447,0.005148295313119888
1.7294248617402214e+18,-0.0018771982286125422,0.0026546732988208532,0.006596704944968224
1.7294248617462216e+18,-0.0009520660387352109,0.0020142265129834414,0.0033251524437218904
1.7294248617492216e+18,-0.0005428456934168935,0.0011584871681407094,0.004332323092967272
1.7294248617552218e+18,0.0014961742563173175,0.0006859524874016643,0.006691682152450085
1.729424861761222e+18,0.00241435831412673,-5.6710559874773026e-06,0.0016736253164708614
1.729424861764222e+18,0.001769903232343495,0.0017610762733966112,0.0049356999807059765
1.729424861770222e+18,0.0024864545557647943,-0.0010002795606851578,0.006411185022443533
1.7294248617762222e+18,0.003840110031887889,-0.0027112984098494053,0.004396185278892517
1.7294248617822223e+18,0.0012402093270793557,0.004237770102918148,0.007993921637535095
1.7294248617882225e+18,0.001492558280006051,0.0008172785746864974,0.004354928620159626
1.7294248617912225e+18,-0.0009684932301752269,-0.003614031942561269,0.010021978989243507
1.7294248617972227e+18,0.0013702160213142633,-0.0004991121240891516,0.007563668768852949
1.7294248618032228e+18,-0.001537019619718194,-0.0011372978333383799,0.006587453186511993
1.729424861809223e+18,-0.00023762928321957588,-0.0009909769287332892,0.007011499721556902
1.729424861812223e+18,-0.003632867243140936,-0.003605687990784645,0.004543553106486797
1.729424861818223e+18,0.0009094295674003661,-0.002054395619779825,0.004023556597530842
1.7294248618242232e+18,-0.0005108527257107198,-0.0012222632067278028,0.004487928934395313
1.7294248618302234e+18,-0.0002966768806800246,-0.003107123076915741,0.00411303760483861
1.7294248618362235e+18,-0.0005935558583587408,0.0005312478169798851,0.005731191486120224
1.7294248618422236e+18,0.0023015537299215794,-0.005020583048462868,0.004975601099431515
1.7294248618452237e+18,0.0021811891347169876,-0.0009427891345694661,0.0050086937844753265
1.7294248618512238e+18,0.0025832420215010643,-0.0031641838140785694,0.002344113774597645
1.729424861857224e+18,0.0019135605543851852,-0.00275123561732471,0.003973130136728287
1.729424861863224e+18,0.001477640587836504,-0.0023291953839361668,0.001533786067739129
1.729424861866224e+18,-0.001604215009137988,0.00034208304714411497,0.003803826402872801
1.7294248618722243e+18,-0.0030236912425607443,-0.0011577653931453824,0.0051621077582240105
1.7294248618782244e+18,-0.0030277222394943237,-0.002198271220549941,0.0025969762355089188
1.7294248618842245e+18,-0.004155608359724283,0.0006718068616464734,0.005520544946193695
1.7294248618872246e+18,-0.005231106653809547,-0.0013723033480346203,0.004976997617632151
1.7294248618932247e+18,-0.003665611846372485,-0.0017500612884759903,0.0006736386567354202
1.7294248618992248e+18,-0.000418082345277071,-0.0010679397964850068,0.0045499540865421295
1.729424861905225e+18,-0.00435702595859766,-0.002853699494153261,0.002740184310823679
1.729424861908225e+18,-0.000615342054516077,-0.0010622175177559257,0.0019588912837207317
1.7294248619142252e+18,-0.002980339340865612,-0.0002558859996497631,0.004494240507483482
1.7294248619202253e+18,-0.0038433047011494637,0.0016656769439578056,0.0007976044435054064
1.7294248619262254e+18,-0.002884053625166416,0.00024429592303931713,0.00601537898182869
1.7294248619292255e+18,-0.002965953666716814,0.0012836705427616835,0.005651894956827164
1.7294248619352256e+18,-0.005146932788193226,-0.0012433414813131094,0.002381680766120553
1.7294248619412257e+18,-0.00500613683834672,0.0026007136330008507,0.002794539788737893
1.7294248619472259e+18,-0.0035989212337881327,0.0005843705730512738,0.0030800539534538984
1.729424861950226e+18,-0.000677002128213644,0.001949777826666832,0.0026647676713764668
1.729424861956226e+18,-0.003483167849481106,9.775068610906601e-05,0.0010574782500043511
1.7294248619622262e+18,-0.0010540031362324953,0.004478731192648411,0.0038144588470458984
1.7294248619682263e+18,-0.0023425703402608633,-0.0002797500928863883,0.003388355253264308
1.7294248619712264e+18,0.00023882579989731312,0.0019597397185862064,0.0013044230872765183
1.7294248619772265e+18,0.0008172292727977037,0.0034877443686127663,0.003890032647177577
1.7294248619832266e+18,-0.003222068538889289,0.0007370669045485556,0.0023550980258733034
1.7294248619892268e+18,-0.002237800508737564,0.0019314282108098269,0.001341077033430338
1.7294248619922268e+18,-0.0025751956272870302,0.0028730472549796104,0.0011766244424507022
1.729424861998227e+18,-0.005016207695007324,-0.00113478337880224,0.0034560412168502808
1.729424862004227e+18,-0.005501430481672287,0.0018321110401302576,0.001975571271032095
1.7294248620102272e+18,-0.003527712542563677,-0.0005867856089025736,4.093279130756855e-05
1.7294248620132273e+18,-0.0046922871842980385,-0.0006420686258934438,0.0017325086519122124
1.7294248620192274e+18,-0.0030432105995714664,0.0003909328952431679,0.002195809269323945
1.7294248620252275e+18,-0.0009607210522517562,-0.0028565428219735622,0.00065466423984617
1.7294248620312276e+18,-0.0028141182847321033,-0.0018391961930319667,0.002594779944047332
1.7294248620342277e+18,-0.0002539008855819702,0.0008923138957470655,0.00423955824226141
1.7294248620402278e+18,0.0009969291277229786,-0.004607189446687698,0.0020686425268650055
1.729424862046228e+18,-0.001603978220373392,0.0003943289630115032,0.002648316789418459
1.729424862052228e+18,-0.0012522651813924313,-0.0013917151372879744,0.0008519497932866216
1.7294248620552282e+18,-0.00048565742326900363,-0.0015225361566990614,0.0012819854309782386
1.7294248620612283e+18,-0.0004442419158294797,-0.003116428852081299,0.0045082466676831245
1.7294248620672284e+18,-0.001683602575212717,2.0260922610759735e-05,0.0016330471262335777
1.7294248620732285e+18,-0.004066997207701206,-0.0006469826330430806,-0.0019134304020553827
1.7294248620762286e+18,-0.0017914846539497375,-0.0027324813418090343,0.0036394563503563404
1.7294248620822287e+18,-0.002125572180375457,-0.0016121362568810582,0.00024040648713707924
1.7294248620882289e+18,-0.0019913394935429096,-0.001441106665879488,-0.0021418100222945213
1.729424862094229e+18,-0.0017918016528710723,-0.0017324662767350674,0.0017726446967571974
1.729424862097229e+18,0.0005190096562728286,-0.002427174709737301,0.0010990109294652939
1.7294248621032292e+18,0.0021274196915328503,0.001640653470531106,0.0032961864490062
1.7294248621092293e+18,-0.0014299465110525489,0.0013456617016345263,0.0012588133104145527
1.7294248621122294e+18,-0.0014951705234125257,0.0009096864378079772,0.0021845337469130754
1.7294248621182295e+18,-0.0008082614513114095,0.001312132808379829,0.0012894270475953817
1.7294248621242296e+18,-0.0016751058865338564,0.0012940908782184124,-0.00011709309183061123
1.7294248621272297e+18,-0.0028106761164963245,0.001939091132953763,0.0002634341362863779
1.7294248621332298e+18,-0.004622705280780792,0.0013993948232382536,0.002366154221817851
1.72942486213923e+18,0.0005368709098547697,-9.445520117878914e-05,0.0019043247448280454
1.72942486214523e+18,-0.002871366683393717,0.0005718271713703871,0.0005110864294692874
1.7294248621482301e+18,-0.0037815242540091276,-0.0033644039649516344,0.003383935894817114
1.7294248621542303e+18,-0.0018160028848797083,-0.0009537014411762357,0.003721445333212614
1.7294248621602304e+18,-0.00084681436419487,-0.0031180980149656534,-0.00016243348363786936
1.7294248621662305e+18,-0.0012345922878012061,-0.004698954988270998,0.0004934247117489576
1.7294248621692306e+18,-0.0016559218056499958,-0.002159958006814122,0.0002458033850416541
1.7294248621752307e+18,-0.0035035014152526855,-0.0013121648225933313,0.0029537775553762913
1.7294248621812308e+18,-0.0013289069756865501,-0.004787894897162914,8.449691813439131e-05
1.7294248622052314e+18,0.0007981975795701146,0.003821686375886202,0.0026268516667187214
1.7294248622082314e+18,-0.0022389693185687065,0.0007305088802240789,0.0009790058247745037
1.7294248622142316e+18,-0.004093569703400135,0.0011634514667093754,0.003210171591490507
1.7294248622202317e+18,-0.0007279776618815958,0.001604439690709114,0.0026401591021567583
1.7294248622262318e+18,-6.669285357929766e-05,0.001694226055406034,0.000487474724650383
1.729424862232232e+18,-0.0002681874902918935,-0.0021630399860441685,0.0020666904747486115
1.729424862235232e+18,0.001460211700759828,-0.0012721213279291987,0.0030821380205452442
1.7294248622412321e+18,0.0036315666511654854,-0.001388732111081481,0.0006644168170168996
1.7294248622472323e+18,-0.0015672777080908418,0.0009133076528087258,0.0009041625889949501
1.7294248622532324e+18,0.0013113741297274828,-0.0003754737554118037,0.002632283139973879
1.7294248622562324e+18,2.8972019208595157e-05,-0.0009634874295443296,-0.00100322300568223
1.7294248622622326e+18,-0.00013930140994489193,0.0014198791468515992,-0.0009620976634323597
1.7294248622682327e+18,0.00045886472798883915,-0.0003129686519969255,0.003402761183679104
1.7294248622742328e+18,-0.004877116065472364,0.0016070830170065165,0.0022388186771422625
1.729424862277233e+18,-0.0029777397867292166,0.0012899290304630995,0.0003325162688270211
1.729424862283233e+18,-0.002731114625930786,8.76736594364047e-05,-0.00014343520160764456
1.7294248622892332e+18,-0.0032136361114680767,-7.990718586370349e-05,0.0007821421604603529
1.7294248622952333e+18,-0.00439301785081625,-0.0012563745258376002,0.0008247392834164202
1.7294248622982333e+18,-0.0048030768521130085,-0.0011288108071312308,-0.00015395553782582283
1.7294248623042335e+18,-0.00335845653899014,-0.0012158139143139124,-0.0006730799796059728
1.7294248623102336e+18,-0.005746149457991123,-0.003992767538875341,0.0005178130231797695
1.7294248623132337e+18,-0.006099675316363573,-0.004707681946456432,-0.002268947195261717
1.7294248623192338e+18,-0.006771779619157314,-0.0021807944867759943,0.0013046564999967813
1.729424862325234e+18,-6.381049752235413e-05,-0.0011535814264789224,0.0018092519603669643
1.729424862331234e+18,-0.0025047326926141977,-0.0009370765183120966,0.002676792908459902
1.729424862334234e+18,-0.006097937468439341,-0.002719248179346323,0.000783903815317899
1.7294248623402342e+18,-0.003991179168224335,-0.0017153560183942318,0.0025007002986967564
1.7294248623462344e+18,-0.006028866395354271,0.001745973713696003,0.00016364967450499535
1.7294248623522345e+18,-0.0033902828581631184,0.0030285310931503773,0.001965375617146492
1.7294248623552346e+18,-0.006117202341556549,7.814765558578074e-05,-0.0008184990147128701
1.7294248623612347e+18,-0.005273151211440563,-0.000770095270127058,-0.0018500522710382938
1.7294248623672348e+18,-0.004549544304609299,0.0009572157287038863,0.0025033182464540005
1.729424862373235e+18,-0.004353805910795927,-0.0012147958623245358,0.00036805158015340567
1.729424862376235e+18,-0.004346015397459269,0.0005014218622818589,0.0014853327302262187
1.7294248623822351e+18,-0.002726684557273984,-0.002225348260253668,0.0012875099200755358
1.7294248623882353e+18,0.00231728283688426,-0.0016246127197518945,0.0020762188360095024
1.7294248623942354e+18,-0.0026472522877156734,-0.006066043861210346,0.0023223937023431063
1.7294248623972355e+18,0.0004131837049499154,-0.005923310294747353,0.001605874509550631
1.7294248624032356e+18,-0.001083608716726303,-0.0032652881927788258,0.0025349436327815056
1.7294248624092357e+18,-0.0010134639451280236,0.00011532549979165196,0.0003849053755402565
1.7294248624122358e+18,-0.0027164812199771404,-0.0012750118039548397,0.004675518721342087
1.729424862418236e+18,-0.001127356430515647,0.0012271354207769036,0.0023668960202485323
1.729424862424236e+18,-0.003822424914687872,0.002700138371437788,0.0009398809052072465
1.7294248624302362e+18,-0.006026051472872496,0.0011887094005942345,-0.0007717717671766877
1.7294248624362363e+18,-0.005383093375712633,0.0006990045076236129,0.001667628064751625
1.7294248624392364e+18,-0.005591058637946844,-0.0016792856622487307,0.0033885687589645386
1.7294248624452365e+18,-0.004837025888264179,-0.0010855243308469653,0.0018294320907443762
1.7294248624512366e+18,-0.0031984965316951275,0.0010527347913011909,0.0009353879140689969
1.7294248624572367e+18,0.0016474684234708548,-0.003993651829659939,0.0012860707938671112
1.7294248624632369e+18,0.0025935666635632515,-0.001817756099626422,0.0003852525260299444
1.729424862466237e+18,-0.0004582387628033757,-0.00037529555265791714,0.0024240193888545036
1.729424862472237e+18,-0.0026975604705512524,-0.0023222428280860186,0.0013977348571643233
1.7294248624782372e+18,-0.0021261766087263823,-0.0010150194866582751,0.0013772203819826245
1.7294248624842373e+18,-0.003734389552846551,0.0031028545927256346,0.0016907454701140523
1.7294248624872374e+18,-0.004306069575250149,0.00240731006488204,0.0016683817375451326
1.7294248624932375e+18,-0.005459330510348082,0.001701891771517694,0.0017178392736241221
1.7294248624992376e+18,-0.002774889813736081,0.004694164730608463,0.0004075645701959729
1.7294248625022377e+18,-0.000676117604598403,0.002835619729012251,0.0007412171689793468
1.7294248625082378e+18,-0.0015527904033660889,0.0005236180732026696,0.0008761450881138444
1.729424862514238e+18,-0.0014095226069912314,-4.7650886699557304e-05,0.003994225990027189
1.729424862520238e+18,0.0012513860128819942,-0.002374449511989951,0.0010823628399521112
1.7294248625232381e+18,-0.001890877028927207,0.001019184710457921,0.0025916937738656998
1.7294248625292383e+18,-0.003551377449184656,-0.0015203418442979455,0.002389085479080677
1.7294248625352384e+18,-0.0014108773320913315,-0.001485808752477169,0.0022067921236157417
1.7294248625412385e+18,-0.002660988364368677,-0.0026491316966712475,0.0025799712166190147
1.7294248625442386e+18,-0.005114431492984295,-0.0017884853295981884,0.0033445372246205807
1.7294248625502387e+18,-0.0037425050977617502,0.0007798246806487441,0.0012907558120787144
1.7294248625562388e+18,-0.004433999303728342,0.0015620060730725527,0.003606889396905899
1.729424862559239e+18,-0.005710610654205084,-0.0005755957099609077,0.0006385621964000165
1.729424862565239e+18,-0.002764734672382474,0.003077651606872678,0.001963132992386818
1.7294248625712392e+18,0.002078494755551219,0.0009226494003087282,0.002106307540088892
1.7294248625772393e+18,-0.0023025511763989925,0.00207830173894763,0.002015073550865054
1.7294248625802394e+18,0.00017787647084333003,0.002997115720063448,-0.001233169692568481
1.7294248625862395e+18,-0.0008911335607990623,0.001010354608297348,0.0008450832683593035
1.7294248625922396e+18,-0.00028471415862441063,0.00048866868019104,0.001223845174536109
1.7294248625982397e+18,0.0019920363556593657,0.003698611631989479,0.00014996074605733156
1.7294248626012398e+18,-0.0010258674155920744,-0.0010196759831160307,0.0010287348413839936
1.72942486260724e+18,0.00028144463431090117,0.0008935796795412898,0.002074624877423048
1.72942486261324e+18,-0.002378699602559209,0.001881259959191084,0.0009402399882674217
1.7294248626192402e+18,-0.0006655182223767042,0.006289789453148842,0.0003193753072991967
1.7294248626222403e+18,-0.005221089348196983,0.002412785543128848,0.002814284060150385
1.7294248626282404e+18,-0.0039048895705491304,0.003594588954001665,-0.0019649630412459373
1.7294248626342405e+18,-0.005356850568205118,0.00693103950470686,0.001880836091004312
1.7294248626402406e+18,-0.003670889651402831,0.0016840845346450806,-0.0007479737978428602
1.7294248626432407e+18,-0.00799326878041029,0.005265766754746437,0.001091745332814753
1.7294248626492408e+18,-0.0014916083309799433,0.006436889059841633,4.195910878479481e-05
1.729424862655241e+18,-0.0012838144320994616,0.0001290574437007308,0.003944811411201954
1.729424862661241e+18,-0.0031413338147103786,0.0015597664751112461,-0.000458160531707108
1.7294248626672412e+18,-0.0019753598608076572,0.0022023054771125317,-0.0001381736947223544
1.7294248626702413e+18,0.0012180586345493793,0.0009972220286726952,0.0007579223020002246
1.7294248626762414e+18,-0.0006547969533130527,-0.0009723606053739786,0.0022880127653479576
1.7294248626822415e+18,-0.0010684014996513724,0.0011375374160706997,-0.00036916614044457674
1.7294248626882417e+18,-0.0017558702966198325,0.000983571633696556,0.0018007290782406926
1.7294248626912417e+18,-0.004842884838581085,0.0025753253139555454,0.002763880882412195
1.7294248626972419e+18,-0.003723394125699997,0.00785156898200512,0.0013425239594653249
1.729424862703242e+18,-0.003957828506827354,0.007980377413332462,0.002186671132221818
1.729424862709242e+18,-0.004880127031356096,0.0069162980653345585,0.001675008679740131
1.7294248627122422e+18,-0.00784062035381794,0.0038102874532341957,-0.00036457658279687166
1.7294248627182423e+18,0.0005657186266034842,0.002629962982609868,7.069145794957876e-05
1.7294248627242424e+18,-0.0034042280167341232,0.005134785547852516,0.002945029642432928
1.7294248627302426e+18,-0.0019213249906897545,0.0044845594093203545,6.296648643910885e-05
1.7294248627362427e+18,2.3127533495426178e-05,0.0013398342998698354,0.0003832418587990105
1.7294248627392428e+18,0.0007714289240539074,0.0009409609483554959,0.0022396028507500887
1.729424862745243e+18,0.0005853764596395195,-0.0009786083828657866,0.002646195935085416
1.729424862751243e+18,-2.5326036848127842e-05,0.0015681140357628465,0.00061285390984267
1.7294248627572431e+18,-0.0028085035737603903,0.0022681287955492735,0.0027693116571754217
1.7294248627602432e+18,-0.001514919800683856,0.003923164214938879,0.002237894106656313
1.7294248627662433e+18,-0.0007822244078852236,0.0039948406629264355,0.0017799090128391981
1.7294248627722435e+18,-0.00031721731647849083,0.0022054756991565228,0.004910276271402836
1.7294248627782436e+18,-0.0015615003649145365,0.001641621463932097,-0.0006073591066524386
1.7294248627812436e+18,-0.0015506725758314133,0.003845302853733301,0.0003080892493017018
1.7294248627872438e+18,-0.001500405720435083,0.0015640698838979006,0.0018855263479053974
1.729424862793244e+18,-0.0037107430398464203,0.0019422274781391025,0.00025022297631949186
1.729424862799244e+18,-0.0021529351361095905,0.004356738645583391,0.001369195757433772
1.729424862802244e+18,-0.0007412863778881729,0.003966915421187878,-0.0038935253396630287
1.7294248628082442e+18,-0.0019589450675994158,0.002769127720966935,-0.00024343852419406176
1.7294248628142444e+18,-2.905030851252377e-05,0.001831391011364758,0.0004904363886453211
1.7294248628202445e+18,0.0021956798154860735,0.0011697477893903852,-0.0011790242278948426
1.7294248628232445e+18,-0.001369587960653007,0.0009456105763092637,0.00047391396947205067
1.7294248628292447e+18,-0.0006331925978884101,-0.002260076580569148,0.0010814587585628033
1.7294248628352448e+18,-8.392435847781599e-05,0.0006631880532950163,0.004097596276551485
1.7294248628382449e+18,0.0008676195284351707,-0.0003191764699295163,0.0009803177090361714
1.729424862844245e+18,-0.0012474411632865667,-0.0012668330455198884,0.000640471582300961
1.729424862850245e+18,-0.001541352248750627,0.001571923727169633,0.0027240777853876352
1.7294248628562452e+18,-0.0005528213805519044,0.0014444799162447453,0.0033181249164044857
1.7294248628622454e+18,-0.00026967376470565796,0.00028655841015279293,0.004143029451370239
1.7294248628652454e+18,-0.0029973480850458145,-0.0005059174727648497,0.001978754298761487
1.7294248628712456e+18,-0.0006991703994572163,0.00363156758248806,0.0023281797766685486
1.7294248628772457e+18,0.0034506393130868673,0.004600124433636665,0.002071996219456196
1.7294248628832458e+18,0.003728765295818448,0.004069603979587555,0.0026280286256223917
1.729424862889246e+18,-0.0015325341373682022,0.003484361106529832,-6.654270691797137e-05
1.729424862892246e+18,-3.286075661890209e-05,0.006580640096217394,0.001354106469079852
1.7294248628982461e+18,-0.0009123776108026505,0.0017348076216876507,0.0021057059057056904
1.7294248629042463e+18,0.002672014757990837,0.0034259329549968243,0.0006320623797364533
1.7294248629102464e+18,-0.0021969391964375973,0.0016166269779205322,0.0017829224234446883
1.7294248629132465e+18,0.0006757356459274888,0.004038522485643625,0.0016522582154721022
1.7294248629192466e+18,-3.902846947312355e-05,-0.00035797239979729056,0.0014045331627130508
1.7294248629252467e+18,0.00018725311383605003,-0.000841274973936379,0.00467239273712039
1.7294248629312468e+18,-0.0003716165665537119,0.0023948997259140015,-0.0003047335194423795
1.729424862937247e+18,-0.0001861162018030882,-0.0008330202545039356,0.0009193812729790807
1.729424862940247e+18,0.0013582728570327163,0.0023533757776021957,-2.3673928808420897e-05
1.7294248629462472e+18,-0.0013938690535724163,0.0017315142322331667,0.0014131595380604267
1.7294248629522473e+18,-0.0016675959341228008,0.0004039010382257402,0.0028805634938180447
1.7294248629552474e+18,-0.001469448790885508,0.0005141510628163815,-0.002464801538735628
1.7294248629612475e+18,-0.0029460969381034374,0.0010687510948628187,0.0014875027118250728
1.7294248629672476e+18,-0.0031155734322965145,-0.0008097549434751272,-0.0007653365610167384
1.7294248629732477e+18,-0.00243744277395308,0.0001220796548295766,-0.0008683105115778744
1.7294248629792479e+18,-0.003657690482214093,-0.001095134997740388,-0.0006951970281079412
1.729424862982248e+18,-0.0036957671400159597,-0.0033638833556324244,0.0026188972406089306
1.729424862988248e+18,-0.004048753064125776,-0.0007292638183571398,0.00046088622184470296
1.7294248629942482e+18,-0.002524345414713025,0.00033591105602681637,-0.0006570674013346434
1.7294248630002483e+18,0.0005807420238852501,0.0012044066097587347,0.00010417152952868491
1.7294248630032484e+18,-0.0024674502201378345,0.0011263308115303516,-0.0006357263773679733
1.7294248630092485e+18,-0.0036071608774363995,0.003213568590581417,-0.0003250593435950577
1.7294248630152486e+18,-0.0029584337025880814,0.0038583106361329556,-0.002242820803076029
1.7294248630182487e+18,-5.1732175052165985e-05,0.0010398197919130325,6.369730544975027e-05
1.7294248630242488e+18,-0.0026715793646872044,-0.000504964729771018,0.001811455120332539
1.729424863030249e+18,-0.0030839727260172367,-1.964857801795006e-06,0.0008518739487044513
1.729424863036249e+18,-0.0019112330628558993,0.0012732089962810278,-4.955138865625486e-05
1.7294248630422492e+18,-0.0051744794473052025,-0.0007522118394263089,0.0006765726138837636
1.7294248630452493e+18,-0.004169580526649952,0.0031137862242758274,-0.00020965526346117258
1.7294248630512494e+18,-0.0023530693724751472,0.0029670526273548603,-0.002612730022519827
1.7294248630572495e+18,-0.0017121254932135344,0.0003365730226505548,-0.0002947201719507575
1.7294248630632497e+18,-0.0029747323133051395,0.0006028913776390254,0.0020869264844805002
1.7294248630662497e+18,-0.002360462211072445,4.777774302056059e-05,0.002529504708945751
1.7294248630722499e+18,-0.00029824633384123445,-0.0024782754480838776,0.00025427009677514434
1.72942486307825e+18,-0.00045212084660306573,-0.0018721192609518766,0.000506292621139437
1.72942486308125e+18,-0.0008653784752823412,-0.0014215173432603478,0.0013588203582912683
1.7294248630872502e+18,-0.0023091225884854794,-0.002578424522653222,-0.0019671646878123283
1.7294248630932503e+18,-0.0039313058368861675,-0.0017632482340559363,-0.0005533998482860625
1.7294248630992504e+18,-0.0034291900228708982,-0.0011705404613167048,0.0007836731383576989
1.7294248631052506e+18,-0.004348545800894499,-0.0013910394627600908,0.0032154463697224855
1.7294248631082506e+18,-0.004842319991439581,-0.0026249962393194437,0.0017388069536536932
1.7294248631142508e+18,-0.005895623005926609,-0.00015227735275402665,-0.0021283647511154413
1.729424863120251e+18,-0.0035790640395134687,0.00021334958728402853,0.00017353234579786658
1.729424863126251e+18,-0.0030549713410437107,0.0004806164652109146,4.309695214033127e-05
1.729424863129251e+18,-0.0016716961981728673,0.006171516142785549,0.0011692986590787768
1.7294248631352512e+18,-0.001695259241387248,0.003551941365003586,-0.0029535742942243814
1.7294248631412513e+18,-0.0003322145785205066,0.004141694400459528,0.001484196400269866
1.7294248631472515e+18,-0.002526703756302595,0.00024486344773322344,-0.0010633154306560755
1.7294248631502515e+18,0.0010773682733997703,0.0025958402547985315,-0.0015069053042680025
1.7294248631562516e+18,0.0016526398248970509,0.0018780266400426626,0.000856089114677161
1.7294248631622518e+18,-0.0009178209584206343,-0.0025108368135988712,-0.003637471701949835
1.7294248631652518e+18,-0.0024740248918533325,-0.0030943690799176693,-0.0011092183412984014
1.729424863171252e+18,-0.0027709822170436382,-0.0029418275225907564,-0.00011094204091932625
1.729424863177252e+18,-0.005753610748797655,0.0002742023207247257,0.0009624258382245898
1.7294248631832522e+18,-0.010410765185952187,-0.004616299644112587,0.0005715283332392573
1.7294248631892524e+18,-0.00781329721212387,0.0024062194861471653,0.0008441422833129764
1.7294248631922524e+18,-0.003656383603811264,0.003126244992017746,-0.0029359960462898016
1.7294248631982525e+18,-0.006802113726735115,0.004356658086180687,-0.0002726213133428246
1.7294248632042527e+18,-0.005530978087335825,0.0036153632681816816,1.4968682080507278e-05
1.7294248632102528e+18,-0.0024859881959855556,0.001240408280864358,-0.005533044226467609
1.7294248632132529e+18,-0.0003369739279150963,0.0036703364457935095,0.0008402238599956036
1.729424863219253e+18,-0.0009880674770101905,0.0037393581587821245,-0.0040449900552630424
1.729424863225253e+18,0.00028602208476513624,-0.0008921141270548105,0.002221610862761736
1.7294248632312532e+18,-0.004000429064035416,0.002422436373308301,-0.0011053230846300721
1.7294248632342533e+18,-0.002498538699001074,0.0034741691779345274,-0.0026608651969581842
1.7294248632402534e+18,-0.004536292515695095,0.002123037585988641,-0.00030943340971134603
1.7294248632462536e+18,-0.007205277681350708,0.0064641376957297325,-0.0006348543101921678
1.7294248632492536e+18,-0.0050833020359277725,0.00579399149864912,0.0044561633840203285
1.7294248632552538e+18,-0.007351812906563282,0.006768036633729935,-0.00044974859338253736
1.729424863261254e+18,-0.007000666577368975,0.006300669629126787,-0.0013829655945301056
1.729424863267254e+18,-0.007779257372021675,0.005074135959148407,-0.002616334706544876
1.729424863270254e+18,-0.004311716184020042,0.007530078291893005,0.00017286394722759724
1.7294248632762542e+18,-0.003317196387797594,0.003684737253934145,-0.0023508109152317047
1.7294248632822543e+18,-0.0017817523330450058,0.004789149388670921,0.001085751922801137
1.7294248632882545e+18,-0.0032010828144848347,0.004293628968298435,0.00019739093841053545
1.7294248632912545e+18,-0.0033019324764609337,0.002788781188428402,0.0009707691497169435
1.7294248632972547e+18,-0.0022948812693357468,0.0034263571724295616,0.00027932217926718295
1.7294248633032548e+18,-0.0048024277202785015,0.002643838059157133,0.0005963965086266398
1.7294248633062548e+18,-0.004196732770651579,0.003595796413719654,-0.002273812424391508
1.729424863312255e+18,-0.002265809802338481,0.004099954850971699,-0.0021938576828688383
1.729424863318255e+18,-0.005336156114935875,0.007296509575098753,0.0006711146561428905
1.7294248633242552e+18,-0.0056318072602152824,0.006558517459779978,0.0001399549946654588
1.7294248633302554e+18,-0.0046202028170228004,0.006968009751290083,0.0033033161889761686
1.7294248633332554e+18,-0.0037229761946946383,0.005464825313538313,-0.0008601664449088275
1.7294248633392556e+18,-0.007910850457847118,0.008839676156640053,0.001116408035159111
1.7294248633452557e+18,-0.0049281190149486065,0.0042468467727303505,-0.0014507323503494263
1.7294248633482557e+18,-0.006025753915309906,0.00431699026376009,-0.0021623922511935234
1.729424863354256e+18,-0.004292667843401432,0.0044060926884412766,-4.185444049653597e-05
1.729424863360256e+18,-0.001506468397565186,0.005616145208477974,-0.0007671089842915535
1.729424863363256e+18,-0.003795675002038479,0.0040728310123085976,-0.00014535905211232603
1.7294248633692562e+18,-0.0035163387656211853,0.0012529505183920264,-0.0002581269363872707
1.7294248633752563e+18,-0.0008910697652027011,0.002566283568739891,0.0005802599480375648
1.7294248633812564e+18,-0.000511596561409533,0.004159692674875259,0.00334583199582994
1.7294248633842565e+18,-0.0017655836418271065,0.0006298451917245984,0.0015565815847367048
1.7294248633902566e+18,-0.005593937821686268,0.0013139116344973445,-0.0001552636531414464
1.7294248633962568e+18,-0.005823967978358269,0.004631715826690197,0.0009189490810967982
1.7294248633992568e+18,-0.004045753739774227,0.0038561203982681036,0.0006047972128726542
1.729424863405257e+18,-0.008215490728616714,0.006348502356559038,0.0010091171134263277
1.729424863411257e+18,-0.007279453333467245,0.008292865008115768,-9.138690074905753e-05
1.7294248634172572e+18,-0.006016502156853676,0.0053006443195044994,0.00272954348474741
1.7294248634202573e+18,-0.0026852276641875505,0.006482265889644623,0.0004810145474039018
1.7294248634262574e+18,-0.003081051167100668,0.006269882433116436,-0.000637073302641511
1.7294248634322575e+18,-0.004273450933396816,0.004452439025044441,-0.0013955177273601294
1.7294248634382577e+18,-0.0035042129456996918,0.004030674695968628,-0.00044017095933668315
1.7294248634412577e+18,-0.0021106924396008253,0.0023961595725268126,-0.0016756218392401934
1.7294248634472579e+18,-0.00478592561557889,0.0009564630454406142,-0.001041665207594633
1.729424863453258e+18,-0.003567037172615528,0.003996615298092365,0.0005783502710983157
1.729424863459258e+18,-0.007593010552227497,0.001961272209882736,0.0001330864179180935
1.7294248634622582e+18,-0.0030065272003412247,0.0019816451240330935,0.002425334183499217
1.7294248634682583e+18,-0.007109766826033592,0.002923129126429558,-0.0025043620262295008
1.7294248634742584e+18,-0.005941362585872412,0.0025476436130702496,-0.001264429884031415
1.7294248634802586e+18,-0.005387954413890839,0.0024031877983361483,-0.0031842284370213747
1.7294248634832586e+18,-0.005810950882732868,0.0042124222964048386,-0.002053530653938651
1.7294248634892588e+18,-0.005384807009249926,0.0015172137646004558,-0.0006444893660955131
1.729424863495259e+18,-0.00449722446501255,0.004846721421927214,0.0017514555947855115
1.729424863498259e+18,-0.0057070450857281685,0.0011184005998075008,0.00019390886882320046
1.729424863504259e+18,-0.0016823499463498592,0.004426413215696812,-0.0010778793366625905
1.7294248635102592e+18,-0.004897053819149733,0.005093302112072706,0.003988356329500675
1.7294248635162593e+18,-0.005299360956996679,0.005810710601508617,7.786657079122961e-07
1.7294248635192594e+18,-0.007234475575387478,0.004205652978271246,0.0005864682025276124
1.7294248635252595e+18,-0.004279564134776592,0.004608231596648693,0.0008439530502073467
1.7294248635312596e+18,-0.0028625326231122017,0.005037445574998856,4.838230961468071e-05
1.7294248635372598e+18,-0.004835951142013073,0.00490732304751873,-0.0015263283858075738
1.7294248635402598e+18,-0.004832293838262558,-0.0005834209732711315,-0.002311035292223096
1.72942486354626e+18,-0.007739291060715914,0.002598609309643507,0.0015577062731608748
1.72942486355226e+18,-0.0020743422210216522,-0.0014486541040241718,-0.0011676681460812688
1.7294248635582602e+18,-0.004211628809571266,0.000961991143412888,-0.0004555326304398477
1.7294248635642604e+18,-0.002890491159632802,-0.0007127595599740744,0.002098400378599763
1.7294248635672604e+18,-0.0032942271791398525,0.003451224882155657,-0.0031874908600002527
1.7294248635732605e+18,-0.0034245254937559366,0.0010449319379404187,0.0020002219825983047
1.7294248635792607e+18,-0.0006799190305173397,0.002656874479725957,-0.0016064236406236887
1.7294248635852608e+18,-0.0017787984106689692,0.006512772291898727,-0.0018614298896864057
1.7294248635882609e+18,-0.0040326910093426704,0.004205414094030857,0.00046825793106108904
1.729424863594261e+18,-0.0047333333641290665,0.00550952460616827,-0.000569178257137537
1.729424863600261e+18,-0.0026226670015603304,0.0037925809156149626,0.0020462768152356148
1.7294248636032612e+18,5.3536612540483475e-05,0.0031136057805269957,0.001955266809090972
1.7294248636092613e+18,-0.004059773404151201,0.0027916664257645607,-0.001026066718623042
1.7294248636152614e+18,-0.004677976947277784,0.0016923644579946995,-0.0015563759952783585
1.7294248636182615e+18,-0.0037662037648260593,-0.0006352239288389683,9.511786629445851e-05
1.7294248636242616e+18,-0.0021371538750827312,0.0024409552570432425,-0.0010784072801470757
1.7294248636302618e+18,-0.005450934637337923,0.0017940049292519689,0.0015288472641259432
1.729424863636262e+18,-0.004854416474699974,0.0022793535608798265,-0.0010971796000376344
1.729424863639262e+18,-0.002574758604168892,0.002722339238971472,-0.0022553657181560993
1.729424863645262e+18,-0.005780870094895363,0.004177149850875139,-0.0016245380975306034
1.7294248636512622e+18,-0.0009417850524187088,0.005840526893734932,-0.001170596107840538
1.7294248636572623e+18,-0.002889911411330104,0.0029179095290601254,-0.000717298942618072
1.7294248636602624e+18,-0.003875154536217451,0.005403775256127119,3.607844701036811e-05
1.7294248636662625e+18,-0.0010435739532113075,0.002317139646038413,-0.0029619133565574884
1.7294248636722627e+18,-0.0023617176339030266,0.002555619925260544,0.0014106754679232836
1.7294248636782628e+18,-0.0032633324153721333,0.0028415685519576073,-0.0029280169401317835
1.7294248636812628e+18,-0.004183496814221144,0.00041736802086234093,-0.0001140253443736583
1.729424863687263e+18,-0.00737781822681427,0.0005162237212061882,0.001266470062546432
1.729424863693263e+18,-0.0036231065168976784,0.00153822370339185,-0.0008670341921970248
1.7294248636962632e+18,-0.0041787768714129925,0.000530737335793674,0.00041154344216920435
1.7294248637022633e+18,-0.006150226108729839,0.00133282202295959,0.0024677198380231857
1.7294248637082634e+18,-0.005330324172973633,0.005192867014557123,0.0007394873537123203
1.7294248637142636e+18,-0.003969638142734766,0.0053685372695326805,0.0008749950211495161
1.7294248637172636e+18,-0.005437770858407021,-0.00023203715682029724,0.001356864464469254
1.7294248637232637e+18,-0.0032753683626651764,0.003776202443987131,-0.0005318522453308105
1.7294248637292639e+18,-0.0031729077454656363,0.0019786544144153595,-0.0007542890962213278
1.729424863735264e+18,-0.002018467290326953,0.0022332926746457815,-0.0016830828972160816
1.729424863738264e+18,-0.004891024436801672,0.0004973555915057659,-0.0016613660845905542
1.7294248637442642e+18,-0.003138831350952387,0.003220176789909601,0.0009614099399186671
1.7294248637502643e+18,-0.003804390784353018,-0.00015265028923749924,-0.001806803746148944
1.7294248637532644e+18,-0.00456122774630785,0.006644961889833212,-0.0017554541118443012
1.7294248637592645e+18,-0.007299344055354595,0.002546584000810981,0.0016652403865009546
1.7294248637652646e+18,-0.004270903766155243,0.004310821183025837,-0.0001439513871446252
1.7294248637682647e+18,-0.007263887207955122,0.001027628779411316,-0.0016971006989479065
1.7294248637742648e+18,-0.006423469632863998,0.002627157373353839,0.0014041871763765812
1.729424863780265e+18,-0.0031894100829958916,0.00021947489585727453,-0.0015156265581026673
1.729424863786265e+18,-0.003432546742260456,0.0013649178436025977,0.001761092571541667
1.7294248637892652e+18,-0.0003805875312536955,0.00025503308279439807,-0.00027351421886123717
1.7294248637952653e+18,-0.0003161963541060686,0.00044829482794739306,0.0013558825012296438
1.7294248638012654e+18,-0.0011690901592373848,0.0013849753886461258,-0.00012149702524766326
1.7294248638072655e+18,-0.0019931274000555277,-0.0016488161636516452,-0.0025991257280111313
1.7294248638132657e+18,-0.004141993820667267,-0.0027225418016314507,-0.0002915365039370954
1.7294248638162657e+18,-0.002993286121636629,0.0029412475414574146,-4.2826985009014606e-05
1.7294248638222659e+18,-0.007417359855026007,0.001929253339767456,-0.00021487032063305378
1.729424863828266e+18,-0.0068998513743281364,0.00044963532127439976,-6.316782673820853e-05
1.729424863834266e+18,-0.006332861725240946,0.006047944538295269,-0.0008473019697703421
1.7294248638402662e+18,-0.0033000733237713575,0.004560607951134443,0.0005156869301572442
1.7294248638432663e+18,0.0009220154024660587,0.0028283975552767515,-0.0023435240145772696
1.7294248638492664e+18,0.002264084294438362,0.006085872650146484,0.0009660730138421059
1.7294248638552666e+18,-0.002612622454762459,0.002996591618284583,0.0013485862873494625
1.7294248638612667e+18,0.0008149483473971486,0.0016282619908452034,0.0017668743385002017
1.7294248638642668e+18,-0.0008864382398314774,0.0001287967897951603,-0.0007205279543995857
1.729424863870267e+18,-0.001140131033025682,0.0034958156757056713,0.0007960058865137398
1.729424863876267e+18,-0.002207802375778556,0.00013853167183697224,0.0024689033161848783
1.7294248638822671e+18,-0.004510726314038038,0.0041266996413469315,-0.001173142227344215
1.7294248638852672e+18,-0.005538776516914368,0.0031560268253087997,0.0001855150330811739
1.7294248638912673e+18,-0.0016672800993546844,0.0032822294160723686,-0.003304559737443924
1.7294248638972675e+18,-0.002987355226650834,0.005490060430020094,-0.0021045031026005745
1.7294248639032676e+18,-0.002092538634315133,0.004196395166218281,-0.0018216453026980162
1.7294248639062676e+18,-0.0022271478082984686,0.006701922044157982,-0.002590656979009509
1.7294248639122678e+18,0.0013222298584878445,0.005742491222918034,-0.0016500267665833235
1.729424863918268e+18,-0.0012941601453348994,0.0056031751446425915,-0.0012741731479763985
1.729424863921268e+18,0.0004332797834649682,0.005046570207923651,-0.0029169265180826187
1.729424863927268e+18,-0.0012074658880010247,0.0053584277629852295,-0.00026059633819386363
1.7294248639332682e+18,0.000940544530749321,0.0060420832596719265,-0.0019029602408409119
1.7294248639392684e+18,-0.0021205651573836803,0.005125781986862421,-0.0005075987428426743
1.7294248639452685e+18,-0.0017086539883166552,0.0051786815747618675,0.0007837550947442651
1.7294248639482685e+18,-0.0005505336448550224,0.007139618508517742,-0.0029623033478856087
1.7294248639542687e+18,-0.004261487163603306,0.0037226679269224405,-0.001913133542984724
1.7294248639602688e+18,-0.005721338093280792,0.004138689022511244,-0.0013667593011632562
1.729424863966269e+18,-0.005477839149534702,0.0057467264123260975,-0.0012700925581157207
1.729424863972269e+18,-0.00011022225953638554,0.005523915868252516,-0.005024501122534275
1.729424863975269e+18,-0.004131741356104612,0.007511252537369728,-0.0016718897968530655
1.7294248639812692e+18,-0.00469314306974411,0.006021037697792053,0.00011100783012807369
1.7294248639872694e+18,-0.004775905050337315,0.004781902767717838,-0.003740260610356927
1.7294248639902694e+18,-0.003397522494196892,0.0021442121360450983,-0.001748387818224728
1.7294248639962696e+18,-0.002836521016433835,0.0051649161614477634,0.001593810273334384
1.7294248640022697e+18,-0.005105762742459774,0.006649932824075222,-0.00074944575317204
1.7294248640082698e+18,-0.006471426226198673,0.0022283957805484533,-0.00012783880811184645
1.72942486401127e+18,-0.003736609360203147,0.0069648101925849915,-0.0007053057197481394
1.72942486401727e+18,-0.0044707125052809715,0.004191771149635315,-0.002043857704848051
1.7294248640232701e+18,-0.003645665477961302,0.003980287816375494,-0.0012248317943885922
1.7294248640292703e+18,-0.005509188864380121,0.004476822447031736,-0.0016857030568644404
1.7294248640322703e+18,-0.005273756105452776,0.0024142595939338207,0.0026374608278274536
1.7294248640382705e+18,-0.003394455648958683,0.005647310521453619,0.002308077644556761
1.7294248640442706e+18,-0.004475085996091366,0.0053945267572999,0.00011552876094356179
1.7294248640502707e+18,-0.0059172059409320354,0.0007598728407174349,0.002108229324221611
1.7294248640532708e+18,-0.004270475823432207,0.0029629592318087816,-0.001013775123283267
1.729424864059271e+18,-0.003170195035636425,0.006125155370682478,-0.0023050550371408463
1.729424864065271e+18,-0.004050930961966515,0.0022364244796335697,-0.0021279712673276663
1.7294248640712712e+18,-0.003950236365199089,0.0003852981608361006,0.0002911063493229449
1.7294248640742712e+18,-0.005194123834371567,0.0017086290754377842,0.0005851901369169354
1.7294248640802714e+18,-0.007530215196311474,-0.002126979408785701,-0.002566124778240919
1.7294248640862715e+18,-0.004437950439751148,0.002796422690153122,0.0008720028563402593
1.7294248640922716e+18,-0.0027830773033201694,0.0009512293618172407,-0.0023450697772204876
1.7294248640952717e+18,-0.0035494870971888304,0.00016714597586542368,-0.0006645076791755855
1.7294248641012718e+18,-0.0010373519035056233,-0.0011422841344028711,-0.001846959930844605
1.729424864107272e+18,-0.0025325436145067215,-0.00010384968481957912,-0.0018075434491038322
1.729424864113272e+18,-0.0008187238709069788,-0.0019330584909766912,-0.0003339411341585219
1.729424864116272e+18,-0.0022229994647204876,0.003136098850518465,-0.0013548987917602062
1.7294248641222723e+18,-0.003299527335911989,0.0016969818389043212,-0.002963501261547208
1.7294248641282724e+18,-0.0035906110424548388,-0.0005636661662720144,-0.0007406328804790974
1.7294248641312724e+18,-0.0026889259461313486,-2.4539069272577763e-05,-0.00233766483142972
1.7294248641372726e+18,-0.004386277869343758,0.0015093397814780474,-0.0011759508633986115
1.7294248641432727e+18,-0.0014082941925153136,0.0016149330185726285,-0.001376190921291709
1.7294248641492728e+18,-0.003601700533181429,0.0009507540380582213,-0.0010175283532589674
1.729424864155273e+18,-0.00028216466307640076,-3.224128158763051e-05,-0.0004434680740814656
1.729424864158273e+18,-0.0005946484161540866,0.003103680908679962,-0.003941370639950037
1.7294248641642732e+18,-0.0005954464431852102,0.00014933879720047116,0.0009532828698866069
1.7294248641702733e+18,-0.0003642539959400892,0.0015621741767972708,-0.0016190819442272186
1.7294248641732733e+18,0.0006270676385611296,0.002405913546681404,-0.000513222417794168
1.7294248641792735e+18,0.0011867161374539137,0.002745720325037837,-0.0011621394660323858
1.7294248641852736e+18,0.001617289031855762,-0.0007377557922154665,0.002761027542874217
1.7294248641912737e+18,0.0002130313077941537,-0.0001142814289778471,-0.0017000099178403616
1.7294248641942738e+18,-0.002534344792366028,0.0016805615741759539,-5.6075339671224356e-05
1.729424864200274e+18,-0.002463380340486765,-0.0018545198254287243,-0.0031172919552773237
1.729424864206274e+18,-0.0030061823781579733,0.0015284063993021846,-0.0005278028547763824
1.7294248642122742e+18,-0.002468008315190673,0.002120629884302616,0.0014675965066999197
1.7294248642152742e+18,-0.0006871381774544716,-0.00015603704378008842,-0.0008454081835225224
1.7294248642212744e+18,0.0009256504126824439,-0.0006100133759900928,-0.001257679658010602
1.7294248642272745e+18,0.0010654483921825886,0.0052483053877949715,-0.002335547236725688
1.7294248642332746e+18,0.002384877996519208,0.00028767436742782593,-0.0031080800108611584
1.7294248642362747e+18,0.0034495186991989613,0.003456780221313238,-0.0044316938146948814
1.7294248642422748e+18,0.0031955186277627945,-0.0007004932849667966,-0.0012795818038284779
1.729424864248275e+18,0.0043549793772399426,0.0024925884790718555,-0.0010282797738909721
1.729424864251275e+18,0.005253773182630539,-0.004783824551850557,-0.0029702535830438137
1.7294248642572751e+18,-0.0013840305618941784,-0.0018666223622858524,-0.0012394455261528492
1.7294248642632753e+18,-0.00012200779747217894,-0.003948919475078583,-0.0006724065751768649
1.7294248642662753e+18,0.0008229173254221678,-0.0019624880515038967,0.0008669481612741947
1.7294248642722755e+18,0.0009008492343127728,-0.0018257645424455404,-0.000823718321043998
1.7294248642782756e+18,0.0014579484704881907,0.0011268439702689648,-0.0013851569965481758
1.7294248642812756e+18,-0.0016903873765841126,-0.0006683025858364999,-0.001440807362087071
1.7294248642872758e+18,0.0009462294401600957,-0.0014349973062053323,0.0010777744464576244
1.729424864293276e+18,-0.0014285390498116612,0.000571714248508215,-0.001383138820528984
1.729424864299276e+18,0.0005489232135005295,0.0029140443075448275,-0.0014732107520103455
1.729424864302276e+18,-0.00016786789637990296,-0.001458378043025732,-0.0009348201565444469
1.7294248643082762e+18,-0.0013959588250145316,-0.00263619446195662,-0.00042977998964488506
1.7294248643142764e+18,-0.00322164804674685,0.0022787635680288076,-0.0023895869962871075
1.7294248643172764e+18,-0.0021557980217039585,-0.0026591832283884287,-0.0002910866169258952
1.7294248643232765e+18,-0.0036860331892967224,-0.0006865112809464335,-0.00084272725507617
1.7294248643292767e+18,-0.004044531844556332,-0.00102001684717834,-0.0016850889660418034
1.7294248643352768e+18,-0.0036648130044341087,0.002245882526040077,-0.00310469139367342
1.729424864341277e+18,-0.001402426976710558,-0.0017555411905050278,-0.0047019426710903645
1.729424864344277e+18,0.0022187805734574795,-0.002543862210586667,-0.0014094100333750248
1.729424864350277e+18,-0.00019468116806820035,-0.0007524807006120682,0.0011398319620639086
1.7294248643562772e+18,0.002002909081056714,-0.0005877407966181636,0.0006857061525806785
1.7294248643622774e+18,-0.0008446540450677276,-0.001662087976001203,-0.0009152190759778023
1.7294248643682775e+18,-0.004625321831554174,-0.0014280277537181973,-0.00036402035038918257
1.7294248643742776e+18,-0.0013461390044540167,0.0017747371457517147,-0.0035763245541602373
1.7294248643802778e+18,-0.004290945362299681,-0.003706750925630331,-0.003797614946961403
1.7294248643832778e+18,-0.002899118233472109,-0.00237965933047235,-0.0012726692948490381
1.729424864389278e+18,-0.007397536654025316,-0.003201926127076149,-0.002260948298498988
1.729424864395278e+18,-0.004176710732281208,-0.00035319384187459946,-0.0011069419560953975
1.7294248644012782e+18,-0.003189150243997574,-0.004570831079035997,0.00035017949994653463
1.7294248644072783e+18,-0.004141765180975199,-0.002626238390803337,0.0002577354898676276
1.7294248644102784e+18,-0.0014961778651922941,-0.0005940655246376991,-0.00040763046126812696
1.7294248644162785e+18,-0.002766053192317486,-0.0034309355542063713,-0.00020036252681165934
1.7294248644222787e+18,-0.0010923786321654916,-0.005713275633752346,-0.0005731579149141908
1.7294248644252787e+18,-4.239426925778389e-05,-0.004540237132459879,-0.002067453693598509
1.7294248644312788e+18,-0.004436927381902933,-0.0051130494102835655,-0.0043481518514454365
1.729424864437279e+18,-0.0048908754251897335,-0.005851672030985355,-7.121195085346699e-05
1.729424864443279e+18,-0.006238600239157677,-0.004128233529627323,-0.003222334198653698
1.7294248644492792e+18,-0.0030239589978009462,-0.0034209731966257095,-0.001999767730012536
1.7294248644522793e+18,-0.0033554434776306152,-0.0011173830134794116,0.0006573611171916127
1.7294248644582794e+18,-0.0022374698892235756,-0.002086495980620384,-0.0012509587686508894
1.7294248644642796e+18,-0.0036069888155907393,-0.0026403062511235476,-4.833063576370478e-05
1.7294248644702797e+18,0.0006439408753067255,-0.0018804962746798992,-0.00209242501296103
1.7294248644762798e+18,-0.0014634066028520465,-0.004483130294829607,-0.0002761616196949035
1.72942486448228e+18,0.0005025292630307376,-0.0016491265268996358,0.001104105613194406
1.72942486448828e+18,0.0038085640408098698,-0.0019626158755272627,0.00022244825959205627
1.7294248644912801e+18,-0.0002946693857666105,-0.0015599355101585388,-0.0017362777143716812
1.7294248644972803e+18,-0.00018701340013649315,-0.0033910900820046663,-0.0027201238553971052
1.7294248645032804e+18,-0.0011864022817462683,-0.006370365619659424,-0.00048575838445685804
1.7294248645092805e+18,-0.0013524736277759075,-0.004030461888760328,-0.0017720211762934923
1.7294248645152806e+18,-0.0012904875911772251,-0.005477482918649912,0.0004104840918444097
1.7294248645212808e+18,0.002355527365580201,-0.0029770538676530123,0.0017216744599863887
1.7294248645242808e+18,-0.001325423363596201,-0.0034858009312301874,-0.0009062318131327629
1.729424864530281e+18,0.0008198620053008199,-0.0018036593683063984,0.00048741913633421063
1.729424864536281e+18,0.0027698965277522802,-0.003398535307496786,0.0006894957041367888
1.7294248645422812e+18,0.00113646627869457,-0.004605988971889019,0.0007859613979235291
1.7294248645482813e+18,0.0019166397396475077,-0.002276221290230751,0.0006258399807848036
1.7294248645542815e+18,0.004613962024450302,-0.0049514491111040115,-0.00021846906747668982
1.7294248645602816e+18,0.003001391189172864,-0.003303257282823324,-0.0029755516443401575
1.7294248645662817e+18,0.0018408300820738077,-0.0062475791200995445,-0.002174924360588193
1.7294248645722819e+18,0.002222218085080385,-0.0037127630785107613,-0.0023684652987867594
1.729424864578282e+18,-0.00014218830619938672,-0.003606101032346487,0.0018323137192055583
1.729424864581282e+18,0.002011432545259595,-0.0032693350221961737,-0.0028550885617733
1.7294248645872822e+18,2.7477333787828684e-05,-0.0023239473812282085,-0.00205066311173141
1.7294248645932823e+18,0.0020417580381035805,-0.002566087990999222,0.0011627536732703447
1.7294248645992824e+18,-0.001944009680300951,-0.002955045085400343,-0.002583871828392148
1.7294248646052826e+18,0.0005489641334861517,-0.005531603470444679,-0.002287674928084016
1.7294248646082826e+18,0.0007613938651047647,-0.00394189078360796,-8.52299272082746e-05
1.7294248646142828e+18,0.002916178200393915,-0.0009956823196262121,3.6768033169209957e-06
1.729424864620283e+18,0.007477357517927885,-0.005423341877758503,-0.0023062890395522118
1.729424864626283e+18,0.0017446567071601748,-0.00107917923014611,-0.00030249313567765057
1.729424864629283e+18,0.0019337231060490012,-0.003337374422699213,0.0014645953197032213
1.7294248646352832e+18,4.100578371435404e-05,-0.00394019391387701,0.00031569169368594885
1.7294248646412833e+18,0.0006522142793983221,-2.7419766411185265e-05,-3.806839231401682e-05
1.7294248646472835e+18,0.0014951468911021948,-0.0037392075173556805,-0.00042740130447782576
1.7294248646502835e+18,-0.0005751684075221419,-0.003783717518672347,0.000788062228821218
1.7294248646562836e+18,0.0005045945290476084,-0.0042120227590203285,0.0016584532568231225
1.7294248646622838e+18,-0.001979229971766472,-0.006568919867277145,-0.0003257030330132693
1.729424864668284e+18,0.004587412346154451,-0.0047935801558196545,-0.0014295991277322173
1.729424864671284e+18,0.004520691465586424,-0.00313800061121583,-0.0012786512961611152
1.729424864677284e+18,0.006643444299697876,-0.004829872865229845,-0.0005670825485140085
1.7294248646832842e+18,0.004720602184534073,0.0001488423440605402,-0.000777730718255043
1.7294248646892844e+18,0.006593131460249424,-0.001587773789651692,-0.0014415895566344261
1.7294248646922844e+18,0.003975291270762682,-0.0029735523276031017,0.0002890362520702183
1.7294248646982845e+18,-5.918904207646847e-05,-0.0019234310602769256,-0.001202312996610999
1.7294248647042847e+18,0.0018756878562271595,-0.0017005755798891187,0.0007471549324691296
1.7294248647072847e+18,0.0017242678441107273,0.0013763514580205083,0.0006003560847602785
1.7294248647132849e+18,0.0014073771890252829,-0.0019954596646130085,0.0005586298066191375
1.729424864719285e+18,0.0014320199843496084,-0.00016561931988690048,-0.00413178326562047
1.729424864725285e+18,0.003039724426344037,-0.0004540409427136183,-0.0008062429842539132
1.7294248647282852e+18,-6.487255450338125e-05,-0.0011860448867082596,-0.00048322597285732627
1.7294248647342853e+18,0.0031886158976703882,-0.001477805315516889,-0.0006298181833699346
1.7294248647402854e+18,0.002948557026684284,0.0013426820514723659,-0.0028324155136942863
1.7294248647462856e+18,0.004138843156397343,-0.004962004255503416,-0.0023598112165927887
1.7294248647522857e+18,0.0046110497787594795,-0.0005905209691263735,-2.5240296963602304e-05
1.7294248647552858e+18,0.005866919178515673,-0.0024366085417568684,0.0004977817879989743
1.729424864761286e+18,0.0035866040270775557,-0.0004968396387994289,0.002161660697311163
1.729424864767286e+18,0.0013240044936537743,-0.003780513070523739,-0.00020538130775094032
1.7294248647732861e+18,3.4590368159115314e-05,0.0017506778240203857,-0.002779159927740693
1.7294248647762862e+18,0.0019090871792286634,-0.003395823761820793,0.00021125905914232135
1.7294248647822863e+18,-0.0010282795410603285,-0.0004334324039518833,-0.0022495314478874207
1.7294248647882865e+18,-0.00022972696751821786,-0.002768389880657196,0.00020146387396380305
1.7294248647942866e+18,-8.55523394420743e-05,-0.004561438225209713,-0.0015369612956419587
1.7294248647972867e+18,0.0024516545236110687,-0.0025334912352263927,-0.0017425164114683867
1.7294248648032868e+18,0.003752203192561865,-0.003636264242231846,-0.0006849328055977821
1.729424864809287e+18,0.006106323562562466,-0.004487156867980957,-0.0022333799861371517
1.729424864812287e+18,0.005783728323876858,-0.0037919485475867987,-0.0007919828058220446
1.729424864818287e+18,0.005532893352210522,-0.004439610987901688,-0.0004608526360243559
1.7294248648242872e+18,0.0057464223355054855,-0.0033937706612050533,-0.0005932063795626163
1.7294248648302874e+18,0.002020456362515688,-0.002094690687954426,-0.0005946013261564076
1.7294248648332874e+18,0.0008371350704692304,0.0007891241693869233,-0.0036391508765518665
1.7294248648392876e+18,-0.0020073880441486835,-0.0037271827459335327,0.0019687041640281677
1.7294248648452877e+18,-0.0021097646094858646,0.0040951082482934,0.0007160191889852285
1.7294248648512878e+18,-0.004671189468353987,0.00040117622120305896,0.00217282772064209
1.729424864854288e+18,-0.002795478096231818,0.0017811274155974388,-0.0031757079996168613
1.729424864860288e+18,0.00035337149165570736,-0.002474298933520913,0.0013058644253760576
1.729424864866288e+18,0.001874155132099986,-0.0022995276376605034,-0.00021296291379258037
1.7294248648722883e+18,0.0011340348282828927,-0.0034375141840428114,-0.0022881049662828445
1.7294248648782884e+18,0.0018771530594676733,-0.003079051850363612,-0.0007144616101868451
1.7294248648812884e+18,0.005144795402884483,-0.003930848557502031,0.000989658059552312
1.7294248648872886e+18,0.00737165380269289,-0.004723112564533949,0.00028747308533638716
1.7294248648932887e+18,0.004920475650578737,-0.0033868008758872747,-0.0014006454730406404
1.7294248648962888e+18,0.004389171488583088,-0.001026455545797944,-0.0012867338955402374
1.729424864902289e+18,0.004998074844479561,0.0009906964842230082,-0.0010332207893952727
1.729424864908289e+18,0.0045484923757612705,-0.0001771374372765422,-0.0005939686670899391
1.7294248649142892e+18,-0.0008855300256982446,0.0018480179132893682,-0.002434846945106983
1.7294248649172892e+18,-0.0021883766166865826,0.0010681223357096314,-0.00101071922108531
1.7294248649232893e+18,-0.0021294686011970043,0.003218434052541852,-0.0008189624641090631
1.7294248649292895e+18,-0.0009084420162253082,-0.0016861913027241826,-0.0026907185092568398
1.7294248649322895e+18,-0.004746230784803629,0.001563801895827055,-0.0012357798404991627
1.7294248649382897e+18,0.0010461517376825213,-3.161490894854069e-05,9.149027755483985e-05
1.7294248649442898e+18,-0.0006815396482124925,-0.0017949320608749986,-0.0011189167853444815
1.72942486495029e+18,0.0036546923220157623,-0.000291141914203763,-0.003044955665245652
1.72942486495629e+18,0.005938391201198101,-0.0005142904119566083,-0.0003094173443969339
1.72942486495929e+18,0.0067625814117491245,-0.0021470296196639538,-0.0002553227241151035
1.7294248649652902e+18,0.007645509205758572,-0.0021913577802479267,-0.0002524492156226188
1.7294248649712904e+18,-0.0002958010882139206,0.0006532367551699281,-0.002077339915558696
1.7294248649772905e+18,0.00047253607772290707,-0.0026516318321228027,-0.0014198122080415487
1.7294248649802906e+18,0.0013273342046886683,-0.002929560374468565,0.00010493426816537976
1.7294248649862907e+18,-0.003483184613287449,-0.0017600381979718804,-0.0028185388073325157
1.7294248649922908e+18,-0.0034168288111686707,-0.00228384998627007,0.00014863896649330854
1.729424864995291e+18,-0.004159037489444017,-0.00320328027009964,-0.0006300961831584573
1.729424865001291e+18,-0.00421241857111454,-0.002413153415545821,-0.0013693084474653006
1.7294248650072911e+18,-0.004342482890933752,0.0017845090478658676,-0.0003416173276491463
1.7294248650132913e+18,4.2711966671049595e-05,-0.0021522752940654755,-0.002727064536884427
1.7294248650162913e+18,0.003171161748468876,-1.491548027843237e-05,-0.0010959376813843846
1.7294248650222915e+18,0.0013018313329666853,0.0017562169814482331,-0.0014938960084691644
1.7294248650282916e+18,0.004312064498662949,0.002150419168174267,-0.0002292967401444912
1.7294248650342917e+18,0.003804666455835104,0.001757799182087183,-0.001347192912362516
1.7294248650372918e+18,0.00608826195821166,0.0006446662591770291,0.00014447304420173168
1.729424865043292e+18,0.007259685080498457,0.00010108107380801812,0.000405806495109573
1.729424865049292e+18,0.005944604054093361,0.0003136590530630201,-0.00043820517021231353
1.7294248650552922e+18,0.002168782753869891,-0.0035920250229537487,-0.0005856376956216991
1.7294248650582922e+18,-0.0006849619094282389,-0.0008632739773020148,-0.001192854717373848
1.7294248650642924e+18,-0.001232870388776064,-0.003038722090423107,0.00027102031162939966
1.7294248650702925e+18,-0.0037446427159011364,-0.0034681521356105804,0.0007041041972115636
1.7294248650732925e+18,0.00042733049485832453,-0.0024364308919757605,-0.004214002285152674
1.7294248650792927e+18,0.0013309947680681944,0.00013416295405477285,0.0011042902478948236
1.7294248650852928e+18,-0.0006383078871294856,0.002551351673901081,-0.00188628607429564
1.729424865091293e+18,0.0070367371663451195,-0.0028947589453309774,0.0006099012680351734
1.729424865094293e+18,0.005734995007514954,-0.0034097889438271523,0.0026044496335089207
1.729424865100293e+18,0.004690167028456926,0.0031772188376635313,0.0021451995708048344
1.7294248651062932e+18,0.007527325302362442,-0.0003404385061003268,0.0027673752047121525
1.7294248651122934e+18,0.007556415628641844,0.0006030460936017334,-0.0017505191499367356
1.7294248651152934e+18,0.004094969015568495,0.00030175631400197744,-0.0024027032777667046
1.7294248651212936e+18,-0.0005362362135201693,-0.0017335492884740233,0.0037399905268102884
1.7294248651272937e+18,-0.0027837855741381645,-0.0003713455516844988,0.00018266210099682212
1.7294248651332938e+18,-0.001970402430742979,0.0008773710578680038,0.00018088443903252482
1.729424865136294e+18,-0.00327664939686656,-0.001692308345809579,0.001088835415430367
1.729424865142294e+18,-0.0018110862001776695,-0.0008632800308987498,0.001316784881055355
1.7294248651482941e+18,0.001324840821325779,-0.002590916119515896,-0.0005311642307788134
1.7294248651512942e+18,0.004367348272353411,-0.005143666639924049,0.001706381095573306
1.7294248651572943e+18,0.006572224665433168,-0.004659832920879126,0.001168952789157629
1.7294248651632945e+18,0.004640598781406879,-0.0016830057138577104,0.0021451956126838923
1.7294248651662945e+18,0.004691326059401035,-0.002598328050225973,-0.0006649297429248691
1.7294248651722947e+18,0.007676541805267334,0.0019785556942224503,-0.00027645821683108807
1.7294248651782948e+18,0.0028373540844768286,-0.002032074611634016,0.0006361366249620914
1.7294248651812948e+18,0.0045610652305185795,0.003994926810264587,0.0013168184086680412
1.729424865187295e+18,-0.00045290100388228893,-0.004581520799547434,-0.0026960493996739388
1.729424865193295e+18,0.001926045399159193,0.0022256223019212484,0.0002575300168246031
1.7294248651992952e+18,-6.597835454158485e-05,0.001422378933057189,-0.001088420394808054
1.7294248652022953e+18,0.0007033038418740034,0.00036316271871328354,0.0012029283680021763
1.7294248652082954e+18,0.003900432726368308,-0.002782320138067007,-0.0007061135256662965
1.7294248652142956e+18,0.003557188669219613,-0.002791640115901828,-0.00364726223051548
1.7294248652172956e+18,0.005281644873321056,-0.0016104656970128417,0.0012598633766174316
1.7294248652232957e+18,0.00412415899336338,0.002479380229488015,-0.0009195397142320871
1.7294248652292959e+18,0.006489959079772234,0.0026007499545812607,-0.0025360051076859236
1.729424865235296e+18,0.006561946589499712,0.004267358686774969,-0.0012035376857966185
1.729424865238296e+18,0.00618361821398139,0.0009640909847803414,0.0009832910727709532
1.7294248652442962e+18,0.004489621613174677,0.00211703940294683,-0.004093466326594353
1.7294248652502963e+18,0.004003989975899458,0.0037627078127115965,0.0017777613829821348
1.7294248652532964e+18,0.00571039505302906,-0.002410640474408865,-0.0003830031491816044
1.7294248652592965e+18,0.0004160712705925107,-0.0003784367872867733,0.001086005475372076
1.7294248652652966e+18,0.002499594818800688,0.002067043213173747,-0.0031609118450433016
1.7294248652712968e+18,0.0012742031831294298,0.0013554655015468597,0.0002781685907393694
1.7294248652742968e+18,0.0012727015418931842,0.0001698903797660023,0.0017536634113639593
1.729424865280297e+18,0.0036911265924572945,0.0017266275826841593,0.0005223939078859985
1.729424865286297e+18,0.0005407684948295355,0.0044092098250985146,-0.0022271673660725355
1.7294248652892972e+18,0.005770199000835419,0.001577795366756618,0.002322842599824071
1.7294248652952973e+18,0.006707892753183842,0.0005824950058013201,-0.0015234614256769419
1.7294248653012974e+18,0.002880451735109091,7.890863344073296e-06,0.0002355292090214789
1.7294248653072975e+18,0.0027081207372248173,0.002820991910994053,0.0029993588104844093
1.7294248653132977e+18,0.004433224909007549,0.003585909493267536,-0.0007830435642972589
1.7294248653162977e+18,0.00359297264367342,0.00046024686889722943,0.001399712753482163
1.7294248653222979e+18,-4.78462316095829e-05,0.00010636559454724193,2.6064517442137003e-05
1.729424865328298e+18,0.0008998261764645576,-0.0003654227184597403,0.002579860854893923
1.729424865334298e+18,0.0017364001832902431,-0.0010740444995462894,-0.0014120854903012514
1.7294248653402982e+18,0.0023359348997473717,-0.0007546269916929305,-0.0014051913749426603
1.7294248653432983e+18,0.0024554100818932056,-5.0090253353118896e-05,0.0011859582737088203
1.7294248653492984e+18,0.005004687234759331,0.0003903590841218829,0.0002994891256093979
1.7294248653552986e+18,0.005639613606035709,0.0006692642346024513,0.0005641490570269525
1.7294248653612987e+18,0.006395014934241772,0.0010478449985384941,0.0010637922678142786
1.7294248653642988e+18,0.0060937548987567425,-0.0009275397169403732,-0.001161317341029644
1.729424865370299e+18,0.004522273782640696,-0.00019637952209450305,-0.0009015179821290076
1.729424865376299e+18,0.0018728997092694044,0.0017787741962820292,-0.0001936444896273315
1.7294248653822991e+18,-0.0006979780155234039,-0.0008409674046561122,0.0013486226089298725
1.7294248653852992e+18,0.0015557842561975121,0.00035065709380432963,-0.002791473874822259
1.7294248653912993e+18,-0.0030611734837293625,0.0018444855231791735,-0.00287572480738163
1.7294248653972995e+18,-0.0013337477575987577,0.0035612238571047783,-0.004069422371685505
1.7294248654002995e+18,-0.0053611816838383675,-0.0006797626265324652,-0.003679424524307251
1.7294248654062996e+18,-0.0004440136253833771,-0.0011205801274627447,-0.0017238666769117117
1.7294248654122998e+18,0.0007014979491941631,-0.0019723253790289164,-0.0004977789940312505
1.7294248654152998e+18,0.0008884135750122368,0.00011183832248207182,-0.0019676159135997295
1.7294248654213e+18,0.0039568147622048855,-0.0005609123036265373,-0.0030993518885225058
1.7294248654273e+18,0.0014585120370611548,-0.0016445799265056849,0.0009751444449648261
1.7294248654333002e+18,0.0012341983383521438,-0.00018283867393620312,-0.0020587551407516003
1.7294248654363003e+18,0.00263328873552382,0.0033791684545576572,-0.002426228951662779
1.7294248654423004e+18,0.0007355901761911809,0.0025968211703002453,9.753083577379584e-05
1.7294248654483005e+18,0.0013114588800817728,0.001751395408064127,-0.00037116179009899497
1.7294248654513006e+18,0.0006805283483117819,-0.001926083816215396,-0.0004890655400231481
1.7294248654573007e+18,-0.004292643629014492,-0.0008211868116632104,0.0026568074245005846
1.7294248654633009e+18,-0.003267647698521614,-0.0020852384623140097,0.0004896672326140106
1.729424865469301e+18,-0.0021429690532386303,0.001271439716219902,-0.0017415022011846304
1.729424865472301e+18,-0.0018730296287685633,-0.0015819312538951635,-0.0028113708831369877
1.7294248654783012e+18,-0.0033218124881386757,-0.0050620222464203835,-0.003174804151058197
1.7294248654843013e+18,-0.0032806587405502796,-0.0014444324187934399,-0.001598311006091535
1.7294248654873014e+18,-0.0016357195563614368,-0.0037329616025090218,-0.002013547345995903
1.7294248654933015e+18,-0.001895287656225264,-0.0026109355967491865,-0.0016071915160864592
1.7294248654993016e+18,0.001949560479260981,-0.0035394905135035515,-0.0026019313372671604
1.7294248655023017e+18,0.0008343131048604846,-0.002720944583415985,-0.002163682598620653
1.7294248655083018e+18,0.0004844804643653333,-0.0006260196678340435,-0.0008457519579678774
1.729424865514302e+18,0.0002694081049412489,-0.002015430014580488,-0.0017382637597620487
1.729424865520302e+18,4.3805164750665426e-05,-0.00013859011232852936,4.589639138430357e-05
1.7294248655233021e+18,0.00012181507190689445,0.00031142926309257746,-0.004427949897944927
1.7294248655293023e+18,-0.0024929542560130358,-0.003212462877854705,-0.000439565337728709
1.7294248655353024e+18,0.0004331564996391535,-0.003301477525383234,-0.001554660964757204
1.7294248655383025e+18,-0.003774414537474513,-0.004636247176676989,-0.0006285937852226198
1.7294248655443026e+18,0.0005647784564644098,-0.004433269612491131,-0.00047872320283204317
1.7294248655503027e+18,0.0011930441251024604,-0.008749154396355152,0.001028918195515871
1.7294248655563028e+18,0.0006009518401697278,-0.00326767866499722,0.0008131393697112799
1.729424865559303e+18,-0.0004746285267174244,-0.0069527397863566875,8.481944678351283e-05
1.729424865565303e+18,0.0028045102953910828,-0.005849172361195087,-0.0004899983177892864
1.7294248655713032e+18,0.0007113611791282892,-0.004833762068301439,0.0008552454528398812
1.7294248655773033e+18,0.004235341213643551,-0.0012465291656553745,-0.00014491795445792377
1.7294248655803034e+18,0.002890322357416153,-0.005402125418186188,-0.0017494611674919724
1.7294248655863035e+18,0.0013550773728638887,-0.0038341758772730827,-0.001784725347533822
1.7294248655923036e+18,0.0022360857110470533,-0.0006464975886046886,0.001105748349800706
1.7294248655983037e+18,-0.001718017621897161,-0.003163898829370737,0.0008898079977370799
1.7294248656013038e+18,0.0006976859294809401,0.00020999042317271233,-0.0023150797933340073
1.729424865607304e+18,0.002414712915197015,-0.003056683810427785,4.099169746041298e-05
1.729424865613304e+18,-0.0013800753513351083,-0.0010561837116256356,0.0008575892425142229
1.7294248656193042e+18,-0.001828144770115614,-0.0038363435305655003,-0.0036986854393035173
1.7294248656223043e+18,0.0014272239059209824,-0.0014378949999809265,-0.00554130133241415
1.7294248656283044e+18,0.0013552107848227024,-0.0010407668305560946,-0.0032902825623750687
1.7294248656343045e+18,0.0004096392076462507,-0.0036663704086095095,0.0016768468776717782
1.7294248656403046e+18,0.00024084254982881248,-0.0019754937384277582,-0.0011116575915366411
1.7294248656433047e+18,0.002163900760933757,-0.0018292622407898307,-0.0012929528020322323
1.7294248656493048e+18,-0.0010506187099963427,-0.002772298874333501,0.0002544126473367214
1.729424865655305e+18,0.001438845181837678,-0.0006712100002914667,0.00044101005187258124
1.729424865658305e+18,0.001173145603388548,-0.0024673203006386757,0.0005042899283580482
1.7294248656643052e+18,0.0025176091585308313,0.0033928954508155584,-0.00019697155221365392
1.7294248656703053e+18,0.0006265487754717469,-4.659855039790273e-05,-0.0028102402575314045
1.7294248656763054e+18,-0.0011496697552502155,-3.466926864348352e-05,0.0008745423401705921
1.7294248656793055e+18,0.0005608630017377436,0.0026112492196261883,-0.002607061294838786
1.7294248656853056e+18,-0.0013851630501449108,0.0013704742304980755,-0.0017349369591102004
1.7294248656913057e+18,-0.0005098269321024418,-0.0008957390673458576,-0.0002961666905321181
1.7294248656943058e+18,-0.003924353048205376,-0.0006986361695453525,0.0004986545536667109
1.729424865700306e+18,-0.0013945759274065495,-0.0030316119082272053,-0.0029182962607592344
1.729424865706306e+18,0.0007545104017481208,-0.0011405340628698468,-0.0027894126251339912
1.729424865709306e+18,-0.00024857872631400824,-0.004254963714629412,-0.0029383590444922447
1.7294248657153062e+18,0.0010419677710160613,-0.0035285509657114744,0.0005549875204451382
1.7294248657213064e+18,0.003892072243615985,-0.0066801393404603004,-0.0013145932462066412
1.7294248657243064e+18,0.003382355673238635,-0.003058553207665682,-0.005244695581495762
