timestamp,gyro_x,gyro_y,gyro_z
1.729494738341331e+18,-0.0003211670555174351,-0.0022500096820294857,-0.0002957442484330386
1.7294947383503311e+18,0.0018637946341186762,-0.0003113610437139869,-0.0025127797853201628
1.7294947383593313e+18,0.002654248382896185,-0.0003605320234782994,0.0002353668969590217
1.7294947383653315e+18,0.0013517442857846618,-0.0003078461450058967,-0.0023744560312479734
1.7294947383743316e+18,-6.834831583546475e-05,0.001096133142709732,0.0034350333735346794
1.7294947383833318e+18,0.0002749853883869946,0.000724887999240309,-0.0009145134827122092
1.729494738389332e+18,-0.0009544536587782204,0.00017899871454574168,-0.0026757470332086086
1.7294947383983322e+18,0.00040808520861901343,-0.0023131538182497025,9.241248335456476e-05
1.7294947384073324e+18,0.0012818870600312948,-0.00018811499467119575,0.0010182686382904649
1.7294947384163325e+18,-0.0007311857771128416,-0.0008796400506980717,-0.0009077683207578957
1.7294947384253327e+18,-0.003483409993350506,0.0002413218462606892,0.0027077209670096636
1.7294947384313329e+18,0.001325341989286244,-0.0020856347400695086,0.0010855038417503238
1.729494738440333e+18,-0.0025459816679358482,-0.00041613957728259265,0.00041214446537196636
1.7294947384493332e+18,-0.003955438733100891,0.0015836745733395219,0.003127393312752247
1.7294947384553334e+18,-0.001371242804452777,-0.0025079892948269844,-0.0005762909422628582
1.7294947384643336e+18,2.2448733943747357e-05,-0.0010488891275599599,-0.00045447706361301243
1.7294947384733338e+18,0.0012069338699802756,0.0012812650529667735,0.0032965270802378654
1.729494738479334e+18,-0.001849016873165965,-0.0005991446087136865,0.0003168428083881736
1.729494738488334e+18,0.0009298553923144937,0.0003113309503532946,5.074397267890163e-05
1.7294947384973343e+18,-0.0021167348604649305,0.0005520909908227623,-0.0012447740882635117
1.7294947385063345e+18,0.001046161400154233,0.0009397552930749953,-0.00047761955647729337
1.7294947385153347e+18,-0.0009031231165863574,0.0005098125548101962,-0.0013114187167957425
1.7294947385213348e+18,-0.0020025228150188923,-0.0003775043005589396,-0.002958456054329872
1.729494738530335e+18,0.0029686756897717714,0.001527723390609026,-0.0018284880788996816
1.7294947385393352e+18,-0.0016069903504103422,-0.0007182603003457189,0.0006218752241693437
1.7294947385483354e+18,-0.0008825981058180332,0.0007416633889079094,0.0018157332669943571
1.7294947385573356e+18,-0.0007019191398285329,0.000750360544770956,0.0013321643928065896
1.7294947385633357e+18,0.0030145468190312386,0.0024265816900879145,0.0002196645800722763
1.7294947385723359e+18,0.000956011819653213,-0.001290618907660246,0.001369256293401122
1.729494738581336e+18,0.00218374514952302,0.000358136254362762,0.0008885193383321166
1.7294947385903363e+18,-1.3024980034970213e-05,0.0012467510532587767,0.0018182682106271386
1.7294947385993364e+18,0.0020074122585356236,0.0022555121686309576,0.0009667053236626089
1.7294947386053366e+18,0.001126068877056241,-6.701573875034228e-05,0.0002949564077425748
1.7294947386143368e+18,0.0011282154591754079,0.0007046592072583735,0.00018625293159857392
1.729494738623337e+18,0.0004454559530131519,-0.001978249056264758,-0.0022250995971262455
1.7294947386323372e+18,0.00022231473121792078,-0.000323091255268082,0.00043676208588294685
1.7294947386413373e+18,-0.0003651762381196022,0.000362724153092131,0.00039354985347017646
1.7294947386473375e+18,-0.0027482113800942898,0.00040713546331971884,-0.0002461118856444955
1.7294947386563377e+18,0.0008049051975831389,-0.0015373027417808771,-0.0004904541419818997
1.7294947386653379e+18,-0.0002949749759864062,0.00018535305571276695,0.0013533731689676642
1.729494738671338e+18,0.000962273043114692,-0.0004043370427098125,0.0033740364015102386
1.7294947386803382e+18,0.0009568792302161455,2.808895942507661e-07,-0.0003844152670353651
1.7294947386893384e+18,-5.839234290760942e-06,0.0005594774847850204,-0.002507220022380352
1.7294947386983386e+18,-0.0002796524204313755,-0.0009680431103333831,0.002493532607331872
1.7294947387073388e+18,0.00121429527644068,-0.0024793841876089573,0.0006123926141299307
1.729494738713339e+18,0.0022183838300406933,0.0017751312116160989,0.001056098029948771
1.729494738722339e+18,-0.0016665926668792963,-0.0014607246266677976,-0.00047655621892772615
1.7294947387313393e+18,-0.001164501765742898,0.0020190768409520388,-0.001396400504745543
1.7294947387403395e+18,-0.0008551958599127829,-0.002253067446872592,-0.0008139295387081802
1.7294947387463396e+18,-0.0008542568539269269,0.0012773810885846615,0.0024755634367465973
1.7294947387553398e+18,-0.00017311183910351247,-2.90247262455523e-05,0.0038059379439800978
1.72949473876434e+18,-0.001459448947571218,0.00041537726065143943,0.001180214574560523
1.7294947387733402e+18,-0.0009542604675516486,-0.00275158928707242,0.001397509011439979
1.7294947387793403e+18,0.0004854626313317567,-0.00021503939933609217,-0.0014687147922813892
1.7294947387883405e+18,0.004455996211618185,-0.002529122168198228,0.0013553283642977476
1.7294947387973407e+18,0.001778996316716075,0.00050647824537009,0.0011101074051111937
1.7294947388033408e+18,0.0019018396269530058,-0.0013954477617517114,0.0011340419296175241
1.729494738812341e+18,0.0003816741518676281,0.0003825307358056307,0.0009544721688143909
1.7294947388213412e+18,-0.0011101583950221539,-0.0011388080893084407,-0.0008690032409504056
1.7294947388303414e+18,0.001541663077659905,-0.0011114752851426601,-0.0011294737923890352
1.7294947388363415e+18,0.0014749839901924133,-0.0008507714373990893,0.00015923671890050173
1.7294947388453417e+18,-0.00277527654543519,0.0003698728687595576,0.0011056158691644669
1.729494738854342e+18,-0.0009390062186866999,0.0022778441198170185,-0.001523173414170742
1.729494738863342e+18,-0.001682605012319982,0.0019150932785123587,-0.000910617527551949
1.7294947388723423e+18,-0.001766083762049675,-0.0009500445448793471,-0.0024137625005096197
1.7294947388813425e+18,0.0028512123972177505,0.0005956041859462857,-0.00020234579278621823
1.7294947388873426e+18,0.0002899264800362289,0.001974442508071661,0.0016854448476806283
1.7294947388963428e+18,-0.0010503721423447132,0.0017308659153059125,-0.0011906767031177878
1.729494738902343e+18,0.0020196945406496525,-0.0011050407774746418,-0.003819952718913555
1.729494738911343e+18,-0.0022144136019051075,-0.0006375983939506114,0.0027765906415879726
1.7294947389203433e+18,-0.00055233936291188,-0.0021185423247516155,-2.1565316274063662e-05
1.7294947389263434e+18,0.0026168785989284515,0.0008289258694276214,-0.002807243727147579
1.7294947389353436e+18,0.0016724527813494205,-0.002222231589257717,0.0013386752689257264
1.7294947389443438e+18,-0.000717866700142622,0.0009086826466955245,0.0011959413532167673
1.729494738953344e+18,-0.00010319375724066049,-0.003544552018865943,0.0011351390276104212
1.7294947389623442e+18,0.0012915256666019559,0.0021678360644727945,1.955697371158749e-05
1.7294947389713444e+18,-0.0006032435921952128,0.001579583389684558,-4.307088966015726e-05
1.7294947389773445e+18,0.0010384494671598077,0.0011085644364356995,0.001985631650313735
1.7294947389893448e+18,0.001896373461931944,-0.002818512264639139,-0.0002964550512842834
1.729494738998345e+18,-0.0007489015115424991,0.0006187623948790133,0.0011825694236904383
1.729494739004345e+18,-2.7725231120712124e-05,0.0004526660486590117,-0.0007151310564950109
1.7294947390133453e+18,-0.0006737718940712512,-0.0009434930980205536,0.0015029709320515394
1.7294947390223455e+18,-0.00176617584656924,-0.00013074278831481934,-0.0024185858201235533
1.7294947390313457e+18,0.00038285143091343343,0.0005266942898742855,-0.000491956016048789
1.7294947390403459e+18,0.00019764197350014,2.2806390916230157e-05,-0.0003418724809307605
1.729494739049346e+18,-0.0014927454758435488,0.0009989821119233966,0.0017057473305612803
1.7294947390553462e+18,-0.0018153219716623425,-0.001049046404659748,0.0025493816938251257
1.7294947390643464e+18,-0.003017503535374999,-0.0005544708110392094,0.00016212466289289296
1.7294947390733466e+18,-0.0023401163052767515,-0.002016669139266014,0.00024324932019226253
1.7294947390823468e+18,0.0011399447685107589,0.0014439481310546398,-0.004290794022381306
1.729494739091347e+18,-0.0007242835708893836,-0.000675856601446867,0.001204523490741849
1.7294947391003471e+18,0.00065736094256863,-0.0021646374370902777,-0.0003498212026897818
1.7294947391093473e+18,-0.0020745026413351297,0.0014103914145380259,0.0028473848942667246
1.7294947391183475e+18,-0.002553385216742754,0.0032759569585323334,-8.029628952499479e-05
1.7294947391273477e+18,0.00023547580349259079,-0.0017802021466195583,0.00044559387606568635
1.729494739136348e+18,0.0008183029131032526,0.0011517347302287817,0.0011166310869157314
1.729494739145348e+18,0.0033615182619541883,0.001099815359339118,0.001326457830145955
1.7294947391513482e+18,-0.0005136383115313947,-0.0002043265849351883,0.0018098150612786412
1.7294947391603484e+18,-0.0038219147827476263,-0.0016643900889903307,2.2222668576432625e-06
1.7294947391693486e+18,-0.0012306649005040526,0.0013176099164411426,0.0031006252393126488
1.7294947391753487e+18,0.0015182927018031478,-6.923033652128652e-05,0.00012129916285630316
1.729494739187349e+18,-0.0019670180045068264,0.00196465034969151,0.00025311842910014093
1.729494739193349e+18,0.003941666334867477,0.0009374252404086292,0.0012293101754039526
1.7294947392023493e+18,0.0002460956748109311,-0.00042116022086702287,-0.004493572283536196
1.7294947392113495e+18,7.359222217928618e-05,-3.588941581256222e-06,-0.0024918201379477978
1.7294947392203497e+18,0.0010686522582545877,-0.00023890870215836912,0.003906927537173033
1.7294947392263498e+18,0.0002250343095511198,-0.0026158983819186687,0.0007788374205119908
1.72949473923535e+18,0.0008885832503437996,0.00031318512628786266,0.000817110063508153
1.7294947392443502e+18,-0.001708928495645523,0.001994306920096278,0.0024238897021859884
1.7294947392503503e+18,0.0021635624580085278,7.237549289129674e-05,0.0003728322626557201
1.7294947392593505e+18,0.0004152522888034582,0.002826198237016797,-0.0004736226110253483
1.7294947392683507e+18,-0.00048807624261826277,0.0007701434660702944,-0.00041646117460913956
1.729494739277351e+18,0.0014318044995889068,0.0003447362978477031,-0.0014224312035366893
1.729494739283351e+18,-0.001783854328095913,0.001835983362980187,-0.0007634938228875399
1.7294947392923512e+18,-0.00020353469881229103,-0.00022751244250684977,0.001688420306891203
1.7294947393013514e+18,0.0008515920490026474,-0.0012677836930379272,0.0012910638470202684
1.7294947393103516e+18,-0.0004773685068357736,0.0013237370876595378,0.00010267395555274561
1.7294947393163517e+18,0.0010868147946894169,0.001311174826696515,-0.0008973349467851222
1.729494739325352e+18,-0.0005820035585202277,0.002226373180747032,0.0009196563041768968
1.7294947393343521e+18,-0.0013823685003444552,-0.0013447549426928163,-0.001089093741029501
1.7294947393433523e+18,-0.0004926706315018237,-0.0008414307376369834,-0.0018549634842202067
1.7294947393493524e+18,0.00025308100157417357,0.002351991133764386,0.002989007392898202
1.7294947393583526e+18,-5.1663952035596594e-05,-0.0006019478896632791,-0.0005465207505039871
1.7294947393673528e+18,-0.0012208102270960808,0.0007137326174415648,-0.000793642015196383
1.729494739376353e+18,-0.0024753576144576073,0.0007122996612451971,0.0008799824281595647
1.7294947393853532e+18,0.002376077463850379,-0.0025891971308737993,-0.002070029266178608
1.7294947393943534e+18,-0.001764948363415897,-0.0027732769958674908,-0.0009060669108293951
1.7294947394003535e+18,-0.0013107588747516274,-0.0010052479337900877,0.002112424001097679
1.7294947394093537e+18,0.003062729025259614,4.154330963501707e-05,-0.00114884739741683
1.729494739418354e+18,-0.0005792565061710775,0.0011631199158728123,4.064883614773862e-05
1.729494739424354e+18,-0.0002809144207276404,-0.0043441844172775745,0.0003133135032840073
1.7294947394333542e+18,-0.0032911645248532295,-0.00017682119505479932,0.0006787249003536999
1.7294947394423544e+18,-0.00040940733742900193,0.0019888996612280607,0.0008246917859651148
1.7294947394513546e+18,-0.00039262312930077314,0.0003336356021463871,-0.0007651381893083453
1.7294947394603548e+18,-0.00032311896211467683,0.0011418830836191773,0.004443616606295109
1.729494739466355e+18,0.005393974017351866,-0.002104270737618208,-0.0010750042274594307
1.7294947394753551e+18,-0.0009884483879432082,-5.399443398346193e-05,-0.0001458675105823204
1.7294947394843553e+18,-0.0007524785469286144,0.00022028916282579303,0.0015186070231720805
1.7294947394903555e+18,0.0025255640503019094,-0.00046673815813846886,-0.0007519320934079587
1.7294947394993556e+18,-0.0025511174462735653,0.0004022435750812292,-0.0006687060231342912
1.7294947395083558e+18,-0.0027474621310830116,-0.003763423766940832,0.0011324603110551834
1.729494739517356e+18,0.0003846922772936523,0.0016810785746201873,0.0023131617344915867
1.7294947395233562e+18,-0.0002662540355231613,0.0007338629220612347,0.001763299573212862
1.7294947395323564e+18,-0.0006559711182489991,0.0014634691178798676,-0.0004990535671822727
1.7294947395413565e+18,6.041559754521586e-05,-0.00033954830723814666,0.000703480385709554
1.7294947395473567e+18,0.00010565573029452935,0.0015002727741375566,-0.0009993519634008408
1.729494739559357e+18,-0.0019606747664511204,0.0033847875893115997,-0.00023307063383981586
1.729494739565357e+18,-0.002159673487767577,0.00030120325391180813,0.00045533181400969625
1.7294947395743572e+18,-0.0005898778326809406,0.0011910464381799102,-0.0008076047524809837
1.7294947395833574e+18,5.855970812262967e-05,-0.0006847899057902396,-0.001271336805075407
1.7294947395923576e+18,0.0017567442264407873,0.0016817674040794373,0.0008957097306847572
1.7294947395983578e+18,0.0012038785498589277,-0.003096907865256071,-0.0038668778724968433
1.729494739607358e+18,-0.0024852545466274023,0.003003377467393875,0.0024950255174189806
1.7294947396163581e+18,0.002648359863087535,0.001772818504832685,-0.002435925882309675
1.7294947396253583e+18,0.0011351369321346283,0.0013573626056313515,0.0030587357468903065
1.7294947396313585e+18,-0.001999767031520605,-0.001743005239404738,-0.003548695705831051
1.7294947396403587e+18,0.001068950048647821,-0.0010998096549883485,-0.0020403224043548107
1.7294947396493588e+18,-0.0011434984626248479,0.00032536909566260874,-0.002769248327240348
1.729494739658359e+18,0.0014359380584210157,0.00094556191470474,-0.004031090065836906
1.7294947396673592e+18,0.0017911436734721065,-0.00402947748079896,0.0019555017352104187
1.7294947396763594e+18,-0.0014172093942761421,-0.0016379158478230238,-0.0012932663084939122
1.7294947396853596e+18,0.006234361790120602,-0.0008995052776299417,0.0006017958512529731
1.7294947396943598e+18,0.0023182337172329426,-0.0023770281113684177,0.0016032540006563067
1.72949473970036e+18,0.0005488511524163187,-0.0009826031746342778,0.0018346173455938697
1.72949473970936e+18,0.00018347540753893554,-0.00024213752476498485,0.0012683472596108913
1.7294947397183603e+18,-0.0001065892429323867,0.0003846102044917643,-0.0007409309619106352
1.7294947397273605e+18,-0.0012757545337080956,0.0014532156055793166,-0.0013978473143652081
1.7294947397363607e+18,-0.003747608745470643,6.474352994700894e-05,-0.0018286592094227672
1.729494739745361e+18,-0.0002976490359287709,0.000693666806910187,0.0007121145026758313
1.729494739751361e+18,0.000555171340238303,0.00325524783693254,0.001085064373910427
1.7294947397603612e+18,0.00011758130131056532,0.0019370371010154486,7.021950295893475e-05
1.7294947397693614e+18,-0.001688560238108039,-0.0016956483013927937,-0.0007614847854711115
1.7294947397783616e+18,-5.180508378543891e-05,0.0002931597118731588,-0.00274674198590219
1.7294947397873618e+18,0.0013758221175521612,0.00031908901291899383,-0.0025898145977407694
1.729494739796362e+18,-0.0010653065983206034,0.0008297959575429559,4.7698296839371324e-05
1.7294947398053622e+18,-0.0009234398603439331,-0.0008195462869480252,0.00023207413323689252
1.7294947398143624e+18,4.0140090277418494e-05,-0.0009676151094026864,-0.0007600148674100637
1.7294947398233626e+18,-0.0010187163716182113,0.001356087508611381,0.0009410163038410246
1.7294947398323628e+18,0.0005190681549720466,-0.002322870772331953,0.001824576873332262
1.729494739841363e+18,0.0001636041997699067,0.0014540236443281174,0.001783905434422195
1.729494739847363e+18,-0.003632050007581711,0.0007460944470949471,0.0018649640260264277
1.7294947398563633e+18,-0.002442422555759549,-0.0032360528130084276,-0.00045932995271869004
1.7294947398653635e+18,0.00039221873157657683,0.0012694989563897252,-0.0020350515842437744
1.7294947398713636e+18,-0.0006109897512942553,-0.0011737927561625838,0.001196082797832787
1.7294947398803638e+18,0.0005743683432228863,0.0010009000543504953,0.0019278633408248425
1.729494739889364e+18,-0.0008827418205328286,-0.0007408895180560648,-0.002217539818957448
1.7294947398983642e+18,-0.0012640620116144419,-0.0020080406684428453,-0.0002292907447554171
1.7294947399043643e+18,0.003342611249536276,0.002312014577910304,-0.0006133231217972934
1.7294947399133645e+18,-0.0009932230459526181,0.0011112712090834975,0.0001673296937951818
1.7294947399223647e+18,0.001408199081197381,0.0009274650365114212,-0.0006259226356633008
1.7294947399313649e+18,-0.0003837631084024906,0.001113478560000658,-0.0011625862680375576
1.729494739937365e+18,0.0014698051381856203,0.0013460107147693634,0.0018298991490155458
1.7294947399463652e+18,0.0007200009422376752,0.00461138691753149,-0.0015916412230581045
1.7294947399553654e+18,0.0011189657961949706,-0.00047637821990065277,0.0006393705843947828
1.7294947399643656e+18,-0.0003723484405782074,-0.0010235286317765713,0.0002703805803321302
1.7294947399733658e+18,-0.001109596691094339,-0.00082200433826074,0.0015985466307029128
1.729494739982366e+18,0.0005122231086716056,0.002044243970885873,-0.00021494131942745298
1.729494739988366e+18,-0.0005482997512444854,-0.0013845085632055998,0.0013498178450390697
1.7294947399973663e+18,0.0015911782393231988,-0.0004884995869360864,5.0506754632806405e-05
1.7294947400063665e+18,0.0007267976179718971,0.0004946049884893,-0.0005139561835676432
1.7294947400153667e+18,0.0002600301231723279,0.0004358776204753667,-0.001283307676203549
1.7294947400243668e+18,0.001603738754056394,-0.0007842896156944335,0.000927818298805505
1.729494740030367e+18,-0.0007454763981513679,-0.0009655909962020814,-0.0014776166062802076
1.7294947400393672e+18,0.0024115703999996185,0.0006249360158108175,0.0018216896569356322
1.7294947400483674e+18,0.0029610188212245703,-0.003477084217593074,-0.0032724360935389996
1.7294947400573676e+18,-0.00041147941374219954,0.000140972770168446,-8.465503924526274e-05
1.7294947400633677e+18,0.0006351617048494518,-0.0019778916612267494,-0.00021097797434777021
1.7294947400723679e+18,-0.0003923452168237418,-0.0002542818838264793,-0.00024993286933749914
1.729494740078368e+18,-0.00036764045944437385,8.82795484358212e-06,0.00048807510756887496
1.7294947400873682e+18,-0.0020059377420693636,-0.0019001790788024664,0.0003501987084746361
1.7294947400963684e+18,-0.000987848499789834,0.0008610689546912909,-0.002427259925752878
1.7294947401053686e+18,-0.0010425189975649118,0.00014527092571370304,0.00012124849308747798
1.7294947401113687e+18,0.0009763824054971337,-0.0007282138685695827,-0.0006446205661632121
1.729494740120369e+18,-4.299533611629158e-05,-0.0015657407930120826,0.000838847947306931
1.729494740129369e+18,0.0025220136158168316,0.002070213435217738,-0.0029060665983706713
1.7294947401383693e+18,0.0022104992531239986,0.0012479349970817566,0.00015542907931376249
1.7294947401473695e+18,-0.0016761703882366419,0.00039275168091990054,0.00011468872253317386
1.7294947401563697e+18,0.0020733883138746023,0.0005454863421618938,-0.0022563801612704992
1.7294947401623698e+18,-0.0009377537062391639,0.001094516133889556,0.00283910077996552
1.72949474017137e+18,-0.003672543214634061,0.00207756576128304,0.0008839930524118245
1.7294947401803702e+18,0.001185427070595324,0.001315488712862134,-0.0024725457187741995
1.7294947401863703e+18,0.0011104887817054987,-0.0014743455685675144,-0.00041233139927498996
1.7294947401953705e+18,0.0005562228616327047,-0.00046237214701250196,-0.0016331670340150595
1.7294947402043707e+18,-0.000452440173830837,-0.0006659361533820629,-0.0017453425098210573
1.729494740213371e+18,-0.00019897331367246807,-6.025336915627122e-05,-0.0018817475065588951
1.729494740222371e+18,-0.0016036434099078178,-0.0014608673518523574,-0.0017667441861703992
1.7294947402313713e+18,-0.0015205575618892908,-0.0001688819465925917,-0.0018022462027147412
1.7294947402403715e+18,-0.0004301416629459709,8.082310523604974e-05,0.0013872093986719847
1.7294947402493716e+18,-0.0010026986710727215,-0.00010534622560953721,0.0004710030334535986
1.7294947402583718e+18,0.0015119974268600345,0.0004097684577573091,-0.0011140364222228527
1.729494740267372e+18,-9.815541852731258e-05,-0.0007801316096447408,0.0021375061478465796
1.7294947402763722e+18,-0.0005491412593983114,-4.8014924686867744e-05,7.634322537342086e-05
1.7294947402823724e+18,-0.0004880519409198314,-0.0009572379058226943,-0.0016555404290556908
1.7294947402913725e+18,-0.001316994195804,0.0008993864757940173,-0.0006354687502607703
1.7294947403003727e+18,-0.0009558096644468606,-0.0003648668061941862,-1.921159309858922e-05
1.7294947403063729e+18,-0.0004987327265553176,-0.002469985978677869,0.001089494558982551
1.729494740315373e+18,-0.0003814327355939895,0.0014922083355486393,0.0005129881901666522
1.7294947403243732e+18,-0.00020533998031169176,-5.548505578190088e-05,0.0025130605790764093
1.7294947403333734e+18,0.000870916061103344,0.001112152123823762,-0.0009110173559747636
1.7294947403423736e+18,-0.0010614537168294191,0.001592961372807622,-0.0002810634905472398
1.7294947403483738e+18,-5.290272747515701e-05,0.0008651881362311542,-0.0005557481199502945
1.729494740357374e+18,-0.0010629763128235936,0.0005533681833185256,0.0008899628883227706
1.7294947403663741e+18,-0.002695612609386444,-0.0018223475199192762,-0.0007251724018715322
1.7294947403753743e+18,-0.0005027001607231796,0.0010101317893713713,-0.00031447666697204113
1.7294947403843745e+18,-0.0010244275908917189,0.0014745548833161592,0.0013145370176061988
1.7294947403903747e+18,0.0005066996673122048,-0.00098778388928622,0.0006808530888520181
1.7294947403993748e+18,-0.001701586996205151,0.000959015276748687,-0.0006294490303844213
1.729494740408375e+18,0.0012559391325339675,-0.002981747267767787,0.0014015852939337492
1.7294947404233754e+18,0.001075252308510244,-0.001951219397597015,-0.00026804590015672147
1.7294947404293755e+18,0.0020725398790091276,0.0010978184873238206,-0.000519854889716953
1.7294947404383757e+18,0.0017359564080834389,0.0002392414171481505,0.001464333152398467
1.729494740447376e+18,0.00325553840957582,-0.0016961551737040281,-0.0027836565859615803
1.729494740456376e+18,-0.00021024057059548795,-0.000873206474352628,-0.0022774480748921633
1.7294947404653763e+18,-0.0027479850687086582,0.002499694237485528,0.003274054965004325
1.7294947404713764e+18,-0.0007577697397209704,-0.003931217826902866,-0.0014854600885882974
1.7294947404803766e+18,-0.0030912389047443867,0.0008745283703319728,0.0017618873389437795
1.7294947404893768e+18,-0.0010097759077325463,-0.0019400158198550344,0.0012988471426069736
1.729494740495377e+18,0.00467686727643013,-0.00013644386490341276,-5.5982422054512426e-05
1.729494740504377e+18,-0.0008758524199947715,0.0020365051459521055,0.001092439517378807
1.7294947405133773e+18,0.0007199278916232288,-0.0015427937032654881,-9.702100942377001e-05
1.7294947405223775e+18,-0.0016545959515497088,7.902087963884696e-05,-0.0006380791892297566
1.7294947405313777e+18,3.545076469890773e-05,-0.001213375013321638,0.0012338479282334447
1.7294947405373778e+18,0.0006489316583611071,-0.0002860293025150895,0.0025328872725367546
1.729494740546378e+18,-0.001612571650184691,-0.0008640146697871387,0.00024328210565727204
1.7294947405553782e+18,-0.001115515362471342,0.0005516603705473244,0.0003865686012431979
1.7294947405643784e+18,-0.0022539549972862005,-0.0015142365591600537,0.00020682498870883137
1.7294947405703785e+18,-0.002757268724963069,-0.0024267241824418306,-0.0013293179217725992
1.7294947405793787e+18,-0.0011489484459161758,0.0003819371631834656,0.0019900240004062653
1.729494740588379e+18,-0.0016773201059550047,-0.0008079518447630107,0.002151976805180311
1.729494740597379e+18,-0.0005157474079169333,-0.00027826798032037914,-0.0007107162964530289
1.7294947406033792e+18,-0.0010706828907132149,0.0029296802822500467,-0.0016526172403246164
1.7294947406123794e+18,-0.00048760080244392157,-0.002405463019385934,2.2367323254002258e-05
1.7294947406213796e+18,-8.342781075043604e-05,0.001211269642226398,-0.003720618085935712
1.7294947406303798e+18,0.00024108201614581048,0.0007095561013557017,-0.0011652960674837232
1.72949474063938e+18,0.0021417969837784767,-8.149214409058914e-05,0.0016489267582073808
1.72949474064538e+18,-0.001422752276994288,-6.174483587528812e-06,-0.0015543174231424928
1.7294947406543803e+18,-0.0018259480129927397,0.00020170985953882337,-0.0032362400088459253
1.7294947406633805e+18,-0.002756709000095725,0.0019316836260259151,0.0012049478245899081
1.7294947406723807e+18,0.001006975769996643,-0.0004973059403710067,0.00042054950608871877
1.7294947406813809e+18,-0.00020958423556294292,-0.0016817630967125297,-0.001240940997377038
1.729494740690381e+18,0.0005313951405696571,-0.002641115104779601,-0.0011754661099985242
1.7294947406993812e+18,0.003070723032578826,-0.0011451061582192779,-0.0008351499564014375
1.7294947407083814e+18,0.0026682913303375244,-0.0012636532774195075,-0.001379153341986239
1.7294947407173816e+18,-0.0002731418644543737,0.0035278121940791607,-0.0022172799799591303
1.7294947407263818e+18,-0.001132698729634285,-0.001976804109290242,0.00052343012066558
1.729494740732382e+18,0.0030071649234741926,0.0017237997381016612,-0.0014666813658550382
1.7294947407413821e+18,-0.0005477651138789952,-0.002302496461197734,0.0009840186685323715
1.7294947407503823e+18,-0.020938072353601456,-0.031434107571840286,0.00018841073324438184
1.7294947407593825e+18,-0.13686926662921906,-0.24096505343914032,7.679533155169338e-05
1.7294947407683827e+18,-0.2540573179721832,-0.445631206035614,0.0017159647541120648
1.729494740777383e+18,-0.34943270683288574,-0.6250230073928833,0.0005053330678492785
1.729494740786383e+18,-0.377655953168869,-0.7034721374511719,-0.000734664557967335
1.7294947407923832e+18,-0.3643181324005127,-0.6985454559326172,0.002219944726675749
1.7294947408013834e+18,-0.30650871992111206,-0.6465247869491577,-0.0018057648558169603
1.7294947408103836e+18,-0.24760226905345917,-0.5795891284942627,0.0007877997122704983
1.7294947408193838e+18,-0.22193177044391632,-0.5425523519515991,0.00014333394938148558
1.729494740825384e+18,-0.22710302472114563,-0.5437750816345215,0.0017285923240706325
1.7294947408343841e+18,-0.263073205947876,-0.5746725797653198,9.285032865591347e-05
1.7294947408433843e+18,-0.30129966139793396,-0.6048036217689514,0.001231500180438161
1.7294947408523845e+18,-0.31440192461013794,-0.610145628452301,0.002345521468669176
1.7294947408583846e+18,-0.29829609394073486,-0.5941486954689026,9.737047366797924e-05
1.7294947408673848e+18,-0.25007203221321106,-0.5398496389389038,0.0028194838669151068
1.729494740876385e+18,-0.1883387714624405,-0.4671858847141266,-0.000375681440345943
1.7294947408853852e+18,-0.13395917415618896,-0.40077489614486694,-0.001630004495382309
1.7294947408943854e+18,-0.11174885928630829,-0.34911131858825684,-0.0008784247911535203
1.7294947409003855e+18,-0.11290716379880905,-0.3267236351966858,-0.001230262452736497
1.7294947409093857e+18,-0.109361931681633,-0.2707573175430298,-0.005070270970463753
1.729494740918386e+18,-0.11536399275064468,-0.24763156473636627,-0.0025646460708230734
1.729494740927386e+18,-0.09919364750385284,-0.1980465203523636,-0.0027658783365041018
1.7294947409363863e+18,-0.07072821259498596,-0.16240786015987396,-0.0028389121871441603
1.7294947409453865e+18,-0.033828843384981155,-0.11172264814376831,-0.006089977454394102
1.7294947409513866e+18,-0.013177360408008099,-0.08832921832799911,-0.005567637272179127
1.7294947409603868e+18,0.006948048248887062,-0.05279034748673439,-0.005038818344473839
1.729494740969387e+18,0.011837954632937908,-0.025708530098199844,-0.003113280748948455
1.7294947409783872e+18,0.010436591692268848,0.004976808093488216,-0.00682458933442831
1.7294947409843873e+18,0.010888135991990566,0.019365547224879265,-0.002093216869980097
1.7294947409933875e+18,0.0115916533395648,0.04129642993211746,-0.002896219026297331
1.7294947410023877e+18,0.024042624980211258,0.0635167583823204,-0.003361961105838418
1.729494741011388e+18,0.03907541558146477,0.08320243656635284,0.0005721098277717829
1.729494741017388e+18,0.05889122188091278,0.0975257009267807,-0.005107480101287365
1.7294947410263882e+18,0.07692534476518631,0.13279053568840027,0.0006992204580456018
1.7294947410353884e+18,0.08625181764364243,0.15679503977298737,-0.0027790209278464317
1.7294947410443886e+18,0.09250594675540924,0.182842418551445,-0.0021807951852679253
1.7294947410533888e+18,0.09573004394769669,0.20040082931518555,-0.00041023571975529194
1.729494741059389e+18,0.09781396389007568,0.21266411244869232,-0.0012248343555256724
1.729494741068389e+18,0.08651205897331238,0.1993599534034729,-0.0040731485933065414
1.7294947410773893e+18,0.09215995669364929,0.2059871405363083,0.00024465995375066996
1.7294947410863895e+18,0.08885794132947922,0.19761133193969727,-0.002686580177396536
1.7294947410953897e+18,0.10434755682945251,0.219783753156662,-0.001352151157334447
1.72949474110439e+18,0.12340812385082245,0.24355116486549377,-0.0008943191496655345
1.72949474111339e+18,0.12781591713428497,0.26897862553596497,-0.003954765386879444
1.7294947411223903e+18,0.1320507824420929,0.2827334702014923,-1.934694591909647e-05
1.7294947411313905e+18,0.1240319311618805,0.2820223271846771,-0.0021866830065846443
1.7294947411373906e+18,0.11841782927513123,0.2787701189517975,-0.0025714358780533075
1.7294947411463908e+18,0.11217616498470306,0.2695777416229248,-0.0009060359443537891
1.729494741155391e+18,0.11040529608726501,0.26686394214630127,-0.003492360468953848
1.7294947411643912e+18,0.1148853749036789,0.2681203782558441,-0.001813292969018221
1.7294947411703913e+18,0.1232747808098793,0.27279427647590637,0.002801146823912859
1.7294947411793915e+18,0.12916797399520874,0.27641987800598145,0.0012771467445418239
1.7294947411883917e+18,0.1275688260793686,0.28049081563949585,-0.0019330247305333614
1.7294947411943918e+18,0.13139323890209198,0.2845553159713745,0.0006481000455096364
1.729494741203392e+18,0.1200726106762886,0.2786850929260254,-0.0006801772397011518
1.7294947412123922e+18,0.11069808155298233,0.2672683596611023,-0.0003507309593260288
1.7294947412213924e+18,0.10570205748081207,0.26290175318717957,0.0010440320475026965
1.7294947412273925e+18,0.10554876923561096,0.25820037722587585,0.0004452692810446024
1.7294947412363927e+18,0.10611943155527115,0.251799613237381,-0.004895791411399841
1.729494741245393e+18,0.11138992011547089,0.24879077076911926,-0.002801852999255061
1.729494741254393e+18,0.10884109884500504,0.24246641993522644,2.428237348794937e-05
1.7294947412633933e+18,0.10392467677593231,0.2378118932247162,-0.0001522049424238503
1.7294947412693934e+18,0.09944004565477371,0.228793203830719,-0.002759154886007309
1.7294947412783936e+18,0.09503401070833206,0.22249725461006165,-0.0007334129768423736
1.7294947412873938e+18,0.08642933517694473,0.21191541850566864,-0.0037169503048062325
1.729494741296394e+18,0.08695784211158752,0.20362336933612823,0.0023865168914198875
1.729494741302394e+18,0.0872693583369255,0.19927534461021423,-0.0006591830169782043
1.7294947413113943e+18,0.08869307488203049,0.19414111971855164,-0.0024086181074380875
1.7294947413203945e+18,0.08890364319086075,0.18906937539577484,-0.0015247453702613711
1.7294947413293947e+18,0.08468201756477356,0.178302600979805,-0.0014209618093445897
1.729494741338395e+18,0.07940339297056198,0.17243339121341705,0.0010081310756504536
1.729494741344395e+18,0.07772316038608551,0.16906613111495972,-0.0008191840024664998
1.7294947413533952e+18,0.06975386291742325,0.15523812174797058,-0.0001666247844696045
1.7294947413623954e+18,0.06470248848199844,0.15306246280670166,1.1791184078902006e-05
1.7294947413713956e+18,0.0654495358467102,0.14575906097888947,-0.0020797557663172483
1.7294947413803958e+18,0.06442451477050781,0.13965658843517303,-0.003711444791406393
1.729494741389396e+18,0.06621892005205154,0.13393615186214447,-0.001174062374047935
1.7294947413983962e+18,0.06014247611165047,0.1264321208000183,-0.00029678858118131757
1.7294947414043963e+18,0.058898016810417175,0.12245228886604309,0.0006234231987036765
1.7294947414133965e+18,0.05624661594629288,0.11878615617752075,-0.0027317411731928587
1.7294947414223967e+18,0.0495346374809742,0.112299844622612,0.0005412024911493063
1.7294947414313969e+18,0.048465125262737274,0.11517251282930374,-0.00041478738421574235
1.729494741440397e+18,0.04723735153675079,0.10612187534570694,0.002754464279860258
1.7294947414493972e+18,0.04767390340566635,0.10549116879701614,-0.003034200519323349
1.7294947414583974e+18,0.052820298820734024,0.10358011722564697,5.4537318646907806e-05
1.7294947414673976e+18,0.04622161388397217,0.09750374406576157,-0.0006024605827406049
1.7294947414763978e+18,0.049300212413072586,0.09026293456554413,-0.0027682094369083643
1.729494741482398e+18,0.04320335015654564,0.09063106775283813,-0.002022483851760626
1.7294947414943982e+18,0.03874398022890091,0.08493538200855255,-0.004395002964884043
1.7294947415003983e+18,0.04021527245640755,0.08626991510391235,-0.003598487935960293
1.7294947415093985e+18,0.03959677368402481,0.0857793539762497,-0.0026290733367204666
1.7294947415183987e+18,0.045104317367076874,0.08266425132751465,-0.0007726445328444242
1.729494741527399e+18,0.041963644325733185,0.07905185222625732,0.0004069874994456768
1.729494741536399e+18,0.04086318239569664,0.07785434275865555,-0.002216624328866601
1.7294947415453993e+18,0.034715596586465836,0.07372219115495682,-0.002171486383304
1.7294947415543995e+18,0.0328793004155159,0.07375333458185196,-0.0007427356322295964
1.7294947415633997e+18,0.029219064861536026,0.07124020904302597,0.0004705415340140462
1.7294947415693998e+18,0.03614824265241623,0.07112175226211548,-0.002130941953510046
1.7294947415784e+18,0.037283800542354584,0.07267794758081436,0.000818005995824933
1.7294947415874002e+18,0.03690379485487938,0.07014980167150497,0.0020145894959568977
1.7294947415964004e+18,0.03675680607557297,0.061714913696050644,-0.0056280652061104774
1.7294947416054006e+18,0.035735175013542175,0.0669858530163765,-0.0010129554430022836
1.7294947416144008e+18,0.03146922215819359,0.06339265406131744,-0.0030984277836978436
1.729494741623401e+18,0.03019079938530922,0.06256362795829773,-0.0006537373410537839
1.729494741629401e+18,0.03037100099027157,0.06353291124105453,0.001969326985999942
1.7294947416384013e+18,0.0271193478256464,0.06358402967453003,0.0002946804743260145
1.7294947416474015e+18,0.029390620067715645,0.061830006539821625,0.0007787252543494105
1.7294947416564017e+18,0.03051472268998623,0.06074529141187668,0.00020156934624537826
1.7294947416624018e+18,0.030280059203505516,0.05807515233755112,-0.001051123719662428
1.729494741671402e+18,0.0299054142087698,0.05950017273426056,-0.0016663495916873217
1.7294947416804022e+18,0.03333694860339165,0.058917924761772156,-0.0003102392074652016
1.7294947416894024e+18,0.027889342978596687,0.06091759353876114,9.950250387191772e-05
1.7294947416984026e+18,0.029622802510857582,0.05947421118617058,-0.0030278307385742664
1.7294947417074028e+18,0.027800055220723152,0.05637161061167717,-9.185977978631854e-05
1.729494741716403e+18,0.030181407928466797,0.055658821016550064,-0.0014849179424345493
1.7294947417254031e+18,0.029272004961967468,0.0571814626455307,-0.0009821474086493254
1.7294947417344033e+18,0.028702687472105026,0.0594170056283474,-0.002990917069837451
1.7294947417434035e+18,0.0262860469520092,0.05914967879652977,0.0002674286952242255
1.7294947417524037e+18,0.028393983840942383,0.059334516525268555,-0.00167433125898242
1.729494741761404e+18,0.030814964324235916,0.05697493255138397,-0.0021335333585739136
1.729494741770404e+18,0.029969923198223114,0.05572573468089104,-0.0005906606675125659
1.7294947417794043e+18,0.029424067586660385,0.05319860577583313,0.0015050966758280993
1.7294947417884045e+18,0.02625010348856449,0.05298751965165138,-0.005027369130402803
1.7294947417974047e+18,0.022330380976200104,0.04843125492334366,-0.001922043738886714
1.7294947418064049e+18,0.028226755559444427,0.04573284462094307,0.0019396088318899274
1.729494741815405e+18,0.022500261664390564,0.04789912700653076,-0.0015082125319167972
1.7294947418214052e+18,0.02388680912554264,0.05100267380475998,-0.0009437783737666905
1.7294947418304054e+18,0.027735136449337006,0.046216461807489395,0.000674293958581984
1.7294947418394056e+18,0.025002477690577507,0.047186389565467834,-0.0013959661591798067
1.7294947418484058e+18,0.02095339260995388,0.04657123610377312,0.00039016432128846645
1.729494741857406e+18,0.01982988603413105,0.038795389235019684,-0.002897287718951702
1.7294947418664061e+18,0.015284094959497452,0.041060611605644226,-0.0007638634415343404
1.7294947418754063e+18,0.01597764901816845,0.03689703345298767,-0.0022023424971848726
1.7294947418844065e+18,0.019032903015613556,0.038816679269075394,-0.004159850534051657
1.7294947418934067e+18,0.019418276846408844,0.03542700409889221,-0.0021019401028752327
1.7294947418994068e+18,0.021159835159778595,0.03443729132413864,-0.0035687461495399475
1.729494741908407e+18,0.015147704631090164,0.03550257906317711,-0.003928822930902243
1.7294947419174072e+18,0.01922151818871498,0.03684666380286217,-0.0005158607382327318
1.7294947419264074e+18,0.015178965404629707,0.03308188542723656,0.00099449313711375
1.7294947419354076e+18,0.0110121825709939,0.03323199972510338,-0.0023525108117610216
1.7294947419444078e+18,0.015879910439252853,0.02849898673593998,5.896948277950287e-05
1.729494741953408e+18,0.012419551610946655,0.024662772193551064,-0.00021685438696295023
1.7294947419624082e+18,0.015723776072263718,0.025370724499225616,-0.0029057194478809834
1.7294947419714084e+18,0.012714008800685406,0.025875376537442207,-0.002453477354720235
1.7294947419774085e+18,0.011387073434889317,0.021279331296682358,-0.000986217288300395
1.7294947419864087e+18,0.009102286770939827,0.02590816468000412,-0.0022501545026898384
1.729494741995409e+18,0.008922912180423737,0.02362697198987007,-0.004498989321291447
1.729494742001409e+18,0.00820772536098957,0.02492537535727024,-0.002868178766220808
1.7294947420134093e+18,0.009330159053206444,0.019786525517702103,-0.0027100685983896255
1.7294947420194094e+18,0.013649546541273594,0.02065417170524597,-0.0018596703885123134
1.7294947420284096e+18,0.012153133749961853,0.019060716032981873,-0.002935343887656927
1.7294947420374098e+18,0.006955865770578384,0.015361899510025978,-0.0018962811445817351
1.72949474204641e+18,0.007942565716803074,0.014657572843134403,-0.004372927360236645
1.72949474205241e+18,0.0041220104321837425,0.01736605539917946,-0.0012809649342671037
1.7294947420614103e+18,0.006235877517610788,0.016777154058218002,-0.004070183262228966
1.7294947420704105e+18,0.003510501468554139,0.018687468022108078,-0.0004263705341145396
1.7294947420794107e+18,0.009403918869793415,0.014523649588227272,-0.0008231026586145163
1.729494742088411e+18,0.011719461530447006,0.01570039801299572,-0.005085582844913006
1.729494742097411e+18,0.008890954777598381,0.013880614191293716,-0.00028177001513540745
1.7294947421064113e+18,0.008555613458156586,0.01810162514448166,-0.0011123854201287031
1.7294947421154115e+18,0.0032927494030445814,0.013159438036382198,0.002441916149109602
1.7294947421214116e+18,0.00549490237608552,0.01474252250045538,-0.00016034313011914492
1.7294947421304118e+18,0.004458208568394184,0.01202167384326458,-0.0021069878712296486
1.729494742139412e+18,0.002395658055320382,0.012863022275269032,-0.001228424720466137
1.7294947421484122e+18,0.004121050704270601,0.01352656353265047,0.000715048867277801
1.7294947421574124e+18,0.007833629846572876,0.009259930811822414,0.0017272263066843152
1.7294947421634125e+18,0.01060451753437519,0.0105483029037714,-7.01219541952014e-05
1.7294947421724127e+18,0.005413970910012722,0.006890028715133667,-0.003371876198798418
1.7294947421814129e+18,0.006292646750807762,0.006559024564921856,-0.001557671232149005
1.729494742190413e+18,0.0013554233592003584,0.01132106315344572,0.00012722803512588143
1.7294947421964132e+18,0.00017869973089545965,0.004572564270347357,0.0016638176748529077
1.7294947422054134e+18,0.0018805237486958504,0.005769554525613785,-0.0002172865206375718
1.7294947422144136e+18,0.0018952229293063283,0.00914692785590887,-0.0010737902484834194
1.7294947422204137e+18,0.002290479838848114,0.006634041666984558,-0.003862399607896805
1.729494742229414e+18,0.006262470502406359,0.005032302811741829,-0.00012973081902600825
1.729494742238414e+18,0.0019893315620720387,0.004578015301376581,-0.0017240394372493029
1.7294947422474143e+18,0.0005527352914214134,0.002791700651869178,0.0010763936443254352
1.7294947422564145e+18,-0.0030806998256593943,0.0045042941346764565,-0.002529927296563983
1.7294947422624146e+18,-0.005148651544004679,0.0016044689109548926,-0.000398585427319631
1.7294947422714148e+18,-0.0044159675016999245,0.003933708183467388,0.0004963440587744117
1.729494742280415e+18,-0.0023686266504228115,0.004750880412757397,-0.001571054570376873
1.7294947422894152e+18,0.0005986844189465046,0.003916552290320396,0.001143519300967455
1.7294947422984154e+18,0.0002984112361446023,0.0006070870440453291,0.0013543778331950307
1.7294947423044155e+18,-0.0047459290362894535,-0.0005011127796024084,0.0009873004164546728
1.7294947423134157e+18,-0.002868952229619026,-0.0006913335528224707,0.0011646614875644445
1.7294947423224159e+18,-0.0020538815297186375,-0.0021942942403256893,0.0009911898523569107
1.729494742331416e+18,-0.004652361385524273,-0.0024549709632992744,0.00011687629739753902
1.7294947423404163e+18,-0.00043373298831284046,-0.001245255465619266,-0.0003834787057712674
1.7294947423494164e+18,-0.0016364834737032652,-0.00027457461692392826,0.0023168977349996567
1.7294947423584166e+18,-0.002419376280158758,-0.0016074079321697354,0.0015925311017781496
1.7294947423644168e+18,-0.001430701813660562,-0.0032748226076364517,0.0015634259907528758
1.729494742373417e+18,-0.002112036570906639,-0.0024437252432107925,0.00402388209477067
1.7294947423824172e+18,-0.0037254379130899906,-0.002124316059052944,0.002666726242750883
1.7294947423914173e+18,-0.0023271716199815273,-0.0015527128707617521,0.0008353198645636439
1.7294947424004175e+18,-0.005149860866367817,-0.0030757449567317963,0.001878335140645504
1.7294947424064177e+18,-0.004286989104002714,-0.004997642245143652,0.000866976217366755
1.7294947424154179e+18,-0.0049033332616090775,-0.005849089939147234,0.000767816323786974
1.729494742424418e+18,0.00045153964310884476,-0.005831138696521521,-0.0006338676903396845
1.7294947424304182e+18,-0.0005841230740770698,-0.00643636891618371,-0.0013644372811540961
1.7294947424394184e+18,0.0001245049061253667,-0.007568207569420338,0.0010115797631442547
1.7294947424484186e+18,-0.0012370372423902154,-0.0059967041015625,-0.0013858607271686196
1.7294947424574188e+18,-0.0003936158027499914,-0.004680093377828598,0.001426344271749258
1.729494742463419e+18,-0.0020477627404034138,-0.007241858635097742,0.003996389918029308
1.729494742472419e+18,-0.0030015010852366686,-0.005011755041778088,0.00014687480870634317
1.7294947424814193e+18,-0.0027624606154859066,-0.009565204381942749,0.002680322155356407
1.7294947424904195e+18,-0.0036112091038376093,-0.008814631961286068,0.0016985051333904266
1.7294947424994196e+18,2.0588631741702557e-05,-0.010579507797956467,0.0017227057833224535
1.7294947425054198e+18,0.0022167139686644077,-0.008473286405205727,0.0006405463209375739
1.72949474251442e+18,0.0006031194934621453,-0.011634636670351028,-9.162537753582001e-05
1.7294947425234202e+18,-0.004852255340665579,-0.008710564114153385,0.0008121518767438829
1.7294947425324204e+18,-0.004858209751546383,-0.01048361323773861,0.00475775683298707
1.7294947425384205e+18,-0.005068798083811998,-0.009391495026648045,0.0009759595268405974
1.7294947425474207e+18,-0.009105988778173923,-0.011546323075890541,0.000510783982463181
1.7294947425564209e+18,-0.004664576146751642,-0.010523642413318157,-0.0017965382430702448
1.729494742565421e+18,-0.004243216942995787,-0.00990201998502016,0.002720166929066181
1.7294947425744212e+18,-0.0026610696222633123,-0.013660002499818802,0.0022972370497882366
1.7294947425834214e+18,-0.004334062337875366,-0.016149695962667465,0.0018806187435984612
1.7294947425894216e+18,-0.004199376329779625,-0.014027323573827744,0.0007666811579838395
1.7294947425984218e+18,-0.000767470570281148,-0.0181379783898592,0.0016132572200149298
1.729494742607422e+18,-0.0030312584713101387,-0.014083136804401875,0.0018354580970481038
1.7294947426164221e+18,-0.0035071484744548798,-0.014218587428331375,0.002572635654360056
1.7294947426224223e+18,-0.0036496566608548164,-0.011559359729290009,0.00398302124813199
1.7294947426314225e+18,-0.004467452876269817,-0.014513236470520496,0.00023212702944874763
1.7294947426374226e+18,-0.00531553290784359,-0.014725550077855587,0.001347730285488069
1.7294947426464228e+18,-0.002797747263684869,-0.018689310178160667,0.0037620910443365574
1.729494742655423e+18,-0.0035265376791357994,-0.01659809984266758,0.0018088865326717496
1.7294947426644232e+18,-0.005126145202666521,-0.017566796392202377,0.0027600619941949844
1.7294947426704233e+18,-0.002151008229702711,-0.02032427117228508,-0.0003199124475941062
1.7294947426794235e+18,-0.005629812367260456,-0.019193265587091446,0.0020588834304362535
1.7294947426884237e+18,-0.005517491605132818,-0.015116344206035137,0.001595382229425013
1.729494742697424e+18,-0.005795641802251339,-0.016272440552711487,0.00117325852625072
1.729494742703424e+18,-0.009424125775694847,-0.014090560376644135,0.0034501277841627598
1.7294947427124242e+18,-0.008333434350788593,-0.019116751849651337,-0.0010064427042379975
1.7294947427214244e+18,-0.006677746307104826,-0.01645272597670555,0.0007864315994083881
1.7294947427274245e+18,-0.003921267576515675,-0.0195615217089653,-0.0006336154183372855
1.7294947427364247e+18,-0.007247881963849068,-0.018037211149930954,0.0003022722667083144
1.729494742745425e+18,-0.006619174033403397,-0.01923406682908535,0.004194310400635004
1.729494742754425e+18,-0.006621416658163071,-0.01935873180627823,0.004378658253699541
1.7294947427604252e+18,-0.010556869208812714,-0.01694267988204956,-0.0019498702604323626
1.7294947427694254e+18,-0.009642274118959904,-0.021331695839762688,-0.0005283557111397386
1.7294947427784256e+18,-0.009772478602826595,-0.023000478744506836,-0.00017111038323491812
1.7294947427874258e+18,-0.006930636242032051,-0.020805565640330315,-0.0001600426621735096
1.729494742796426e+18,-0.010189197026193142,-0.019491324201226234,0.00419891532510519
1.7294947428054262e+18,-0.00970494281500578,-0.020966844633221626,0.0020300853066146374
1.7294947428114263e+18,-0.00998461339622736,-0.019596753641963005,0.0023688359651714563
1.7294947428204265e+18,-0.011931752786040306,-0.022545361891388893,-0.0023581571877002716
1.7294947428294267e+18,-0.0091022290289402,-0.02257022261619568,-0.00197569839656353
1.729494742838427e+18,-0.006781317759305239,-0.02405228093266487,0.0007457581232301891
1.729494742847427e+18,-0.012059532105922699,-0.023661382496356964,-0.0014575854875147343
1.7294947428534272e+18,-0.01024486031383276,-0.024678118526935577,0.0017240522429347038
1.7294947428624274e+18,-0.012956739403307438,-0.027285238727927208,0.001570389256812632
1.7294947428714276e+18,-0.009585943073034286,-0.024064162746071815,0.0014411520678550005
1.7294947428804278e+18,-0.014111410826444626,-0.02733827941119671,-0.0016241217963397503
1.729494742889428e+18,-0.008696058765053749,-0.02975042723119259,-6.239004142116755e-05
1.729494742895428e+18,-0.013382483273744583,-0.02935837022960186,-0.0003635342000052333
1.7294947429044283e+18,-0.015340076759457588,-0.027831468731164932,-0.001191574614495039
1.7294947429134285e+18,-0.01411520503461361,-0.029513249173760414,0.002129021566361189
1.7294947429194286e+18,-0.012493899092078209,-0.03093632124364376,0.00023673457326367497
1.7294947429284288e+18,-0.015463295392692089,-0.027274636551737785,-0.0025815798435360193
1.729494742937429e+18,-0.014672506600618362,-0.028706703335046768,-0.001894885441288352
1.7294947429464292e+18,-0.014598052948713303,-0.028994083404541016,0.00012346747098490596
1.7294947429524293e+18,-0.012556716799736023,-0.027924014255404472,-0.00014045927673578262
1.7294947429614295e+18,-0.013787859119474888,-0.029359150677919388,-0.002539308276027441
1.7294947429704297e+18,-0.014035530388355255,-0.028585055842995644,-0.00040815770626068115
1.72949474297943e+18,-0.013021650724112988,-0.030756361782550812,-0.0014273865381255746
1.72949474298543e+18,-0.011607212014496326,-0.03224734216928482,-0.0023623008746653795
1.7294947429944302e+18,-0.011061398312449455,-0.029078906401991844,-0.0035408255644142628
1.7294947430034304e+18,-0.011240296997129917,-0.029566725715994835,-0.0029008742421865463
1.7294947430124306e+18,-0.01312547642737627,-0.031601954251527786,-0.001303669880144298
1.7294947430214308e+18,-0.018767094239592552,-0.03402189910411835,-0.0067990366369485855
1.729494743027431e+18,-0.016262557357549667,-0.03392060846090317,-0.001753711374476552
1.729494743036431e+18,-0.018281184136867523,-0.033461738377809525,-0.003633286338299513
1.7294947430454313e+18,-0.016051018610596657,-0.030407706275582314,-0.0008569593774154782
1.7294947430544315e+18,-0.015388811938464642,-0.03193232789635658,-0.002229551551863551
1.7294947430604316e+18,-0.01640610583126545,-0.030418816953897476,-0.00019376934505999088
1.7294947430694318e+18,-0.016413841396570206,-0.029449470341205597,-0.00032193621154874563
1.729494743078432e+18,-0.014964777044951916,-0.02986949495971203,-0.0027751531451940536
1.7294947430874322e+18,-0.015518690459430218,-0.03284207358956337,-0.0008358077611774206
1.7294947430934323e+18,-0.013921217061579227,-0.0313212089240551,-0.0028083387296646833
1.7294947431024325e+18,-0.015879999846220016,-0.032696351408958435,-0.0013905074447393417
1.7294947431114327e+18,-0.014877928420901299,-0.03377632424235344,-0.00028576585464179516
1.729494743120433e+18,-0.01120859757065773,-0.032747782766819,-0.0015541366301476955
1.729494743126433e+18,-0.014582949690520763,-0.033136703073978424,-0.002635869663208723
1.7294947431354332e+18,-0.01152778510004282,-0.030197080224752426,-0.0026417148765176535
1.7294947431444334e+18,-0.014651579782366753,-0.029520589858293533,-0.002454349771142006
1.7294947431534336e+18,-0.015682650730013847,-0.02938881516456604,-0.0010973112657666206
1.7294947431624338e+18,-0.012442929670214653,-0.027059035375714302,-0.0024986020289361477
1.729494743171434e+18,-0.016571959480643272,-0.03202676773071289,0.004173655062913895
1.7294947431804342e+18,-0.00021426205057650805,-0.04158952087163925,-0.0008152795489877462
1.7294947431894344e+18,0.02973121404647827,-0.05165041610598564,-0.016484292224049568
1.7294947431984346e+18,0.055116403847932816,-0.06290379911661148,-0.032805077731609344
1.7294947432044347e+18,0.061758726835250854,-0.06880603730678558,-0.034514687955379486
1.729494743213435e+18,0.058844488114118576,-0.0693100094795227,-0.03336307406425476
1.729494743222435e+18,0.0447269007563591,-0.06307867169380188,-0.03453098237514496
1.7294947432284352e+18,0.02716856449842453,-0.05747301131486893,-0.032304923981428146
1.7294947432374354e+18,0.014480172656476498,-0.05441612750291824,-0.03170078620314598
1.7294947432464356e+18,0.007942010648548603,-0.05597836151719093,-0.03493287414312363
1.7294947432554358e+18,0.013771133497357368,-0.053749870508909225,-0.031558066606521606
1.729494743264436e+18,0.028894513845443726,-0.059248317033052444,-0.028449494391679764
1.7294947432734362e+18,0.035593170672655106,-0.06195662543177605,-0.02937324158847332
1.7294947432824364e+18,0.03713066130876541,-0.05940074473619461,-0.028549619019031525
1.7294947432914365e+18,0.02459775097668171,-0.05238666385412216,-0.028053734451532364
1.7294947433004367e+18,0.008609338663518429,-0.05000917986035347,-0.027413783594965935
1.729494743309437e+18,-0.00814895424991846,-0.04445928335189819,-0.017864961177110672
1.729494743318437e+18,-0.0101963235065341,-0.041709624230861664,-0.015464658848941326
1.7294947433244372e+18,-0.012454401701688766,-0.04708137363195419,-0.015172620303928852
1.7294947433334374e+18,-0.005323246121406555,-0.04653660207986832,-0.011551473289728165
1.7294947433424376e+18,-0.002137968083843589,-0.04349038004875183,-0.009457439184188843
1.7294947433514378e+18,-0.00021726320846937597,-0.0392707958817482,-0.006579245440661907
1.729494743357438e+18,-0.0026951218023896217,-0.03631601855158806,-0.002649161731824279
1.7294947433664381e+18,-0.021214686334133148,-0.03433610871434212,0.0032559409737586975
1.7294947433754383e+18,-0.02909165434539318,-0.03222377970814705,0.007162599824368954
1.7294947433844385e+18,-0.03882214054465294,-0.028177520260214806,0.011423582211136818
1.7294947433904387e+18,-0.04127101972699165,-0.02628825418651104,0.0146581269800663
1.7294947433994388e+18,-0.03823859617114067,-0.026868347078561783,0.018703671172261238
1.729494743408439e+18,-0.0345543697476387,-0.028894808143377304,0.02516924776136875
1.7294947434174392e+18,-0.02995995432138443,-0.02599172666668892,0.029264941811561584
1.7294947434264394e+18,-0.02749476581811905,-0.025258753448724747,0.032858122140169144
1.7294947434354396e+18,-0.03843764588236809,-0.022369714453816414,0.036492690443992615
1.7294947434414397e+18,-0.04204237833619118,-0.020811039954423904,0.04561128839850426
1.72949474345044e+18,-0.0453503280878067,-0.015525152906775475,0.04486489295959473
1.72949474345944e+18,-0.04994769021868706,-0.01694805920124054,0.05252813920378685
1.7294947434684403e+18,-0.046919431537389755,-0.022326592355966568,0.05463698133826256
1.7294947434774405e+18,-0.042454756796360016,-0.01726936176419258,0.06518910080194473
1.7294947434864407e+18,-0.03623751550912857,-0.018894925713539124,0.07201718538999557
1.729494743495441e+18,-0.03333192691206932,-0.019233498722314835,0.07548511028289795
1.729494743501441e+18,-0.034538064152002335,-0.020083913579583168,0.07782800495624542
1.7294947435104412e+18,-0.03936730697751045,-0.016998426988720894,0.08267710357904434
1.7294947435194414e+18,-0.04149541258811951,-0.016942059621214867,0.09167056530714035
1.7294947435284416e+18,-0.04818500578403473,-0.010843397118151188,0.09109203517436981
1.7294947435374418e+18,-0.04616284370422363,-0.016665108501911163,0.09823751449584961
1.729494743546442e+18,-0.04192512109875679,-0.013936618342995644,0.10163769870996475
1.729494743552442e+18,-0.03807656094431877,-0.017184646800160408,0.10784086585044861
1.7294947435614423e+18,-0.031352728605270386,-0.01967865414917469,0.10909058153629303
1.7294947435704425e+18,-0.028020260855555534,-0.01710565946996212,0.11489827930927277
1.7294947435794427e+18,-0.02878989279270172,-0.018206307664513588,0.11786945909261703
1.7294947435854428e+18,-0.031637851148843765,-0.017304740846157074,0.11922269314527512
1.729494743594443e+18,-0.035836778581142426,-0.023922331631183624,0.12623336911201477
1.7294947436034432e+18,-0.03890233114361763,-0.018309008330106735,0.1308692991733551
1.7294947436124434e+18,-0.03335101902484894,-0.018022259697318077,0.13553880155086517
1.7294947436184435e+18,-0.030865559354424477,-0.020665675401687622,0.13479876518249512
1.7294947436274437e+18,-0.02766374498605728,-0.01969464309513569,0.1414102166891098
1.729494743636444e+18,-0.021857958287000656,-0.01854892261326313,0.14306868612766266
1.729494743642444e+18,-0.02311510592699051,-0.0203547440469265,0.14579162001609802
1.7294947436514442e+18,-0.02979307435452938,-0.019337251782417297,0.1459011286497116
1.7294947436604444e+18,-0.028537938371300697,-0.02272702008485794,0.1503135859966278
1.7294947436694446e+18,-0.029614729806780815,-0.022652743384242058,0.15509778261184692
1.7294947436784448e+18,-0.027325881645083427,-0.023112894967198372,0.1573253870010376
1.729494743684445e+18,-0.025728410109877586,-0.022822655737400055,0.1579129546880722
1.729494743693445e+18,-0.023026438429951668,-0.023576436564326286,0.16116410493850708
1.7294947437024453e+18,-0.022004788741469383,-0.025340158492326736,0.1665867567062378
1.7294947437084454e+18,-0.02122744545340538,-0.02747455984354019,0.16600388288497925
1.7294947437174456e+18,-0.022056426852941513,-0.022675728425383568,0.1699422299861908
1.7294947437264458e+18,-0.018682166934013367,-0.026297640055418015,0.16926217079162598
1.729494743735446e+18,-0.024683358147740364,-0.027323219925165176,0.1709379106760025
1.7294947437444462e+18,-0.023823672905564308,-0.02549637295305729,0.1725161373615265
1.7294947437534464e+18,-0.019917810335755348,-0.027946433052420616,0.17113852500915527
1.7294947437624466e+18,-0.020707104355096817,-0.026041891425848007,0.17828315496444702
1.7294947437714468e+18,-0.02089662291109562,-0.022575922310352325,0.1779501885175705
1.729494743777447e+18,-0.019826924428343773,-0.022746192291378975,0.17656119167804718
1.729494743786447e+18,-0.02073817513883114,-0.023614704608917236,0.17711922526359558
1.7294947437954473e+18,-0.016886241734027863,-0.02755495347082615,0.17853035032749176
1.7294947438044475e+18,-0.02130367048084736,-0.025248324498534203,0.1812896877527237
1.7294947438134477e+18,-0.0206004586070776,-0.024823075160384178,0.181248277425766
1.7294947438194478e+18,-0.020459799095988274,-0.02290879189968109,0.18221169710159302
1.729494743828448e+18,-0.01946459710597992,-0.022450704127550125,0.18344834446907043
1.7294947438374482e+18,-0.019192032516002655,-0.02196916751563549,0.18427464365959167
1.7294947438464484e+18,-0.01886812597513199,-0.02245951071381569,0.1802758127450943
1.7294947438554486e+18,-0.018981000408530235,-0.021324139088392258,0.18139754235744476
1.7294947438644488e+18,-0.017205873504281044,-0.021711166948080063,0.18283815681934357
1.729494743873449e+18,-0.014228545129299164,-0.02366616390645504,0.18091747164726257
1.7294947438824492e+18,-0.013879206031560898,-0.023505015298724174,0.1776183396577835
1.7294947438914493e+18,-0.014166874811053276,-0.01946081966161728,0.1797385960817337
1.7294947439004495e+18,-0.014964989386498928,-0.02026720903813839,0.18160220980644226
1.7294947439094497e+18,-0.013510736636817455,-0.019500846043229103,0.17646202445030212
1.72949474391845e+18,-0.016758659854531288,-0.019472571089863777,0.18041613698005676
1.72949474392445e+18,-0.01656673289835453,-0.018750786781311035,0.17695161700248718
1.7294947439334502e+18,-0.01612113229930401,-0.015382480807602406,0.1790783405303955
1.7294947439424504e+18,-0.015151365660130978,-0.015425515361130238,0.1728392243385315
1.7294947439514506e+18,-0.01802593097090721,-0.0173597764223814,0.17458756268024445
1.7294947439604508e+18,-0.020082987844944,-0.01602775976061821,0.17225340008735657
1.729494743969451e+18,-0.01650598831474781,-0.016538118943572044,0.1720220148563385
1.7294947439784512e+18,-0.018963506445288658,-0.017963770776987076,0.17257216572761536
1.7294947439874514e+18,-0.011960756033658981,-0.01680827885866165,0.1687212735414505
1.7294947439964516e+18,-0.015833858400583267,-0.016493864357471466,0.1665896773338318
1.7294947440054518e+18,-0.020809918642044067,-0.013810213655233383,0.16260254383087158
1.729494744014452e+18,-0.02262173779308796,-0.01599007099866867,0.16333475708961487
1.7294947440234522e+18,-0.019430899992585182,-0.016192488372325897,0.16459615528583527
1.7294947440324524e+18,-0.01954401470720768,-0.018467750400304794,0.16082945466041565
1.7294947440414525e+18,-0.018407372757792473,-0.017589107155799866,0.15942350029945374
1.7294947440504527e+18,-0.01663053222000599,-0.016087625175714493,0.15895625948905945
1.729494744059453e+18,-0.022329185158014297,-0.017618626356124878,0.15288963913917542
1.729494744068453e+18,-0.02233021706342697,-0.016673358157277107,0.15004730224609375
1.7294947440774533e+18,-0.022197378799319267,-0.011198499239981174,0.1516236811876297
1.7294947440834534e+18,-0.021367385983467102,-0.01035350002348423,0.14768953621387482
1.7294947440924536e+18,-0.021730070933699608,-0.013265205547213554,0.1437825709581375
1.729494744104454e+18,-0.023163853213191032,-0.012863965705037117,0.14099273085594177
1.729494744110454e+18,-0.020498031750321388,-0.011025963351130486,0.14193131029605865
1.7294947441194542e+18,-0.02237093448638916,-0.013464013114571571,0.1409684717655182
1.7294947441284544e+18,-0.0210924930870533,-0.015697889029979706,0.13279317319393158
1.7294947441344545e+18,-0.02084081619977951,-0.01442972756922245,0.13573743402957916
1.7294947441434547e+18,-0.023983344435691833,-0.012484856881201267,0.13530784845352173
1.729494744152455e+18,-0.02186482958495617,-0.015829766169190407,0.13049955666065216
1.729494744161455e+18,-0.025078250095248222,-0.01463942788541317,0.1253877878189087
1.7294947441704553e+18,-0.02825273387134075,-0.013215111568570137,0.12059477716684341
1.7294947441764554e+18,-0.026296190917491913,-0.013544055633246899,0.11860721558332443
1.7294947441854556e+18,-0.024523954838514328,-0.015662554651498795,0.1201159879565239
1.7294947441944558e+18,-0.02026047743856907,-0.012427723035216331,0.12112131714820862
1.729494744203456e+18,-0.018539180979132652,-0.009867182932794094,0.11126450449228287
1.7294947442124562e+18,-0.01924300193786621,-0.010259684175252914,0.11381363868713379
1.7294947442214564e+18,-0.018958453088998795,-0.009426524862647057,0.1070844829082489
1.7294947442304566e+18,-0.02237863652408123,-0.008145449683070183,0.10673809051513672
1.7294947442394568e+18,-0.02247111313045025,-0.00667415838688612,0.10229092091321945
1.729494744248457e+18,-0.020329052582383156,-0.009250713512301445,0.10027346014976501
1.7294947442574572e+18,-0.020159892737865448,-0.006614327896386385,0.09976912289857864
1.7294947442664573e+18,-0.017775528132915497,-0.007329093758016825,0.09455947577953339
1.7294947442754575e+18,-0.02249511517584324,-0.016743306070566177,0.09424535930156708
1.7294947442844577e+18,-0.03533554822206497,-0.03337618708610535,0.09336455166339874
1.729494744293458e+18,-0.04774396866559982,-0.05051729828119278,0.08817744255065918
1.729494744299458e+18,-0.05249094218015671,-0.06043772026896477,0.0899721309542656
1.7294947443084582e+18,-0.06001091003417969,-0.07428314536809921,0.08844974637031555
1.7294947443174584e+18,-0.06083190068602562,-0.07724319398403168,0.0850832462310791
1.7294947443264586e+18,-0.05893826112151146,-0.07596979290246964,0.08529364317655563
1.7294947443354588e+18,-0.05354749411344528,-0.07559666782617569,0.0815310925245285
1.729494744344459e+18,-0.05493837222456932,-0.07504778355360031,0.07869108766317368
1.7294947443534592e+18,-0.0507533997297287,-0.07446186244487762,0.08069638162851334
1.7294947443594593e+18,-0.055463943630456924,-0.07924284785985947,0.0756520926952362
1.7294947443714596e+18,-0.058109015226364136,-0.085669606924057,0.07510212808847427
1.7294947443774597e+18,-0.06176820769906044,-0.0901181697845459,0.07322714477777481
1.72949474438646e+18,-0.06405523419380188,-0.09042000025510788,0.07170770317316055
1.72949474439546e+18,-0.058858472853899,-0.08741556853055954,0.07169739902019501
1.7294947444044603e+18,-0.056319549679756165,-0.08460789918899536,0.06560306996107101
1.7294947444134605e+18,-0.051305633038282394,-0.07744188606739044,0.06549879163503647
1.7294947444224607e+18,-0.04554417356848717,-0.07248197495937347,0.0631994903087616
1.7294947444314609e+18,-0.04461946338415146,-0.06886955350637436,0.06304778158664703
1.729494744440461e+18,-0.04810497164726257,-0.06425675749778748,0.062061283737421036
1.7294947444494612e+18,-0.04622325673699379,-0.06734419614076614,0.06299921125173569
1.7294947444584614e+18,-0.040391646325588226,-0.061324652284383774,0.06081165373325348
1.7294947444674616e+18,-0.03387980908155441,-0.06144503876566887,0.058347437530756
1.7294947444764618e+18,-0.029721973463892937,-0.05296199768781662,0.056662291288375854
1.729494744482462e+18,-0.02992832474410534,-0.05056188255548477,0.05397288128733635
1.7294947444914621e+18,-0.027414847165346146,-0.046269576996564865,0.05453220009803772
1.7294947445004623e+18,-0.0256201084703207,-0.04438064247369766,0.053015273064374924
1.7294947445094625e+18,-0.02709805779159069,-0.03701886534690857,0.050449471920728683
1.7294947445184627e+18,-0.026732925325632095,-0.03532608225941658,0.050002485513687134
1.729494744527463e+18,-0.025470804423093796,-0.03441246226429939,0.04982044920325279
1.729494744536463e+18,-0.019879676401615143,-0.028933487832546234,0.04695833474397659
1.7294947445454633e+18,-0.017944546416401863,-0.023364799097180367,0.045544419437646866
1.7294947445514634e+18,-0.01532232016324997,-0.021920595318078995,0.04926133155822754
1.7294947445604636e+18,-0.01586643047630787,-0.01760621927678585,0.046535369008779526
1.7294947445694638e+18,-0.016821810975670815,-0.014772322960197926,0.04194379970431328
1.729494744578464e+18,-0.01634083315730095,-0.016499314457178116,0.04203008487820625
1.7294947445874642e+18,-0.017395643517374992,-0.010543995536863804,0.041878584772348404
1.7294947445964644e+18,-0.01195018645375967,-0.010073304176330566,0.039653293788433075
1.7294947446054646e+18,-0.008436925709247589,-0.0022443505004048347,0.03847011551260948
1.7294947446144648e+18,-0.002564230700954795,-0.0008029810851439834,0.03884518891572952
1.729494744623465e+18,-0.002964851912111044,-0.000545936229173094,0.037555940449237823
1.729494744629465e+18,0.0009508227813057601,0.0008445861167274415,0.03609892353415489
1.7294947446384653e+18,0.0029387720860540867,0.004107296001166105,0.03306209295988083
1.7294947446474655e+18,-0.0002938536345027387,0.002801040420308709,0.03334936127066612
1.7294947446564657e+18,-0.0012164588551968336,-0.0007883342914283276,0.035164203494787216
1.7294947446654659e+18,-0.005414807237684727,0.0010709173511713743,0.03508150205016136
1.729494744674466e+18,-0.0040672700852155685,0.0008452262845821679,0.031868334859609604
1.7294947446834662e+18,-0.0012459625722840428,0.0017838840140029788,0.03259117528796196
1.7294947446924664e+18,0.0046231625601649284,0.004569621291011572,0.03234334662556648
1.7294947446984666e+18,0.003168328432366252,0.008229117840528488,0.03082193061709404
1.7294947447074668e+18,0.005929676815867424,0.010088162496685982,0.0341767817735672
1.729494744716467e+18,0.0041521829552948475,0.009854894131422043,0.02837466262280941
1.7294947447254671e+18,0.0007296139374375343,0.009827735833823681,0.02810736931860447
1.7294947447344673e+18,-0.0018997035222128034,0.008471173234283924,0.026661699637770653
1.7294947447404675e+18,-0.003741143038496375,0.008503858000040054,0.02665337733924389
1.7294947447494676e+18,-0.0029793339781463146,0.011089960113167763,0.028518764302134514
1.7294947447584678e+18,0.00024353223852813244,0.010670894756913185,0.02543061226606369
1.729494744767468e+18,0.001240636222064495,0.01147426851093769,0.024606900289654732
1.7294947447734682e+18,0.0038299397565424442,0.01022422220557928,0.025120778009295464
1.7294947447824684e+18,0.002095138421282172,0.012123022228479385,0.0254640132188797
1.7294947447914685e+18,0.001762653118930757,0.011107825674116611,0.023076847195625305
1.7294947447974687e+18,0.00110157229937613,0.006130448542535305,0.022433249279856682
1.7294947448064689e+18,0.00024715083418413997,0.008599504828453064,0.019422758370637894
1.729494744815469e+18,-0.0005378201603889465,0.011168520897626877,0.023305827751755714
1.7294947448244692e+18,0.006534230429679155,0.013171982020139694,0.02029053308069706
1.7294947448334694e+18,0.007133367471396923,0.018157176673412323,0.01947736367583275
1.7294947448424696e+18,0.00928418803960085,0.015959277749061584,0.02093053236603737
1.7294947448514698e+18,0.013591154478490353,0.01182673592120409,0.0169094055891037
1.72949474485747e+18,0.009508831426501274,0.011159994639456272,0.01814212091267109
1.7294947448664701e+18,0.012494047172367573,0.011960800737142563,0.016774598509073257
1.7294947448754703e+18,0.00951030571013689,0.0109742796048522,0.020503539592027664
1.7294947448844705e+18,0.01274343952536583,0.0115211121737957,0.017427047714591026
1.7294947448934707e+18,0.013327224180102348,0.014163956046104431,0.01580653339624405
1.729494744902471e+18,0.01202795933932066,0.012510724365711212,0.017115285620093346
1.729494744908471e+18,0.013624284416437149,0.013624991290271282,0.015332109294831753
1.7294947449174712e+18,0.014891333878040314,0.012778044678270817,0.017480244860053062
1.7294947449264714e+18,0.013653496280312538,0.014145231805741787,0.01654820516705513
1.7294947449354716e+18,0.019567785784602165,0.012285768054425716,0.015806369483470917
1.7294947449444718e+18,0.014932963065803051,0.017631303519010544,0.012227547354996204
1.729494744953472e+18,0.018295293673872948,0.015768835321068764,0.01335676945745945
1.7294947449624722e+18,0.011428295634686947,0.01843315362930298,0.010733354836702347
1.7294947449714724e+18,0.012294068932533264,0.018381033092737198,0.012149565853178501
1.7294947449774725e+18,0.011479736305773258,0.015912508592009544,0.01055346429347992
1.7294947449864727e+18,0.01836967095732689,0.01497566606849432,0.014468099921941757
1.729494744995473e+18,0.01466896291822195,0.016023727133870125,0.014002261683344841
1.729494745004473e+18,0.01844002865254879,0.021634502336382866,0.009983202442526817
1.7294947450134733e+18,0.019081510603427887,0.0229371078312397,0.010531358420848846
1.7294947450224735e+18,0.015196617692708969,0.02077970840036869,0.011261627078056335
1.7294947450284736e+18,0.017292939126491547,0.021342724561691284,0.010486534796655178
1.7294947450374738e+18,0.014368698000907898,0.020289108157157898,0.010380913503468037
1.729494745046474e+18,0.019214849919080734,0.019816868007183075,0.009549597278237343
1.7294947450554742e+18,0.015181707218289375,0.023100877180695534,0.009631144814193249
1.7294947450644744e+18,0.020928731188178062,0.018787821754813194,0.00568919163197279
1.7294947450704745e+18,0.02322494611144066,0.019268561154603958,0.006534952204674482
1.7294947450794747e+18,0.022145593538880348,0.021465079858899117,0.01019387785345316
1.729494745088475e+18,0.01852491870522499,0.021329795941710472,0.010272160172462463
1.729494745097475e+18,0.018613755702972412,0.021315934136509895,0.006425783038139343
1.7294947451034752e+18,0.020880630239844322,0.021870817989110947,0.00819447636604309
1.7294947451154755e+18,0.024131344631314278,0.021697282791137695,0.005492981057614088
1.7294947451214756e+18,0.02455400861799717,0.020744115114212036,0.005147223826497793
1.7294947451334758e+18,0.02611713670194149,0.02425791136920452,0.009689461439847946
1.729494745142476e+18,0.024144871160387993,0.026568716391921043,0.005189856514334679
1.7294947451514762e+18,0.026397885754704475,0.025764863938093185,0.0046511562541127205
1.7294947451604764e+18,0.02225320041179657,0.02735828049480915,0.003974194172769785
1.7294947451694766e+18,0.024290606379508972,0.026827817782759666,0.007152131758630276
1.7294947451754767e+18,0.02497473731637001,0.028421703726053238,0.005698969587683678
1.729494745184477e+18,0.024959295988082886,0.030470529571175575,0.0017781343776732683
1.7294947451964772e+18,0.02829110249876976,0.028443943709135056,0.0020987135358154774
1.7294947452024773e+18,0.028377480804920197,0.029552601277828217,0.002374610397964716
1.7294947452114775e+18,0.027616003528237343,0.02674025483429432,0.0036789956502616405
1.7294947452204777e+18,0.026955552399158478,0.026800615713000298,0.004966923035681248
1.729494745229478e+18,0.03009229525923729,0.0275922529399395,0.0027881721034646034
1.729494745238478e+18,0.025134773924946785,0.029312951490283012,0.0037783656734973192
1.7294947452474783e+18,0.027939781546592712,0.027049951255321503,0.0012644038069993258
1.7294947452564785e+18,0.03145954757928848,0.029805801808834076,0.002303645946085453
1.7294947452654787e+18,0.030070729553699493,0.026713218539953232,0.0036899344995617867
1.7294947452744788e+18,0.03236166760325432,0.025773517787456512,0.001023894757963717
1.729494745283479e+18,0.03102329559624195,0.026855550706386566,0.004756870213896036
1.7294947452924792e+18,0.033741261810064316,0.027885666117072105,-0.0001127414871007204
1.7294947452984794e+18,0.03214789554476738,0.02346586249768734,9.692495223134756e-05
1.7294947453074796e+18,0.033156778663396835,0.02517101541161537,6.0443999245762825e-05
1.7294947453164797e+18,0.03469223156571388,0.028445713222026825,-0.000881628249771893
1.72949474532548e+18,0.033807799220085144,0.02593597024679184,0.003284054109826684
1.7294947453344801e+18,0.03531799837946892,0.025508850812911987,0.0023613441735506058
1.7294947453404803e+18,0.035136230289936066,0.025755830109119415,-0.0012796043884009123
1.7294947453494804e+18,0.03744222968816757,0.024982821196317673,-0.0010945098474621773
1.7294947453584806e+18,0.035990167409181595,0.024924658238887787,0.00015275125042535365
1.7294947453674808e+18,0.03587755933403969,0.02316104993224144,0.000754441658500582
1.729494745376481e+18,0.03655596822500229,0.026594504714012146,-0.0018106339266523719
1.7294947453884813e+18,0.0344625785946846,0.02788025513291359,-0.0042893411591649055
1.7294947453974815e+18,0.035300008952617645,0.030108604580163956,-0.0015319024678319693
1.7294947454064817e+18,0.03639456257224083,0.027343101799488068,0.0027010974008589983
1.7294947454154819e+18,0.03440466150641441,0.027903297916054726,-0.0007384525379166007
1.729494745424482e+18,0.036415062844753265,0.025369303300976753,-0.0001896504545584321
1.7294947454334822e+18,0.0323161780834198,0.023827750235795975,-0.0023329078685492277
1.7294947454424824e+18,0.03585599735379219,0.027335114777088165,-0.0006261121015995741
1.7294947454484826e+18,0.035998743027448654,0.025383543223142624,0.0008115634554997087
1.7294947454574828e+18,0.039255429059267044,0.0293553676456213,-0.0019977916963398457
1.729494745466483e+18,0.03827795758843422,0.0278768427670002,-0.0012056545820087194
1.7294947454754831e+18,0.03616249933838844,0.02788972109556198,0.0025132778100669384
1.7294947454814833e+18,0.03157316520810127,0.029321158304810524,0.0010742987506091595
1.7294947454904835e+18,0.03287786990404129,0.02639903500676155,-0.002748405560851097
1.7294947454994836e+18,0.031379517167806625,0.02928001433610916,-0.000650079338811338
1.7294947455084838e+18,0.03363843634724617,0.026833226904273033,-0.002071165479719639
1.729494745514484e+18,0.033162567764520645,0.02832403965294361,-0.002130803419277072
1.7294947455234842e+18,0.041148606687784195,0.027614668011665344,-0.0027347153518348932
1.7294947455324844e+18,0.041622985154390335,0.031510647386312485,-0.0038211653009057045
1.7294947455414845e+18,0.03987784683704376,0.030238624662160873,-0.002357853576540947
1.7294947455504847e+18,0.03880682960152626,0.03031737543642521,-0.0017710828687995672
1.729494745559485e+18,0.03537300229072571,0.029702670872211456,-0.003959042951464653
1.729494745568485e+18,0.03903765603899956,0.028215063735842705,-0.0013342705788090825
1.7294947455774853e+18,0.040984056890010834,0.02778329700231552,-0.003033690620213747
1.7294947455864855e+18,0.044864192605018616,0.029529158025979996,-0.0023162467405200005
1.7294947455954857e+18,0.04749016463756561,0.031166426837444305,-0.004072681535035372
1.7294947456014858e+18,0.04309926554560661,0.0299131590873003,-0.0028557421173900366
1.729494745610486e+18,0.041223056614398956,0.02935119718313217,-0.005507327150553465
1.7294947456194862e+18,0.041844140738248825,0.029061563313007355,-0.005672755651175976
1.7294947456284864e+18,0.03996725007891655,0.027053389698266983,-0.002862636698409915
1.7294947456374866e+18,0.04184221476316452,0.026318849995732307,-0.006278040818870068
1.7294947456434867e+18,0.04191354289650917,0.026234367862343788,-0.002205007243901491
1.729494745652487e+18,0.041268445551395416,0.027266982942819595,-0.005224797874689102
1.729494745661487e+18,0.0414615161716938,0.02661796845495701,-0.005311345681548119
1.7294947456704873e+18,0.03944462910294533,0.02818199433386326,-0.004739522468298674
1.7294947456794875e+18,0.037363290786743164,0.027694975957274437,-0.003092152765020728
1.7294947456884877e+18,0.037804123014211655,0.02929377555847168,-0.002312892582267523
1.729494745697488e+18,0.04139653965830803,0.028640158474445343,-0.0028736270032823086
1.729494745706488e+18,0.041860174387693405,0.028264889493584633,-0.004469878040254116
1.7294947457184883e+18,0.04028203710913658,0.023682277649641037,-0.006485262885689735
1.7294947457274885e+18,0.0381496399641037,0.024324944242835045,-0.0034522712230682373
1.7294947457334886e+18,0.03642101585865021,0.02310025319457054,-0.003048103069886565
1.7294947457424888e+18,0.037559814751148224,0.02494959719479084,-0.004699460696429014
1.729494745751489e+18,0.03818558156490326,0.02962809056043625,-0.00240309932269156
1.7294947457604892e+18,0.03955495357513428,0.03008410334587097,-0.0028609090950340033
1.7294947457694894e+18,0.0418478287756443,0.030079202726483345,-0.0026128527242690325
1.7294947457754895e+18,0.04250233992934227,0.026616791263222694,0.00023029418662190437
1.7294947457844897e+18,0.04013260453939438,0.02278931811451912,-0.0022898134775459766
1.72949474579349e+18,0.03558792918920517,0.026128675788640976,-0.0026392010040581226
1.72949474580249e+18,0.037441838532686234,0.025833679363131523,-0.0011189167853444815
1.7294947458114903e+18,0.0357075035572052,0.029276713728904724,-0.00312354089692235
1.7294947458204905e+18,0.03702310472726822,0.023746399208903313,-0.004231138154864311
1.7294947458294907e+18,0.04015059769153595,0.02724904753267765,-0.0058697909116744995
1.729494745838491e+18,0.04046274721622467,0.021867338567972183,-0.00543693732470274
1.729494745847491e+18,0.040292028337717056,0.027053413912653923,-0.002322578337043524
1.7294947458534912e+18,0.03696613013744354,0.023786213248968124,-0.0030037846881896257
1.7294947458624914e+18,0.03775873780250549,0.026224950328469276,-0.0044862511567771435
1.7294947458714916e+18,0.03663702309131622,0.02786453254520893,-0.0029113078489899635
1.7294947458804918e+18,0.03663622587919235,0.029277602210640907,-0.001978927291929722
1.729494745889492e+18,0.03931766003370285,0.024006541818380356,-0.0040130168199539185
1.7294947458984922e+18,0.04074440523982048,0.023451754823327065,-0.0018333825282752514
1.7294947459074924e+18,0.042419422417879105,0.02666858397424221,-0.007801643572747707
1.7294947459164925e+18,0.04246392473578453,0.026118993759155273,-0.00588078610599041
1.7294947459254927e+18,0.039917439222335815,0.02485969103872776,-0.001591589068993926
1.729494745934493e+18,0.03896518051624298,0.024068094789981842,-0.004171994514763355
1.729494745943493e+18,0.037198472768068314,0.02293350175023079,-0.005474605597555637
1.7294947459524933e+18,0.03650367632508278,0.02588527277112007,-0.0031910589896142483
1.7294947459614935e+18,0.03466460853815079,0.023690035566687584,-0.004424161743372679
1.7294947459704937e+18,0.03585756942629814,0.024110354483127594,-0.002008060459047556
1.7294947459764938e+18,0.0358857735991478,0.020184030756354332,-0.003334605833515525
1.729494745988494e+18,0.03409677371382713,0.02266216278076172,-0.00348392385058105
1.7294947459974943e+18,0.031903091818094254,0.02047322690486908,-0.0024484647437930107
1.7294947460064945e+18,0.02796804904937744,0.022629139944911003,-0.004711110144853592
1.7294947460154947e+18,0.02869776263833046,0.02306777611374855,-0.008085057139396667
1.7294947460244948e+18,0.033756330609321594,0.023733653128147125,-0.0027260310016572475
1.729494746030495e+18,0.03494345769286156,0.021551314741373062,-0.0034393451642245054
1.7294947460394952e+18,0.03951156139373779,0.02794014662504196,-0.005120465066283941
1.7294947460484954e+18,0.038510762155056,0.027103519067168236,-0.005421819165349007
1.7294947460574956e+18,0.035745199769735336,0.023515284061431885,-0.00578381447121501
1.7294947460664957e+18,0.03144768998026848,0.0267022792249918,-0.004394440446048975
1.729494746078496e+18,0.027200719341635704,0.02497401461005211,-0.0038125815335661173
1.7294947460844961e+18,0.03269825875759125,0.025771083310246468,-0.003820126410573721
1.7294947460934963e+18,0.03530973941087723,0.024693038314580917,-0.005054047796875238
1.7294947461024965e+18,0.038601234555244446,0.027050022035837173,-0.005111536011099815
1.7294947461114967e+18,0.03600112721323967,0.023732520639896393,-0.003742697648704052
1.729494746123497e+18,0.028662703931331635,0.02581852301955223,-0.006672935094684362
1.7294947461324972e+18,0.022435549646615982,0.02280927635729313,-0.004443583078682423
1.7294947461414973e+18,0.02192695625126362,0.02095884270966053,-0.0036732512526214123
1.7294947461504975e+18,0.023024316877126694,0.022153541445732117,-0.004255629610270262
1.7294947461594977e+18,0.028388138860464096,0.02274283394217491,-0.00464708311483264
1.729494746168498e+18,0.0316649004817009,0.023340653628110886,-0.0026356661692261696
1.729494746177498e+18,0.029183663427829742,0.024838082492351532,-0.0045499736443161964
1.7294947461864983e+18,0.0263761468231678,0.02511129528284073,-0.003797736018896103
1.7294947461954985e+18,0.0190072450786829,0.020284373313188553,-0.0043870736844837666
1.7294947462044987e+18,0.016632359474897385,0.01593731716275215,-0.005156045313924551
1.729494746213499e+18,0.014915264211595058,0.017039764672517776,-0.00654981192201376
1.729494746222499e+18,0.01787809655070305,0.014093798585236073,-0.002464481396600604
1.7294947462314993e+18,0.017774593085050583,0.012742314487695694,-0.004469309002161026
1.7294947462404995e+18,0.02021552063524723,0.017403652891516685,-0.004257561173290014
1.7294947462494996e+18,0.021512070670723915,0.014463808387517929,-0.004263616167008877
1.7294947462584998e+18,0.02380211278796196,0.019523505121469498,-0.0025530033744871616
1.7294947462675e+18,0.018396694213151932,0.01922001503407955,-0.005749338772147894
1.7294947462765002e+18,0.015588009729981422,0.02010706439614296,-0.004350936505943537
1.7294947462855004e+18,0.012476589530706406,0.01604764722287655,-0.00465997401624918
1.7294947462945006e+18,0.015632985159754753,0.015217955224215984,-0.004536525346338749
1.7294947463035008e+18,0.020932359620928764,0.014485526829957962,-0.005589735694229603
1.729494746312501e+18,0.024999966844916344,0.016491465270519257,-0.0056220716796815395
1.7294947463215012e+18,0.027310648933053017,0.017377106472849846,-0.005084026139229536
1.7294947463275013e+18,0.024106569588184357,0.01902914233505726,-0.004041676875203848
1.7294947463365015e+18,0.01766720414161682,0.018958942964673042,-0.00551188550889492
1.7294947463455017e+18,0.012165221385657787,0.015888018533587456,-0.00655327457934618
1.729494746357502e+18,0.011588375084102154,0.012854373082518578,-0.0066878581419587135
1.729494746363502e+18,0.008241230621933937,0.008365144021809101,-0.007834181189537048
1.7294947463725023e+18,0.010695945471525192,0.009014724753797054,-0.004931085743010044
1.7294947463815025e+18,0.0169281754642725,0.009932317771017551,-0.0055654775351285934
1.7294947463905027e+18,0.014230061322450638,0.012059415690600872,-0.005886783357709646
1.7294947463995028e+18,0.010981228202581406,0.013202760368585587,-0.006415492855012417
1.729494746408503e+18,0.008066847920417786,0.013074957765638828,-0.007448905147612095
1.7294947464175032e+18,0.0033060607966035604,0.011430062353610992,-0.0043395766988396645
1.7294947464265034e+18,0.0003943352494388819,0.0089502464979887,-0.0047583747655153275
1.7294947464385037e+18,0.003314429661259055,0.008228219114243984,-0.006061641965061426
1.729494746447504e+18,0.008212083950638771,0.007377338595688343,-0.00504917511716485
1.729494746456504e+18,0.00617462070658803,0.008023479022085667,-0.0028103787917643785
1.7294947464655043e+18,0.005332742817699909,0.0054573966190218925,-0.004473439883440733
1.7294947464745044e+18,0.003213690361008048,0.003999748267233372,-0.002673182636499405
1.7294947464805046e+18,-0.00011710036778822541,0.00961293000727892,-0.006752417888492346
1.7294947464895048e+18,0.0008236581925302744,0.011419725604355335,-0.0038120420649647713
1.729494746498505e+18,3.028224455192685e-05,0.0025793644599616528,-0.004660751670598984
1.7294947465075052e+18,0.00010542082600295544,0.005517435260117054,-0.005760759115219116
1.7294947465165053e+18,0.00545841408893466,0.002323717577382922,-0.004172978922724724
1.7294947465255055e+18,0.0037441770546138287,0.00219779834151268,-0.004563705064356327
1.7294947465345057e+18,0.0012806004378944635,0.005274339113384485,-0.004652912262827158
1.729494746543506e+18,0.0007820226601324975,0.0053657046519219875,-0.005742538720369339
1.729494746552506e+18,-0.004461979493498802,0.009614413604140282,-0.004783711861819029
1.7294947465615063e+18,-0.006005680654197931,0.0013930213171988726,-0.004291946534067392
1.7294947465705065e+18,-0.004888222087174654,0.0006947859656065702,-0.005993280094116926
1.7294947465795067e+18,-0.0037736441008746624,-0.00015624678053427488,-0.004427995532751083
1.7294947465855068e+18,0.0030230276752263308,0.0018949556397274137,-0.007830062881112099
1.729494746594507e+18,0.0014915495412424207,0.0014968933537602425,-0.006139121018350124
1.7294947466035072e+18,0.0069578420370817184,0.0024800391402095556,-0.005854935385286808
1.7294947466125074e+18,0.00015114870620891452,0.0006362793501466513,-0.005578289274126291
1.7294947466215076e+18,-0.004668154753744602,0.004321247339248657,-0.005336224101483822
1.7294947466305078e+18,-0.0039668334648013115,-0.00015273794997483492,-0.007405304349958897
1.729494746639508e+18,-0.0035110851749777794,0.003443824127316475,-0.004969271365553141
1.7294947466485082e+18,0.0008937079110182822,0.002970448462292552,-0.004640956409275532
1.7294947466545083e+18,0.0006586064118891954,0.00023432460147887468,-0.003908945247530937
1.7294947466665085e+18,0.001512361690402031,0.0018490295624360442,-0.005802163854241371
1.7294947466725087e+18,-0.0020560179837048054,-0.0017688765656203032,-0.004518498666584492
1.7294947466815089e+18,-0.0035918690264225006,0.0029879696667194366,-0.005970650352537632
1.729494746690509e+18,-0.005666003562510014,0.0010110574075952172,-0.005823720712214708
1.7294947466995092e+18,-0.009488082490861416,0.00043689156882464886,-0.005645045544952154
1.7294947467055094e+18,-0.00872399564832449,0.003690163604915142,-0.0034314454533159733
1.7294947467145096e+18,-0.00997718796133995,-0.0016945640090852976,-0.005578222218900919
1.7294947467235098e+18,-0.0059052277356386185,-0.00017721194308251143,-0.003954626619815826
1.72949474673251e+18,-0.004465799778699875,-0.0008174027316272259,-0.00535739678889513
1.7294947467415101e+18,-0.006075390614569187,0.0010362674947828054,-0.0027607439551502466
1.7294947467505103e+18,-0.005482593551278114,-0.003628737758845091,-0.0032097874209284782
1.7294947467595105e+18,-0.012744606472551823,-0.0014319253386929631,-0.005144741851836443
1.7294947467685107e+18,-0.013337881304323673,-0.0005367674166336656,-0.005864011589437723
1.7294947467745108e+18,-0.008790360763669014,-0.0002683972707018256,-0.0041918097995221615
1.729494746783511e+18,-0.0111843291670084,0.0010873428545892239,-0.004305072128772736
1.7294947467925112e+18,-0.0029944186098873615,-0.0041662040166556835,-0.005910825915634632
1.7294947467985114e+18,-0.003809805726632476,-0.006450570188462734,-0.006568416953086853
1.7294947468075116e+18,-0.0028199446387588978,-0.005533759947866201,-0.0021520345471799374
1.7294947468165117e+18,-0.003296615555882454,-0.004959404934197664,-0.006103920750319958
1.729494746825512e+18,-0.005446968600153923,-0.004566976800560951,-0.005158438812941313
1.7294947468345121e+18,-0.010648676194250584,-0.004009736701846123,-0.0040130168199539185
1.7294947468405123e+18,-0.013592054136097431,-0.001296356087550521,-0.0028914124704897404
1.7294947468495124e+18,-0.010471316985785961,-0.0013133855536580086,-0.0044262162409722805
1.7294947468585126e+18,-0.0098264766857028,-0.006698468700051308,-0.005702436901628971
1.7294947468675128e+18,-0.007645402103662491,-0.0026283226907253265,-0.006712809205055237
1.729494746876513e+18,-0.006967482157051563,-0.0048943450674414635,-0.008328396826982498
1.7294947468855132e+18,-0.009495115838944912,-0.005965967196971178,-0.003179660765454173
1.7294947468945134e+18,-0.013076625764369965,-0.00549027044326067,-0.004633495118469
1.7294947469005135e+18,-0.01650921255350113,-0.0024346744176000357,-0.006749199703335762
1.7294947469095137e+18,-0.01943375915288925,-0.005845638923346996,-0.003033870831131935
1.729494746918514e+18,-0.01691056601703167,-0.0045446790754795074,-0.005643516778945923
1.729494746927514e+18,-0.014225664548575878,-0.008792873471975327,-0.0048970733769237995
1.7294947469335142e+18,-0.01643514446914196,-0.006166973616927862,-0.003640830749645829
1.7294947469425144e+18,-0.01640639826655388,-0.005501846317201853,-0.005197079852223396
1.7294947469515146e+18,-0.016167575493454933,-0.007871964015066624,-0.005394920241087675
1.7294947469605148e+18,-0.017821775749325752,-0.007053232751786709,-0.003510048147290945
1.729494746969515e+18,-0.021885089576244354,-0.005731448531150818,-0.005229209084063768
1.7294947469755151e+18,-0.018062138929963112,-0.005985317751765251,-0.002055115532130003
1.7294947469845153e+18,-0.02034110017120838,-0.005769557319581509,-0.0015971928369253874
1.7294947469935155e+18,-0.017536969855427742,-0.006868022494018078,-0.004243107978254557
1.7294947470025157e+18,-0.02105725184082985,-0.005339798051863909,-0.005054343957453966
1.7294947470085158e+18,-0.019486773759126663,-0.005680400878190994,-0.005014403257519007
1.729494747017516e+18,-0.022142870351672173,-0.00860691163688898,-0.0039420342072844505
1.7294947470265162e+18,-0.02067958004772663,-0.01046010572463274,-0.004720209166407585
1.7294947470355164e+18,-0.024334784597158432,-0.01182306744158268,-0.00269711809232831
1.7294947470415165e+18,-0.020647922530770302,-0.007585912011563778,-0.004066158551722765
1.7294947470505167e+18,-0.02094528079032898,-0.008322876878082752,-0.0017251793760806322
1.729494747059517e+18,-0.02137569710612297,-0.009275265969336033,-0.0036777278874069452
1.729494747068517e+18,-0.01954525150358677,-0.006024007685482502,-0.0026089923921972513
1.7294947470775173e+18,-0.02294299751520157,-0.006524170748889446,-0.0052023231983184814
1.7294947470835174e+18,-0.02435237169265747,-0.009749253280460835,-0.002586876042187214
1.7294947470925176e+18,-0.02264334075152874,-0.010508757084608078,-0.0029276174027472734
1.7294947471015178e+18,-0.025957796722650528,-0.013944940641522408,-0.0022208704613149166
1.729494747110518e+18,-0.024817585945129395,-0.014401071704924107,-0.0025139502249658108
1.7294947471195182e+18,-0.02283761091530323,-0.009661167860031128,-0.0016991677694022655
1.7294947471285184e+18,-0.023035721853375435,-0.012745365500450134,-0.005071989260613918
1.7294947471375186e+18,-0.023234840482473373,-0.007533792406320572,-0.0052437325939536095
1.7294947471435187e+18,-0.022949472069740295,-0.012597217224538326,-0.0026417667977511883
1.729494747152519e+18,-0.02081640064716339,-0.014564532786607742,-0.0031434628181159496
1.729494747161519e+18,-0.021892203018069267,-0.012742326594889164,-0.004857449326664209
1.7294947471675192e+18,-0.024471232667565346,-0.012530483305454254,-0.004485849291086197
1.7294947471765194e+18,-0.020361656323075294,-0.012123637832701206,-0.0052770571783185005
1.7294947471855196e+18,-0.02246921882033348,-0.012860472314059734,-0.0022371457889676094
1.7294947471945198e+18,-0.021398618817329407,-0.01408678200095892,-0.004629980307072401
1.72949474720052e+18,-0.02165049873292446,-0.012796810828149319,-0.0027923115994781256
1.72949474720952e+18,-0.01996101811528206,-0.012860254384577274,-0.006744777783751488
1.7294947472185203e+18,-0.023147406056523323,-0.012398339807987213,-0.0028185467235744
1.7294947472275205e+18,-0.023130252957344055,-0.01277953665703535,-0.004067476838827133
1.7294947472335206e+18,-0.022376704961061478,-0.0089512187987566,-0.004932880867272615
1.7294947472425208e+18,-0.02170144021511078,-0.015225211158394814,-0.004998728632926941
1.729494747251521e+18,-0.02372080832719803,-0.012781938537955284,-0.00563836982473731
1.7294947472575212e+18,-0.025236910209059715,-0.01337187085300684,-0.005358436144888401
1.7294947472665213e+18,-0.027228252962231636,-0.013775221072137356,-0.0027810942847281694
1.7294947472755215e+18,-0.02493387833237648,-0.012236500158905983,-0.004971954971551895
1.7294947472845217e+18,-0.0234827883541584,-0.011424477212131023,-0.004643522668629885
1.729494747293522e+18,-0.024484878405928612,-0.01392724271863699,-0.004799939692020416
1.729494747302522e+18,-0.02800101600587368,-0.012705126777291298,-0.002613990567624569
1.7294947473085222e+18,-0.020217522978782654,-0.012577008455991745,-0.006185760721564293
1.7294947473175224e+18,-0.025181638076901436,-0.013140222057700157,-0.00532149663195014
1.7294947473265226e+18,-0.027552494779229164,-0.014818646013736725,-0.006041022948920727
1.7294947473325228e+18,-0.025817634537816048,-0.014675662852823734,-0.003934075124561787
1.729494747341523e+18,-0.02497711218893528,-0.009940924122929573,-0.00370382284745574
1.7294947473505231e+18,-0.02583385817706585,-0.010713879950344563,-0.0010861128102988005
1.7294947473595233e+18,-0.026163538917899132,-0.006902461871504784,-0.0027359563391655684
1.7294947473685235e+18,-0.02688574232161045,-0.011483701877295971,-0.0015866674948483706
1.7294947473745236e+18,-0.02629665471613407,-0.009695671498775482,-0.004793153144419193
1.7294947473835238e+18,-0.025196660310029984,-0.009153463877737522,-0.003911260981112719
1.729494747392524e+18,-0.02875102497637272,-0.013452532701194286,-0.0033745854161679745
1.7294947474015242e+18,-0.02703017182648182,-0.014485042542219162,-0.007409675046801567
1.7294947474105244e+18,-0.0276056919246912,-0.012207016348838806,-0.0014340889174491167
1.7294947474195246e+18,-0.02959248423576355,-0.012320728041231632,-0.00033325375989079475
1.7294947474255247e+18,-0.025943191722035408,-0.012751935049891472,-0.0008773633744567633
1.729494747434525e+18,-0.028300853446125984,-0.012411808595061302,-0.003737478284165263
1.729494747443525e+18,-0.02525055594742298,-0.00961464736610651,-0.0054627093486487865
1.7294947474495252e+18,-0.025306612253189087,-0.012126713059842587,-0.007202189415693283
1.7294947474585254e+18,-0.02775338478386402,-0.014826091006398201,-0.0017006820999085903
1.7294947474675256e+18,-0.02710665389895439,-0.013745085336267948,-0.0054007405415177345
1.7294947474765258e+18,-0.028269458562135696,-0.01448894664645195,-0.00495004141703248
1.729494747482526e+18,-0.02794238179922104,-0.011191346682608128,-0.004373133182525635
1.7294947474915261e+18,-0.029583636671304703,-0.009849846363067627,-0.003167593851685524
1.7294947475005263e+18,-0.026776766404509544,-0.009085620753467083,-0.0023864787071943283
1.7294947475095265e+18,-0.024397099390625954,-0.012794148176908493,-0.0039839791133999825
1.7294947475155267e+18,-0.02281961590051651,-0.015004407614469528,-0.003659822978079319
1.7294947475245268e+18,-0.022722279652953148,-0.013718292117118835,-0.0008442550897598267
1.729494747533527e+18,-0.026358352974057198,-0.015124291181564331,-0.008486512117087841
1.7294947475395272e+18,-0.02890690416097641,-0.016609743237495422,-0.004237679298967123
1.7294947475485274e+18,-0.03036395274102688,-0.01457674615085125,-0.002384285908192396
1.7294947475575276e+18,-0.02966642938554287,-0.015340989455580711,-0.002313756849616766
1.7294947475635277e+18,-0.029628751799464226,-0.012234179303050041,-0.0007743856403976679
1.7294947475725279e+18,-0.0293135903775692,-0.012052234262228012,-0.004259193316102028
1.729494747581528e+18,-0.026552369818091393,-0.016425160691142082,-0.0039727045223116875
1.7294947475875282e+18,-0.02333522029221058,-0.018473060801625252,-0.0048918104730546474
1.7294947475965284e+18,-0.01864389330148697,-0.01352967880666256,-0.0020076828077435493
1.7294947476055286e+18,-0.024005157873034477,-0.014270024374127388,-0.0040148403495550156
1.7294947476145288e+18,-0.027534708380699158,-0.01448996365070343,-0.0022659343667328358
1.729494747620529e+18,-0.02890046127140522,-0.012911496683955193,-0.004241566639393568
1.729494747629529e+18,-0.029158620163798332,-0.011932439170777798,-0.004052437841892242
1.7294947476385293e+18,-0.02865280583500862,-0.013877264223992825,-0.0014396823244169354
1.7294947476475295e+18,-0.028843991458415985,-0.016232930123806,-0.004976184107363224
1.7294947476535296e+18,-0.02509346418082714,-0.014166751876473427,-0.0031282694544643164
1.7294947476625298e+18,-0.022968458011746407,-0.01368039008229971,0.0006306269206106663
1.72949474767153e+18,-0.019358377903699875,-0.015990331768989563,-0.004902574233710766
1.72949474767753e+18,-0.023696111515164375,-0.0167325958609581,-0.001186285400763154
1.7294947476865303e+18,-0.025957714766263962,-0.014966609887778759,-0.0027302533853799105
1.7294947476955305e+18,-0.02919863350689411,-0.016101432964205742,-0.005304945632815361
1.7294947477045307e+18,-0.03176530823111534,-0.014924755319952965,-0.004989691078662872
1.729494747713531e+18,-0.0278495904058218,-0.010699466802179813,-0.0032290613744407892
1.729494747719531e+18,-0.03112155571579933,-0.015160871669650078,-0.0018360960530117154
1.7294947477285312e+18,-0.02927001193165779,-0.013549063354730606,-0.003867727005854249
1.7294947477375314e+18,-0.02588186040520668,-0.018801700323820114,-0.0027177827432751656
1.7294947477435315e+18,-0.025364935398101807,-0.019769029691815376,-0.005821500439196825
1.7294947477525317e+18,-0.02224314771592617,-0.014964909292757511,-0.001998733263462782
1.729494747761532e+18,-0.028077954426407814,-0.015514589846134186,-0.0028357794508337975
1.729494747770532e+18,-0.026062430813908577,-0.011333698406815529,-0.005224836990237236
1.7294947477765322e+18,-0.02965274639427662,-0.010167698375880718,-0.0013223111163824797
1.7294947477855324e+18,-0.033593323081731796,-0.012420120649039745,-0.0024819953832775354
1.7294947477915325e+18,-0.030738718807697296,-0.011632091365754604,-0.002787576289847493
1.7294947478005327e+18,-0.027789942920207977,-0.011795632541179657,-0.0015963431214913726
1.729494747809533e+18,-0.02670687809586525,-0.01640329696238041,-0.002225899137556553
1.729494747815533e+18,-0.025597020983695984,-0.014600779861211777,-0.0019365459447726607
1.7294947478245332e+18,-0.023027965798974037,-0.01413800846785307,0.00029139709658920765
1.7294947478335334e+18,-0.02528158575296402,-0.013930653221905231,-0.006618755869567394
1.7294947478425336e+18,-0.024590812623500824,-0.011897150427103043,-0.003636603942140937
1.7294947478485338e+18,-0.028977036476135254,-0.01037769764661789,0.00013182079419493675
1.729494747857534e+18,-0.03285395726561546,-0.015553543344140053,-0.003775072982534766
1.7294947478665341e+18,-0.036478638648986816,-0.01380632258951664,-0.002119230106472969
1.7294947478755343e+18,-0.028600886464118958,-0.016416901722550392,-0.002036970341578126
1.7294947478815345e+18,-0.029527924954891205,-0.01875520870089531,-0.0025936036836355925
1.7294947478905347e+18,-0.02729232795536518,-0.01373969204723835,-0.002396202180534601
1.7294947478995348e+18,-0.02416248433291912,-0.014862657524645329,-0.003852680092677474
1.729494747908535e+18,-0.02946232631802559,-0.012773576192557812,-0.002273480175063014
1.7294947479175352e+18,-0.028443198651075363,-0.014290481805801392,-0.004945548251271248
1.7294947479235354e+18,-0.02777744270861149,-0.01512997504323721,-0.004192279186099768
1.7294947479325356e+18,-0.027269667014479637,-0.012600002810359001,-0.0023213019594550133
1.7294947479415357e+18,-0.023518536239862442,-0.014530071057379246,-0.004358645528554916
1.729494747950536e+18,-0.024692369624972343,-0.0147075355052948,-0.003851011162623763
1.729494747959536e+18,-0.022702869027853012,-0.013497277162969112,-0.005205555818974972
1.7294947479715364e+18,-0.02402382530272007,-0.011890091001987457,-0.003352976404130459
1.7294947479805366e+18,-0.02700900286436081,-0.013042169623076916,-0.001231742207892239
1.7294947479865367e+18,-0.027618607506155968,-0.013647781684994698,-0.0024381745606660843
1.729494747995537e+18,-0.022800523787736893,-0.009695131331682205,-0.0009372688364237547
1.7294947480075372e+18,-0.022653136402368546,-0.013626041822135448,-0.0017403934616595507
1.7294947480135373e+18,-0.02241739258170128,-0.012254077009856701,-0.0025817151181399822
1.7294947480225375e+18,-0.02270946092903614,-0.012897493317723274,-0.0025153516326099634
1.7294947480315377e+18,-0.0258643701672554,-0.01808537356555462,-0.002807562705129385
1.7294947480405379e+18,-0.024837074801325798,-0.01645679771900177,-0.002936634235084057
1.729494748049538e+18,-0.026814430952072144,-0.02018646150827408,-0.0005792059237137437
1.7294947480555382e+18,-0.02353990077972412,-0.013992775231599808,-0.0014604923781007528
1.7294947480645384e+18,-0.02543599158525467,-0.013935270719230175,-0.004038710612803698
1.7294947480705385e+18,-0.025997551158070564,-0.016211682930588722,-0.0025926886592060328
1.7294947480795387e+18,-0.024888554587960243,-0.01869238168001175,-0.0022044535726308823
1.729494748088539e+18,-0.023845789954066277,-0.016397347673773766,-0.0019051278941333294
1.729494748097539e+18,-0.02527635730803013,-0.020824119448661804,-0.0018418942345306277
1.7294947481035392e+18,-0.02353901043534279,-0.018319664523005486,0.0002236079890280962
1.7294947481125394e+18,-0.022629989311099052,-0.019677452743053436,-0.0019117253832519054
1.7294947481215396e+18,-0.026148371398448944,-0.019205065444111824,-0.002937894780188799
1.7294947481305398e+18,-0.02603406272828579,-0.016581343486905098,-0.002509277081117034
1.72949474813654e+18,-0.024755369871854782,-0.016536656767129898,-0.002660965546965599
1.72949474814554e+18,-0.022852497175335884,-0.016858279705047607,-0.0004961369559168816
1.7294947481545403e+18,-0.021480679512023926,-0.0123596815392375,-0.0014298611786216497
1.7294947481635405e+18,-0.02076866663992405,-0.015810566022992134,-0.0016677870880812407
1.7294947481695406e+18,-0.01780938357114792,-0.012476073578000069,-0.0013068951666355133
1.7294947481785408e+18,-0.020439818501472473,-0.014513776637613773,-0.0034104438964277506
1.729494748187541e+18,-0.02414226159453392,-0.014286136254668236,-0.0019516304600983858
1.7294947481965412e+18,-0.026166509836912155,-0.01493392325937748,-0.0018844043370336294
1.7294947482025413e+18,-0.025581661611795425,-0.013213131576776505,-0.002318139187991619
1.7294947482115415e+18,-0.0208625178784132,-0.016388367861509323,-0.000982550554908812
1.7294947482205417e+18,-0.01459172647446394,-0.01438082568347454,0.0002193956170231104
1.729494748232542e+18,-0.01488518062978983,-0.012928543612360954,-0.00487793143838644
1.7294947482415421e+18,-0.016505826264619827,-0.013468895107507706,-0.004607133101671934
1.7294947482535424e+18,-0.019757289439439774,-0.013998896814882755,-0.004034902434796095
1.7294947482625426e+18,-0.024502329528331757,-0.013319579884409904,-0.0027425773441791534
1.7294947482715428e+18,-0.021543772891163826,-0.01233855914324522,-0.0030175158753991127
1.729494748277543e+18,-0.01842113584280014,-0.008803926408290863,-0.0009794380748644471
1.729494748286543e+18,-0.015166551806032658,-0.012802677229046822,-0.002181433141231537
1.7294947482955433e+18,-0.011542176827788353,-0.009936750866472721,-0.0008689053356647491
1.7294947483045435e+18,-0.006964412517845631,-0.007437150925397873,-0.002104154322296381
1.7294947483105436e+18,-0.01048407331109047,-0.0064751096069812775,-0.002929294016212225
1.7294947483195438e+18,-0.01117818895727396,-0.0073854317888617516,-0.002735934918746352
1.729494748328544e+18,-0.009190958924591541,-0.010130254551768303,-8.688610978424549e-05
1.7294947483375442e+18,-0.015623921528458595,-0.01216604933142662,-0.0024899195414036512
1.7294947483465444e+18,-0.01867983303964138,-0.013204071670770645,-0.001966831274330616
1.7294947483555446e+18,-0.017770325765013695,-0.013386426493525505,-0.0004515557084232569
1.7294947483615447e+18,-0.01776476763188839,-0.010325205512344837,-0.0006078772712498903
1.729494748370545e+18,-0.015383644960820675,-0.00997338816523552,-0.0026412424631416798
1.729494748379545e+18,-0.012932881712913513,-0.011371198110282421,-0.002870954107493162
1.7294947483885453e+18,-0.013347377069294453,-0.009478176943957806,-0.0031016310676932335
1.7294947483975455e+18,-0.012720689177513123,-0.00950603373348713,-0.0017535316292196512
1.7294947484035456e+18,-0.011704712174832821,-0.015157358720898628,-0.0044777002185583115
1.7294947484125458e+18,-0.015169132500886917,-0.011491894721984863,-0.0014851537998765707
1.729494748421546e+18,-0.014700393192470074,-0.010985851287841797,-0.003125397488474846
1.7294947484305462e+18,-0.013659730553627014,-0.012815393507480621,-0.0003886949270963669
1.7294947484395464e+18,-0.012626219540834427,-0.012195093557238579,-0.004058324731886387
1.7294947484455465e+18,-0.007651765830814838,-0.013678508810698986,-0.0036745602265000343
1.7294947484545467e+18,-0.010202202014625072,-0.012156239710748196,-0.0019053390715271235
1.729494748463547e+18,-0.010775112546980381,-0.014280005358159542,-0.0012902552261948586
1.729494748472547e+18,-0.010311284102499485,-0.009143853560090065,-0.003337798174470663
1.7294947484785472e+18,-0.013646339997649193,-0.007975202985107899,-0.0015613149153068662
1.7294947484875474e+18,-0.010971109382808208,-0.0107487253844738,-0.002130864653736353
1.7294947484965476e+18,-0.011819016188383102,-0.010808883234858513,-0.00418555922806263
1.7294947485055478e+18,-0.007459299638867378,-0.009580130688846111,-0.002569026779383421
1.729494748511548e+18,-0.00896491203457117,-0.009591781534254551,-0.00136870751157403
1.729494748520548e+18,-0.011976594105362892,-0.00540131377056241,-0.0014137363759800792
1.7294947485295483e+18,-0.012316344305872917,-0.00745465699583292,-0.00030073977541178465
1.7294947485385485e+18,-0.012760432437062263,-0.009445268660783768,-0.003141176188364625
1.7294947485445486e+18,-0.011913553811609745,-0.009733221493661404,-0.002040135907009244
1.7294947485535488e+18,-0.00752153480425477,-0.007188346236944199,-0.004228766541928053
1.729494748562549e+18,-0.003415819490328431,-0.008226241916418076,-0.00323274964466691
1.729494748568549e+18,-0.003511684713885188,-0.006059550680220127,-0.001590999774634838
1.7294947485775493e+18,-0.001030782237648964,-0.004314525052905083,-0.0017588894115760922
1.7294947485865495e+18,-0.007725568953901529,-0.004361854866147041,0.0005282125202938914
1.7294947485985498e+18,-0.009382539428770542,-0.007863259874284267,-0.001924634794704616
1.72949474861055e+18,-0.00926946010440588,-0.00401515094563365,-0.003435049904510379
1.7294947486165501e+18,-0.010142245329916477,-0.005764828063547611,-0.002178426133468747
1.7294947486255503e+18,-0.004494627472013235,-0.006912350654602051,-0.000993369147181511
1.7294947486345505e+18,-0.0022756343241780996,-0.0035367212258279324,0.0013844893546774983
1.7294947486465508e+18,-0.0012657580664381385,-0.0030726403929293156,-0.0019944144878536463
1.729494748655551e+18,-0.001888512633740902,-0.006973665207624435,-0.000713908695615828
1.729494748661551e+18,-0.005519263446331024,-0.003819454926997423,-0.003276912262663245
1.7294947486705513e+18,-0.0011249763192608953,-0.003119892906397581,-0.0036122093442827463
1.7294947486795515e+18,-0.0030119698494672775,-0.004046510439366102,-0.004289684351533651
1.7294947486855516e+18,0.0017126211896538734,-0.005505833774805069,-0.00117374153342098
1.7294947486945518e+18,-0.0020206004846841097,-0.006519591435790062,-0.0028106807731091976
1.729494748703552e+18,0.002030228730291128,-0.007473329547792673,-0.002606409601867199
1.7294947487125522e+18,-0.0012014660751447082,-0.005754445679485798,-0.0003611705033108592
1.7294947487185523e+18,-0.002350721275433898,-0.0031973267905414104,0.0026005744002759457
1.7294947487275525e+18,-0.0024144002236425877,-0.0023140585981309414,-5.643803160637617e-05
1.7294947487365527e+18,0.0015565049834549427,-0.0023359772749245167,-0.002824174240231514
1.7294947487425528e+18,0.0036800787784159184,-0.00033450417686253786,-0.0011323882499709725
1.729494748751553e+18,0.0009765273425728083,-0.003140662796795368,-0.0011758569162338972
1.7294947487665533e+18,0.0023489154409617186,-0.005017131567001343,0.001269036321900785
1.7294947487725535e+18,0.0014755567535758018,-0.0022969618439674377,-0.003260137513279915
1.7294947487815537e+18,-0.0018530786037445068,-0.0012234090827405453,0.0008738253964111209
1.7294947487905539e+18,-0.0005166226765140891,-0.00025799544528126717,-0.0031371908262372017
1.729494748796554e+18,0.00037211249582469463,-0.002556700026616454,-0.0006398835685104132
1.7294947488055542e+18,0.0045811510644853115,-0.0020268973894417286,-0.0025578560307621956
1.7294947488145544e+18,0.005868139676749706,-0.0036718270275741816,-0.0023033234756439924
1.7294947488205545e+18,0.007147565018385649,-0.003171226242557168,-0.0021170773543417454
1.7294947488325548e+18,0.004463174846023321,-0.001979230437427759,-0.0011812939774245024
1.729494748841555e+18,0.00036235246807336807,-0.001790778711438179,-0.0004887869581580162
1.729494748847555e+18,0.00576032605022192,-0.0017514664214104414,-0.002114886650815606
1.7294947488565553e+18,0.004500240553170443,0.00027163291815668344,-0.002797087887302041
1.7294947488625554e+18,0.0025473495479673147,0.0003983213100582361,-0.0012280808296054602
1.7294947488715556e+18,0.0004610505420714617,0.0005793413147330284,0.00018341140821576118
1.7294947488805558e+18,0.004624982364475727,-0.0006450217915698886,-0.0012637721374630928
1.729494748886556e+18,0.00469979690387845,-0.0024338061921298504,-0.0007528105052188039
1.729494748895556e+18,0.007582719437777996,-0.0029894025065004826,-0.0023170618806034327
1.7294947489045563e+18,0.007276104297488928,-0.0005385582335293293,-0.0015265826368704438
1.7294947489105564e+18,0.008157169446349144,-0.0016190179158002138,-0.0021544573828577995
1.7294947489195566e+18,0.007666303776204586,-0.0013877731980755925,-0.0009079418960027397
1.7294947489285568e+18,0.007707816548645496,-0.0007878312608227134,-0.0019380749436095357
1.729494748934557e+18,0.005731869488954544,-0.0020845115650445223,-0.0013727960176765919
1.729494748943557e+18,0.0062708319164812565,-0.0034606275148689747,-0.0024099915754050016
1.7294947489525573e+18,0.011020468547940254,-0.0021766475401818752,-0.0007504159002564847
1.7294947489585574e+18,0.011139594949781895,-0.0054878536611795425,-0.0020049558952450752
1.7294947489675576e+18,0.009311853908002377,-0.0032944893464446068,-0.002627863548696041
1.7294947489765578e+18,0.015044121071696281,0.0004446950333658606,-0.003701460547745228
1.729494748982558e+18,0.006617921870201826,0.002839457942172885,-0.00272553414106369
1.7294947489915581e+18,0.005653482396155596,-0.00033401872497051954,-0.0031043258495628834
1.7294947490005583e+18,0.006392465904355049,0.0008930652984417975,-0.0028547272086143494
1.7294947490065585e+18,0.006069487426429987,-0.00016143565881066024,-0.0004553885664790869
1.7294947490155587e+18,0.009618891403079033,-0.0008713785209693015,-0.0013214065693318844
1.7294947490245588e+18,0.013157770968973637,0.0025557817425578833,-0.0009759413078427315
1.729494749033559e+18,0.013488302938640118,-0.0006511129904538393,-0.0033641746267676353
1.7294947490425592e+18,0.012321258895099163,-0.00011730787809938192,-0.0015211541904136539
1.7294947490515594e+18,0.01163508277386427,0.0019450371619313955,-0.0012025637552142143
1.7294947490605596e+18,0.008617699146270752,0.002678669523447752,-0.0006258929497562349
1.7294947490695598e+18,0.008435207419097424,0.0033316626213490963,0.0011804873356595635
1.72949474907856e+18,0.010561901144683361,-0.0004713907837867737,0.00015106855425983667
1.7294947490845601e+18,0.011823509819805622,-0.0005062173004262149,-0.0015603171195834875
1.7294947490965604e+18,0.015271635726094246,0.005845982581377029,-0.0011278484016656876
1.7294947491025605e+18,0.01808103732764721,0.005025961436331272,-0.001861966447904706
1.7294947491115607e+18,0.013058794662356377,0.004454724956303835,-0.0026863133534789085
1.729494749120561e+18,0.009013425558805466,0.005875897128134966,-0.0027039162814617157
1.729494749126561e+18,0.009730126708745956,0.003913049586117268,-0.0012236925540491939
1.7294947491355612e+18,0.0142145324498415,-0.000595111632719636,-0.002198990900069475
1.7294947491445614e+18,0.009018901735544205,0.004572623409330845,0.00070051325019449
1.7294947491505615e+18,0.011843591928482056,-0.0010307886404916644,0.0017761476337909698
1.7294947491595617e+18,0.013940752483904362,-0.00038783508352935314,-0.0014561163261532784
1.7294947491655619e+18,0.018125277012586594,0.00309932348318398,-0.0022724876180291176
1.729494749174562e+18,0.018527589738368988,0.00419573625549674,-0.002507561817765236
1.7294947491835622e+18,0.01794332079589367,0.004559080582112074,0.0011013018665835261
1.7294947491925624e+18,0.01994146965444088,0.004876401275396347,0.0005113686202093959
1.7294947491985626e+18,0.017768025398254395,0.0011385983088985085,-0.0010315915569663048
1.7294947492075628e+18,0.017051756381988525,0.0026156576350331306,-0.0006806105957366526
1.729494749216563e+18,0.014912812039256096,0.0025352395605295897,-0.002380435587838292
1.729494749222563e+18,0.017398422583937645,0.002777368761599064,-0.0034535923041403294
1.7294947492315633e+18,0.014485054649412632,0.006069705821573734,-0.003106606425717473
1.7294947492405635e+18,0.015439899638295174,0.005594030022621155,-0.0016556972404941916
1.7294947492465636e+18,0.016062414273619652,0.0035204789601266384,-0.0038097931537777185
1.7294947492555638e+18,0.017477616667747498,0.0025061548221856356,0.001866193488240242
1.729494749264564e+18,0.020439816638827324,-0.0026155957020819187,-0.0006838429835624993
1.729494749270564e+18,0.019009659066796303,-0.0006254876498132944,-0.002138537587597966
1.7294947492795643e+18,0.017159011214971542,0.0002596591366454959,-0.0022539589554071426
1.7294947492885645e+18,0.01941373199224472,0.0023303739726543427,-0.0005743543733842671
1.7294947492945646e+18,0.016172880306839943,0.002151662949472666,-0.0015583434142172337
1.7294947493035648e+18,0.016307733952999115,0.003930801525712013,-0.00041776790749281645
1.729494749312565e+18,0.017365876585245132,0.003771465504541993,0.00016639474779367447
1.7294947493215652e+18,0.014155052602291107,0.0033291419968008995,-0.001269400236196816
1.7294947493275653e+18,0.019735068082809448,-0.0004892370197921991,0.0018770250026136637
1.7294947493365655e+18,0.01619734801352024,0.001991187920793891,-0.0007701361319050193
1.7294947493455657e+18,0.018699493259191513,0.0022267107851803303,-4.005269147455692e-05
1.7294947493515658e+18,0.020015286281704903,0.005416235886514187,-0.0012616199674084783
1.729494749360566e+18,0.017214853316545486,0.0032391860149800777,0.00013999035581946373
1.7294947493665661e+18,0.018230469897389412,0.005763281136751175,-0.002642023377120495
1.7294947493755663e+18,0.009305604733526707,0.0053781140595674515,-0.0023143328726291656
1.7294947493845665e+18,0.013269028626382351,0.004704981576651335,0.0005488466704264283
1.7294947493935667e+18,0.014898614957928658,0.0040752761997282505,-0.0015209673438221216
1.7294947493995668e+18,0.016204863786697388,0.005173434969037771,-0.0007226542220450938
1.729494749408567e+18,0.38053953647613525,0.31998950242996216,-0.012586357071995735
1.7294947494175672e+18,1.0260255336761475,0.8756719827651978,-0.024585023522377014
1.7294947494235674e+18,1.4875630140304565,1.2665297985076904,-0.0391315333545208
1.7294947494325676e+18,2.2197060585021973,1.7597631216049194,-0.05951840803027153
1.7294947494415677e+18,2.741278648376465,2.0006844997406006,-0.07564065605401993
1.729494749447568e+18,2.8917107582092285,2.0177524089813232,-0.08970049023628235
1.729494749456568e+18,2.861649513244629,1.8902207612991333,-0.112270288169384
1.7294947494655683e+18,2.6617953777313232,1.732538104057312,-0.13444799184799194
1.7294947494715684e+18,2.5190622806549072,1.6606450080871582,-0.14772051572799683
1.7294947494805686e+18,2.4314563274383545,1.665224552154541,-0.1685751974582672
1.7294947494895688e+18,2.5346791744232178,1.767813801765442,-0.1894967257976532
1.729494749498569e+18,2.7397842407226562,1.878058910369873,-0.2100968062877655
1.7294947495075692e+18,2.9041364192962646,1.9177199602127075,-0.22752487659454346
1.7294947495135693e+18,2.9268085956573486,1.8856807947158813,-0.2405686378479004
1.7294947495225695e+18,2.7980430126190186,1.7521196603775024,-0.2567804157733917
1.7294947495315697e+18,2.5005321502685547,1.562870740890503,-0.2735062539577484
1.7294947495375698e+18,2.272325038909912,1.4431840181350708,-0.29066845774650574
1.72949474954657e+18,1.9932774305343628,1.3049571514129639,-0.3040693402290344
1.7294947495555702e+18,1.8466558456420898,1.2273162603378296,-0.31904077529907227
1.7294947495615703e+18,1.8291128873825073,1.1953750848770142,-0.32782694697380066
1.7294947495705705e+18,1.856245756149292,1.1595432758331299,-0.34070658683776855
1.7294947495795707e+18,1.8703566789627075,1.0999605655670166,-0.35742679238319397
1.729494749588571e+18,1.7683898210525513,0.9936768412590027,-0.3639586269855499
1.729494749594571e+18,1.634947419166565,0.9004251956939697,-0.3748367428779602
1.7294947496035712e+18,1.3667118549346924,0.7544620037078857,-0.3870181143283844
1.7294947496125714e+18,1.1048945188522339,0.6272528767585754,-0.39670097827911377
1.7294947496215716e+18,0.9097356796264648,0.5261384844779968,-0.4019047021865845
1.7294947496305718e+18,0.8112829923629761,0.4576779305934906,-0.41107237339019775
1.729494749639572e+18,0.8013916611671448,0.399869829416275,-0.4191298484802246
1.7294947496485722e+18,0.7989838123321533,0.34680768847465515,-0.42624932527542114
1.7294947496545723e+18,0.7754893898963928,0.3025679886341095,-0.4333696961402893
1.7294947496635725e+18,0.6930987238883972,0.23174229264259338,-0.4371001422405243
1.7294947496725727e+18,0.5211465954780579,0.14639241993427277,-0.44325631856918335
1.7294947496785728e+18,0.39100733399391174,0.08671816438436508,-0.4490703046321869
1.729494749687573e+18,0.2041136473417282,0.010361324064433575,-0.4469175338745117
1.7294947496965732e+18,0.09451646357774734,-0.0435798205435276,-0.45473337173461914
1.7294947497025733e+18,0.06395340710878372,-0.0666448175907135,-0.4612838625907898
1.7294947497115735e+18,0.0598607063293457,-0.10023760050535202,-0.46347546577453613
1.7294947497205737e+18,0.09608946740627289,-0.12205560505390167,-0.4672122299671173
1.729494749729574e+18,0.09904231131076813,-0.15021340548992157,-0.4660699665546417
1.729494749735574e+18,0.0664236769080162,-0.17738033831119537,-0.47022849321365356
1.7294947497445742e+18,-0.017840271815657616,-0.20803701877593994,-0.4732753038406372
1.7294947497535744e+18,-0.1311950534582138,-0.23786261677742004,-0.4719580411911011
1.7294947497625746e+18,-0.23317064344882965,-0.26797086000442505,-0.47645753622055054
1.7294947497685747e+18,-0.2724747657775879,-0.28391793370246887,-0.47733861207962036
1.729494749777575e+18,-0.27734270691871643,-0.29489096999168396,-0.4757973551750183
1.729494749786575e+18,-0.24492378532886505,-0.3049730658531189,-0.47622159123420715
1.7294947497955753e+18,-0.20753246545791626,-0.30965256690979004,-0.47542041540145874
1.7294947498015754e+18,-0.19736050069332123,-0.3166448771953583,-0.47512173652648926
1.7294947498105756e+18,-0.22553421556949615,-0.32548269629478455,-0.4745146930217743
1.7294947498195758e+18,-0.2832888066768646,-0.33541417121887207,-0.47287580370903015
1.729494749825576e+18,-0.3261098563671112,-0.3423335552215576,-0.4708363711833954
1.7294947498345761e+18,-0.3777948319911957,-0.3482126295566559,-0.4697442948818207
1.7294947498405763e+18,-0.3995172679424286,-0.34855860471725464,-0.4674496352672577
1.7294947498495764e+18,-0.3946261703968048,-0.35013294219970703,-0.46723201870918274
1.7294947498585766e+18,-0.3657914996147156,-0.34949514269828796,-0.46250930428504944
1.7294947498645768e+18,-0.3435843884944916,-0.3494938015937805,-0.4646977484226227
1.729494749873577e+18,-0.31965553760528564,-0.34718671441078186,-0.4613819718360901
1.7294947498825772e+18,-0.31785330176353455,-0.3458913564682007,-0.45796677470207214
1.7294947498915773e+18,-0.34114059805870056,-0.340233713388443,-0.4533005654811859
1.7294947499005775e+18,-0.3646743893623352,-0.33663129806518555,-0.4482661783695221
1.7294947499095777e+18,-0.3914119005203247,-0.33633434772491455,-0.442604660987854
1.729494749918578e+18,-0.3926748037338257,-0.32895156741142273,-0.43878409266471863
1.729494749924578e+18,-0.3794894218444824,-0.3299911916255951,-0.4369315505027771
1.7294947499335782e+18,-0.35266944766044617,-0.32418301701545715,-0.4327792227268219
1.7294947499425784e+18,-0.3251529335975647,-0.32421037554740906,-0.430440753698349
