timestamp,gyro_x,gyro_y,gyro_z
1.721572602966198e+18,0.0024638595059514046,0.0009970348328351974,-0.0007649109466001391
1.7215726029751982e+18,0.0021938749123364687,-0.0007239277474582195,0.0019029768882319331
1.7215726029841984e+18,0.0010482141515240073,-0.0023700108285993338,0.0010879230685532093
1.7215726029901985e+18,0.0007441282505169511,-0.001445068046450615,0.0021658872719854116
1.7215726029961987e+18,0.0007537851925007999,-0.0023517890367656946,0.003346697660163045
1.7215726030021988e+18,0.0009049943182617426,-0.00032163935247808695,-0.0013492105063050985
1.721572603008199e+18,-0.0010816234862431884,-0.000693847774527967,0.002019750652834773
1.721572603011199e+18,0.0014566164463758469,-0.0025952928699553013,-0.0004198100068606436
1.721572603017199e+18,0.0022003338672220707,0.003986739087849855,0.0006345660658553243
1.7215726030231992e+18,-0.0005700816982425749,-0.001059164060279727,-0.0016026005614548922
1.7215726030291994e+18,-0.0007452082354575396,0.00031133912852965295,0.0019562290981411934
1.7215726030351995e+18,-0.0016401573084294796,0.001395976054482162,0.0005367494304664433
1.7215726030411996e+18,-0.0010680198902264237,-0.0016035543521866202,-0.0016277661779895425
1.7215726030471997e+18,-0.002060871571302414,-0.0010342014720663428,-0.003228262532502413
1.7215726030532e+18,-0.001091540209017694,-0.0031687086448073387,0.00019060280465055257
1.7215726030592e+18,-0.0016137061174958944,0.0005569579661823809,-0.00034587850677780807
1.7215726030652e+18,-0.0005739193875342607,-0.0017348920227959752,-0.0034864526242017746
1.7215726030712003e+18,0.000580564490519464,-0.004370689857751131,-0.0023370475973933935
1.7215726030772004e+18,0.0017435324843972921,0.0020405957475304604,-0.00040993321454152465
1.7215726030832005e+18,0.00016475650772918016,-0.0003800712001975626,0.0014349714620038867
1.7215726030892006e+18,-0.0003810943162534386,-0.0005952971987426281,-0.0012958148727193475
1.7215726030952008e+18,0.004184047691524029,-0.0007182604749687016,0.0002468965540174395
1.7215726030982008e+18,-0.0028267453890293837,-0.0001302437885897234,-0.001237155287526548
1.721572603107201e+18,0.002159992465749383,0.0011354265734553337,-0.0029080528765916824
1.7215726031132012e+18,-0.0010542565723881125,-0.002105063060298562,0.0008892157347872853
1.7215726031192013e+18,-0.0008410540176555514,-0.0005228277295827866,0.00022647048172075301
1.7215726031252014e+18,-0.0002211605169577524,0.0010721819708123803,0.0013003313215449452
1.7215726031312015e+18,-4.937011544825509e-05,0.0013919746270403266,-0.0017087041633203626
1.7215726031402017e+18,0.0014279619790613651,0.0014923373237252235,-4.4394753786036745e-05
1.7215726031462019e+18,0.0005950926570221782,-0.0014678006991744041,-0.00014751234266441315
1.721572603152202e+18,0.0017269991803914309,-0.0005212152609601617,0.00144875212572515
1.721572603158202e+18,-5.1703267672564834e-05,-0.0024200868792831898,0.0003466156485956162
1.7215726031672023e+18,-0.0023524777498096228,0.0013393951812759042,3.4368404158158228e-06
1.7215726031732024e+18,0.0007742455927655101,-0.000800394278485328,0.0008400135557167232
1.7215726031792026e+18,-0.002230457728728652,0.002856817562133074,0.0007701684953644872
1.7215726031852027e+18,-0.0010502022923901677,-0.0015552103286609054,-0.0009636157192289829
1.7215726031912028e+18,0.001336210872977972,-0.0009745531133376062,0.0026261107996106148
1.721572603197203e+18,-0.00016158864309545606,0.00012891009100712836,0.0046544382348656654
1.721572603203203e+18,0.0001956848573172465,-0.0020273372065275908,-0.0004846084339078516
1.7215726032092032e+18,0.0010909494012594223,-0.001455472782254219,0.0007464195950888097
1.7215726032152033e+18,-0.0008419228252023458,-0.0006254593026824296,0.0010986598208546638
1.7215726032212035e+18,-0.0013206212315708399,0.0017612759256735444,-0.00025225416175089777
1.7215726032272036e+18,0.0007626174483448267,0.0024119559675455093,0.0006210135761648417
1.7215726032332037e+18,0.000355070544173941,-0.0026291729882359505,0.000758201873395592
1.7215726032392038e+18,6.206532998476177e-05,-0.000500011199619621,0.0010099976789206266
1.721572603245204e+18,0.0012072604149580002,0.0013780740555375814,-5.781025538453832e-05
1.721572603251204e+18,0.0009589470573700964,0.0018301752861589193,0.002819417044520378
1.7215726032572042e+18,0.0028351552318781614,-0.0005282668862491846,-0.0008437217329628766
1.7215726032632044e+18,-0.0011687723454087973,-2.0329800463514403e-05,-0.0014371635625138879
1.7215726032692045e+18,-0.00035913637839257717,0.0010778665309771895,-0.00011061840632464737
1.7215726032752046e+18,0.0006796247907914221,0.0008113055373542011,0.0023316512815654278
1.7215726032812047e+18,0.00018813431961461902,-0.00043484088382683694,-0.0017105159349739552
1.7215726032872049e+18,0.002544226124882698,0.0008207845385186374,-0.0010570185258984566
1.721572603293205e+18,0.0013491468271240592,-0.002745667938143015,-0.0005343161174096167
1.721572603299205e+18,-0.001281294971704483,-0.0007835287251509726,0.0012656667968258262
1.7215726033022052e+18,0.00041979464003816247,-0.0018188096582889557,-0.0002736628521233797
1.7215726033082053e+18,0.0003654955653473735,0.0026372468564659357,0.0006162897916510701
1.7215726033142054e+18,-0.0017971794586628675,0.001205412670969963,-0.0011513123754411936
1.7215726033232056e+18,0.0003572182322386652,-0.0017221384914591908,0.0012879946734756231
1.7215726033292058e+18,0.00358246685937047,0.0002593241515569389,0.0017609081696718931
1.7215726033322058e+18,0.0019653106573969126,-0.00010665836452972144,0.0010704920860007405
1.721572603338206e+18,-0.0058298311196267605,-0.0030385900754481554,0.003020001808181405
1.721572603344206e+18,-0.0023179156705737114,-0.0008472194895148277,0.00022821703169029206
1.7215726033502062e+18,-0.0003438386193010956,0.0010047737741842866,-9.27097353269346e-05
1.7215726033562063e+18,-0.001529807923361659,-0.002686786698177457,-0.00035512499744072556
1.7215726033622065e+18,-0.0008127711480483413,-0.0010224160505458713,-0.0003889717918355018
1.7215726033682066e+18,-0.0022511843126267195,-0.0020730681717395782,0.0001763984764693305
1.7215726033742067e+18,-0.0004786518984474242,0.0017932797782123089,-0.0017838702769950032
1.7215726033802068e+18,-0.0011135190725326538,-0.0008017782238312066,0.001432707766070962
1.721572603386207e+18,-0.0015123963821679354,-0.0010009099496528506,0.0032195555977523327
1.721572603392207e+18,0.002163822064176202,0.0022686063311994076,6.920328360138228e-06
1.7215726033952072e+18,-0.0008243172196671367,-0.0006757089286111295,-0.00043735155486501753
1.7215726034012073e+18,-0.0016412509139627218,0.0015634734882041812,-0.003290516557171941
1.7215726034072074e+18,0.0030247399117797613,0.0004117536300327629,-0.001844540936872363
1.7215726034132076e+18,0.0010941370856016874,-0.000884084147401154,-0.0029544809367507696
1.7215726034192077e+18,-0.0011005871929228306,-0.0003252771857660264,0.002584930742159486
1.7215726034252078e+18,-0.0009812685893848538,-9.045807382790372e-05,0.0009084515040740371
1.721572603431208e+18,-0.0003890654188580811,0.0006502726464532316,-0.0021057347767055035
1.721572603437208e+18,-0.0014708482194691896,0.0011696764267981052,1.776507997419685e-05
1.7215726034432082e+18,-0.0009504063636995852,-0.0004258137778379023,-0.0010813911212608218
1.7215726034492083e+18,0.0014968033647164702,0.0020103035494685173,0.0035544196143746376
1.7215726034552084e+18,-0.0023917651269584894,-0.0008120070560835302,-0.0006314548081718385
1.7215726034612086e+18,-0.0005300748161971569,0.00037361454451456666,0.0004183092969469726
1.7215726034672087e+18,0.003290641587227583,-0.0011114362860098481,-0.0036425048019737005
1.7215726034702088e+18,-3.4763867006404325e-05,0.0007140650413930416,-0.003695555031299591
1.721572603476209e+18,0.0018613898428156972,-0.0004437972093001008,0.00038548719021491706
1.721572603482209e+18,-0.0009311191970482469,9.118975140154362e-05,-0.00011819160863524303
1.7215726034882092e+18,-0.0026323210913687944,0.0010490569984540343,-0.0026365292724221945
1.7215726034942093e+18,0.002879352541640401,0.002396402880549431,0.0023444630205631256
1.7215726034972093e+18,-0.0004984529805369675,0.0015510746743530035,0.001032889704219997
1.7215726035032095e+18,-0.000843274756334722,0.0008876019273884594,-0.00030668952967971563
1.7215726035092096e+18,0.0009402850992046297,-0.0002696880546864122,-0.00018594098219182342
1.7215726035152097e+18,-0.0014742198400199413,-0.0013489435659721494,-0.0006913253455422819
1.7215726035212099e+18,-0.003002256853505969,-0.0006674902979284525,-0.00014981857384555042
1.72157260352721e+18,-0.0009642295772209764,-1.8736793208518066e-05,0.0005187866627238691
1.72157260353321e+18,0.0006474683177657425,-0.0018708595307543874,-0.0021511067170649767
1.7215726035392102e+18,-0.001679384964518249,-0.001024058205075562,0.0004316221456974745
1.7215726035452104e+18,0.0009318205993622541,0.00028630465385504067,0.0013057568576186895
1.7215726035482104e+18,0.00014877576904837042,0.0027611495461314917,-0.0027885015588253736
1.7215726035542106e+18,0.0009115180000662804,0.0001548155560158193,0.0013878782046958804
1.7215726035602107e+18,0.0008827997953630984,0.00015024401363916695,0.0007048809784464538
1.7215726035662108e+18,-0.00016202418191824108,-0.0002247463125968352,0.0007044937810860574
1.721572603569211e+18,0.0027804600540548563,0.0010220789117738605,-0.002608552575111389
1.721572603575211e+18,-0.001144374255090952,0.0016267652390524745,0.0004914913442917168
1.7215726035812111e+18,0.002328539500012994,0.0014794423477724195,0.0004807261866517365
1.7215726035872113e+18,-0.0016831370303407311,0.001059067784808576,0.002452573971822858
1.7215726035932114e+18,-4.436454037204385e-05,-0.0007280821446329355,0.002028415212407708
1.7215726035992115e+18,0.0003123783098999411,-0.0003607546095736325,-0.0009184067603200674
1.7215726036052116e+18,0.0031891101971268654,0.0026189470663666725,-0.002128106541931629
1.7215726036112118e+18,-0.002568927127867937,0.00023868767311796546,0.0011781086213886738
1.721572603617212e+18,0.0002398451033513993,-0.0014870829181745648,0.0013913634466007352
1.721572603623212e+18,0.0016945000970736146,0.0017303724307566881,-0.0008582787122577429
1.7215726036292122e+18,0.001479496480897069,0.0005411063320934772,-0.000555030710529536
1.7215726036322122e+18,-0.000654384377412498,0.0019027473172172904,0.0018077968852594495
1.7215726036382124e+18,-0.0012334157945588231,-0.0011686384677886963,-0.0010553902247920632
1.7215726036442125e+18,0.0016124526737257838,-0.00039327843114733696,-0.0007892554858699441
1.7215726036502126e+18,0.0022251647897064686,0.0007282289443537593,0.0012992119882255793
1.7215726036562127e+18,0.0008033306803554296,0.0013051501009613276,-0.00037435951526276767
1.7215726036622129e+18,-0.00016870396211743355,-0.0015879329293966293,0.0005425872514024377
1.721572603668213e+18,0.00039194501005113125,-0.0019852793775498867,0.0016691708005964756
1.721572603674213e+18,-0.00019728345796465874,0.0003758153470698744,-0.00011100657866336405
1.7215726036802132e+18,0.0015498277498409152,0.0023861173540353775,-0.0007662257994525135
1.7215726036862134e+18,0.0007143130642361939,-0.003308593761175871,-9.734911873238161e-05
1.7215726036922135e+18,-0.00022082972282078117,0.0009046055492945015,0.001727432943880558
1.7215726036982136e+18,-0.0009274972253479064,-0.0010407250374555588,0.00036072032526135445
1.7215726037042138e+18,0.004620589781552553,-0.001334690605290234,-9.960536408470944e-05
1.721572603710214e+18,-1.5092186004039831e-05,-0.00039844930870458484,0.0004158226365689188
1.721572603716214e+18,0.0010397374862805009,-0.002130798762664199,-0.0027964843902736902
1.7215726037222141e+18,-0.0023337542079389095,-0.0005220717866905034,-0.00014408175775315613
1.7215726037282143e+18,-0.0024498177226632833,-6.338994717225432e-05,0.0009906827472150326
1.7215726037342144e+18,0.00026483775582164526,-0.0014354839222505689,0.0016517590265721083
1.7215726037402145e+18,0.0006868722848594189,0.002080135978758335,-0.0005014065536670387
1.7215726037462147e+18,0.0007248749607242644,-0.0016728591872379184,0.0028115040622651577
1.7215726037492147e+18,-0.0013864851789548993,-0.0009835421806201339,-0.0008550769416615367
1.7215726037552148e+18,0.00020751576812472194,0.0012214394519105554,-0.00123264966532588
1.721572603764215e+18,-0.0012868314515799284,-0.0002494415093678981,0.0018881272990256548
1.721572603767215e+18,-0.00017934995412360877,0.002578670158982277,-0.0015863190637901425
1.7215726037732152e+18,-8.327632531290874e-05,0.0009297634824179113,-0.0004968608845956624
1.7215726037792154e+18,-0.0004603280976880342,9.572807175572962e-05,0.0017027022549882531
1.7215726037852155e+18,-0.00204704818315804,0.0019578831270337105,0.0005377150373533368
1.7215726037912156e+18,-0.004688621498644352,0.0022354323882609606,-0.000885347428265959
1.7215726037972157e+18,-0.0004920315113849938,0.0016225454164668918,0.0029150662012398243
1.721572603806216e+18,-0.0011914626229554415,-0.0015299483202397823,-0.0015834070509299636
1.721572603809216e+18,0.0015950206434354186,0.0005599064752459526,0.003702647751197219
1.721572603815216e+18,0.0008657067664898932,-0.0015845285961404443,0.0005868464941158891
1.7215726038212163e+18,0.003217055695131421,0.0018421009881421924,-0.0002393499162280932
1.7215726038272164e+18,-0.0006515264976769686,0.00036763784009963274,-0.00033194158459082246
1.7215726038332165e+18,-0.0008405245607718825,0.0004515614709816873,0.0027980790473520756
1.7215726038362166e+18,0.0007576356292702258,0.0004317071579862386,0.0016940386267378926
1.7215726038422167e+18,0.0004679326375480741,-0.0005112148937769234,-0.002156125381588936
1.7215726038482168e+18,0.0017684553749859333,-0.00045408192090690136,0.0014020369853824377
1.721572603854217e+18,-0.001375562627799809,-0.0032959040254354477,0.00017760743503458798
1.721572603857217e+18,0.002175686415284872,-0.0005554615636356175,-0.001268321997486055
1.7215726038632172e+18,-0.0008252811967395246,-0.0019633483607321978,0.00016653227794449776
1.7215726038692173e+18,-0.00088988192146644,0.00018105226627085358,-0.001346610370092094
1.7215726038722173e+18,-0.0004843256319873035,-0.0005004058475606143,-0.002124708378687501
1.7215726038782175e+18,-0.0018705817637965083,0.002212594263255596,0.0020175762474536896
1.7215726038842176e+18,0.00044556264765560627,-5.038298695581034e-05,-0.0011519152903929353
1.7215726038902177e+18,-0.0011676171561703086,-0.0014776741154491901,0.0023843736853450537
1.7215726038962179e+18,0.0027041772846132517,0.0010238292161375284,0.002371715847402811
1.721572603899218e+18,0.0014835675247013569,-0.00021401152480393648,-0.0005060917465016246
1.721572603905218e+18,0.001315764500759542,0.0015034001553431153,0.0030564137268811464
1.7215726039112182e+18,-0.001681003370322287,0.0039003321435302496,-0.002340947277843952
1.7215726039172183e+18,-0.0023234370164573193,-0.003471754491329193,-0.0034735905937850475
1.7215726039232184e+18,-0.00039832881884649396,-0.00038346819928847253,-0.0022372982930392027
1.7215726039292186e+18,0.001156123005785048,-0.001848523155786097,-0.0016216263175010681
1.7215726039352187e+18,0.002808641642332077,-0.0011158837005496025,-0.0021364211570471525
1.7215726039412188e+18,0.004006738308817148,0.0006723247352056205,0.0010421290062367916
1.721572603947219e+18,-0.0004360002058092505,0.000489815603941679,-0.0005354133318178356
1.721572603953219e+18,0.00027424300787970424,0.00047741466551087797,-0.001909442711621523
1.7215726039592192e+18,-0.002679568948224187,-0.00017529231263324618,-0.0023446453269571066
1.7215726039652193e+18,-0.000999200507067144,-0.0021761623211205006,0.0010775815462693572
1.7215726039712195e+18,-0.0003983564965892583,-0.0010856728767976165,0.0005089212208986282
1.7215726039742195e+18,-0.0018672398291528225,-0.0030930633656680584,-0.0006505431374534965
1.7215726039802196e+18,0.0015119400341063738,-0.0008587156189605594,0.002308926545083523
1.7215726039862198e+18,-0.0005513764335773885,-0.00045204165508039296,0.001542255049571395
1.72157260399222e+18,-0.00016231488552875817,-0.0013578750658780336,0.0018201468046754599
1.72157260399822e+18,0.0009774490026757121,0.0001052400839398615,-4.84048268845072e-06
1.7215726040042202e+18,0.0018490557558834553,0.0005581896402873099,0.0007353032706305385
1.7215726040102203e+18,-0.001542758080177009,0.0012594315921887755,0.0011675609275698662
1.7215726040162204e+18,-7.700730202486739e-05,0.002125181257724762,-2.8892196496599354e-05
1.7215726040222205e+18,4.469717896427028e-05,0.0037219529040157795,-0.001580718089826405
1.7215726040282207e+18,-0.0003646597033366561,-0.00027727746055461466,0.0006401614518836141
1.7215726040342208e+18,-0.0016848186496645212,-0.000534584338311106,-0.003816742915660143
1.721572604040221e+18,-0.00048151513328775764,-0.00033305046963505447,0.002784652868285775
1.721572604046221e+18,0.004041978158056736,0.0014689686940982938,0.0001649366895435378
1.7215726040522212e+18,0.0004751216038130224,-0.00020527142623905092,-0.0005968334735371172
1.7215726040552212e+18,0.0018866276368498802,0.0014171093935146928,0.001158483442850411
1.7215726040612214e+18,-0.001835349714383483,-0.0018977683503180742,-0.0009015884716063738
1.7215726040672215e+18,0.0016844868659973145,-0.0017013109754770994,0.002222551265731454
1.7215726040732216e+18,-0.0027934592217206955,0.0009723062394186854,-0.0014887242577970028
1.7215726040762217e+18,-0.0005418238579295576,-0.00040151237044483423,0.0008867148426361382
1.721572604085222e+18,0.001282692770473659,0.0007120861555449665,0.0007420828333124518
1.721572604088222e+18,0.00026875160983763635,-0.0008949408656917512,-0.0010944498935714364
1.721572604094222e+18,-0.0001336421410087496,0.0012809453764930367,-0.0018688556738197803
1.7215726041002222e+18,0.0007861584890633821,-0.0019071288406848907,0.0031775357201695442
1.7215726041062223e+18,-0.0003869091160595417,-3.475696939858608e-05,-0.0006638618069700897
1.7215726041122225e+18,0.003016199916601181,-0.00018009745690505952,0.0027848430909216404
1.7215726041182226e+18,0.001844168291427195,-0.00038430807762779295,-0.0010392569238319993
1.7215726041242227e+18,0.002665265230461955,0.0012219188502058387,0.0027120327576994896
1.7215726041272228e+18,0.0026697751600295305,-0.0024326383136212826,-1.5271847587428056e-05
1.721572604133223e+18,0.0017297138692811131,-0.00013982481323182583,-0.002166606020182371
1.721572604139223e+18,0.000924004998523742,0.0020315656438469887,-0.0018036337569355965
1.7215726041452232e+18,-0.0012169268447905779,0.0005006144638173282,-3.272367030149326e-05
1.7215726041512233e+18,0.0017923483392223716,-0.00027559054433368146,0.001169071183539927
1.7215726041572234e+18,0.0026760795153677464,0.0002715828886721283,0.00044389558024704456
1.7215726041632236e+18,-0.002123318612575531,-0.0016812857938930392,-0.0018541020108386874
1.7215726041692237e+18,-0.0004910886636935174,-0.0023296589497476816,-0.00048131414223462343
1.7215726041752238e+18,0.0010178998345509171,0.0017181389266625047,0.0002847531286533922
1.721572604181224e+18,9.215337195200846e-05,0.004424272570759058,-0.0007868784014135599
1.721572604187224e+18,-0.002427601022645831,0.004003096371889114,-0.0018006993923336267
1.7215726041932242e+18,0.00014660757733508945,0.0036663401406258345,-0.0032922206446528435
1.7215726041992243e+18,0.0002886657603085041,-2.94572782877367e-05,0.0002936616656370461
1.7215726042052244e+18,-0.0017759572947397828,-0.001428139628842473,0.0013960497453808784
1.7215726042112246e+18,0.0025209749583154917,-0.0014240889577195048,-8.057778904912993e-05
1.7215726042172247e+18,0.001910340622998774,-0.0009768373565748334,-0.0032713443506509066
1.7215726042202248e+18,-0.0003130401892121881,-0.0006693221512250602,-0.0002932799106929451
1.721572604229225e+18,0.0037323033902794123,0.0012449241476133466,0.0007186910952441394
1.721572604235225e+18,-0.0025906399823725224,0.0012927617644891143,-0.001902863965369761
1.7215726042412252e+18,-0.0023478269577026367,-0.00200828374363482,0.0031359647400677204
1.7215726042472253e+18,0.0008142737788148224,0.0005164980539120734,-0.001421495107933879
1.7215726042502254e+18,0.0018138553714379668,0.000894556287676096,0.0019336484838277102
1.7215726042562255e+18,-0.0016260063275694847,-0.0001183770946227014,-0.000173766486113891
1.7215726042622257e+18,0.00030015292577445507,-0.0011462236288934946,2.0360384951345623e-05
1.7215726042682258e+18,-1.731327938614413e-05,0.0031230382155627012,-0.0013472039718180895
1.721572604274226e+18,0.0016548510175198317,0.0016855599824339151,-0.0007711277576163411
1.721572604280226e+18,-1.1648526196950115e-05,-0.00025257881497964263,-0.0005520427948795259
1.721572604283226e+18,0.0019416101276874542,-0.0004526952398009598,0.0025013950653374195
1.7215726042892262e+18,-0.0024256145115941763,-0.003975096624344587,-9.579435572959483e-05
1.7215726042952264e+18,-7.362170435953885e-05,0.0005551125505007803,-0.0019738159608095884
1.7215726043012265e+18,0.0011307867243885994,-0.004420354496687651,0.0027657609898597
1.7215726043072266e+18,0.0016326925251632929,0.0004714682581834495,0.00028246393776498735
1.7215726043132268e+18,0.003461499698460102,-0.001256739255040884,-0.0021189218387007713
1.721572604319227e+18,-0.00341911893337965,0.0008195451810024679,0.00033114117104560137
1.721572604322227e+18,-0.0010553415631875396,-0.00033131931559182703,-0.0017952832859009504
1.721572604328227e+18,-0.0014429041184484959,-0.0016891611739993095,-0.0015301619423553348
1.7215726043342272e+18,0.00017693905101623386,-0.0007237332174554467,-0.0035510591696947813
1.7215726043402273e+18,-0.002981086727231741,-0.00033529638312757015,0.001151341712102294
1.7215726043462275e+18,-0.0002470407052896917,0.0029157535172998905,0.0006817371468059719
1.7215726043522276e+18,-0.0007325102924369276,-0.002177214017137885,0.001917700981721282
1.7215726043582277e+18,0.000875823141541332,0.00042825518175959587,-0.000479966081911698
1.7215726043642278e+18,0.0021979305893182755,0.0005041335825808346,0.0025123984087258577
1.721572604370228e+18,0.00023372891882900149,-0.0010110486764460802,-0.00371822458691895
1.721572604376228e+18,-0.002854409394785762,0.0007898388430476189,0.0021466088946908712
1.7215726043822282e+18,-0.0012105073546990752,-0.0010512411827221513,-0.00025506154634058475
1.7215726043882284e+18,0.0012347656302154064,-0.0014084152644500136,-0.0017427270067855716
1.7215726043942285e+18,0.00045645804493688047,-0.003380715847015381,-0.000610262097325176
1.7215726044002286e+18,-0.0025441308971494436,0.0001684743183432147,0.0020767415408045053
1.7215726044032287e+18,0.0010039935586974025,0.0009150220430456102,-0.00022748469200450927
1.7215726044122289e+18,0.0010696440003812313,0.00020539444813039154,-0.0018149014795199037
1.721572604418229e+18,0.001516113057732582,-0.00030994665576145053,-0.0011392298620194197
1.721572604421229e+18,-0.0009581925696693361,-0.0005601001321338117,0.0015908511122688651
1.7215726044272292e+18,0.0008507971069775522,0.0014383140951395035,-0.0015932265669107437
1.7215726044332293e+18,-0.0012965758796781301,0.00036320023355074227,-0.0009556825971230865
1.7215726044392294e+18,0.0008408749708905816,-0.0019084812374785542,0.0011698660673573613
1.7215726044452296e+18,-3.416933395783417e-05,0.0004968515713699162,-0.001917083514854312
1.7215726044512297e+18,0.0017066339496523142,0.0031443138141185045,-0.0018695537000894547
1.7215726044572298e+18,-0.004020903259515762,-0.0007705168682150543,-3.905638004653156e-05
1.72157260446323e+18,0.0035853583831340075,-0.0005286901141516864,-0.0015157235320657492
1.72157260446923e+18,0.000930296431761235,-0.0030426224693655968,-0.0010743570746853948
1.7215726044722301e+18,5.007577783544548e-06,-0.0006180360214784741,-0.00208565266802907
1.7215726044782303e+18,0.000721723772585392,0.0006336240912787616,0.0010200138203799725
1.7215726044842304e+18,-0.0006974001880735159,0.0006736622890457511,0.004158320836722851
1.7215726044902305e+18,-0.0025230958126485348,0.0010931462747976184,0.0016986163100227714
1.7215726044932306e+18,0.001475235796533525,-0.0038178141694515944,0.0003167765971738845
1.7215726044992307e+18,-0.0003384453884791583,-0.0003147218085359782,0.004000414162874222
1.7215726045052308e+18,0.00019289832562208176,0.001763853244483471,0.0012937098508700728
1.721572604511231e+18,-0.00258711539208889,-0.003343519289046526,-0.001403697649948299
1.721572604517231e+18,-0.003954191692173481,0.00020381738431751728,0.0009399521513842046
1.7215726045232312e+18,-0.002162695163860917,0.0014162338338792324,0.0017329782713204622
1.7215726045292314e+18,0.0002556371910031885,0.002266142750158906,-0.00037806041655130684
1.7215726045352315e+18,-0.00025619269581511617,0.0014789282577112317,0.00020700220193248242
1.7215726045412316e+18,-0.0017946426523849368,0.0018186363158747554,0.0015341949183493853
1.7215726045472317e+18,0.0009352788329124451,0.0002553155936766416,-0.0024246457032859325
1.721572604553232e+18,0.0007461870554834604,0.0005737124592997134,0.0012571114348247647
1.721572604559232e+18,0.0015794159844517708,0.002911278512328863,0.00022747056209482253
1.721572604562232e+18,-0.0017298338934779167,0.003387890988960862,3.0181770853232592e-05
1.7215726045682322e+18,0.00011178790737176314,-0.00204866542480886,-0.002711453940719366
1.7215726045742323e+18,-0.0016448727110400796,-0.0012693853350356221,-0.002926579210907221
1.7215726045772324e+18,0.0005081216804683208,-0.0030695367604494095,-0.0011766930110752583
1.7215726045832325e+18,0.0008129122434183955,-0.0005106526077724993,-0.0017254144186154008
1.7215726045892326e+18,0.0012605880619958043,-8.218444418162107e-05,-0.0010244211880490184
1.7215726045952328e+18,0.0009167428943328559,-0.0020377514883875847,-0.000607169815339148
1.721572604601233e+18,0.0005426980787888169,0.0007523941458202899,0.0020953144412487745
1.721572604607233e+18,5.94754601479508e-05,0.0017798629123717546,-0.0027066634502261877
1.7215726046132332e+18,-0.0009308665757998824,0.003146885894238949,-0.00025096393073908985
1.7215726046282335e+18,0.00025142639060504735,-0.0012735698837786913,-0.0004247084725648165
1.7215726046342336e+18,-0.00036517868284136057,0.0008423482067883015,-0.002889733063057065
1.7215726046402337e+18,-0.00022684206487610936,-0.002618568018078804,0.0021224503871053457
1.7215726046462339e+18,0.00011181808804394677,-0.0022079083137214184,-0.0014002237003296614
1.721572604652234e+18,0.0022931857965886593,0.00023612497898284346,-0.0010838581947609782
1.721572604658234e+18,-0.0008857158245518804,0.00028800865402445197,-0.0035265081096440554
1.7215726046642342e+18,-0.006293876096606255,0.02003098651766777,0.0014905587304383516
1.7215726046702344e+18,-0.0176427960395813,0.05060563236474991,0.003664606250822544
1.7215726046732344e+18,-0.024797039106488228,0.06535723060369492,0.004316743463277817
1.7215726046792346e+18,-0.031709522008895874,0.08947382867336273,0.002215019427239895
1.7215726046852347e+18,-0.04282161593437195,0.11604596674442291,0.0011507514864206314
1.7215726046912348e+18,-0.0473494678735733,0.13160985708236694,0.0043697962537407875
1.721572604697235e+18,-0.04611017927527428,0.14003199338912964,0.004745684564113617
1.721572604703235e+18,-0.04013867676258087,0.13941317796707153,0.007890783250331879
1.7215726047122353e+18,-0.03525950387120247,0.12455549091100693,0.008235390298068523
1.7215726047152353e+18,-0.031841736286878586,0.11991517245769501,0.008646166883409023
1.7215726047242355e+18,-0.030681751668453217,0.10989540815353394,0.011147928424179554
1.7215726047302356e+18,-0.02936854586005211,0.10784457623958588,0.009055695496499538
1.7215726047362358e+18,-0.03478298336267471,0.10714256763458252,0.013111117295920849
1.721572604742236e+18,-0.03796222060918808,0.11421681195497513,0.01117186900228262
1.721572604748236e+18,-0.04045092687010765,0.12310898303985596,0.013417120091617107
1.7215726047572362e+18,-0.04083792120218277,0.12387663871049881,0.016771305352449417
1.7215726047632364e+18,-0.03991299867630005,0.12941928207874298,0.016168635338544846
1.7215726047692365e+18,-0.038137100636959076,0.12514035403728485,0.018547017127275467
1.7215726047752366e+18,-0.034597624093294144,0.11704404652118683,0.01904049888253212
1.7215726047812367e+18,-0.02908296138048172,0.10905519127845764,0.019842946901917458
1.7215726047872369e+18,-0.024566469714045525,0.10300733894109726,0.01751754991710186
1.721572604793237e+18,-0.0230870321393013,0.09291485697031021,0.020680250599980354
1.721572604796237e+18,-0.023486971855163574,0.08984021097421646,0.018940353766083717
1.7215726048022372e+18,-0.020724881440401077,0.08344437927007675,0.020782338455319405
1.7215726048082373e+18,-0.021186621859669685,0.08074571937322617,0.022153865545988083
1.7215726048112374e+18,-0.02434379793703556,0.0793343037366867,0.02117287740111351
1.7215726048172375e+18,-0.021743616089224815,0.07732807844877243,0.02075851708650589
1.7215726048232376e+18,-0.024001140147447586,0.07196982949972153,0.02131636254489422
1.7215726048292378e+18,-0.025405267253518105,0.07111421972513199,0.024295706301927567
1.721572604835238e+18,-0.022615736350417137,0.06984439492225647,0.02918655052781105
1.721572604838238e+18,-0.022079089656472206,0.0650830790400505,0.02738318033516407
1.721572604844238e+18,-0.019767003133893013,0.06418617814779282,0.024794278666377068
1.7215726048472381e+18,-0.01703338511288166,0.061577342450618744,0.026121847331523895
1.7215726048532383e+18,-0.011217731051146984,0.052979689091444016,0.025040971115231514
1.7215726048592384e+18,-0.010250807739794254,0.04913735017180443,0.029086902737617493
1.7215726048652385e+18,-0.007069909479469061,0.04578443989157677,0.02990253083407879
1.7215726048712387e+18,-0.008945303037762642,0.03723541647195816,0.029281888157129288
1.7215726048772388e+18,-0.008070895448327065,0.0340656153857708,0.029706181958317757
1.721572604883239e+18,-0.012984748929738998,0.027935650199651718,0.031470999121665955
1.721572604889239e+18,-0.01499602198600769,0.030349280685186386,0.033938322216272354
1.7215726048952392e+18,-0.010818746872246265,0.026721125468611717,0.030381808057427406
1.7215726049012393e+18,-0.011193918995559216,0.024421177804470062,0.0312368031591177
1.7215726049072394e+18,-0.011428968980908394,0.02065342292189598,0.031489163637161255
1.7215726049132396e+18,-0.005521820858120918,0.01880020461976528,0.03502798452973366
1.7215726049192397e+18,-0.005704191047698259,0.016641324386000633,0.030175406485795975
1.7215726049252398e+18,-0.0018840203993022442,0.010547997429966927,0.03183898702263832
1.72157260493124e+18,-0.0009136623120866716,0.007801209110766649,0.03378063812851906
1.72157260493724e+18,0.0016762660816311836,0.007303834892809391,0.03608299046754837
1.7215726049432402e+18,0.0005852666799910367,0.005127914249897003,0.034198205918073654
1.7215726049492403e+18,0.001769835827872157,0.0002677285810932517,0.036079198122024536
1.7215726049552404e+18,-0.004149295389652252,0.0025540590286254883,0.034022822976112366
1.7215726049612406e+18,-0.003577109193429351,0.00232003815472126,0.03417104110121727
1.7215726049672407e+18,-0.0030951104126870632,-0.0019159761723130941,0.03592808172106743
1.7215726049732408e+18,-0.0056879762560129166,-0.001348791178315878,0.03634302318096161
1.721572604979241e+18,-0.0002739708870649338,-0.004702448844909668,0.03698815777897835
1.721572604985241e+18,0.002295584185048938,-0.003283526748418808,0.03353476524353027
1.7215726049912412e+18,0.0015688660787418485,-0.005492040887475014,0.03579796105623245
1.7215726049972413e+18,0.005830682348459959,-0.00802971888333559,0.041662704199552536
1.7215726050032415e+18,0.004268900956958532,-0.009572528302669525,0.03853345289826393
1.7215726050092416e+18,0.004046593327075243,-0.012340367771685123,0.03891255706548691
1.7215726050122417e+18,0.0076306723058223724,-0.013590598478913307,0.03494777902960777
1.7215726050182418e+18,0.003929462283849716,-0.012438795529305935,0.038156259804964066
1.7215726050212419e+18,0.0015290374867618084,-0.013102928176522255,0.04491858556866646
1.721572605027242e+18,0.0006295961211435497,-0.010748454369604588,0.040357425808906555
1.721572605033242e+18,-0.0012604605872184038,-0.012944690883159637,0.03993833437561989
1.7215726050392422e+18,0.000606188434176147,-0.016014913097023964,0.039977867156267166
1.7215726050452424e+18,0.0029009287245571613,-0.012634510174393654,0.04083212465047836
1.7215726050512425e+18,0.003087413962930441,-0.01441539078950882,0.04213317483663559
1.7215726050572426e+18,0.004366274923086166,-0.015287593938410282,0.04181673377752304
1.7215726050632428e+18,0.004410068038851023,-0.01826329156756401,0.038321517407894135
1.721572605069243e+18,0.007697800174355507,-0.019388729706406593,0.04653959721326828
1.721572605075243e+18,0.00388372503221035,-0.016201479360461235,0.043881163001060486
1.7215726050812431e+18,0.0019663122948259115,-0.018282458186149597,0.043425340205430984
1.7215726050872433e+18,0.003938551060855389,-0.01521726418286562,0.0429527685046196
1.7215726050932434e+18,0.0031145336106419563,-0.016526784747838974,0.03991672769188881
1.7215726050992435e+18,0.0034252600744366646,-0.012439912185072899,0.04140864312648773
1.7215726051052436e+18,0.0035592420026659966,-0.015491426922380924,0.040895115584135056
1.7215726051112438e+18,0.004707160405814648,-0.01882815919816494,0.04408033564686775
1.721572605117244e+18,0.004657306708395481,-0.016908159479498863,0.04236482456326485
1.721572605123244e+18,0.004145706072449684,-0.0207253098487854,0.04101594164967537
1.7215726051292442e+18,0.0008549224585294724,-0.017114300280809402,0.04585755243897438
1.7215726051352443e+18,0.0017218810971826315,-0.015717990696430206,0.04273291304707527
1.7215726051412444e+18,0.004273044876754284,-0.01812894269824028,0.04148944467306137
1.7215726051472445e+18,0.0036440237890928984,-0.013016799464821815,0.04271950200200081
1.7215726051532447e+18,0.0012355127837508917,-0.013171899132430553,0.042557068169116974
1.7215726051592448e+18,0.0025555258616805077,-0.01444194559007883,0.04524735361337662
1.721572605165245e+18,0.0013204074930399656,-0.015917692333459854,0.04119392856955528
1.721572605168245e+18,0.0037405844777822495,-0.0181543231010437,0.04168521612882614
1.721572605174245e+18,0.0028637112118303776,-0.015613285824656487,0.04114093258976936
1.7215726051802452e+18,0.004977812524884939,-0.01844887249171734,0.0416264645755291
1.7215726051862454e+18,-0.0007051797583699226,-0.016511710360646248,0.041337210685014725
1.7215726051952456e+18,0.002984822727739811,-0.016615262255072594,0.0420050211250782
1.7215726052012457e+18,0.003138264873996377,-0.016051536425948143,0.04445229470729828
1.7215726052072458e+18,0.0027773231267929077,-0.0139139574021101,0.04030665382742882
1.721572605213246e+18,0.00035926850978285074,-0.018501512706279755,0.04104552045464516
1.721572605219246e+18,0.004225699696689844,-0.01461249403655529,0.04174620658159256
1.7215726052252462e+18,0.0015010311035439372,-0.012801511213183403,0.04294934123754501
1.7215726052312463e+18,0.0023324829526245594,-0.011298606172204018,0.04493776336312294
1.7215726052402465e+18,0.003504144959151745,-0.011629065498709679,0.041548360139131546
1.7215726052462467e+18,0.0011183919850736856,-0.010898389853537083,0.03890914097428322
1.7215726052522468e+18,0.006082052364945412,-0.009859983809292316,0.03978618234395981
1.721572605258247e+18,0.0025983103550970554,-0.014402571134269238,0.04148714244365692
1.721572605264247e+18,0.0024968076031655073,-0.009420602582395077,0.04237733781337738
1.7215726052702472e+18,0.0014339641202241182,-0.01563221402466297,0.03977750241756439
1.7215726052792474e+18,0.004089231137186289,-0.011181767098605633,0.04017441347241402
1.7215726052852475e+18,0.005524348001927137,-0.012862516567111015,0.04255577176809311
1.7215726052942477e+18,0.004931730683892965,-0.009156135842204094,0.04134904593229294
1.7215726053002478e+18,0.003909333609044552,-0.011661236174404621,0.04083843156695366
1.721572605309248e+18,0.005078275687992573,-0.013281751424074173,0.038578178733587265
1.721572605315248e+18,0.0029326488729566336,-0.012750545516610146,0.03708905726671219
1.7215726053242483e+18,0.0017411606386303902,-0.011588702909648418,0.03780094534158707
1.7215726053272484e+18,-0.0006946597713977098,-0.013420515693724155,0.04009329155087471
1.7215726053362486e+18,0.0004955119220539927,-0.013443414121866226,0.03922107070684433
1.7215726053422487e+18,0.004578731022775173,-0.009982970543205738,0.03761504963040352
1.721572605351249e+18,0.0030150776728987694,-0.010362093336880207,0.03488129377365112
1.721572605357249e+18,0.002537654945626855,-0.006302171386778355,0.03706058859825134
1.7215726053632492e+18,0.0046148234978318214,-0.00786498747766018,0.03474840149283409
1.7215726053692493e+18,0.005808999761939049,-0.009485176764428616,0.03784659132361412
1.7215726053782495e+18,0.0038223720621317625,-0.013145669363439083,0.03718670830130577
1.7215726053842496e+18,0.001146501861512661,-0.009169270284473896,0.03474161773920059
1.7215726053902497e+18,0.001026403158903122,-0.009811699390411377,0.034761637449264526
1.72157260539925e+18,0.003972652368247509,-0.011470036581158638,0.03413310647010803
1.72157260540525e+18,0.00449176924303174,-0.008688623085618019,0.03733684495091438
1.7215726054112502e+18,0.00621326407417655,-0.0073254466988146305,0.03690540790557861
1.7215726054202504e+18,0.00680629163980484,-0.008590273559093475,0.03231985867023468
1.7215726054262505e+18,0.005011043511331081,-0.0071457261219620705,0.03258043900132179
1.7215726054322506e+18,0.0020177646074444056,-0.00913943350315094,0.03275114297866821
1.7215726054382508e+18,0.0017294755671173334,-0.007991516962647438,0.036583755165338516
1.721572605447251e+18,1.6705045709386468e-05,-0.009107341058552265,0.030166124925017357
1.721572605453251e+18,-0.0018085793126374483,-0.011327669955790043,0.03370589390397072
1.7215726054592512e+18,0.002362720901146531,-0.008343713358044624,0.033891189843416214
1.7215726054652513e+18,0.0017959761898964643,-0.008962972089648247,0.031006919220089912
1.7215726054712515e+18,0.0010297899134457111,-0.00903413351625204,0.030492275953292847
1.7215726054772516e+18,0.002542492700740695,-0.012339682318270206,0.03139062225818634
1.7215726054862518e+18,0.002301927190274,-0.011713397689163685,0.028700251132249832
1.721572605492252e+18,0.004317370243370533,-0.009635847993195057,0.030458247289061546
1.721572605498252e+18,0.004324796609580517,-0.0037035085260868073,0.02975895255804062
1.7215726055042522e+18,0.0074506597593426704,-0.008612427860498428,0.028132017701864243
1.7215726055102523e+18,0.0008886918658390641,-0.007632318418473005,0.028878798708319664
1.7215726055132524e+18,0.0030884798616170883,-0.007928249426186085,0.02784021571278572
1.7215726055222525e+18,0.0009904301259666681,-0.0038129515014588833,0.02770804613828659
1.7215726055252526e+18,-0.0016123304376378655,-0.00866253674030304,0.027071241289377213
1.7215726055312527e+18,-0.0008071279735304415,-0.008562369272112846,0.02581634745001793
1.7215726055372529e+18,0.0008723934879526496,-0.006025230512022972,0.028847573325037956
1.721572605540253e+18,0.0006276019266806543,-0.006406900007277727,0.028461994603276253
1.721572605546253e+18,0.00242913281545043,-0.010042503476142883,0.02737066149711609
1.7215726055522532e+18,0.001569477841258049,-0.008152013644576073,0.02646561898291111
1.7215726055612534e+18,0.0014041212853044271,-0.005770515650510788,0.025179021060466766
1.7215726055672535e+18,0.0012500686571002007,-0.009818844497203827,0.024555381387472153
1.7215726055732536e+18,0.002134867710992694,-0.006419764831662178,0.023469606414437294
1.7215726055792538e+18,-0.00328597123734653,-0.0074630179442465305,0.02479274943470955
1.721572605585254e+18,0.003106421325355768,-0.006858700420707464,0.02544437162578106
1.721572605591254e+18,-0.0014495565555989742,-0.006909780669957399,0.024526413530111313
1.7215726055972541e+18,-0.0014208318898454309,-0.006223211530596018,0.022775258868932724
1.7215726056032543e+18,0.0018782594706863165,-0.005251032300293446,0.025141168385744095
1.7215726056092544e+18,0.001181816915050149,-0.007600344717502594,0.024084780365228653
1.7215726056152545e+18,0.003471020143479109,-0.0098154591396451,0.021469131112098694
1.7215726056212547e+18,0.0013320852303877473,-0.007218801882117987,0.023420320823788643
1.7215726056272548e+18,0.0013287118636071682,-0.008874072693288326,0.022104643285274506
1.7215726056302548e+18,0.0017540426924824715,-0.010357909835875034,0.021095167845487595
1.721572605636255e+18,0.0046163080260157585,-0.009167511016130447,0.023651082068681717
1.721572605642255e+18,9.583705104887486e-05,-0.010587728582322598,0.020821038633584976
1.7215726056482552e+18,0.0049453796818852425,-0.007034371607005596,0.023225072771310806
1.7215726056542554e+18,0.0008107239846140146,-0.006697561591863632,0.020238332450389862
1.7215726056572554e+18,0.0047826264053583145,-0.008509650826454163,0.017588207498192787
1.7215726056632556e+18,-0.0009157489985227585,-0.0029619885608553886,0.019179634749889374
1.7215726056692557e+18,-0.001167593989521265,-0.005280829966068268,0.01892562210559845
1.7215726056752558e+18,0.0016557336784899235,-0.006810579914599657,0.01959581859409809
1.721572605681256e+18,0.0014300214825198054,-0.007262351457029581,0.016633490100502968
1.721572605687256e+18,-0.0005796477780677378,-0.006854015402495861,0.016166459769010544
1.7215726056932562e+18,0.0020397729240357876,-0.008380998857319355,0.015030992217361927
1.7215726056992563e+18,0.0005002541001886129,-0.008163092657923698,0.01717173121869564
1.7215726057052564e+18,0.004419386386871338,-0.008789327926933765,0.01633702591061592
1.7215726057112566e+18,-2.9294518753886223e-05,-0.007138245739042759,0.016934899613261223
1.7215726057172567e+18,0.002261724090203643,-0.006388540379703045,0.016450554132461548
1.7215726057232568e+18,0.0035732085816562176,-0.008950012736022472,0.016276707872748375
1.721572605729257e+18,1.2680597137659788e-05,-0.004059060476720333,0.01205643080174923
1.721572605735257e+18,0.0006318290834315121,-0.0038129438180476427,0.014490056782960892
1.7215726057412572e+18,-0.0003699157387018204,-0.005940328352153301,0.01400182954967022
1.7215726057472573e+18,0.002171376720070839,-0.00517858425155282,0.016486702486872673
1.7215726057532575e+18,0.0029815807938575745,-0.004701482597738504,0.012901130132377148
1.7215726057562575e+18,0.0025219321250915527,-0.007081897929310799,0.013370241038501263
1.7215726057622577e+18,0.002343322616070509,-0.004207144491374493,0.015246914699673653
1.7215726057682578e+18,0.0007581450045108795,-0.008157377131283283,0.011532631702721119
1.721572605774258e+18,0.00014101830311119556,-0.007697879336774349,0.008160136640071869
1.721572605780258e+18,-0.00011235405690968037,-0.004011132754385471,0.012074100784957409
1.721572605783258e+18,0.000948810949921608,-0.007485679350793362,0.011589772067964077
1.7215726057892582e+18,0.000777415931224823,-0.005947432480752468,0.01097625307738781
1.7215726057952584e+18,0.0006329587777145207,-0.006163044832646847,0.011649349704384804
1.7215726058012585e+18,0.000596653379034251,-0.004714188165962696,0.007958518341183662
1.7215726058072586e+18,-0.000888073118403554,-0.005677323322743177,0.008578508161008358
1.7215726058132588e+18,0.0037804818712174892,-0.0044508324936032295,0.009895984083414078
1.721572605819259e+18,0.00222409307025373,-0.003353906562551856,0.011579964309930801
1.721572605825259e+18,0.0022282619029283524,-0.005048886872828007,0.00617433525621891
1.7215726058312591e+18,0.0036339142825454473,-0.004671149421483278,0.01142742671072483
1.7215726058372593e+18,0.002220317255705595,-0.0087502496317029,0.007618198171257973
1.7215726058462595e+18,0.002758198417723179,-0.00627945875748992,0.008060413412749767
1.7215726058492595e+18,0.004152107052505016,-0.006155314855277538,0.005444490350782871
1.7215726058552596e+18,0.0008366588153876364,-0.0048132892698049545,0.006885269191116095
1.7215726058612598e+18,0.0008085179724730551,-0.0073317550122737885,0.006874068174511194
1.72157260586726e+18,0.0013409769162535667,-0.0042749675922095776,0.004413066431879997
1.72157260587326e+18,0.0012675996404141188,-0.003802182851359248,0.008651676587760448
1.7215726058792602e+18,-0.001660001347772777,-0.005957340821623802,0.005482524633407593
1.7215726058852603e+18,0.0008158732671290636,-0.005478625651448965,0.0037496481090784073
1.7215726058912604e+18,-0.0004209313774481416,-0.003688947530463338,0.004371204413473606
1.7215726058972605e+18,0.001663306844420731,-0.0014255016576498747,0.005589032080024481
1.7215726059032607e+18,-0.0006346277659758925,-0.0046874419786036015,0.005417884327471256
1.7215726059092608e+18,-0.0009831722127273679,-0.005565090104937553,0.0050236196257174015
1.721572605915261e+18,0.001147542498074472,-0.004073440097272396,0.007410401478409767
1.721572605921261e+18,0.0007017775205895305,-0.006633486598730087,0.004561190493404865
1.7215726059272612e+18,-0.0003336066147312522,-0.007306728977710009,0.007642235606908798
1.7215726059332613e+18,0.00019235926447436213,-0.004082378465682268,0.0056318058632314205
1.7215726059392614e+18,-0.0010031143901869655,-0.00464232312515378,0.004583706613630056
1.7215726059452616e+18,-0.0012244542594999075,-0.002473327796906233,0.0037504066713154316
1.7215726059512617e+18,-0.001073867897503078,-0.003999033942818642,0.0011892643524333835
1.7215726059572618e+18,0.0004956208285875618,-0.0033738967031240463,0.003849102184176445
1.721572605963262e+18,0.0006469360087066889,-0.0032144051510840654,0.0038058331701904535
1.721572605969262e+18,0.00023971928749233484,-0.007182817906141281,0.0036047925241291523
1.7215726059752622e+18,0.002196161076426506,-0.003815306583419442,0.0017632615054026246
1.7215726059812623e+18,0.0009447701158933342,-0.0037354568485170603,-5.544198211282492e-05
1.7215726059872625e+18,0.0014272319385781884,-0.0045722429640591145,0.0018844230799004436
1.7215726059932626e+18,0.0005273792194202542,-0.007152027450501919,0.001047672820277512
1.7215726059992627e+18,0.0010827663354575634,-0.004542302340269089,0.002273321384564042
1.7215726060052628e+18,0.002259766450151801,-0.0026172606740146875,0.0011299425968900323
1.721572606008263e+18,0.00139304855838418,-0.0053274547681212425,-0.00012025813339278102
1.721572606014263e+18,0.0019668147433549166,-0.0016562840901315212,0.0014546808088198304
1.7215726060202632e+18,0.0012800551485270262,-0.002687175525352359,0.0036099092103540897
1.7215726060262633e+18,0.0007243268773891032,-0.0030927809420973063,0.0015318423975259066
1.7215726060322634e+18,0.0006108273519203067,-0.002016362501308322,-0.00010657758684828877
1.7215726060382636e+18,-0.0011065625585615635,-0.005751899443566799,-0.0014883445110172033
1.7215726060442637e+18,-0.0002613611286506057,-0.0015909667126834393,-0.002869461663067341
1.7215726060502638e+18,0.002900505904108286,-0.0017356418538838625,0.00012376904487609863
1.721572606056264e+18,-0.0008629320655018091,-0.00033625937066972256,-0.0029861819930374622
1.721572606062264e+18,0.0018657429609447718,-0.0017310918774455786,-0.004256986081600189
1.7215726060682642e+18,0.004983063787221909,-0.002040418330579996,-0.002971845678985119
1.7215726060742643e+18,0.0033909864723682404,-0.0018399931723251939,0.00036505714524537325
1.7215726060802644e+18,0.0025183067191392183,-0.005839639343321323,-0.0016499652992933989
1.7215726060862646e+18,0.0008366697002202272,-0.005098704714328051,-0.0016586934216320515
1.7215726060922647e+18,0.0015655804891139269,-0.005052969790995121,-0.001352278282865882
1.7215726060982648e+18,-0.0003267080755904317,-0.005392123945057392,-0.004060441628098488
1.721572606101265e+18,0.0008044518763199449,-0.007062505465000868,-0.003070700913667679
1.721572606107265e+18,-0.0013521264772862196,-0.005047121550887823,-0.0008157409029081464
1.7215726061162652e+18,0.0020504530984908342,-0.0018897749250754714,-0.0006455800030380487
1.7215726061222653e+18,-0.00012793508358299732,-0.0036422857083380222,-0.0021536280401051044
1.7215726061282655e+18,-0.0007963224779814482,-0.001453575911000371,-0.0038488563150167465
1.7215726061342656e+18,-0.0016238635871559381,0.0005308329127728939,-0.0042667509987950325
1.7215726061372657e+18,-0.0006011779187247157,-0.002951368223875761,-0.003539971075952053
1.7215726061462659e+18,-0.0035374232102185488,-0.0020736607257276773,-0.0024000126868486404
1.721572606152266e+18,-0.0009172763675451279,-0.0023799005430191755,-0.004798345733433962
1.721572606158266e+18,-0.0012442037696018815,-0.004975937772542238,-0.0018195982556790113
1.7215726061642662e+18,-0.0017064220737665892,-0.002280771965160966,-0.003236028365790844
1.7215726061702664e+18,-7.405361975543201e-05,-0.008233800530433655,-0.0045455084182322025
1.7215726061762665e+18,0.0008833614410832524,-0.0038785752840340137,-0.003696080530062318
1.7215726061792666e+18,-0.0005035036010667682,-0.0024133496917784214,-0.008218718692660332
1.7215726061882668e+18,0.0021085466723889112,-0.0035416691098362207,-0.004232127219438553
1.721572606194267e+18,0.00011473681661300361,-0.002983099315315485,-0.007549217902123928
1.721572606200267e+18,7.92238861322403e-05,-0.0024940534494817257,-0.00260632811114192
1.7215726062062671e+18,0.002156033180654049,0.002070480491966009,-0.005862553603947163
1.7215726062122673e+18,0.0010935136815533042,-2.628570655360818e-05,-0.0039672949351370335
1.7215726062182674e+18,0.001218748977407813,-0.0034971963614225388,-0.0021125716157257557
1.7215726062212675e+18,0.0021934518590569496,-0.0015338003868237138,-0.005713647231459618
1.7215726062272676e+18,0.003120843321084976,-0.0035528477746993303,-0.004512760788202286
1.7215726062332677e+18,0.0001565201673656702,-0.004981879610568285,-0.006601845845580101
1.721572606242268e+18,-0.0008784324163571,-0.0017108083702623844,-0.004599934443831444
1.721572606245268e+18,0.002131585031747818,-0.004460145719349384,-0.007506669498980045
1.721572606251268e+18,-0.00031164311803877354,-0.003766450099647045,-0.00540746096521616
1.7215726062572682e+18,0.0020665654446929693,-0.003906037425622344,-0.006120014004409313
1.7215726062632684e+18,0.00331223476678133,-0.005183790344744921,-0.00645084073767066
1.7215726062722685e+18,0.00269548362120986,-0.0010776984272524714,-0.004297384526580572
1.7215726062752686e+18,-0.0016660596011206508,-0.00048234080895781517,-0.006738379132002592
1.7215726062842688e+18,0.0016892342828214169,-0.004863313399255276,-0.0050305090844631195
1.7215726062872689e+18,-0.00021023185399826616,-0.004623015411198139,-0.0031278817914426327
1.721572606296269e+18,-0.001959719927981496,-0.0035705436021089554,-0.00413485337048769
1.7215726063022692e+18,-0.0014631364028900862,-0.006869517266750336,-0.006895422004163265
1.7215726063082693e+18,0.002939597237855196,-0.003303500823676586,-0.005795853212475777
1.7215726063142694e+18,-0.0012109061935916543,-0.0020243115723133087,-0.0034636599011719227
1.7215726063202696e+18,0.00025801744777709246,-0.0029840723145753145,-0.0023921839892864227
1.7215726063262697e+18,-0.00071690883487463,-0.003907487727701664,-0.007526506669819355
1.7215726063322698e+18,0.0017694851849228144,-0.0022837440483272076,-0.005995667073875666
1.72157260633827e+18,0.0005809951107949018,0.00152959197293967,-0.006935962941497564
1.7215726063472701e+18,0.005955105181783438,-0.001058614463545382,-0.005529977381229401
1.7215726063532703e+18,6.50495640002191e-05,-0.0012283334508538246,-0.006909077055752277
1.7215726063592704e+18,0.002619713544845581,-0.0009631167631596327,-0.007180250249803066
1.7215726063652705e+18,-0.0021670558489859104,-0.0008682822808623314,-0.005237117409706116
1.7215726063712707e+18,-0.0018659732304513454,-0.0034899991005659103,-0.005688192322850227
1.7215726063772708e+18,0.0018725061090663075,-0.0019210786558687687,-0.007482518907636404
1.7215726063802708e+18,0.0006452236557379365,-0.0020154903177171946,-0.007441935129463673
1.721572606386271e+18,-0.0015953431138768792,-0.002836689818650484,-0.008262388408184052
1.721572606392271e+18,-0.00039511985960416496,-0.002149102510884404,-0.0034015323035418987
1.7215726064012713e+18,-0.0004885224625468254,-0.0027228156104683876,-0.005734180565923452
1.7215726064042714e+18,-0.0014809933491051197,-0.0018937777495011687,-0.004879783373326063
1.7215726064102715e+18,0.0025242753326892853,-0.0017958888784050941,-0.004209950566291809
1.7215726064162716e+18,0.0004212432831991464,-0.002000783570110798,-0.003274609101936221
1.7215726064222717e+18,0.0018692995654419065,-0.0012838479597121477,-0.00787381548434496
1.7215726064282719e+18,0.001617467263713479,-0.0016733247321099043,-0.0034600775688886642
1.721572606434272e+18,0.0025748279877007008,-0.0028046933002769947,-0.004053940996527672
1.7215726064402721e+18,-0.0009020636207424104,-0.002954081865027547,-0.0053983102552592754
1.7215726064462723e+18,-0.0010926115792244673,-0.0034550181590020657,-0.001933370716869831
1.7215726064522724e+18,0.0003052263054996729,0.0004648934118449688,-0.0041224160231649876
1.7215726064582725e+18,0.0005127834156155586,-0.0015734063927084208,-0.002221939619630575
1.7215726064642726e+18,-0.00017951615154743195,0.00024306983686983585,-0.0018216283060610294
1.7215726064702728e+18,0.0009571161353960633,-0.001539069227874279,-0.005040357820689678
1.721572606476273e+18,-0.0005511920317076147,1.4186836779117584e-05,-0.005411099176853895
1.721572606482273e+18,0.002622809261083603,-0.0010127956047654152,-0.005340127740055323
1.7215726064882732e+18,-0.0036632006522268057,-0.004232588689774275,-0.001224928768351674
1.7215726064942733e+18,-0.0006993010174483061,-0.002034147270023823,-0.0013911689165979624
1.7215726065002734e+18,0.0002452793705742806,-0.0054558441042900085,-0.0031757927499711514
1.7215726065062735e+18,-0.002429438754916191,-0.0066284434869885445,-0.006153367925435305
1.7215726065122737e+18,-0.002272671554237604,-0.005023817531764507,-0.00462770089507103
1.7215726065182738e+18,0.0008127959445118904,-0.0006000061985105276,-0.0044564055278897285
1.721572606524274e+18,0.0015749019803479314,-0.0031169496942311525,-0.0035517136566340923
1.721572606530274e+18,0.0010657033417373896,-0.0018731111194938421,-0.0016489701811224222
1.7215726065362742e+18,-0.00019614359189290553,-0.0011938363313674927,-0.00274348515085876
1.7215726065422743e+18,0.003149147145450115,0.0006405450403690338,-0.0029548367019742727
1.7215726065482744e+18,0.0020936508662998676,-0.0014788799453526735,-0.00409979373216629
1.7215726065542746e+18,-0.003591720247641206,-0.0026445018593221903,-0.00436344975605607
1.7215726065602747e+18,-0.0019200756214559078,-0.002215719548985362,-0.005521171726286411
1.7215726065662748e+18,-0.0001096334308385849,-0.0023115442600101233,-0.0021511095110327005
1.721572606572275e+18,-0.0007246361928991973,-0.002896377583965659,-0.0022245035506784916
1.721572606575275e+18,-0.0009839641861617565,-0.0036835470236837864,-0.00408026110380888
1.7215726065812751e+18,-0.003573301015421748,-0.0024292459711432457,-0.001762923551723361
1.7215726065872753e+18,0.0019961220677942038,-0.0007464329246431589,-0.003037123940885067
1.7215726065962755e+18,-0.0017700822791084647,-0.0003893299726769328,-0.0035566173028200865
1.7215726066022756e+18,-0.0012774750357493758,-0.001424948568455875,-0.001711375778540969
1.7215726066112758e+18,0.001312285428866744,-0.001741089508868754,-0.0015854892553761601
1.721572606617276e+18,-0.0007117517525330186,-0.004216424655169249,-0.0029295766726136208
1.721572606626276e+18,0.0001912298030219972,0.000265782349742949,-0.0020958350505679846
1.7215726066322762e+18,0.0009448127821087837,-0.002975637326017022,-0.0004233682993799448
1.7215726066382764e+18,0.0013889842666685581,-0.001624952768906951,0.001164424465969205
1.7215726066442765e+18,-0.0011577538680285215,-0.008429277688264847,0.00041858572512865067
1.7215726066502766e+18,-0.0035243257880210876,-0.009437354281544685,-0.0011870667804032564
1.7215726066562767e+18,-0.0011838906211778522,-0.016123823821544647,-0.0034999994095414877
1.7215726066622769e+18,0.0018024386372417212,-0.03050224669277668,-0.0017138643888756633
1.721572606668277e+18,0.00026099570095539093,-0.044611379504203796,-0.0017643650062382221
1.721572606674277e+18,0.001712519908323884,-0.06477216631174088,0.0004818745655938983
1.7215726066802772e+18,-0.0009874920360744,-0.08987711369991302,-0.004390265326946974
1.7215726066862774e+18,0.002093555871397257,-0.11425568908452988,0.0012260990915820003
1.7215726066922775e+18,4.0624901885166764e-05,-0.1371878981590271,-0.0015150769613683224
1.7215726066952776e+18,-0.001918041380122304,-0.14744669198989868,-0.001189100556075573
1.7215726067012777e+18,0.002308731898665428,-0.15821397304534912,-0.0008032144978642464
1.7215726067072778e+18,-0.004075923468917608,-0.16601231694221497,-0.00072594074299559
1.721572606713278e+18,0.00028776051476597786,-0.1685759723186493,-0.00099536357447505
1.7215726067222781e+18,0.00041150266770273447,-0.16433043777942657,-0.00133943697437644
1.7215726067252782e+18,-0.001754089491441846,-0.15948176383972168,0.0003070930833928287
1.7215726067342784e+18,0.00021199369803071022,-0.16071338951587677,-0.0022679113317281008
1.7215726067372785e+18,0.0034895893186330795,-0.1600908637046814,0.0014253213303163648
1.7215726067432786e+18,0.002843577181920409,-0.16321171820163727,0.0025536343455314636
1.7215726067522788e+18,0.0026805661618709564,-0.17085078358650208,0.0013418933376669884
1.7215726067552788e+18,0.0009677006164565682,-0.1705191284418106,-0.0013666213490068913
1.721572606764279e+18,-0.0009305783896706998,-0.17592070996761322,-0.0004511436854954809
1.7215726067702792e+18,-0.002158114453777671,-0.17820262908935547,-1.601265830686316e-05
1.7215726067762793e+18,-8.547562174499035e-05,-0.1772494614124298,0.0006704867701046169
1.7215726067822794e+18,-0.008067178539931774,-0.17242872714996338,-0.0011446932330727577
1.7215726067882796e+18,0.0011482767295092344,-0.16800083220005035,-0.00041246169712394476
1.7215726067942797e+18,-0.003526577027514577,-0.1589140146970749,1.0237068636342883e-05
1.7215726068002798e+18,-0.002983824582770467,-0.15485021471977234,0.0012063519097864628
1.72157260680628e+18,-0.002209716709330678,-0.14664292335510254,0.0019656491931527853
1.72157260681228e+18,0.0018222813960164785,-0.14264917373657227,-0.00034958869218826294
1.7215726068182802e+18,0.0010242798598483205,-0.13962413370609283,0.0019148433348163962
1.7215726068242803e+18,0.0001709305215626955,-0.1438877433538437,0.002696304814890027
1.7215726068302804e+18,0.004189249128103256,-0.1527017056941986,-0.0014453338226303458
1.7215726068362806e+18,-0.0003730330499820411,-0.1565825492143631,-0.0016882953932508826
1.7215726068422807e+18,0.0013155849883332849,-0.16476431488990784,-0.0010033788857981563
1.7215726068482808e+18,-0.0018875844543799758,-0.17200906574726105,0.0009934548288583755
1.721572606854281e+18,-0.0023822090588510036,-0.17484091222286224,0.0005964732263237238
1.721572606860281e+18,-0.0003263044636696577,-0.1714198887348175,0.0026021827943623066
1.7215726068662812e+18,-0.0029723942279815674,-0.16668452322483063,0.002628796501085162
1.7215726068722813e+18,0.0005465681897476315,-0.15615589916706085,-0.0005573185626417398
1.7215726068782815e+18,-0.0014416754711419344,-0.15060316026210785,0.0006304357666522264
1.7215726068842816e+18,0.003886627033352852,-0.14040438830852509,0.00011445209383964539
1.7215726068902817e+18,0.004485174082219601,-0.13407878577709198,0.0020621255971491337
1.7215726068962819e+18,0.003939492162317038,-0.1286456435918808,-0.00010200054384768009
1.721572606902282e+18,0.002676306525245309,-0.12639369070529938,0.0015340035315603018
1.721572606908282e+18,-0.000395128910895437,-0.125636488199234,0.0004901781212538481
1.7215726069142822e+18,-0.001068268669769168,-0.12450114637613297,0.0017153852386400104
1.7215726069202824e+18,-0.003184729954227805,-0.12249300628900528,0.0009810985065996647
1.7215726069262825e+18,-0.0013788455398753285,-0.12099222093820572,0.006230813451111317
1.7215726069322826e+18,-5.821394734084606e-05,-0.1138601005077362,0.004507178906351328
1.7215726069382828e+18,0.00223328685387969,-0.10694268345832825,0.002851158380508423
1.721572606944283e+18,0.0031834577675908804,-0.10314156115055084,0.004520627669990063
1.721572606950283e+18,0.000670450390316546,-0.0951235219836235,0.0014466738793998957
1.721572606953283e+18,0.002012522891163826,-0.08996562659740448,0.00024051405489444733
1.7215726069622833e+18,0.0034691588953137398,-0.0845763087272644,0.0049279117956757545
1.7215726069682834e+18,-0.0015821950510144234,-0.08233959227800369,0.005315585061907768
1.7215726069742835e+18,-0.002881166059523821,-0.08420348167419434,0.003576819319278002
1.7215726069802836e+18,-0.001375905703753233,-0.08420906215906143,0.0033697541803121567
1.7215726069862838e+18,-0.00420410605147481,-0.08138544857501984,0.0046880110166966915
1.721572606992284e+18,-0.004039516672492027,-0.08086112886667252,0.0035506687127053738
1.721572606998284e+18,-0.0029718209989368916,-0.0779070183634758,0.0028991037979722023
1.7215726070042842e+18,-0.0029069464653730392,-0.07155570387840271,0.004698618780821562
1.7215726070102843e+18,-0.0037745414301753044,-0.06970701366662979,0.005004571285098791
1.7215726070162844e+18,0.0023082345724105835,-0.06352588534355164,0.003219650126993656
1.7215726070222845e+18,0.0021782175172120333,-0.06217479333281517,0.008105602115392685
1.7215726070282847e+18,8.728355169296265e-05,-0.0570911206305027,0.003075782675296068
1.7215726070342848e+18,0.0017982367426156998,-0.055968206375837326,0.004166134633123875
1.721572607040285e+18,-0.0015217447653412819,-0.05117219313979149,0.00403937604278326
1.721572607046285e+18,-0.0016634927596896887,-0.05081513524055481,0.004490854684263468
1.7215726070522852e+18,-0.0027218670584261417,-0.0472419448196888,0.008385187946259975
1.7215726070582853e+18,-0.0017170743085443974,-0.048209987580776215,0.005796976387500763
1.7215726070642854e+18,0.0005910684121772647,-0.04707441106438637,0.003486377652734518
1.7215726070702856e+18,-0.004798745270818472,-0.045854125171899796,0.005262332037091255
1.7215726070762857e+18,-0.00037343052099458873,-0.044662557542324066,0.007605516817420721
1.7215726070822858e+18,0.0002000286476686597,-0.04001123458147049,0.007508725859224796
1.721572607088286e+18,0.0017320590559393167,-0.040146131068468094,0.0037684389390051365
1.721572607094286e+18,0.0017750641563907266,-0.03453100845217705,0.005080007016658783
1.7215726071002862e+18,0.0009150846744887531,-0.032634757459163666,0.0058583831414580345
1.7215726071062863e+18,-0.001082201604731381,-0.031089989468455315,0.005808430258184671
1.7215726071122865e+18,-0.001770855626091361,-0.025948427617549896,0.006763392128050327
1.7215726071182866e+18,-2.9770773835480213e-05,-0.015168865211308002,0.006106236483901739
1.7215726071272868e+18,0.00011056289076805115,0.005540385842323303,0.0032209677156060934
1.7215726071302868e+18,-0.002570927608758211,0.011131120845675468,0.007829764857888222
1.721572607136287e+18,-0.0016813664697110653,0.024492399767041206,0.007880400866270065
1.7215726071452872e+18,0.0009691134328022599,0.04237522929906845,0.007748306728899479
1.7215726071512873e+18,0.002469893079251051,0.04850605130195618,0.004517870023846626
1.7215726071572874e+18,0.00034484744537621737,0.05224405601620674,0.007169578690081835
1.7215726071632876e+18,-0.002469802973791957,0.057881757616996765,0.007132761646062136
1.7215726071692877e+18,0.0013639547396451235,0.07018285244703293,0.006456244271248579
1.7215726071752878e+18,0.0016576030757278204,0.0824853926897049,0.006858143489807844
1.721572607181288e+18,-5.4736912716180086e-05,0.10191033035516739,0.0095148254185915
1.721572607187288e+18,-0.00011749280383810401,0.12307993322610855,0.00802232138812542
1.7215726071932882e+18,-0.0010875100269913673,0.14551334083080292,0.0053728376515209675
1.7215726071962883e+18,-0.00020163448061794043,0.15746130049228668,0.009467079304158688
1.7215726072022884e+18,0.0005849864101037383,0.18093803524971008,0.007816294208168983
1.7215726072082885e+18,0.0010387236252427101,0.20617790520191193,0.00805022194981575
1.7215726072142886e+18,0.0022560167126357555,0.2249748855829239,0.00828843005001545
1.7215726072202888e+18,-7.95247033238411e-05,0.2375757098197937,0.010466263629496098
1.721572607226289e+18,0.0008150580106303096,0.24716173112392426,0.009375182911753654
1.721572607232289e+18,0.0001301980810239911,0.25188329815864563,0.011224153451621532
1.7215726072382892e+18,0.0008767202962189913,0.2538149952888489,0.008300277404487133
1.7215726072442893e+18,0.002345798071473837,0.2556172311306,0.0056887660175561905
1.7215726072502894e+18,0.000313278054818511,0.25014880299568176,0.008774063549935818
1.7215726072562895e+18,0.0004719246062450111,0.2500973343849182,0.008440607227385044
1.7215726072622897e+18,0.00045988516649231315,0.2462489753961563,0.009731658734381199
1.7215726072682898e+18,0.001083703595213592,0.24448463320732117,0.008641213178634644
1.7215726072712899e+18,0.0008651506504975259,0.24380099773406982,0.00826195627450943
1.72157260727729e+18,-0.002853240119293332,0.2426232397556305,0.008120252750813961
1.72157260728329e+18,0.0014675910351797938,0.242792546749115,0.008671549148857594
1.7215726072892902e+18,0.003931079525500536,0.24067549407482147,0.008665698580443859
1.7215726072952904e+18,0.000781960494350642,0.2310226410627365,0.005889607593417168
1.7215726073012905e+18,0.0026303045451641083,0.22496043145656586,0.010127391666173935
1.7215726073042906e+18,0.0016303127631545067,0.22517921030521393,0.011227821931242943
1.7215726073102907e+18,-0.0004660308768507093,0.21513135731220245,0.009755353443324566
1.7215726073132908e+18,0.0006108714733272791,0.21139881014823914,0.005712718237191439
1.721572607319291e+18,-0.0013710198691114783,0.20035935938358307,0.00814745295792818
1.721572607325291e+18,-0.0035140402615070343,0.19222034513950348,0.009574446827173233
1.7215726073312911e+18,-0.004645989276468754,0.18208175897598267,0.012370049022138119
1.7215726073372913e+18,-0.002543496433645487,0.1739974170923233,0.0059285713359713554
1.7215726073432914e+18,-0.0020566778257489204,0.16881053149700165,0.011049670167267323
1.7215726073522916e+18,0.002841234439983964,0.16049988567829132,0.009080847725272179
1.7215726073582917e+18,0.0015931171365082264,0.15227001905441284,0.013098089955747128
1.7215726073642918e+18,0.002521233167499304,0.14316919445991516,0.007778518367558718
1.721572607370292e+18,0.0038301334716379642,0.13324034214019775,0.008871657773852348
1.721572607376292e+18,0.0027285385876893997,0.12975803017616272,0.009460306726396084
1.7215726073822922e+18,-0.0015967723447829485,0.12344899773597717,0.01189962588250637
1.7215726073882924e+18,-0.0022371395025402308,0.11559511721134186,0.014086617156863213
1.7215726073942925e+18,-0.006270396523177624,0.10886139422655106,0.011988712474703789
1.7215726074002926e+18,-0.004264146089553833,0.09495939314365387,0.0102001391351223
1.7215726074062927e+18,-0.004515872336924076,0.09124930202960968,0.010220138356089592
1.7215726074122929e+18,-0.0021104062907397747,0.0833224505186081,0.00928993709385395
1.721572607418293e+18,0.0005438626976683736,0.07966124266386032,0.011712846346199512
1.721572607424293e+18,0.002160297939553857,0.07347201555967331,0.007200388703495264
1.7215726074302932e+18,0.000681163277477026,0.07059381902217865,0.008459042757749557
1.7215726074362934e+18,0.0019411775283515453,0.06431944668292999,0.009269830770790577
1.7215726074422935e+18,0.0017027549911290407,0.05882519111037254,0.01167589146643877
1.7215726074482936e+18,-0.0006223976379260421,0.053660087287425995,0.011885536834597588
1.7215726074542938e+18,-0.001655094907619059,0.05108059570193291,0.010357462801039219
1.7215726074572938e+18,-0.004281848669052124,0.0497959740459919,0.008915210142731667
1.721572607463294e+18,-0.0013008303940296173,0.041912857443094254,0.009552814066410065
1.721572607469294e+18,-0.005874959286302328,0.037680674344301224,0.01141628809273243
1.7215726074752942e+18,-0.0015452695079147816,0.033264268189668655,0.012355422601103783
1.7215726074842944e+18,0.0010654057841748,0.030228786170482635,0.011685463599860668
1.7215726074872945e+18,0.0016663642600178719,0.028051339089870453,0.011518679559230804
1.7215726074932946e+18,0.0025399611331522465,0.024741753935813904,0.01036504004150629
1.7215726074992947e+18,0.0024233367294073105,0.025750525295734406,0.010965825989842415
1.721572607508295e+18,0.0006746200378984213,0.017646372318267822,0.008895209059119225
1.721572607514295e+18,-0.0012060570297762752,0.01744859293103218,0.00783572904765606
1.7215726075202952e+18,0.0034956957679241896,0.014201972633600235,0.009120037779211998
1.7215726075262953e+18,-0.0015855529345571995,0.015108928084373474,0.012483252212405205
1.7215726075322954e+18,-0.0004913581069558859,0.012577982619404793,0.01256457157433033
1.7215726075382956e+18,0.0007124145049601793,0.008107990026473999,0.009975135326385498
1.7215726075412956e+18,0.0006017830455675721,0.008300906978547573,0.008064338006079197
1.7215726075472957e+18,0.0019426369108259678,0.006471160799264908,0.012187947519123554
1.721572607553296e+18,0.00023000373039394617,0.004658287391066551,0.011359546333551407
1.721572607559296e+18,8.87144124135375e-05,0.0038834852166473866,0.010534627363085747
1.721572607565296e+18,0.004290041513741016,0.003865568432956934,0.008939716033637524
1.7215726075682962e+18,-0.0006622056243941188,0.0008869069861248136,0.008590996265411377
1.7215726075742963e+18,0.0012232408626005054,0.0017839500214904547,0.010877588763833046
1.7215726075802964e+18,-0.00019537104526534677,-0.0064237527549266815,0.011957760900259018
1.7215726075862966e+18,-0.0008056377409957349,-0.015698758885264397,0.011342884041368961
1.7215726075892966e+18,-0.0008216139394789934,-0.019035492092370987,0.0077324239537119865
1.7215726075952968e+18,-0.0006632935255765915,-0.032913897186517715,0.008964472450315952
1.721572607601297e+18,-0.00029568769969046116,-0.06400249898433685,0.011623168364167213
1.721572607607297e+18,-0.0033077665138989687,-0.09684612601995468,0.010286491364240646
1.7215726076132972e+18,-0.0028943908400833607,-0.12511499226093292,0.009885312058031559
1.7215726076192973e+18,0.0020692734979093075,-0.14711391925811768,0.0106088537722826
1.7215726076252974e+18,0.0012198211625218391,-0.17958256602287292,0.008272507227957249
1.7215726076312975e+18,0.0038509618025273085,-0.21154911816120148,0.012098756618797779
1.7215726076372977e+18,-0.000515750958584249,-0.24448327720165253,0.009450330398976803
1.7215726076432978e+18,-0.00027256872272118926,-0.2873477339744568,0.01086299680173397
1.721572607649298e+18,-0.002662156941369176,-0.3236439526081085,0.008441705256700516
1.721572607655298e+18,-0.0028915423899888992,-0.35477760434150696,0.010033885948359966
1.7215726076612982e+18,-0.0024311000015586615,-0.3779461085796356,0.009716447442770004
1.7215726076672983e+18,-0.005445575341582298,-0.39321017265319824,0.007894350215792656
1.7215726076732984e+18,-0.0027745647821575403,-0.3954908847808838,0.009880119934678078
1.7215726076792986e+18,-0.0018954987172037363,-0.39208242297172546,0.009502393193542957
1.7215726076852987e+18,-0.0007444873917847872,-0.39442119002342224,0.009059812873601913
1.7215726076882988e+18,0.0006354382494464517,-0.3982269763946533,0.011455848813056946
1.721572607694299e+18,0.0010492205619812012,-0.4003464877605438,0.008715336211025715
1.721572607700299e+18,0.0024860810954123735,-0.41510337591171265,0.01330486312508583
1.7215726077062991e+18,-0.000566367176361382,-0.4257335960865021,0.012299448251724243
1.7215726077122993e+18,-0.0030049034394323826,-0.4435502886772156,0.006422301754355431
1.7215726077182994e+18,-0.00248924782499671,-0.46018606424331665,0.01093012373894453
1.7215726077242995e+18,-0.0004478448536247015,-0.467710018157959,0.008385826833546162
1.7215726077302996e+18,-0.0020212361123412848,-0.4725998640060425,0.009170040488243103
1.7215726077362998e+18,-0.004615643993020058,-0.46643173694610596,0.012507406063377857
1.7215726077423e+18,-0.0010470477864146233,-0.4523381292819977,0.00939229130744934
1.7215726077483e+18,0.0028139499481767416,-0.43831324577331543,0.01141444407403469
1.7215726077543002e+18,-0.0008628236828371882,-0.42295020818710327,0.006833360530436039
1.7215726077603003e+18,-0.0007731395890004933,-0.40817758440971375,0.00862277951091528
1.7215726077663004e+18,0.0012989440001547337,-0.39439132809638977,0.010577399283647537
1.7215726077693005e+18,-0.0031813522800803185,-0.3878156244754791,0.005959846545010805
1.7215726077753006e+18,-0.00020222133025527,-0.38012003898620605,0.009046393446624279
1.7215726077813007e+18,-0.0002145328326150775,-0.3725143074989319,0.009042720310389996
1.7215726077873009e+18,-0.002899336162954569,-0.365988165140152,0.008664816617965698
1.721572607793301e+18,-0.0010475012240931392,-0.35612770915031433,0.007742619141936302
1.721572607796301e+18,-0.0005537851830013096,-0.3507218360900879,0.009954595938324928
1.7215726078023012e+18,-0.0014217972056940198,-0.3380413055419922,0.009643703699111938
1.7215726078083013e+18,0.00032921333331614733,-0.32696306705474854,0.009181655943393707
1.7215726078143014e+18,-0.001483748434111476,-0.3092395067214966,0.010771444998681545
1.7215726078203016e+18,-0.0015139374881982803,-0.29361608624458313,0.008950652554631233
1.7215726078233016e+18,-0.0021755488123744726,-0.2845967411994934,0.008981633000075817
1.7215726078293018e+18,-0.003843999467790127,-0.26992031931877136,0.008255405351519585
1.7215726078323018e+18,-0.0011466784635558724,-0.2610073685646057,0.009647675789892673
1.721572607838302e+18,0.0010881229536607862,-0.25148630142211914,0.010099644772708416
1.7215726078473021e+18,0.0008648568764328957,-0.2320915162563324,0.013152257539331913
1.7215726078533023e+18,-0.0010372076649218798,-0.22193913161754608,0.009654901921749115
1.7215726078593024e+18,0.00012343889102339745,-0.2108066976070404,0.012382583692669868
1.7215726078653025e+18,-0.001430145581252873,-0.20211370289325714,0.009431025944650173
1.7215726078713027e+18,-0.0010231845080852509,-0.1939082145690918,0.007914543151855469
1.7215726078773028e+18,-0.0011118516558781266,-0.18431979417800903,0.008865376003086567
1.721572607883303e+18,-0.0012434067903086543,-0.17495772242546082,0.012051604688167572
1.721572607889303e+18,-0.003461940912529826,-0.16484710574150085,0.01054876483976841
1.7215726078953032e+18,-0.0010293900268152356,-0.15212030708789825,0.010834899730980396
1.7215726079013033e+18,-0.0031826337799429893,-0.1413896083831787,0.011224351823329926
1.7215726079073034e+18,0.001974285114556551,-0.13041897118091583,0.010050810873508453
1.7215726079133036e+18,0.0009672633605077863,-0.12116995453834534,0.007575035560876131
1.7215726079193037e+18,0.0012663067318499088,-0.11410170793533325,0.008078956976532936
1.7215726079253038e+18,-0.0021379694808274508,-0.10583476722240448,0.010648493655025959
1.721572607931304e+18,-0.001476877718232572,-0.09731471538543701,0.00880724098533392
1.721572607937304e+18,-0.00026777724269777536,-0.08990980684757233,0.008799541741609573
1.7215726079433042e+18,0.0012319001834839582,-0.08665179461240768,0.007918591611087322
1.7215726079493043e+18,-0.0017478916561231017,-0.07901429384946823,0.00858316570520401
1.7215726079553044e+18,0.00010553311585681513,-0.07096858322620392,0.009521860629320145
1.7215726079613046e+18,-0.003901827149093151,-0.06615132093429565,0.007887312211096287
1.7215726079673047e+18,-9.842717554420233e-05,-0.05914395675063133,0.010581101290881634
1.7215726079733048e+18,-5.095865344628692e-05,-0.05677352845668793,0.007362546399235725
1.721572607979305e+18,-0.0013869134709239006,-0.04639885202050209,0.007757591549307108
1.721572607985305e+18,0.0009967410005629063,-0.042000360786914825,0.009866179898381233
1.7215726079913052e+18,0.0009450580691918731,-0.03679606318473816,0.008759559132158756
1.7215726079973053e+18,2.9330025427043438e-05,-0.03344513848423958,0.009393363259732723
1.7215726080033055e+18,0.0014622029848396778,-0.026822568848729134,0.01094368752092123
1.7215726080063055e+18,0.0018306171987205744,-0.02780253253877163,0.009307107888162136
1.7215726080153057e+18,-0.0009768453892320395,-0.022433290258049965,0.007130369544029236
1.7215726080213059e+18,-0.0017799683846533298,-0.018568627536296844,0.007050462532788515
1.721572608027306e+18,-0.0024160617031157017,-0.019497646018862724,0.008137390948832035
1.721572608030306e+18,-0.0023112387862056494,-0.017135391011834145,0.009454913437366486
1.7215726080393062e+18,-0.001993732061237097,-0.014658653177320957,0.006652157753705978
1.7215726080453064e+18,-0.002402713056653738,-0.0130380317568779,0.0075922440737485886
1.7215726080513065e+18,0.0008418883662670851,-0.008810138329863548,0.008916504681110382
1.7215726080573066e+18,0.0030560814775526524,-0.007333740592002869,0.007376841735094786
1.7215726080603067e+18,0.002305315574631095,-0.008791917935013771,0.007597412448376417
1.7215726080663068e+18,0.003781110979616642,-0.002486646408215165,0.010232768021523952
1.721572608072307e+18,0.002166994847357273,-0.0007125148549675941,0.009026836603879929
1.721572608078307e+18,0.0020875344052910805,0.0011651325039565563,0.0065767113119363785
1.7215726080843072e+18,-0.0013588150031864643,0.0007940499344840646,0.006071757059544325
1.7215726080903073e+18,-0.0025372104719281197,0.001141867833212018,0.010111951269209385
1.7215726080963075e+18,-0.003569012973457575,0.0025922665372490883,0.008043619804084301
1.7215726081023076e+18,-0.0035588492173701525,0.0025529793929308653,0.007793020457029343
1.7215726081053076e+18,-0.0021574371494352818,0.001267851796001196,0.00799750816076994
1.7215726081113078e+18,-0.00022950954735279083,0.0066291531547904015,0.008187318220734596
1.721572608120308e+18,0.0009660914656706154,0.00482094194740057,0.007775718346238136
1.721572608123308e+18,0.00044397605233825743,0.0032312157563865185,0.010602728463709354
1.7215726081293082e+18,0.0004553524195216596,0.007707901764661074,0.006596549414098263
1.7215726081323082e+18,0.0017528028693050146,0.004269976634532213,0.005468684248626232
1.7215726081383084e+18,0.001392790232785046,0.010492626577615738,0.007240230683237314
1.7215726081443085e+18,-3.936601569876075e-05,0.011517769657075405,0.007844720035791397
1.7215726081503086e+18,5.944733857177198e-05,0.011839330196380615,0.009557364508509636
1.7215726081563087e+18,-0.001902453601360321,0.012101400643587112,0.0064676920883357525
1.7215726081623089e+18,-0.002808559685945511,0.015133125707507133,0.0055069043301045895
1.721572608168309e+18,-0.004211831837892532,0.0109199034050107,0.007112046238034964
1.7215726081773092e+18,-0.0008568823104724288,0.013480434194207191,0.010430431924760342
1.7215726081803092e+18,-1.1938740499317646e-05,0.01762087643146515,0.008402674458920956
1.7215726081893094e+18,-0.0013148884754627943,0.016951438039541245,0.007282240316271782
1.7215726081923095e+18,0.0007344609475694597,0.014434326440095901,0.0066909100860357285
1.7215726081983096e+18,0.003404428716748953,0.016414953395724297,0.009474036283791065
1.7215726082043098e+18,0.0024749331641942263,0.013982169330120087,0.005890272557735443
1.72157260821031e+18,0.002010743599385023,0.017236055806279182,0.006594974081963301
1.72157260821631e+18,0.003087884746491909,0.01554587110877037,0.006741780322045088
1.7215726082223101e+18,-0.0022491125855594873,0.018734313547611237,0.007293181028217077
1.7215726082283103e+18,-0.0005709031829610467,0.022620873525738716,0.009626113809645176
1.7215726082343104e+18,-0.0025982337538152933,0.023152964189648628,0.009255471639335155
1.7215726082403105e+18,-0.004922875203192234,0.025395287200808525,0.0067770048044621944
1.7215726082463107e+18,-0.004997574724256992,0.027893144637346268,0.00939617957919836
1.7215726082523108e+18,-0.00226665660738945,0.026317467913031578,0.006544979754835367
1.721572608258311e+18,-0.0014378199120983481,0.026763087138533592,0.00704204011708498
1.721572608264311e+18,-0.00020290666725486517,0.023287618532776833,0.005136602092534304
1.7215726082703112e+18,0.0037855589762330055,0.026101239025592804,0.005226374603807926
1.7215726082763113e+18,0.0019623921252787113,0.025402070954442024,0.00801266822963953
1.7215726082823114e+18,0.0033124471083283424,0.024772899225354195,0.007641306146979332
1.7215726082853115e+18,0.005232488736510277,0.027177372947335243,0.006269199773669243
1.7215726082913116e+18,0.0031756344251334667,0.028332464396953583,0.008258940652012825
1.7215726082973117e+18,0.0005286578088998795,0.02954261563718319,0.00549485394731164
1.721572608303312e+18,-0.0006706831627525389,0.03067583404481411,0.008213735185563564
1.721572608312312e+18,-0.00340813840739429,0.031286489218473434,0.0053743356838822365
1.721572608315312e+18,-0.005693289451301098,0.03155894577503204,0.009918584488332272
1.7215726083243123e+18,-0.002029979834333062,0.030718110501766205,0.008602691814303398
1.7215726083303124e+18,-0.0011707039084285498,0.03661474213004112,0.007305075414478779
1.7215726083363126e+18,0.003638202091678977,0.03690962493419647,0.0068018012680113316
1.7215726083393126e+18,-0.002327789319679141,0.03467487916350365,0.007379369810223579
1.7215726083483128e+18,0.003727927105501294,0.03548154979944229,0.00821706559509039
1.721572608351313e+18,0.0012715754564851522,0.03761155530810356,0.002803388051688671
1.721572608357313e+18,0.0022012339904904366,0.03448766842484474,0.0072424644604325294
1.7215726083633132e+18,0.00481087900698185,0.03345508873462677,0.007132598664611578
1.7215726083693133e+18,-0.0014740199549123645,0.03288204222917557,0.007443864364176989
1.7215726083753134e+18,-0.0018886657198891044,0.0339919738471508,0.008338000625371933
1.7215726083813135e+18,-0.0002894176868721843,0.029901497066020966,0.008530755527317524
1.7215726083873137e+18,-0.005427690222859383,0.0294870063662529,0.0068731969222426414
1.7215726083933138e+18,-0.0015130669344216585,0.03423834592103958,0.0067481789737939835
1.7215726083963139e+18,-0.0018407402094453573,0.03379937261343002,0.00698591023683548
1.721572608402314e+18,-0.0023269529920071363,0.03104250878095627,0.007593119516968727
1.721572608408314e+18,0.0017484233248978853,0.03246011584997177,0.00902901403605938
1.7215726084113142e+18,0.002034482080489397,0.03461243957281113,0.00836571492254734
1.7215726084173143e+18,0.0032887367997318506,0.03437424451112747,0.007951028645038605
1.7215726084203144e+18,0.004748001229017973,0.032862670719623566,0.0071529787965118885
1.7215726084263145e+18,0.0015900966245681047,0.035417553037405014,0.006451998837292194
1.7215726084323146e+18,0.003862404963001609,0.033188596367836,0.008078726939857006
1.7215726084383148e+18,0.00016380019951611757,0.03393489867448807,0.005390958860516548
1.721572608444315e+18,0.0020446963608264923,0.03423454985022545,0.005621636286377907
1.721572608450315e+18,-0.005211896263062954,0.03347896784543991,0.005326268263161182
1.7215726084563151e+18,-0.003686516545712948,0.03515031933784485,0.005496397614479065
1.7215726084623153e+18,-0.005542821250855923,0.032677728682756424,0.006734163034707308
1.7215726084683154e+18,-0.0035293481778353453,0.0347762256860733,0.007581960875540972
1.7215726084743155e+18,-0.002796351909637451,0.03416593000292778,0.00648124935105443
1.7215726084833157e+18,-0.0004476418253034353,0.03666531294584274,0.005898050498217344
1.7215726084863158e+18,0.0024618138559162617,0.03595034405589104,0.006418295204639435
1.721572608492316e+18,0.0009269219590350986,0.03680214658379555,0.006987397558987141
1.721572608498316e+18,0.0011300604091957211,0.03742831200361252,0.006325234193354845
1.7215726085043162e+18,0.0022843435872346163,0.04482509195804596,0.0067166415974497795
1.7215726085103163e+18,-0.0033263079822063446,0.05014774203300476,0.004743934143334627
1.7215726085163164e+18,-0.0005702429916709661,0.06146267056465149,0.005801815539598465
1.7215726085223165e+18,0.00016299786511808634,0.07230174541473389,0.00828729197382927
1.7215726085283167e+18,0.002354659605771303,0.07868023216724396,0.009211607277393341
1.7215726085343168e+18,0.00013058725744485855,0.08070819079875946,0.008442407473921776
1.721572608540317e+18,-0.00015710477600805461,0.08670247346162796,0.006003111135214567
1.721572608546317e+18,-0.0007695562671869993,0.09374892711639404,0.00900245551019907
1.7215726085523172e+18,0.0009549550013616681,0.10671278089284897,0.006068470422178507
1.7215726085583173e+18,0.0010018208995461464,0.11799303442239761,0.007730056997388601
1.7215726085643174e+18,0.001782701932825148,0.13010664284229279,0.007913089357316494
1.7215726085703176e+18,-0.0023807925172150135,0.13493429124355316,0.00705863069742918
1.7215726085763177e+18,-0.0023868444841355085,0.14654512703418732,0.0078088510781526566
1.7215726085823178e+18,0.0008719388861209154,0.14644823968410492,0.007599826902151108
1.721572608588318e+18,-0.0027485485188663006,0.1474476456642151,0.005792629439383745
1.721572608594318e+18,-0.0002634350676089525,0.15494567155838013,0.007220244966447353
1.7215726086003182e+18,-0.002807615790516138,0.1624978631734848,0.004727744031697512
1.7215726086063183e+18,-0.0032985717989504337,0.17183032631874084,0.0067113726399838924
1.7215726086123185e+18,-0.0013077018084004521,0.18889982998371124,0.0060829236172139645
1.7215726086183186e+18,0.00013197588850744069,0.20863524079322815,0.007784136105328798
1.7215726086243187e+18,0.0007968482095748186,0.22591139376163483,0.004665912128984928
1.7215726086273188e+18,-0.0009323945268988609,0.23290561139583588,0.004821734502911568
1.721572608633319e+18,0.0013415757566690445,0.24819022417068481,0.00849197804927826
1.721572608639319e+18,0.001471672672778368,0.2712140381336212,0.006522280629724264
1.7215726086453192e+18,-0.0035282825119793415,0.28225064277648926,0.004475930705666542
1.7215726086513193e+18,0.0017380192875862122,0.2889038920402527,0.006801357958465815
1.7215726086573194e+18,0.0022592998575419188,0.29303601384162903,0.00456995191052556
1.7215726086633196e+18,0.0017802647780627012,0.294428288936615,0.007071012631058693
1.7215726086693197e+18,0.0013282845029607415,0.29760846495628357,0.002898639999330044
1.7215726086753198e+18,-3.700066008605063e-05,0.30523255467414856,0.0066304681822657585
1.72157260868132e+18,0.0005538790137507021,0.3161879777908325,0.004235848318785429
1.72157260868732e+18,-0.0016115426551550627,0.32561370730400085,0.008069828152656555
1.7215726086933202e+18,-0.0012414506636559963,0.34114935994148254,0.00333507196046412
1.7215726086993203e+18,0.0006222029333002865,0.3582652807235718,0.006133190356194973
1.7215726087053204e+18,-0.00010939827188849449,0.3695657253265381,0.006539174355566502
1.7215726087113206e+18,-0.0001990955788642168,0.38268613815307617,0.006039898842573166
1.7215726087173207e+18,-0.0019874623976647854,0.3841537535190582,0.005514378659427166
1.7215726087233208e+18,-0.0004994344781152904,0.3850315809249878,0.0046682502143085
1.721572608729321e+18,0.002103238832205534,0.37781962752342224,0.006269649602472782
1.721572608735321e+18,0.0008784026140347123,0.3656422793865204,0.007466322276741266
1.7215726087413212e+18,-0.004309265408664942,0.3510644733905792,0.008492517285048962
1.7215726087473213e+18,-0.0004932593437843025,0.3412489593029022,0.005462057422846556
1.7215726087533215e+18,-0.0027828935999423265,0.32655829191207886,0.005595998838543892
1.7215726087593216e+18,0.0023702848702669144,0.318865031003952,0.006398877594619989
1.7215726087653217e+18,-0.0008719600737094879,0.31330400705337524,0.006351368501782417
1.7215726087683218e+18,0.0008748698746785522,0.31037434935569763,0.0067570093087852
1.721572608774322e+18,0.0016873579006642103,0.30678892135620117,0.006157345604151487
1.721572608780322e+18,-1.5314959455281496e-05,0.29827117919921875,0.008534552529454231
1.7215726087863222e+18,0.003926606848835945,0.29167407751083374,0.0066080400720238686
1.7215726087923223e+18,-0.000564832822419703,0.2783244848251343,0.006437534932047129
1.7215726087983224e+18,0.0004963893443346024,0.26368027925491333,0.00808629672974348
1.7215726088043226e+18,0.002250454155728221,0.25145861506462097,0.003923027776181698
1.7215726088103227e+18,-0.0024074329994618893,0.2344958633184433,0.005655665881931782
1.7215726088163228e+18,0.0001403425121679902,0.2206684947013855,0.007036000955849886
1.721572608822323e+18,-0.0027981149032711983,0.2101464569568634,0.008474739268422127
1.721572608828323e+18,-0.0012257022317498922,0.19287508726119995,0.0059615145437419415
1.7215726088313231e+18,0.0019773817621171474,0.19183534383773804,0.007500512059777975
1.7215726088373233e+18,0.00014376325998455286,0.18256351351737976,0.004262921866029501
1.7215726088433234e+18,0.001435731304809451,0.17120487987995148,0.007652859203517437
1.7215726088493235e+18,0.0027371225878596306,0.16524721682071686,0.006690210197120905
1.7215726088553236e+18,0.0012963537592440844,0.1562281996011734,0.004071205388754606
1.7215726088613238e+18,0.002554632956162095,0.1456097960472107,0.006218136753886938
1.721572608867324e+18,0.00412712711840868,0.13996385037899017,0.005778005346655846
1.721572608873324e+18,-0.0010592594044283032,0.13001488149166107,0.005051807034760714
1.7215726088793242e+18,-0.001995752565562725,0.11704331636428833,0.004904715344309807
1.7215726088853243e+18,-0.0014152666553854942,0.11017441004514694,0.004812776111066341
1.7215726088913244e+18,-0.002457207068800926,0.10019301623106003,0.0040130615234375
1.7215726088973245e+18,-0.00022474367870017886,0.09191125631332397,0.003726301481947303
1.7215726089033247e+18,0.0016929926350712776,0.0837012380361557,0.0070535168051719666
1.7215726089093248e+18,0.0006909960648044944,0.07847322523593903,0.009338462725281715
1.721572608915325e+18,0.0031398525461554527,0.07231811434030533,0.005110707134008408
1.721572608921325e+18,0.002268244046717882,0.06680949032306671,0.006850073579698801
1.7215726089273252e+18,0.0005531411152333021,0.06474164873361588,0.01067892462015152
1.7215726089333253e+18,0.0009989626705646515,0.0566856749355793,0.007609275169670582
1.7215726089393254e+18,0.00010693952208384871,0.05541380122303963,0.006061958614736795
1.7215726089483256e+18,-0.003589506959542632,0.04428711533546448,0.007880599237978458
1.7215726089513257e+18,-0.0019193439511582255,0.04382975772023201,0.003862603334710002
1.7215726089573258e+18,-0.0026081684045493603,0.03699697181582451,0.004140162840485573
1.721572608963326e+18,-0.0028006676584482193,0.03136426582932472,0.006554940715432167
1.721572608969326e+18,-0.00022106600226834416,0.029775753617286682,0.008615601807832718
1.7215726089753262e+18,0.0014678133884444833,0.023067573085427284,0.0036617505829781294
1.7215726089783263e+18,0.000743429409340024,0.022653907537460327,0.006622157525271177
1.7215726089843264e+18,0.00268452987074852,0.022368665784597397,0.005977409426122904
1.7215726089903265e+18,-0.00020290398970246315,0.016071567311882973,0.005195660050958395
1.7215726089963267e+18,-0.0015841030981391668,0.014393441379070282,0.006679974030703306
1.7215726090023268e+18,0.0007738121785223484,0.011576659977436066,0.006135447416454554
1.721572609008327e+18,-0.000496661989018321,0.01194566860795021,0.008909722790122032
1.721572609014327e+18,-0.0031332694925367832,0.008512069471180439,0.006696789991110563
1.7215726090203272e+18,-0.0026299869641661644,0.007049268577247858,0.00610138988122344
1.7215726090263273e+18,0.0005286074592731893,0.0035888212732970715,0.0069918278604745865
1.7215726090323274e+18,-0.0022117579355835915,0.0013549237046390772,0.007806018460541964
1.7215726090383276e+18,-7.252173963934183e-05,0.003776456927880645,0.00459752231836319
1.7215726090443277e+18,-0.0029564807191491127,0.0014088416937738657,0.0036348558496683836
1.7215726090503278e+18,0.001901912153698504,-0.00224719918332994,0.006943987682461739
1.721572609056328e+18,-0.00034727808088064194,-0.0026872274465858936,0.008093539625406265
1.721572609062328e+18,0.003401603549718857,0.001390958554111421,0.006723048165440559
1.7215726090683282e+18,0.0021287628915160894,-0.004017413128167391,0.003736400045454502
1.7215726090743283e+18,0.0020870640873908997,-0.003914316650480032,0.008081119507551193
1.7215726090803284e+18,-0.003133294405415654,-0.0032581910490989685,0.007354177534580231
1.7215726090863286e+18,-0.0018412210047245026,-0.006657751277089119,0.00636086193844676
1.7215726090923287e+18,-0.002805450465530157,-0.004311784636229277,0.010055375285446644
1.7215726090983288e+18,-0.0008137959521263838,-0.0029108338057994843,0.0062112584710121155
1.721572609101329e+18,-0.0030567976646125317,-0.0035464190877974033,0.004939376376569271
1.721572609110329e+18,0.0015399670228362083,-0.0032324600033462048,0.004998264368623495
1.7215726091133292e+18,0.0015663718804717064,-0.008475543931126595,0.005195993464440107
1.7215726091223293e+18,0.0016365135088562965,-0.0013373179826885462,0.009162163361907005
1.7215726091253294e+18,-0.0019447887316346169,-0.006997919175773859,0.008297856897115707
1.7215726091313295e+18,0.0005355350440368056,-0.006595049984753132,0.004563435446470976
1.7215726091373297e+18,0.001688509713858366,-0.005231637042015791,0.006902154069393873
1.7215726091433298e+18,0.0018745579291135073,-0.005576800554990768,0.006769406609237194
1.72157260915233e+18,-0.0008007882861420512,-0.005062279757112265,0.009396519511938095
1.72157260915533e+18,0.0006362744024954736,-0.0015343781560659409,0.006109468638896942
1.7215726091643302e+18,-0.0010868078097701073,-0.004715119954198599,0.005289808847010136
1.7215726091673303e+18,-0.0023382222279906273,-0.004973963834345341,0.007492656819522381
1.7215726091733304e+18,0.0011264923959970474,-0.0006386858876794577,0.00707464013248682
1.7215726091793306e+18,0.0021450903732329607,-0.0026710457168519497,0.005467311944812536
1.7215726091853307e+18,-0.0020721410401165485,-0.00042957626283168793,0.004709608852863312
1.7215726091883308e+18,0.0006380868144333363,-0.000788517645560205,0.010895734652876854
1.721572609194331e+18,0.0013117369962856174,-0.002985526341944933,0.008433222770690918
1.721572609200331e+18,7.549428846687078e-05,-0.004419030621647835,0.007794128730893135
1.7215726092063311e+18,8.576380787417293e-05,-0.0032738568261265755,0.007296167314052582
1.7215726092123313e+18,-0.000525840325281024,-0.0018422683933749795,0.00859469547867775
1.7215726092183314e+18,-0.0008502640412189066,-0.0030678336042910814,0.00584487896412611
1.7215726092243315e+18,-0.0009045842452906072,3.3654505386948586e-05,0.009014574810862541
1.7215726092303316e+18,-0.0021061988081783056,-0.003612970933318138,0.0063202157616615295
1.7215726092363318e+18,0.0006681058439426124,0.0004739522119052708,0.008342927321791649
1.721572609242332e+18,0.0022445039357990026,0.0010118099162355065,0.00861549936234951
1.721572609248332e+18,0.0004589371383190155,-0.0007079194183461368,0.009344837628304958
1.7215726092543322e+18,0.00448645418509841,-0.00017043118714354932,0.007096567656844854
1.7215726092603323e+18,0.0033029871992766857,0.0014454229967668653,0.007927963510155678
1.7215726092633324e+18,0.0038343160413205624,0.0014238099101930857,0.007259387988597155
1.7215726092693325e+18,0.0021181146148592234,-0.001682644127868116,0.008018692955374718
1.7215726092753326e+18,0.0028640809468925,0.001360768685117364,0.006967390421777964
1.7215726092813327e+18,9.811087511479855e-05,-0.0005032655317336321,0.00603809580206871
1.7215726092873329e+18,-0.0028757741674780846,0.00044936221092939377,0.006509446073323488
1.721572609293333e+18,-0.0017821402288973331,0.0025024721398949623,0.008473727852106094
1.721572609296333e+18,-0.0027973002288490534,0.0011014078045263886,0.008103211410343647
1.7215726093023332e+18,-0.003910912666469812,0.0024785397108644247,0.005655234679579735
1.7215726093083333e+18,-0.0002408769796602428,0.0003758764360100031,0.00604820204898715
1.7215726093143334e+18,0.0003530855756253004,0.004803480580449104,0.004801369272172451
1.7215726093203336e+18,-1.5623110812157393e-05,0.003179371589794755,0.006879633292555809
1.7215726093263337e+18,-4.342035390436649e-05,0.001636195695027709,0.007829394191503525
1.7215726093323338e+18,-1.2945383787155151e-05,0.003197506070137024,0.007620600517839193
1.721572609338334e+18,0.004361634608358145,0.0034103926736861467,0.008437687531113625
1.721572609344334e+18,0.0036261449567973614,0.0013882447965443134,0.006539188325405121
1.7215726093503342e+18,0.0019625097047537565,0.0024726837873458862,0.006447067949920893
1.7215726093563343e+18,0.0031660296954214573,0.0010754121467471123,0.009051930159330368
1.7215726093653345e+18,0.0027438753750175238,0.003526082029566169,0.00499343778938055
1.7215726093713347e+18,-0.0027619367465376854,0.0026104249991476536,0.0063696252182126045
1.7215726093773348e+18,0.0011981424177065492,0.0056324852630496025,0.007690504193305969
1.721572609383335e+18,-0.0019509459380060434,0.003407028503715992,0.007052285131067038
1.721572609389335e+18,-0.0025239395909011364,0.0038976864889264107,0.00475266482681036
1.7215726093953352e+18,-0.0002610748924780637,0.007237905636429787,0.008499582298099995
1.7215726094013353e+18,0.001770900096744299,0.005044859834015369,0.005315650720149279
1.7215726094073354e+18,0.0010725222527980804,0.005498482380062342,0.0028242263942956924
1.7215726094163356e+18,0.0035047840792685747,0.006250721402466297,0.00605917489156127
1.7215726094193357e+18,0.0060997772961854935,0.006193900480866432,0.008382696658372879
1.7215726094283359e+18,0.004986180923879147,0.003729838179424405,0.005433560814708471
1.721572609434336e+18,0.002380728255957365,0.004736661445349455,0.0090131014585495
1.7215726094403361e+18,0.006654324010014534,0.004233286250382662,0.006312516052275896
1.7215726094463363e+18,-0.0026113649364560843,0.0023911437019705772,0.008787855505943298
1.7215726094493363e+18,-0.00014117264072410762,0.0015518423169851303,0.007480912376195192
1.7215726094553364e+18,-0.00476026488468051,0.003706554649397731,0.004037536680698395
1.7215726094613366e+18,-0.0016952829901129007,0.004094713367521763,0.01105417124927044
1.7215726094703368e+18,-0.00022156117483973503,0.005478278733789921,0.007081630639731884
1.7215726094733368e+18,0.0016935128951445222,0.005244302563369274,0.006206349935382605
1.721572609482337e+18,0.0012080766027793288,0.008087102323770523,0.00811445526778698
1.7215726094883372e+18,0.0016594940098002553,0.00926152616739273,0.007203929591923952
1.7215726094943373e+18,0.003971385769546032,0.008959169499576092,0.006998279597610235
1.7215726095003374e+18,0.002416206756606698,0.007789586670696735,0.006288833916187286
1.7215726095063375e+18,0.001848416868597269,0.003155988408252597,0.00325792096555233
1.7215726095123377e+18,0.002850188873708248,0.0029924260452389717,0.007172263227403164
1.7215726095213379e+18,-0.0015313499607145786,0.0008387601701542735,0.006208892911672592
1.721572609524338e+18,0.0003305668942630291,0.002709872554987669,0.0072806100361049175
1.721572609530338e+18,0.00031755928648635745,0.0016847362276166677,0.004536624997854233
1.7215726095363382e+18,-0.0006322168046608567,-7.47202429920435e-05,0.006856677122414112
1.7215726095423383e+18,0.002605194691568613,0.003924449440091848,0.006470592692494392
1.7215726095483384e+18,0.0011876292992383242,0.0020099636167287827,0.007252805400639772
1.7215726095543386e+18,0.002176465932279825,0.007271959446370602,0.009600430727005005
1.7215726095603387e+18,0.0017333150608465075,0.006891247816383839,0.009425254538655281
1.7215726095663388e+18,0.0016172146424651146,0.006826902274042368,0.007418669760227203
1.721572609572339e+18,0.0014595219399780035,0.0038664296735078096,0.005430704914033413
1.721572609578339e+18,0.0008480163523927331,0.006668526213616133,0.005455534905195236
1.7215726095843392e+18,-5.490449257194996e-05,0.005070625338703394,0.0087518822401762
1.7215726095873393e+18,0.0015990131068974733,0.004026683978736401,0.006811922881752253
1.7215726095933394e+18,0.0006563516799360514,0.0027722548693418503,0.00787672121077776
1.7215726095993395e+18,0.00504213385283947,0.005460493732243776,0.004412908107042313
1.7215726096053396e+18,0.0013612353941425681,0.003782527754083276,0.008727885782718658
1.7215726096143398e+18,0.0017171262297779322,0.005300526507198811,0.008311697281897068
1.72157260961734e+18,0.0009427430341020226,0.0048462869599461555,0.005068250931799412
1.72157260962634e+18,0.00015542050823569298,0.0045382180251181126,0.008911200799047947
1.7215726096323402e+18,0.0027206833474338055,0.00460414495319128,0.007849049754440784
1.7215726096383404e+18,0.0006857393309473991,0.0036722056102007627,0.005826228763908148
1.7215726096443405e+18,-0.0007979203946888447,0.006332017481327057,0.009342501871287823
1.7215726096503406e+18,0.005049305967986584,0.004460538271814585,0.0064075482077896595
1.7215726096563407e+18,-0.0007363473996520042,0.002976510673761368,0.010351147502660751
1.7215726096623409e+18,0.0004316196427680552,0.002852095989510417,0.007399098947644234
1.721572609671341e+18,0.003698732703924179,8.888333104550838e-05,0.010334808379411697
1.7215726096773412e+18,0.0009538752492517233,0.0036979306023567915,0.008615956641733646
1.7215726096833413e+18,0.00029797054594382644,0.0018507501808926463,0.008752308785915375
1.7215726096893414e+18,0.0003927790094166994,0.0036334828473627567,0.00951356254518032
1.7215726096953416e+18,0.0019227832090109587,0.0032917954958975315,0.008092946372926235
1.7215726097013417e+18,-0.0013922974467277527,0.0026187703479081392,0.010931339114904404
1.7215726097073418e+18,0.0009882275480777025,0.003971101716160774,0.007626865990459919
1.721572609713342e+18,-7.41186086088419e-05,0.0028633365873247385,0.007496739737689495
1.721572609719342e+18,0.0007256481912918389,0.0004284251481294632,0.006771727465093136
1.7215726097253422e+18,0.0028469443786889315,0.004628274589776993,0.007720008958131075
1.7215726097313423e+18,0.004892964381724596,0.002251428784802556,0.004378326237201691
1.7215726097373425e+18,0.004583672620356083,0.0028973305597901344,0.009797363542020321
1.7215726097433426e+18,0.0040437462739646435,0.0025838492438197136,0.00825294479727745
1.7215726097493427e+18,0.002439089585095644,0.0041629960760474205,0.007859944365918636
1.7215726097523428e+18,0.0051945713348686695,0.002916694153100252,0.007739461958408356
1.721572609758343e+18,0.001159959239885211,0.0031202600803226233,0.006577309686690569
1.721572609764343e+18,0.002771336818113923,0.0020156316459178925,0.008039617910981178
1.7215726097703432e+18,0.0009070136584341526,0.002207075245678425,0.006138231139630079
1.7215726097763433e+18,-0.0014424675609916449,0.003943354357033968,0.005902978591620922
1.7215726097823434e+18,-0.0006109916721470654,0.00046930916141718626,0.010131623595952988
1.7215726097883436e+18,-0.0011877960059791803,0.0010185216087847948,0.009944085963070393
1.7215726097943437e+18,3.468245267868042e-05,0.0016880379989743233,0.008596218191087246
1.7215726098003438e+18,0.005357318092137575,0.003608615603297949,0.006760922726243734
1.721572609806344e+18,0.0016035849694162607,0.0037058412563055754,0.007351844571530819
1.721572609812344e+18,0.0034917450975626707,0.0025089383125305176,0.006283708848059177
1.7215726098183442e+18,0.0031717438250780106,0.0030527235940098763,0.008461806923151016
1.7215726098243443e+18,0.004699226468801498,0.0023191412910819054,0.008551398292183876
1.7215726098303444e+18,0.004652621690183878,0.0014363115187734365,0.008740616030991077
1.7215726098363446e+18,0.0038536025676876307,0.002653280273079872,0.011848736554384232
1.7215726098453448e+18,0.0017396619077771902,0.0015166677767410874,0.010435489937663078
1.721572609851345e+18,-0.0023424774408340454,0.005354304797947407,0.007523717824369669
1.721572609857345e+18,0.0015268513234332204,-0.0001642541028559208,0.006898373365402222
1.721572609860345e+18,-0.000494927866384387,0.0020659775473177433,0.006255138665437698
1.7215726098663452e+18,-0.0011365619720891118,0.0006961865583434701,0.004793873056769371
1.7215726098723453e+18,0.0003357966197654605,0.0025163583923131227,0.004045308567583561
1.7215726098783455e+18,0.0032261551823467016,0.004092044662684202,0.007358217611908913
1.7215726098843456e+18,0.002428018720820546,0.002560725901275873,0.005956070963293314
1.7215726098873457e+18,0.003236627671867609,0.004056097008287907,0.008282732218503952
1.7215726098933458e+18,0.005315474234521389,-5.491974297910929e-05,0.007680003065615892
1.721572609899346e+18,0.0010981301311403513,0.004215745255351067,0.011105947196483612
1.721572609905346e+18,0.002831835299730301,0.0032162624411284924,0.004692164249718189
1.7215726099113462e+18,0.0004524526884779334,0.0006131785921752453,0.00778515450656414
1.7215726099143462e+18,0.0004294222453609109,0.0044718594290316105,0.008458533324301243
1.7215726099203464e+18,-0.003428352763876319,0.0013586509739980102,0.006307083182036877
1.7215726099263465e+18,0.003179033985361457,0.0036076982505619526,0.006101410370320082
1.7215726099293466e+18,0.0033619157038629055,0.0017715386347845197,0.007374537643045187
1.7215726099353467e+18,0.0050144437700510025,-0.0008539881091564894,0.006314051803201437
1.7215726099413468e+18,0.005963064730167389,0.0025616923812776804,0.010060861706733704
1.721572609947347e+18,0.007020267657935619,0.0010516889160498977,0.005566919222474098
1.721572609953347e+18,0.005956904962658882,0.0003622156800702214,0.007832333445549011
1.7215726099593472e+18,0.0023487508296966553,0.0035426090471446514,0.010045666247606277
1.7215726099653473e+18,0.0016237198142334819,0.0010896689491346478,0.008205018937587738
1.7215726099743475e+18,-0.0034254086203873158,0.0026648668572306633,0.006087613292038441
1.7215726099803476e+18,-0.0043181623332202435,0.0037097218446433544,0.01048614364117384
1.7215726099863478e+18,-0.0006561670452356339,0.004134609829634428,0.008019424974918365
1.721572609992348e+18,-0.0019810511730611324,0.0024662914220243692,0.008025878109037876
1.721572609998348e+18,0.001490990398451686,0.0022917527239769697,0.007725284434854984
1.7215726100043482e+18,0.0033402794506400824,0.0031304145231842995,0.0053514218889176846
1.7215726100103483e+18,0.005347952246665955,0.0024447194300591946,0.009918645955622196
1.7215726100163484e+18,0.005726783536374569,0.0019767573103308678,0.008855338208377361
1.7215726100193485e+18,0.004126329906284809,9.773951023817062e-05,0.00591271510347724
1.7215726100253486e+18,0.006013643462210894,0.001638402696698904,0.009791795164346695
1.7215726100313487e+18,0.0008808658458292484,-0.0008731614798307419,0.008385950699448586
1.7215726100373489e+18,0.0022485472727566957,0.0014797620242461562,0.009281497448682785
1.721572610043349e+18,0.0015042972518131137,0.0005553336814045906,0.009788664057850838
1.721572610049349e+18,0.0008556711836718023,0.004229557700455189,0.006092420779168606
1.7215726100553492e+18,0.001969017554074526,0.003813172224909067,0.011208699084818363
1.7215726100613494e+18,-0.0007342996541410685,0.003130005206912756,0.006616693455725908
1.7215726100673495e+18,0.003218927886337042,0.003302231663838029,0.008157028816640377
1.7215726100733496e+18,-0.00021014572121202946,0.0027745896950364113,0.009579487144947052
1.7215726100793498e+18,0.003617302281782031,0.0008479267708025873,0.007385551929473877
1.72157261008535e+18,0.0026692694518715143,0.001476200995966792,0.008852587081491947
1.72157261009135e+18,-6.038183346390724e-05,0.0022892740089446306,0.008883263915777206
1.7215726100973501e+18,0.0024776291102170944,0.002158265095204115,0.009392015635967255
1.7215726101033503e+18,0.002319654216989875,0.002237635897472501,0.006119485944509506
1.7215726101093504e+18,0.0009693388710729778,0.0033860369585454464,0.007643488701432943
1.7215726101153505e+18,0.0037731011398136616,0.001586391357704997,0.006259604822844267
1.7215726101213507e+18,0.003593137487769127,0.0014431104063987732,0.00641091400757432
1.7215726101273508e+18,0.0023295078426599503,-0.0007957639172673225,0.009713984094560146
1.721572610133351e+18,0.0008294468862004578,0.002239533932879567,0.008259296417236328
1.721572610139351e+18,0.0020349747501313686,0.0023117728997021914,0.009831227362155914
1.7215726101453512e+18,-0.00013474869774654508,0.0005337181501090527,0.006592919584363699
1.7215726101513513e+18,0.0013999117072671652,-0.0008683769265189767,0.007567116990685463
1.7215726101573514e+18,-0.0011511206394061446,0.0012550740502774715,0.006546269170939922
1.7215726101633516e+18,0.00031873153056949377,0.001050581457093358,0.00965003203600645
1.7215726101693517e+18,0.0037571319844573736,0.001907892874442041,0.004745630547404289
1.7215726101753518e+18,0.004176148679107428,0.004493729677051306,0.005909315310418606
1.7215726101783519e+18,0.0033623655326664448,0.0029754217248409986,0.009844738058745861
1.721572610184352e+18,0.0033833603374660015,0.0031773708760738373,0.006535571534186602
1.7215726101903521e+18,0.0030030319467186928,0.0026444692630320787,0.008466941304504871
1.7215726101963523e+18,0.0008063215063884854,0.0038450369611382484,0.006179538555443287
1.7215726102023524e+18,0.00020047667203471065,0.0030987949576228857,0.006998875178396702
1.7215726102083525e+18,-0.0017341533675789833,-8.53178498800844e-05,0.007849147543311119
1.7215726102143526e+18,0.00035766465589404106,-0.0003763968124985695,0.008021530695259571
1.7215726102203528e+18,0.0031507827807217836,-0.002043863758444786,0.008386170491576195
1.721572610226353e+18,0.0031769706401973963,0.00012228955165483057,0.006728918757289648
1.721572610232353e+18,0.0049451375380158424,0.0032232655212283134,0.007305137813091278
1.7215726102383532e+18,0.0018854269292205572,-0.003943063318729401,0.006219354923814535
1.7215726102443533e+18,0.004857970867305994,-0.0011917977826669812,0.009222758002579212
1.7215726102503534e+18,0.0024307311978191137,-0.0008854459738358855,0.007360965479165316
1.7215726102563535e+18,0.003931121435016394,0.0018245786195620894,0.006511615589261055
1.7215726102623537e+18,-0.0019144366960972548,0.0029268942307680845,0.007464879658073187
1.7215726102683538e+18,-0.0008555646054446697,0.0018051143269985914,0.0075425938703119755
1.721572610274354e+18,-0.00011420116788940504,0.002085317624732852,0.0049924179911613464
1.721572610280354e+18,0.0016451864503324032,-0.0008484263671562076,0.009507587179541588
1.7215726102863542e+18,-3.4860247978940606e-05,-0.001086681499145925,0.006192319095134735
1.7215726102923543e+18,0.0012368857860565186,0.0018038323614746332,0.0080929109826684
1.7215726102983544e+18,0.0010451811831444502,-0.0010761503363028169,0.008630114607512951
1.7215726103043546e+18,0.005718173459172249,0.001660847570747137,0.010035312734544277
1.7215726103103547e+18,0.005817362107336521,0.0018432994838804007,0.007842035964131355
1.7215726103163548e+18,1.5079742297530174e-05,4.042533691972494e-05,0.007844273932278156
1.721572610322355e+18,0.0018631166312843561,-0.00014600809663534164,0.00645482400432229
1.721572610328355e+18,0.00036001892294734716,-0.0007004727376624942,0.008644603192806244
1.7215726103343552e+18,-0.00030072417575865984,0.003086710814386606,0.008621890097856522
1.7215726103403553e+18,0.0015009259805083275,0.0020664087496697903,0.006608365103602409
1.7215726103463555e+18,0.0001423321373295039,-0.00028158468194305897,0.009336119517683983
1.7215726103523556e+18,0.0018569370731711388,0.0027238086331635714,0.004757535178214312
1.7215726103613558e+18,0.0022445940412580967,0.0019162371754646301,0.00952199287712574
1.721572610367356e+18,0.005026753526180983,0.0007422135095112026,0.00633140979334712
1.721572610373356e+18,0.0033341317903250456,-9.593227878212929e-05,0.0071144565008580685
1.7215726103793562e+18,0.001989080337807536,0.0009454749524593353,0.007812106050550938
1.7215726103853563e+18,0.006036083213984966,0.0009004767052829266,0.005979452282190323
1.7215726103913564e+18,0.001955437008291483,0.002186025958508253,0.007012009620666504
1.7215726103973565e+18,0.0004946247208863497,0.0015718713402748108,0.004438905976712704
1.7215726104033567e+18,-0.00020924396812915802,0.0032906453125178814,0.006931181997060776
1.7215726104063567e+18,0.0019467659294605255,0.004490801133215427,0.007500834763050079
1.7215726104123569e+18,0.0018362067639827728,0.000691393855959177,0.007472270168364048
1.721572610418357e+18,0.0017273471457883716,0.00029605673626065254,0.009213050827383995
1.721572610424357e+18,0.002242188435047865,0.002453290158882737,0.007556574884802103
1.7215726104303572e+18,0.0016350701916962862,-0.0007995275082066655,0.006085457280278206
1.7215726104333573e+18,-0.0005040902178734541,0.004047864116728306,0.008600763976573944
1.7215726104393574e+18,0.00419085705652833,0.00039580941665917635,0.007322960067540407
1.7215726104453576e+18,0.0007665697485208511,0.002908382099121809,0.009491687640547752
1.7215726104483576e+18,0.0030031432397663593,0.003372365841642022,0.008053935132920742
1.7215726104543578e+18,0.00485592894256115,0.001981714041903615,0.007537244353443384
1.721572610460358e+18,0.004753537941724062,0.0021256576292216778,0.00792662613093853
1.721572610466358e+18,0.004432348534464836,0.0013072050642222166,0.007608671672642231
1.7215726104723581e+18,0.0010713288793340325,-0.0029244753532111645,0.008665486238896847
1.7215726104783583e+18,0.005050093866884708,0.0013252072967588902,0.00756123336032033
1.7215726104843584e+18,0.00028537109028548,0.0019061771454289556,0.004871964920312166
1.7215726104903585e+18,-0.0002590190852060914,0.001980043947696686,0.007941773161292076
1.7215726104963587e+18,0.00041026691906154156,0.0008881908725015819,0.008033127523958683
1.7215726105023588e+18,0.0018631024286150932,-0.0001495222677476704,0.010124302469193935
1.721572610508359e+18,0.0013967420672997832,0.0050753080286085606,0.005971530918031931
1.721572610514359e+18,0.00041325000347569585,-0.0009334505302831531,0.008258834481239319
1.7215726105203592e+18,-0.00043729529716074467,0.0021746575366705656,0.007498749997466803
1.7215726105263593e+18,0.0005375613691285253,0.0027031099889427423,0.005780037026852369
1.7215726105323594e+18,0.004955482669174671,8.373198215849698e-05,0.005511734634637833
1.7215726105383596e+18,0.005052098073065281,0.0007499008206650615,0.009690715931355953
1.7215726105443597e+18,0.005175113212317228,0.00043890392407774925,0.006312554236501455
1.7215726105503598e+18,0.005591268185526133,-0.002504494972527027,0.007840007543563843
1.72157261055636e+18,0.004120820201933384,0.0009688317659310997,0.006680863443762064
1.72157261056236e+18,0.004056953825056553,-0.0019056412857025862,0.008224530145525932
1.7215726105683602e+18,-0.00028835254488512874,-0.00026063306722790003,0.006493694148957729
1.7215726105743603e+18,-7.634804933331907e-05,0.0014487779699265957,0.007291926071047783
1.7215726105803604e+18,4.762283060699701e-05,0.0027097873389720917,0.007604140322655439
1.7215726105863606e+18,-0.0015998013550415635,0.0012024816824123263,0.006310708820819855
1.7215726105923607e+18,0.0012802560813724995,0.0019462730269879103,0.008628478273749352
1.7215726105983608e+18,0.0008820642251521349,0.00377860339358449,0.007219636347144842
1.721572610604361e+18,0.0027444642037153244,0.001382523332722485,0.007692438084632158
1.721572610610361e+18,0.0016687533352524042,0.00048219948075711727,0.007418407127261162
1.7215726106163612e+18,0.005505005829036236,0.0027029584161937237,0.007239007856696844
1.7215726106223613e+18,0.0032211721409112215,0.0002403891849098727,0.007730706594884396
1.7215726106283615e+18,0.0024856452364474535,-0.001169225899502635,0.00799945741891861
1.7215726106343616e+18,0.0033326768316328526,0.0005329754203557968,0.007395842578262091
1.7215726106403617e+18,0.002438096795231104,0.002511860802769661,0.00978234875947237
1.7215726106463619e+18,0.0009246158879250288,0.0011064930586144328,0.0072808172553777695
1.721572610649362e+18,0.0017379212658852339,-0.00266447220928967,0.008803344331681728
1.721572610655362e+18,-0.0005250723916105926,-0.0028937486931681633,0.00956614501774311
1.7215726106643622e+18,0.001976346131414175,0.0008502223063260317,0.008019689470529556
1.7215726106703624e+18,0.00034661288373172283,1.342850737273693e-06,0.007357011083513498
1.7215726106763625e+18,0.0011344137601554394,-0.0005616354756057262,0.006132929120212793
1.7215726106823626e+18,0.001007047132588923,-0.000610679853707552,0.006037083920091391
1.7215726106853627e+18,0.0032955927308648825,-0.00029466871637851,0.010264746844768524
1.7215726106913628e+18,0.0021514692343771458,0.0017403843812644482,0.00717666232958436
1.721572610697363e+18,0.004170156084001064,-0.00040738366078585386,0.007673108950257301
1.721572610703363e+18,0.006014978978782892,0.0003458964638411999,0.011379762552678585
1.7215726107093632e+18,0.00245631649158895,0.0020653263200074434,0.008265731856226921
1.7215726107153633e+18,0.00028821383602917194,0.004023293033242226,0.006883715279400349
1.7215726107213635e+18,-0.0004093729658052325,0.002625430468469858,0.008227519690990448
1.7215726107273636e+18,-0.0010407300433143973,-0.0016008445527404547,0.008308922871947289
1.7215726107363638e+18,0.0001032155123539269,0.0011084448779001832,0.00960148312151432
1.7215726107393638e+18,-0.000755937013309449,-0.0011213887482881546,0.007383617106825113
1.721572610748364e+18,0.0011125224409624934,-0.0018359818495810032,0.007980111986398697
1.7215726107543642e+18,-5.820638034492731e-05,0.001910611754283309,0.00827726535499096
1.7215726107603643e+18,0.0010626723524183035,0.0010593286715447903,0.008060121908783913
1.7215726107663644e+18,0.004816100001335144,-0.0013643016573041677,0.010708186775445938
1.7215726107723645e+18,0.0032705669291317463,0.001803880906663835,0.008452090434730053
1.7215726107783647e+18,0.0029231365770101547,-0.0012440653517842293,0.007825748063623905
1.7215726107813647e+18,0.0014022990362718701,0.0008280147449113429,0.00817067176103592
1.7215726107873649e+18,0.0032714682165533304,-0.000497750355862081,0.008201839402318
1.721572610793365e+18,0.004209931008517742,-0.00014267803635448217,0.008316709659993649
1.721572610799365e+18,-0.000863733293954283,-0.0008687227964401245,0.009587501175701618
1.7215726108023652e+18,-0.0004959702491760254,-0.0020065316930413246,0.004573260433971882
1.7215726108083653e+18,-0.0001868736871983856,0.002425741869956255,0.007369778584688902
1.7215726108143654e+18,-0.0016215993091464043,-0.0008009753655642271,0.008297485299408436
1.7215726108203656e+18,-0.0025253095664083958,-0.00295017147436738,0.006821212358772755
1.7215726108263657e+18,-0.0015669625718146563,0.0007291851215995848,0.005054078996181488
1.7215726108323658e+18,-0.000520543078891933,0.0004610577889252454,0.006928668823093176
1.721572610835366e+18,-0.00017097382806241512,0.0011135577224195004,0.005721200257539749
1.721572610841366e+18,0.004614931531250477,0.0015374140348285437,0.007999193854629993
1.7215726108473661e+18,0.0032132554333657026,0.0010822723852470517,0.007531453855335712
1.7215726108503662e+18,0.005413725506514311,-0.0023276363499462605,0.006003438029438257
1.7215726108563663e+18,0.0045641688629984856,0.0021311291493475437,0.007465285714715719
1.7215726108653665e+18,0.0015866385074332356,-0.0013452470302581787,0.011025043204426765
1.7215726108713667e+18,-0.0012292591854929924,0.002153688110411167,0.006499011535197496
1.7215726108773668e+18,-0.00048245966900140047,-0.0007250444614328444,0.010250738821923733
1.721572610883367e+18,-0.002889196388423443,-0.0008300729095935822,0.00825389102101326
1.721572610889367e+18,0.0007790669333189726,-0.0002166926278732717,0.01023533008992672
1.7215726108953672e+18,0.00284242769703269,-0.001389077864587307,0.008084278553724289
1.7215726109013673e+18,0.002139798831194639,-3.9719510823488235e-05,0.005596611648797989
1.7215726109073674e+18,7.774331606924534e-05,-0.0015129427192732692,0.008378257043659687
1.7215726109163676e+18,0.0048259226605296135,0.0020397852640599012,0.007141494657844305
1.7215726109223677e+18,0.001480746315792203,0.0008114621741697192,0.006715895142406225
1.7215726109253678e+18,0.0010400803294032812,-0.0005449332529678941,0.0041026221588253975
1.721572610934368e+18,0.0019858547020703554,-0.0023661081213504076,0.0051896292716264725
1.721572610937368e+18,0.0011750690173357725,0.0012388468021526933,0.00664234533905983
1.7215726109433682e+18,-0.0014444806147366762,-0.0004033887234982103,0.00718302046880126
1.7215726109493683e+18,-0.00020642942399717867,-0.0007640965050086379,0.006480598822236061
1.7215726109553684e+18,0.00047656791866756976,-0.00021295866463333368,0.005227104295045137
1.7215726109613686e+18,0.0033294118475168943,-0.0008634337573312223,0.008910849690437317
1.7215726109673687e+18,0.0017306363442912698,0.0010351669043302536,0.008919155225157738
1.7215726109733688e+18,0.00018501258455216885,-0.0019691470079123974,0.005116605665534735
1.721572610979369e+18,0.0043480731546878815,3.929936792701483e-05,0.007180895656347275
1.721572610985369e+18,0.000936778262257576,0.0018118189182132483,0.008765344507992268
1.7215726109883692e+18,-0.0003218976780772209,-0.003836066462099552,0.008591711521148682
1.7215726109943693e+18,0.003047703066840768,-0.0020797057077288628,0.006729197222739458
1.7215726110003694e+18,0.0028315167874097824,0.002756197936832905,0.004688428249210119
1.7215726110063695e+18,0.0005489896866492927,0.0010395052377134562,0.008086789399385452
