timestamp,accel_x,accel_y,accel_z
1.7275277137606295e+18,0.017153941094875336,-0.021106865257024765,-9.844639778137207
1.7275277137696297e+18,0.036536503583192825,-0.04289054870605469,-9.769026756286621
1.7275277137726298e+18,-0.04194021597504616,-0.0292984526604414,-9.846407890319824
1.72752771377863e+18,-0.04525236785411835,0.018337365239858627,-9.826396942138672
1.72752771378463e+18,0.05138279125094414,0.0041682119481265545,-9.79366397857666
1.72752771378763e+18,-0.07271887362003326,0.03583521768450737,-9.810970306396484
1.7275277137936302e+18,0.046185459941625595,-0.012037014588713646,-9.791733741760254
1.7275277137996303e+18,-0.018763409927487373,-0.00486957561224699,-9.818724632263184
1.7275277138056305e+18,0.010809388943016529,0.050418589264154434,-9.864508628845215
1.7275277138086305e+18,0.0650302916765213,-0.007664948236197233,-9.834545135498047
1.7275277138146307e+18,0.007451402954757214,0.08076179027557373,-9.726892471313477
1.7275277138206308e+18,-0.03584275394678116,0.03171911835670471,-9.77590560913086
1.727527713826631e+18,-0.05535239726305008,0.0408315435051918,-9.771913528442383
1.727527713829631e+18,0.02680213376879692,-0.02199757844209671,-9.807262420654297
1.727527713835631e+18,0.06242663040757179,0.008754420094192028,-9.818511962890625
1.7275277138416312e+18,-0.008419235236942768,0.03880428522825241,-9.832416534423828
1.7275277138446313e+18,0.00994949322193861,0.021409373730421066,-9.758614540100098
1.7275277138506314e+18,0.023961057886481285,-0.05472072958946228,-9.86159896850586
1.7275277138596316e+18,0.0987539291381836,-0.04084477201104164,-9.809584617614746
1.7275277138656317e+18,-0.026511868461966515,-0.03149556741118431,-9.825714111328125
1.727527713871632e+18,0.045409999787807465,0.03324234113097191,-9.747308731079102
1.727527713877632e+18,-0.018334558233618736,0.001817607320845127,-9.857149124145508
1.727527713883632e+18,0.05592937022447586,0.0331803560256958,-9.892722129821777
1.7275277138866322e+18,0.029843231663107872,0.08274848014116287,-9.803045272827148
1.7275277138926323e+18,-0.009504931047558784,0.03665739297866821,-9.751416206359863
1.7275277138986324e+18,0.005187991540879011,-0.017807044088840485,-9.843978881835938
1.7275277139046326e+18,0.03438831865787506,0.040192265063524246,-9.75999927520752
1.7275277139106327e+18,-0.0016279260162264109,-0.010342318564653397,-9.774703025817871
1.7275277139136328e+18,-0.028222279623150826,-0.00215225201100111,-9.7473726272583
1.727527713919633e+18,-0.07779385149478912,-0.018258925527334213,-9.796171188354492
1.727527713925633e+18,-0.024258814752101898,-0.009869769215583801,-9.77061653137207
1.7275277139316332e+18,0.019147628918290138,0.016018498688936234,-9.818613052368164
1.7275277139346332e+18,0.03303267061710358,0.053338948637247086,-9.710858345031738
1.7275277139406333e+18,-0.006061756517738104,0.006626862566918135,-9.784056663513184
1.7275277139466335e+18,0.03920878469944,0.040574852377176285,-9.825191497802734
1.7275277139526336e+18,0.028223291039466858,-0.06519350409507751,-9.806344985961914
1.7275277139556337e+18,0.047180719673633575,-0.007905803620815277,-9.705822944641113
1.7275277139616338e+18,-0.03663841262459755,0.03884511440992355,-9.868284225463867
1.727527713967634e+18,0.05144236981868744,0.0017715641297399998,-9.795544624328613
1.727527713973634e+18,0.07850272208452225,-0.08813204616308212,-9.796064376831055
1.727527713976634e+18,0.07817456126213074,0.006929231341928244,-9.825506210327148
1.7275277139826342e+18,-0.00713715422898531,-0.09705249220132828,-9.804945945739746
1.7275277139886344e+18,-0.020059634000062943,-0.021188704296946526,-9.851628303527832
1.7275277139916344e+18,-0.003797156736254692,-0.02041398547589779,-9.886094093322754
1.7275277139976346e+18,-0.05711023136973381,0.02896091528236866,-9.822641372680664
1.7275277140036347e+18,0.02869212068617344,-0.023894963786005974,-9.754380226135254
1.7275277140066348e+18,-0.001200676430016756,-0.0713459849357605,-9.832592964172363
1.727527714012635e+18,0.018064023926854134,0.08974006772041321,-9.84018611907959
1.727527714018635e+18,-0.037986379116773605,-0.05102678760886192,-9.852602005004883
1.7275277140246351e+18,-0.023492736741900444,-0.020724063739180565,-9.837445259094238
1.7275277140276352e+18,0.02410583384335041,-0.05366549268364906,-9.824472427368164
1.7275277140336353e+18,-0.11024995893239975,0.002142093377187848,-9.732183456420898
1.7275277140396355e+18,0.03531641140580177,-0.0002488243917468935,-9.85399341583252
1.7275277140456356e+18,0.02971593849360943,0.011177277192473412,-9.85466194152832
1.7275277140516357e+18,-0.022138306871056557,0.02496602013707161,-9.757542610168457
1.7275277140546358e+18,0.030419209972023964,-0.004100744612514973,-9.863517761230469
1.727527714060636e+18,0.004581046756356955,-0.09987414628267288,-9.807859420776367
1.727527714066636e+18,-0.022920457646250725,0.023486357182264328,-9.84140396118164
1.727527714069636e+18,-0.05862036719918251,-0.02659798413515091,-9.778733253479004
1.7275277140756362e+18,0.024750329554080963,0.014971953816711903,-9.81037712097168
1.7275277140816364e+18,-0.019625091925263405,-0.028290754184126854,-9.725656509399414
1.7275277140846364e+18,0.02594504877924919,-0.051311884075403214,-9.765664100646973
1.7275277140906365e+18,-0.0023527825251221657,-0.01675344817340374,-9.810713768005371
1.7275277140966367e+18,-0.0842164009809494,0.023114027455449104,-9.814933776855469
1.7275277141026368e+18,-0.0016111660515889525,-0.042546991258859634,-9.81043529510498
1.727527714108637e+18,0.006747612729668617,-0.022041087970137596,-9.781163215637207
1.727527714114637e+18,0.0021848066244274378,-0.01562790386378765,-9.826850891113281
1.727527714117637e+18,0.027079544961452484,-0.05202436074614525,-9.826359748840332
1.7275277141236372e+18,-0.030255619436502457,0.01981605775654316,-9.78459358215332
1.7275277141296374e+18,-0.03512098640203476,-0.11637508124113083,-9.785027503967285
1.7275277141356375e+18,-0.03649663180112839,0.016022443771362305,-9.764456748962402
1.7275277141386376e+18,-0.09169425815343857,-0.0004832833947148174,-9.868969917297363
1.7275277141446377e+18,0.06446538120508194,0.03345843777060509,-9.758325576782227
1.7275277141476378e+18,-0.01806444674730301,-0.05091703310608864,-9.790438652038574
1.727527714153638e+18,-0.03544331341981888,-0.019793910905718803,-9.728619575500488
1.727527714159638e+18,-0.025473887100815773,0.05590212717652321,-9.729424476623535
1.7275277141656381e+18,-0.04238233342766762,-0.037092939019203186,-9.74416446685791
1.7275277141686382e+18,-0.012803378514945507,-0.022718729451298714,-9.80958366394043
1.7275277141746383e+18,0.04055628553032875,-0.012833352200686932,-9.830163955688477
1.7275277141806385e+18,-0.05563698709011078,-0.018449820578098297,-9.753748893737793
1.7275277141836385e+18,0.008616108447313309,0.025132687762379646,-9.755607604980469
1.7275277141896387e+18,-0.006359382998198271,0.014835428446531296,-9.811477661132812
1.7275277141956388e+18,0.015497071668505669,0.07003142684698105,-9.75952434539795
1.727527714201639e+18,-0.0020053961779922247,-0.03690651059150696,-9.798704147338867
1.727527714207639e+18,-0.01862674206495285,0.023948874324560165,-9.858278274536133
1.727527714210639e+18,-0.01625906489789486,-0.05055967718362808,-9.885024070739746
1.7275277142166392e+18,-0.010691027157008648,0.03173961490392685,-9.780916213989258
1.7275277142226394e+18,0.019524957984685898,0.02681133523583412,-9.80378532409668
1.7275277142256394e+18,-0.07030253112316132,0.08122280240058899,-9.83218002319336
1.7275277142316396e+18,0.08093516528606415,0.025682395324110985,-9.78931713104248
1.7275277142376397e+18,-0.025020547211170197,-0.0927281528711319,-9.836864471435547
1.7275277142406397e+18,-0.09578493237495422,0.004915778525173664,-9.833959579467773
1.7275277142466399e+18,0.0007268036715686321,0.10459742695093155,-9.801712989807129
1.72752771425264e+18,-0.019101912155747414,-0.030039528384804726,-9.790678977966309
1.7275277142586401e+18,0.05689422786235809,0.0006880414439365268,-9.756745338439941
1.7275277142616402e+18,0.0847257450222969,0.05522740259766579,-9.831966400146484
1.7275277142676403e+18,-0.01648547314107418,-0.039795275777578354,-9.871350288391113
1.7275277142736404e+18,-0.07476970553398132,0.0006808150210417807,-9.788433074951172
1.7275277142796406e+18,-0.017832854762673378,0.023026295006275177,-9.849284172058105
1.7275277142826406e+18,0.022007158026099205,0.017951015383005142,-9.76333999633789
1.7275277142886408e+18,-0.0006463503232225776,0.008590635843575,-9.75684928894043
1.727527714294641e+18,-0.006097812671214342,-0.04288182780146599,-9.827824592590332
1.727527714300641e+18,-0.13664457201957703,0.051498446613550186,-9.825952529907227
1.727527714303641e+18,-0.05902224779129028,-0.034965649247169495,-9.734890937805176
1.7275277143096412e+18,-0.04349176585674286,-0.03016865812242031,-9.826957702636719
1.7275277143156413e+18,-0.019601741805672646,-0.03818203881382942,-9.824524879455566
1.7275277143216415e+18,-0.02280665561556816,0.022324519231915474,-9.814467430114746
1.7275277143276416e+18,0.06070117652416229,-0.005437343847006559,-9.704604148864746
1.7275277143306417e+18,0.021093934774398804,0.053149379789829254,-9.821636199951172
1.7275277143366418e+18,-0.02673679031431675,-0.07564318925142288,-9.791202545166016
1.727527714342642e+18,0.0191456638276577,0.008773908950388432,-9.823617935180664
1.727527714348642e+18,0.0876544862985611,0.02082912065088749,-9.819953918457031
1.7275277143546422e+18,0.01471063680946827,-0.01949417032301426,-9.815468788146973
1.7275277143576422e+18,0.009060485288500786,-0.07125096023082733,-9.793681144714355
1.7275277143636424e+18,0.021493684500455856,-0.025024399161338806,-9.81721019744873
1.7275277143696425e+18,0.006848375778645277,0.006859444081783295,-9.816286087036133
1.7275277143756426e+18,-0.03659945726394653,0.06772224605083466,-9.783771514892578
1.7275277143786427e+18,0.0023194642271846533,-0.01642025262117386,-9.758567810058594
1.7275277143846428e+18,0.08245925605297089,-0.009695291519165039,-9.818676948547363
1.727527714390643e+18,-0.014499497599899769,-0.05937911570072174,-9.723726272583008
1.727527714396643e+18,0.014832420274615288,0.035138070583343506,-9.80394458770752
1.7275277143996431e+18,0.010901876725256443,-0.057805903255939484,-9.858447074890137
1.7275277144056433e+18,0.05780154839158058,-0.022013284265995026,-9.801791191101074
1.7275277144116434e+18,-0.0067819817923009396,-0.025916967540979385,-9.782123565673828
1.7275277144176435e+18,0.06860017031431198,-0.0011178073473274708,-9.823091506958008
1.7275277144236436e+18,0.0026869280263781548,0.012798462063074112,-9.809968948364258
1.7275277144266437e+18,0.03242705017328262,-0.033253706991672516,-9.723705291748047
1.7275277144326438e+18,0.026499873027205467,0.02160010300576687,-9.813254356384277
1.727527714438644e+18,-0.012794100679457188,-0.07830007374286652,-9.79954719543457
1.727527714444644e+18,0.02882358431816101,0.030995450913906097,-9.808906555175781
1.7275277144506442e+18,-0.02366788126528263,0.10226137936115265,-9.692164421081543
1.7275277144536443e+18,-0.041728705167770386,0.03187994658946991,-9.814618110656738
1.7275277144596444e+18,0.024462450295686722,0.049555499106645584,-9.81027603149414
1.7275277144656445e+18,0.08152630180120468,-0.004043221939355135,-9.833630561828613
1.7275277144716447e+18,-0.08743356913328171,0.021358203142881393,-9.830001831054688
1.7275277144776448e+18,-0.026336364448070526,0.026148442178964615,-9.816949844360352
1.727527714483645e+18,0.04636574536561966,-0.0013068659463897347,-9.850454330444336
1.727527714486645e+18,-0.07546815276145935,-0.031105075031518936,-9.787490844726562
1.727527714492645e+18,-0.06878146529197693,0.08145102113485336,-9.817580223083496
1.7275277144986452e+18,-0.040913861244916916,-0.0001885680394480005,-9.893532752990723
1.7275277145046454e+18,-0.005374850705265999,-0.06447185575962067,-9.71719741821289
1.7275277145106455e+18,-0.011732085607945919,-0.05760343745350838,-9.78342056274414
1.7275277145136456e+18,-0.0018348904559388757,-0.03638388216495514,-9.781600952148438
1.7275277145196457e+18,0.09391240030527115,-0.003777574049308896,-9.88078784942627
1.7275277145256458e+18,0.00382296834141016,-0.07510679215192795,-9.813063621520996
1.727527714531646e+18,-0.04114321246743202,0.01077259797602892,-9.803488731384277
1.727527714537646e+18,-0.023423388600349426,-0.019349580630660057,-9.807926177978516
1.7275277145436462e+18,-0.06986382603645325,0.024949364364147186,-9.812694549560547
1.7275277145466463e+18,0.025402868166565895,0.01848606951534748,-9.789765357971191
1.7275277145526464e+18,-0.02603236958384514,-0.032780442386865616,-9.855504989624023
1.7275277145586465e+18,0.04949076101183891,-0.022657684981822968,-9.869343757629395
1.7275277145646467e+18,-0.03822461888194084,0.013817357830703259,-9.744917869567871
1.7275277145706468e+18,0.001080949092283845,0.05772064998745918,-9.803760528564453
1.7275277145736468e+18,0.04547196254134178,0.015491323545575142,-9.833135604858398
1.727527714579647e+18,0.025129208341240883,-0.0028853141702711582,-9.815878868103027
1.727527714585647e+18,-0.02030022069811821,0.0066739763133227825,-9.816761016845703
1.7275277145886472e+18,-0.02181064896285534,-0.05107390880584717,-9.743669509887695
1.7275277145946473e+18,0.021193990483880043,0.035249900072813034,-9.846896171569824
1.7275277146006474e+18,0.011355036869645119,0.02292322926223278,-9.772523880004883
1.7275277146066476e+18,-0.013916279189288616,-0.0019132316811010242,-9.831820487976074
1.7275277146096476e+18,-0.009739449247717857,-0.016896357759833336,-9.852909088134766
1.7275277146156477e+18,0.007469304837286472,0.05954362824559212,-9.842697143554688
1.727527714621648e+18,-0.018083222210407257,-0.05151400342583656,-9.763686180114746
1.727527714627648e+18,0.14956876635551453,1.5146539226407185e-05,-9.846007347106934
1.727527714630648e+18,0.07465624064207077,-0.011801877990365028,-9.764440536499023
1.7275277146366482e+18,0.07131078094244003,0.024779915809631348,-9.908780097961426
1.7275277146426483e+18,0.01829913631081581,-0.002668356290087104,-9.858329772949219
1.7275277146486484e+18,-0.013182850554585457,-0.023541942238807678,-9.860566139221191
1.7275277146516485e+18,0.07705654948949814,-0.04879171773791313,-9.861472129821777
1.7275277146576486e+18,-0.01169632188975811,0.024403657764196396,-9.840912818908691
1.7275277146636488e+18,0.04461304843425751,0.026661362498998642,-9.796038627624512
1.7275277146666488e+18,0.04584624245762825,-0.0620565190911293,-9.784728050231934
1.727527714672649e+18,-0.04813852906227112,-0.03558813035488129,-9.800084114074707
1.727527714678649e+18,-0.051055703312158585,0.02479398064315319,-9.793339729309082
1.7275277146846492e+18,-0.017456311732530594,0.06071976199746132,-9.802694320678711
1.7275277146906493e+18,-0.008877021260559559,-0.051108893007040024,-9.763749122619629
1.7275277146936494e+18,-0.03542148694396019,-0.01323970127850771,-9.870046615600586
1.7275277146996495e+18,-0.11792879551649094,0.039148323237895966,-9.764450073242188
1.7275277147056497e+18,0.06219293922185898,0.011453570798039436,-9.836687088012695
1.7275277147116498e+18,0.08732051402330399,-0.06523352116346359,-9.841839790344238
1.7275277147146499e+18,-0.019323153421282768,-0.09942436963319778,-9.822816848754883
1.72752771472065e+18,0.06399273127317429,-0.013264903798699379,-9.898261070251465
1.72752771472665e+18,-0.019255127757787704,-0.032950595021247864,-9.846356391906738
1.7275277147296502e+18,0.08748340606689453,-0.06476233899593353,-9.937262535095215
1.7275277147356503e+18,0.04487720504403114,-0.0036731562577188015,-9.857760429382324
1.7275277147416504e+18,0.05478023737668991,-0.027521761134266853,-9.82407283782959
1.7275277147446505e+18,0.05608358979225159,0.03398836404085159,-9.763794898986816
1.7275277147506506e+18,0.013882034458220005,0.015987372025847435,-9.800159454345703
1.7275277147566508e+18,-0.03304028511047363,-0.03506138175725937,-9.818212509155273
1.727527714762651e+18,0.06470499187707901,0.03970952332019806,-9.751629829406738
1.727527714765651e+18,0.051420241594314575,0.02472076751291752,-9.78095531463623
1.727527714771651e+18,-0.025752730667591095,0.03668774664402008,-9.818540573120117
1.7275277147776512e+18,0.017711805179715157,-0.0628746971487999,-9.74250316619873
1.7275277147836513e+18,-0.010896875523030758,0.01181762758642435,-9.871164321899414
1.7275277147866514e+18,0.022988373413681984,-0.08001884073019028,-9.850271224975586
1.7275277147926515e+18,-0.01010196190327406,-0.03891700878739357,-9.816442489624023
1.7275277147986516e+18,0.006781672593206167,0.0120663708075881,-9.857847213745117
1.7275277148046518e+18,0.025161558762192726,0.01947910524904728,-9.79086971282959
1.7275277148076518e+18,-0.0077460226602852345,0.05366981029510498,-9.756550788879395
1.727527714813652e+18,-0.015245161950588226,0.00035528631997294724,-9.868790626525879
1.727527714819652e+18,0.0031689961906522512,-0.06361567229032516,-9.858898162841797
1.7275277148256522e+18,0.0391523502767086,-0.020050957798957825,-9.802810668945312
1.7275277148316524e+18,0.05517057329416275,0.031848642975091934,-9.837172508239746
1.7275277148346524e+18,0.003678234526887536,-0.0153723806142807,-9.844347953796387
1.7275277148406525e+18,0.0285981222987175,0.014621295034885406,-9.846772193908691
1.7275277148466527e+18,-0.008623640052974224,-0.04635176807641983,-9.775402069091797
1.7275277148496527e+18,0.01660841703414917,0.026993803679943085,-9.805062294006348
1.7275277148556529e+18,0.06364738196134567,-0.035634979605674744,-9.758940696716309
1.727527714861653e+18,0.024420302361249924,-0.049058932811021805,-9.78147029876709
1.727527714867653e+18,0.0737084373831749,-0.023716500028967857,-9.808976173400879
1.7275277148706532e+18,-0.05058414116501808,0.0005816335906274617,-9.81131362915039
1.7275277148766533e+18,-0.017646683380007744,0.08585990220308304,-9.727190971374512
1.7275277148826534e+18,0.038321275264024734,0.01271748822182417,-9.819587707519531
1.7275277148886536e+18,-0.029169026762247086,-0.108283132314682,-9.874208450317383
1.7275277148946537e+18,-0.018165530636906624,-0.028132982552051544,-9.822232246398926
1.7275277149006538e+18,-0.004741156008094549,-0.058772917836904526,-9.801376342773438
1.727527714906654e+18,-0.07801356911659241,0.10099935531616211,-9.898207664489746
1.727527714909654e+18,0.006248402409255505,-0.009448258206248283,-9.801396369934082
1.7275277149156541e+18,0.044714655727148056,0.0020156095270067453,-9.821582794189453
1.7275277149216543e+18,-0.018689651042222977,-0.07145443558692932,-9.80566692352295
1.7275277149276544e+18,0.005995583720505238,0.024458320811390877,-9.784795761108398
1.7275277149336545e+18,-0.03527016565203667,-0.07055055350065231,-9.837549209594727
1.7275277149396547e+18,0.051546815782785416,0.0544535331428051,-9.842833518981934
1.7275277149456548e+18,-0.031292423605918884,-0.03452228754758835,-9.77427864074707
1.727527714951655e+18,0.020117828622460365,-0.03864531219005585,-9.840731620788574
1.727527714957655e+18,-0.011407569982111454,-0.03903411701321602,-9.801963806152344
1.727527714960655e+18,-0.047536324709653854,-0.042438261210918427,-9.786759376525879
1.7275277149696553e+18,-0.014414243400096893,-0.011400658637285233,-9.815117835998535
1.7275277149726554e+18,0.003904568264260888,-0.021230380982160568,-9.81652545928955
1.7275277149786555e+18,0.02273639105260372,0.07693541049957275,-9.830674171447754
1.7275277149846556e+18,0.051521096378564835,0.004535685759037733,-9.897104263305664
1.7275277149906557e+18,-0.05007912591099739,0.016048865392804146,-9.735091209411621
1.7275277149966559e+18,0.009645054116845131,-0.023755071684718132,-9.802946090698242
1.727527715002656e+18,0.007096047978848219,0.00628085620701313,-9.806291580200195
1.7275277150086561e+18,-0.02514500543475151,-0.0026368149556219578,-9.892062187194824
1.7275277150146563e+18,0.002740183612331748,0.02096615359187126,-9.828771591186523
1.7275277150206564e+18,-0.010245777666568756,0.11999183148145676,-9.811603546142578
1.7275277150266565e+18,0.033052537590265274,-0.07431742548942566,-9.827682495117188
1.7275277150326566e+18,0.02417607046663761,0.012704676017165184,-9.755440711975098
1.7275277150386568e+18,0.021748309955000877,-0.04096696525812149,-9.849287986755371
1.727527715044657e+18,-0.008620081469416618,0.05888773128390312,-9.760220527648926
1.727527715050657e+18,-0.0626654103398323,0.016641588881611824,-9.7579927444458
1.7275277150566572e+18,0.0981052815914154,0.036321911960840225,-9.750268936157227
1.7275277150626573e+18,0.03971805050969124,0.009548029862344265,-9.7360200881958
1.7275277150686574e+18,-0.025874607264995575,0.07293619215488434,-9.844743728637695
1.7275277150746575e+18,-0.033777568489313126,0.008353292010724545,-9.784262657165527
1.7275277150806577e+18,0.00658907275646925,-0.05447026714682579,-9.79354476928711
1.7275277150836577e+18,-0.06348872929811478,0.032214246690273285,-9.855045318603516
1.7275277150896579e+18,-0.04432833194732666,-0.10292886197566986,-9.883210182189941
1.727527715095658e+18,0.0507064014673233,0.00851717870682478,-9.811541557312012
1.727527715101658e+18,0.0375092588365078,0.08840946108102798,-9.853154182434082
1.7275277151076582e+18,0.03222180902957916,-0.002253616927191615,-9.81092357635498
1.7275277151136584e+18,-0.021091964095830917,-0.017032558098435402,-9.743895530700684
1.7275277151166584e+18,-0.043205831199884415,0.020061399787664413,-9.803888320922852
1.7275277151226586e+18,0.040396157652139664,0.009824792854487896,-9.803646087646484
1.7275277151286587e+18,-0.0354062020778656,-0.016287369653582573,-9.83458137512207
1.7275277151346588e+18,-0.14658106863498688,-0.10192245990037918,-9.864510536193848
1.727527715140659e+18,-0.011589236557483673,0.01728152297437191,-9.774282455444336
1.727527715146659e+18,0.01602044142782688,-0.002507725264877081,-9.733599662780762
1.7275277151526592e+18,-0.03274782374501228,0.039657481014728546,-9.745688438415527
1.7275277151556593e+18,-0.05350523069500923,-0.07771555334329605,-9.824028015136719
1.7275277151616594e+18,-0.06485223025083542,0.0003812501090578735,-9.794084548950195
1.7275277151676595e+18,0.027872540056705475,-0.05902932584285736,-9.840781211853027
1.7275277151736596e+18,-0.02777344360947609,0.03637019917368889,-9.784088134765625
1.7275277151796598e+18,-0.01309947483241558,0.039990924298763275,-9.908774375915527
1.7275277151826598e+18,0.014208601787686348,-0.0058519248850643635,-9.863299369812012
1.72752771518866e+18,-0.0364450067281723,-0.08935423940420151,-9.860611915588379
1.72752771519466e+18,0.0039064157754182816,-0.05883675441145897,-9.753583908081055
1.7275277151976602e+18,-0.00515802763402462,0.020776761695742607,-9.827608108520508
1.7275277152036603e+18,0.03429830074310303,0.07642471045255661,-9.804171562194824
1.7275277152096604e+18,-0.013358420692384243,-0.01699157990515232,-9.787407875061035
1.7275277152126605e+18,0.052346136420965195,0.004258530680090189,-9.71413516998291
1.7275277152186606e+18,-0.03252992406487465,0.01634533703327179,-9.847640991210938
1.7275277152246607e+18,0.0389832928776741,0.005074018612504005,-9.736554145812988
1.7275277152306609e+18,-0.011420131660997868,-0.05064411461353302,-9.726850509643555
1.727527715233661e+18,-0.01736868917942047,0.004257286433130503,-9.811577796936035
1.727527715239661e+18,-0.0194226261228323,0.013922489248216152,-9.796335220336914
1.7275277152456612e+18,0.03773020580410957,-0.061460405588150024,-9.825103759765625
1.7275277152516613e+18,-0.04100138321518898,-0.04222762584686279,-9.85180377960205
1.7275277152546614e+18,-0.040792468935251236,-0.010676173493266106,-9.870384216308594
1.7275277152606615e+18,0.021063510328531265,0.003919895272701979,-9.820398330688477
1.7275277152666616e+18,-0.07633665949106216,0.006286987569183111,-9.811266899108887
1.7275277152726618e+18,0.05016237869858742,-0.12294162064790726,-9.877391815185547
1.7275277152756618e+18,-0.0010477416217327118,0.0265433918684721,-9.711419105529785
1.727527715281662e+18,0.05367785319685936,0.028913481160998344,-9.812225341796875
1.727527715287662e+18,0.012999971397221088,0.0028820745646953583,-9.861978530883789
1.7275277152936622e+18,-0.017692185938358307,-0.06173050031065941,-9.739405632019043
1.7275277152996623e+18,-0.06005716323852539,0.06436369568109512,-9.781233787536621
1.7275277153026624e+18,0.01640564389526844,-0.017565585672855377,-9.785804748535156
1.7275277153086625e+18,-0.04472466558218002,0.030086757615208626,-9.788396835327148
1.7275277153146627e+18,0.041912175714969635,0.012587700970470905,-9.860013961791992
1.7275277153206628e+18,0.060553163290023804,-0.03340240567922592,-9.802946090698242
1.727527715326663e+18,0.02313082106411457,-0.024893272668123245,-9.799755096435547
1.727527715332663e+18,-0.046313706785440445,0.002815662417560816,-9.828733444213867
1.7275277153386632e+18,0.03270291909575462,-0.021876441314816475,-9.807784080505371
1.7275277153446633e+18,0.023838767781853676,-0.026425698772072792,-9.823408126831055
1.7275277153506634e+18,0.039259299635887146,0.023537369444966316,-9.84562873840332
1.7275277153536635e+18,0.025433547794818878,0.008852391503751278,-9.795740127563477
1.7275277153596636e+18,-0.06812203675508499,0.06860586255788803,-9.895901679992676
1.7275277153656637e+18,0.0025512338615953922,-0.021637367084622383,-9.804336547851562
1.727527715371664e+18,-0.03294352814555168,-0.018072504550218582,-9.822360038757324
1.727527715377664e+18,0.06294143199920654,-0.035762764513492584,-9.811540603637695
1.727527715380664e+18,-0.01801913045346737,-0.019328579306602478,-9.770247459411621
1.7275277153866642e+18,0.08210873603820801,-0.006049490999430418,-9.828245162963867
1.7275277153926643e+18,0.11074669659137726,-0.02888878993690014,-9.834504127502441
1.7275277153956644e+18,-0.006679913494735956,0.043613068759441376,-9.834163665771484
1.7275277154016645e+18,-0.01583831012248993,0.05048438161611557,-9.793185234069824
1.7275277154076646e+18,0.04099326953291893,-0.008977165445685387,-9.876819610595703
1.7275277154136648e+18,0.0009696363122202456,0.003368516219779849,-9.894546508789062
1.727527715419665e+18,-0.02750932238996029,-0.016549956053495407,-9.78836441040039
1.727527715425665e+18,0.0007851602858863771,0.052111025899648666,-9.88827133178711
1.727527715428665e+18,-0.015900898724794388,0.04973762854933739,-9.815860748291016
1.7275277154346652e+18,0.006734698545187712,0.008006996475160122,-9.757071495056152
1.7275277154406653e+18,-0.023520169779658318,-0.0008637018036097288,-9.722912788391113
1.7275277154466655e+18,0.08855090290307999,0.0040328605100512505,-9.770342826843262
1.7275277154496655e+18,-0.059805579483509064,-0.0334443636238575,-9.9105863571167
1.7275277154556657e+18,-0.02026320993900299,-0.0015710588777437806,-9.79751968383789
1.7275277154616658e+18,-0.03277385234832764,-0.0011102784192189574,-9.84557819366455
1.727527715467666e+18,-0.08917264640331268,0.05940273776650429,-9.768933296203613
1.727527715470666e+18,-0.05520983785390854,0.0035076127387583256,-9.803325653076172
1.727527715476666e+18,0.02215810865163803,0.015600214712321758,-9.786980628967285
1.7275277154826662e+18,-0.015176761895418167,0.02465618960559368,-9.755237579345703
1.7275277154886664e+18,0.00010311152436770499,-0.06535975635051727,-9.822324752807617
1.7275277154946665e+18,0.012575610540807247,-0.0013849930837750435,-9.735662460327148
1.7275277154976666e+18,-0.0346640944480896,-0.05588372424244881,-9.874848365783691
1.7275277155036667e+18,0.0007538984646089375,0.03925453871488571,-9.799389839172363
1.7275277155096668e+18,-0.05151461064815521,-0.0999155193567276,-9.818184852600098
1.727527715512667e+18,0.003925637807697058,0.018793324008584023,-9.842815399169922
1.727527715518667e+18,0.003790187882259488,-0.021891042590141296,-9.752336502075195
1.7275277155246671e+18,-0.008720784448087215,0.0010050763376057148,-9.8333740234375
1.7275277155306673e+18,-0.022059813141822815,0.10054866969585419,-9.857076644897461
1.7275277155336673e+18,0.01671699434518814,-0.003991675563156605,-9.792236328125
1.7275277155396675e+18,0.03163620084524155,-0.034687407314777374,-9.817577362060547
1.7275277155456676e+18,0.01229084376245737,0.07429730892181396,-9.812688827514648
1.7275277155516677e+18,0.03341817855834961,0.046277306973934174,-9.782798767089844
1.7275277155546678e+18,0.006483651697635651,-0.028198514133691788,-9.751777648925781
1.727527715560668e+18,0.015068759210407734,-0.020949672907590866,-9.833510398864746
1.727527715566668e+18,0.040640003979206085,-0.10876808315515518,-9.77547550201416
1.7275277155726682e+18,-0.04711788892745972,0.04956800863146782,-9.799360275268555
1.7275277155756682e+18,-0.07975899428129196,-0.02922286093235016,-9.77253246307373
1.7275277155816684e+18,0.007733161561191082,-0.05403551086783409,-9.802040100097656
1.7275277155876685e+18,-0.03849658742547035,-0.07200131565332413,-9.84846305847168
1.7275277155906685e+18,0.05688666179776192,0.019205067306756973,-9.731881141662598
1.7275277155966687e+18,0.04128052666783333,0.023469027131795883,-9.836243629455566
1.7275277156026688e+18,-0.004990376066416502,0.025028277188539505,-9.838722229003906
1.727527715608669e+18,0.008346032351255417,0.0478799045085907,-9.797837257385254
1.727527715614669e+18,-0.07372446358203888,-0.0314728319644928,-9.822773933410645
1.727527715617669e+18,0.029806340113282204,0.03386661410331726,-9.780835151672363
1.7275277156236692e+18,0.06122005358338356,-0.0024856466334313154,-9.791133880615234
1.7275277156296694e+18,-0.07459738105535507,-0.07428062707185745,-9.827550888061523
1.7275277156356695e+18,-0.006188299506902695,0.008281092159450054,-9.831122398376465
1.7275277156416696e+18,-0.04704437032341957,0.10784019529819489,-9.828271865844727
1.7275277156446697e+18,-0.05445820465683937,0.003070398699492216,-9.827043533325195
1.7275277156506698e+18,0.010965523310005665,0.03799906373023987,-9.86021614074707
1.72752771565667e+18,0.04166543856263161,0.06745393574237823,-9.843520164489746
1.72752771566267e+18,-0.03499596565961838,-0.013116412796080112,-9.884553909301758
1.7275277156656701e+18,-0.04545934125781059,-0.05795188993215561,-9.911858558654785
1.7275277156716703e+18,0.019358739256858826,0.05728422850370407,-9.906778335571289
1.7275277156776704e+18,0.05071447044610977,0.0035429513081908226,-9.951422691345215
1.7275277156836705e+18,0.05922872573137283,0.04631741717457771,-9.935229301452637
1.7275277156866706e+18,0.07010142505168915,-0.0824684351682663,-10.0155611038208
1.7275277156926707e+18,0.021644165739417076,-0.007151126861572266,-9.960529327392578
1.7275277156986708e+18,-0.039199501276016235,0.0231216661632061,-10.067511558532715
1.727527715704671e+18,-0.020482096821069717,-0.04308275133371353,-9.959453582763672
1.727527715707671e+18,0.0060536679811775684,0.013114113360643387,-9.965105056762695
1.7275277157136712e+18,-0.020902711898088455,0.02400055341422558,-9.982097625732422
1.7275277157196713e+18,-0.012035448104143143,-0.041233763098716736,-10.063241958618164
1.7275277157226714e+18,-0.013935215771198273,-0.05307624489068985,-10.089685440063477
1.7275277157286715e+18,0.09372594952583313,0.055805206298828125,-10.041461944580078
1.7275277157346716e+18,-0.008207282051444054,0.014825815334916115,-10.092949867248535
1.7275277157406717e+18,-0.018603011965751648,0.011629742570221424,-9.982504844665527
1.7275277157436718e+18,0.033395104110240936,-0.01668151654303074,-9.990852355957031
1.727527715749672e+18,0.008415285497903824,-0.007629490457475185,-10.079946517944336
1.727527715755672e+18,0.07009424269199371,0.02563457377254963,-9.979522705078125
1.7275277157616722e+18,-0.04141868278384209,0.016265327110886574,-10.139678001403809
1.7275277157646723e+18,-0.05321074649691582,0.10635927319526672,-10.118630409240723
1.7275277157706724e+18,0.06850827485322952,-0.09413330256938934,-10.084115982055664
1.7275277157766725e+18,-0.0065468247048556805,0.0019507701508700848,-10.055643081665039
1.7275277157826726e+18,0.036357760429382324,0.0967576801776886,-10.05933666229248
1.7275277157856727e+18,0.0019640428945422173,0.03364630788564682,-10.210838317871094
1.7275277157916728e+18,0.03614425286650658,0.0193000640720129,-10.122773170471191
1.727527715797673e+18,-0.012479420751333237,-0.00288412906229496,-10.051054000854492
1.727527715803673e+18,0.029887033626437187,0.04529816284775734,-10.177228927612305
1.7275277158096732e+18,-0.023654457181692123,-0.01838742010295391,-10.181886672973633
1.7275277158126733e+18,0.033499106764793396,0.015117189846932888,-10.19833755493164
1.7275277158186734e+18,-0.014577140100300312,-0.041347648948431015,-10.166181564331055
1.7275277158246735e+18,-0.018507346510887146,-0.007773233577609062,-10.457015991210938
1.7275277158306737e+18,0.07744248956441879,0.018437543883919716,-10.510358810424805
1.7275277158336737e+18,0.046259716153144836,0.009279046207666397,-10.419870376586914
1.7275277158396739e+18,-0.010191034525632858,-0.01016235537827015,-10.513718605041504
1.727527715845674e+18,0.13103067874908447,-0.048795394599437714,-10.547419548034668
1.727527715851674e+18,0.01947716251015663,0.02631659246981144,-10.520398139953613
1.7275277158576742e+18,0.0021140456665307283,0.07528648525476456,-10.544822692871094
1.7275277158606743e+18,0.014248467981815338,-0.05230163037776947,-10.585758209228516
1.7275277158666744e+18,0.007573970127850771,-0.022177092730998993,-10.52814769744873
1.7275277158726746e+18,0.007977324537932873,0.018276745453476906,-10.485342979431152
1.7275277158786747e+18,-0.003719903528690338,-0.06888555735349655,-10.57856273651123
1.7275277158846748e+18,0.030632082372903824,0.03213091194629669,-10.669812202453613
1.727527715890675e+18,0.035451922565698624,0.08109046518802643,-10.526055335998535
1.727527715893675e+18,0.021206196397542953,0.0068015423603355885,-10.544074058532715
1.7275277159026752e+18,0.0055765025317668915,0.012727390974760056,-10.491198539733887
1.7275277159056753e+18,0.040462128818035126,-0.03735388442873955,-10.491962432861328
1.7275277159116754e+18,0.01679808646440506,0.004864117596298456,-10.5751314163208
1.7275277159176755e+18,-0.04252297431230545,0.029395107179880142,-10.555370330810547
1.7275277159206756e+18,0.0012922652531415224,0.049062907695770264,-10.605137825012207
1.7275277159266757e+18,-0.05589825287461281,-0.017654456198215485,-10.601889610290527
1.7275277159326758e+18,-0.057983919978141785,-0.013291019015014172,-10.64956283569336
1.727527715938676e+18,0.05282542109489441,0.059427205473184586,-10.559799194335938
1.727527715944676e+18,-0.024437574669718742,-0.0044655390083789825,-10.517226219177246
1.7275277159506762e+18,0.04149596393108368,0.06875021755695343,-10.603973388671875
1.7275277159536763e+18,0.06601957976818085,-0.033054910600185394,-10.575098037719727
1.7275277159596764e+18,-0.026877086609601974,-0.037920575588941574,-10.558799743652344
1.7275277159656765e+18,0.06474658101797104,0.029996180906891823,-10.614398002624512
1.7275277159716767e+18,-0.03066592663526535,0.039103202521800995,-10.60692310333252
1.7275277159746767e+18,0.01682618260383606,0.03759576380252838,-10.572000503540039
1.7275277159806769e+18,-0.07475642114877701,-0.030069595202803612,-10.582841873168945
1.727527715986677e+18,0.034003641456365585,0.011819830164313316,-10.668103218078613
1.727527715989677e+18,0.0879393070936203,-0.11569829285144806,-10.588810920715332
1.7275277159956772e+18,0.01191694661974907,-0.04404956102371216,-10.646862030029297
1.7275277160016773e+18,-0.041168004274368286,-0.027915610000491142,-10.635335922241211
1.7275277160076774e+18,-0.10741184651851654,-0.008190120570361614,-10.610747337341309
1.7275277160136776e+18,-0.014655094593763351,0.025240596383810043,-10.558206558227539
1.7275277160166776e+18,-0.01378067396581173,-0.016056399792432785,-10.568717002868652
1.7275277160226778e+18,-0.010392680764198303,0.045017607510089874,-10.631290435791016
1.727527716028678e+18,0.036380842328071594,0.11399058997631073,-10.642318725585938
1.727527716034678e+18,0.025812676176428795,0.07523845136165619,-10.584360122680664
1.727527716037678e+18,-0.0327567532658577,0.009107460267841816,-10.53027057647705
1.7275277160436782e+18,0.054755378514528275,-0.006861057132482529,-10.588623046875
1.7275277160496783e+18,-0.007799684535712004,0.05717802792787552,-10.554853439331055
1.7275277160556785e+18,0.10614386200904846,-0.02629784494638443,-10.628897666931152
1.7275277160586785e+18,-0.044412825256586075,0.04165227338671684,-10.634440422058105
1.7275277160646787e+18,0.07187236845493317,0.01688496582210064,-10.5798921585083
1.7275277160706788e+18,0.051366742700338364,0.002800304675474763,-10.636611938476562
1.727527716076679e+18,-0.03419998660683632,-0.02513720467686653,-10.634480476379395
1.727527716079679e+18,-0.05525143817067146,0.013741142116487026,-10.525394439697266
1.727527716085679e+18,-0.02667314186692238,0.006112684961408377,-10.605613708496094
1.7275277160916792e+18,0.048620596528053284,0.11129142343997955,-10.62246322631836
1.7275277160976794e+18,0.011765954084694386,-0.04654494673013687,-10.622452735900879
1.7275277161036795e+18,0.11128726601600647,0.04527376964688301,-10.664535522460938
1.7275277161066796e+18,-0.010616735555231571,0.0381593219935894,-10.64919662475586
1.7275277161126797e+18,0.031844332814216614,0.12000580877065659,-10.599320411682129
1.7275277161186798e+18,-0.05455388128757477,0.0718156173825264,-10.648051261901855
1.72752771612468e+18,-0.09856794029474258,0.010513784363865852,-10.539630889892578
1.72752771612768e+18,-0.034579191356897354,-0.011782425455749035,-10.570460319519043
1.72752771613368e+18,0.10180415213108063,-0.011374644003808498,-10.619895935058594
1.7275277161396803e+18,0.032733380794525146,0.07383188605308533,-10.643793106079102
1.7275277161426803e+18,-0.0394156351685524,0.014371044933795929,-10.599089622497559
1.7275277161486804e+18,-0.018316958099603653,-0.005489442963153124,-10.57257080078125
1.7275277161546806e+18,-0.054947495460510254,-0.006254261359572411,-10.552855491638184
1.7275277161606807e+18,-0.02353251352906227,-0.003372793085873127,-10.636421203613281
1.7275277161666808e+18,-0.06032390892505646,-0.030607661232352257,-10.573265075683594
1.727527716169681e+18,-0.04449711740016937,-0.0024136900901794434,-10.653027534484863
1.727527716175681e+18,-0.07956917583942413,0.0558340847492218,-10.537450790405273
1.7275277161816812e+18,0.037874944508075714,-0.012574393302202225,-10.651371002197266
1.7275277161876813e+18,0.017350919544696808,0.0029402566142380238,-10.608780860900879
1.7275277161936814e+18,-0.023443536832928658,-0.03124573640525341,-10.64661693572998
1.7275277161996815e+18,0.05440003424882889,0.010616033338010311,-10.619873046875
1.7275277162056817e+18,0.05460309982299805,0.07071129977703094,-10.541306495666504
1.7275277162086817e+18,0.06462787091732025,0.04896125569939613,-10.542917251586914
1.7275277162146819e+18,0.017268750816583633,-0.048973776400089264,-10.613228797912598
1.727527716220682e+18,-0.005299501586705446,0.08133260160684586,-10.628456115722656
1.727527716226682e+18,-0.012958974577486515,0.012681286782026291,-10.692087173461914
1.7275277162326822e+18,0.001856422983109951,-0.012922640889883041,-10.692412376403809
1.7275277162386824e+18,-0.018699586391448975,0.02559836581349373,-10.592272758483887
1.7275277162416824e+18,-0.0203026682138443,-0.012190057896077633,-10.578093528747559
1.7275277162476826e+18,-0.09299645572900772,-0.08227203041315079,-10.529631614685059
1.7275277162536827e+18,0.045376211404800415,0.010899108834564686,-10.551544189453125
1.7275277162596828e+18,-0.011152866296470165,0.0029345122165977955,-10.619749069213867
1.727527716265683e+18,-0.014889794401824474,-0.039278365671634674,-10.579184532165527
1.727527716268683e+18,0.048697952181100845,-0.04032932594418526,-10.5529146194458
1.7275277162746831e+18,-0.004503126256167889,-0.01554908324033022,-10.559004783630371
1.7275277162806833e+18,-0.08602818846702576,-0.03986485302448273,-10.529541015625
1.7275277162866834e+18,-0.05024834722280502,0.07888369262218475,-10.6099271774292
1.7275277162926835e+18,-0.020631182938814163,-0.06429900974035263,-10.659339904785156
1.7275277162986836e+18,-0.036872152239084244,0.04953420162200928,-10.597417831420898
1.7275277163016837e+18,0.0410316064953804,0.07940128445625305,-10.688547134399414
1.7275277163076838e+18,0.107852041721344,-0.10715915262699127,-10.596211433410645
1.727527716313684e+18,0.0020095892250537872,-0.04074728116393089,-10.663019180297852
1.727527716319684e+18,0.1260736584663391,0.03201994672417641,-10.628220558166504
1.7275277163256842e+18,0.05067760497331619,-0.03674161061644554,-10.583314895629883
1.7275277163286843e+18,0.009007003158330917,0.01938047632575035,-10.576683044433594
1.7275277163346844e+18,0.06016235426068306,-0.02842421643435955,-10.582961082458496
1.7275277163406845e+18,-0.02036275714635849,0.0013486023526638746,-10.613460540771484
1.7275277163466847e+18,-0.011960524134337902,0.015825575217604637,-10.6139497756958
1.7275277163526848e+18,0.06003955379128456,0.027193153277039528,-10.590564727783203
1.727527716358685e+18,-0.04837073013186455,-0.027540260925889015,-10.657027244567871
1.727527716361685e+18,0.03147640451788902,0.009736963547766209,-10.569198608398438
1.727527716367685e+18,-0.016077730804681778,-0.05528060719370842,-10.61450481414795
1.7275277163736852e+18,-0.06418251991271973,0.0776144415140152,-10.567325592041016
1.7275277163796854e+18,-0.024082187563180923,0.061949651688337326,-10.618460655212402
1.7275277163856855e+18,-0.025025784969329834,-0.011565719731152058,-10.614446640014648
1.7275277163886856e+18,-0.05122019350528717,-0.048328470438718796,-10.601210594177246
1.7275277163946857e+18,0.03260182589292526,-0.05501360446214676,-10.61941909790039
1.7275277164006858e+18,0.026630928739905357,-0.05897178873419762,-10.604652404785156
1.727527716406686e+18,0.04928381368517876,0.06695304065942764,-10.699756622314453
1.727527716409686e+18,0.01079652365297079,0.10303504765033722,-10.63753890991211
1.7275277164156861e+18,-0.06383505463600159,-0.017606817185878754,-10.477938652038574
1.7275277164216863e+18,-0.05865750461816788,0.0034396424889564514,-10.593002319335938
1.7275277164276864e+18,0.038806572556495667,0.04859580099582672,-10.5552396774292
1.7275277164336865e+18,0.004992725793272257,0.016889041289687157,-10.59671688079834
1.7275277164366866e+18,-0.09726804494857788,-0.06886659562587738,-10.573694229125977
1.7275277164426867e+18,0.00671793520450592,-0.07477137446403503,-10.580629348754883
1.7275277164486868e+18,-0.045857079327106476,0.056335192173719406,-10.619900703430176
1.727527716454687e+18,-0.0035626215394586325,0.009180054999887943,-10.548386573791504
1.727527716460687e+18,0.02556881681084633,-0.07283446937799454,-10.569422721862793
1.7275277164636872e+18,-0.029982155188918114,-0.031017420813441277,-10.62884521484375
1.7275277164696873e+18,-0.036865461617708206,0.015330681577324867,-10.636771202087402
1.7275277164756874e+18,-0.04130522161722183,0.006838140077888966,-10.603612899780273
1.7275277164816876e+18,-0.07639695703983307,0.01892762817442417,-10.631528854370117
1.7275277164876877e+18,-0.103085957467556,0.019666479900479317,-10.56040096282959
1.7275277164906877e+18,-0.03719174489378929,-0.0581306554377079,-10.658341407775879
1.7275277164966879e+18,0.041056178510189056,0.01996879279613495,-10.602438926696777
1.727527716502688e+18,-0.04623762518167496,0.02583049051463604,-10.521117210388184
1.7275277165086881e+18,0.06732059270143509,0.0031715782824903727,-10.600818634033203
1.7275277165146883e+18,0.010839956812560558,0.015660405158996582,-10.599609375
1.7275277165176883e+18,0.006167328916490078,-0.031790994107723236,-10.553557395935059
1.7275277165236884e+18,-0.00027471096836961806,0.004390434827655554,-10.585238456726074
1.7275277165296886e+18,0.06359019875526428,0.034282136708498,-10.632598876953125
1.7275277165356887e+18,0.007223391905426979,-0.016318727284669876,-10.64940071105957
1.7275277165416888e+18,-0.020002098754048347,0.048512231558561325,-10.638752937316895
1.727527716547689e+18,0.007216610945761204,-0.05712876096367836,-10.562826156616211
1.727527716553689e+18,-0.051086511462926865,0.023845547810196877,-10.709474563598633
1.7275277165566892e+18,0.01657220534980297,0.024516161531209946,-10.58119010925293
1.7275277165626893e+18,0.06329517811536789,0.022953346371650696,-10.592774391174316
1.7275277165686894e+18,-0.036010973155498505,-0.0017880613449960947,-10.59696102142334
1.7275277165746895e+18,-0.013089586049318314,-0.02471887320280075,-10.544870376586914
1.7275277165806897e+18,0.03135722875595093,-0.026858694851398468,-10.661829948425293
1.7275277165836897e+18,0.02129342593252659,0.06898694485425949,-10.644798278808594
1.7275277165896899e+18,-0.007685016840696335,-0.016170024871826172,-10.571089744567871
1.72752771659569e+18,0.009634559042751789,0.07692473381757736,-10.662675857543945
1.72752771660169e+18,-0.009740808047354221,0.047684360295534134,-10.640599250793457
1.7275277166046902e+18,-0.07479633390903473,0.0645797848701477,-10.541279792785645
1.7275277166106903e+18,-0.0250804852694273,0.03491442650556564,-10.59621524810791
1.7275277166166904e+18,0.016594290733337402,0.02482166327536106,-10.603838920593262
1.7275277166226906e+18,-0.017606522887945175,0.054490506649017334,-10.619049072265625
1.7275277166256906e+18,-0.012131629511713982,0.0036111162044107914,-10.475228309631348
1.7275277166316908e+18,0.08520640432834625,0.06819458305835724,-10.617609977722168
1.727527716637691e+18,0.07861485332250595,0.002585388720035553,-10.570599555969238
1.727527716643691e+18,0.0006172652938403189,0.046231888234615326,-10.617198944091797
1.727527716646691e+18,-0.009374717250466347,0.014269270934164524,-10.632933616638184
1.7275277166526912e+18,-0.09338676929473877,-0.03854018449783325,-10.607436180114746
1.7275277166586913e+18,0.0281832255423069,-0.023586200550198555,-10.553641319274902
1.7275277166646915e+18,0.05371910706162453,0.02032550796866417,-10.580907821655273
1.7275277166676915e+18,0.03446761146187782,0.006318690720945597,-10.601480484008789
1.7275277166736916e+18,0.009100176393985748,-0.022732295095920563,-10.523746490478516
1.7275277166796918e+18,-0.010907560586929321,0.021241704002022743,-10.61044692993164
1.7275277166826918e+18,0.06359989941120148,0.04278416559100151,-10.60489559173584
1.727527716688692e+18,0.050749097019433975,-0.0124709727242589,-10.579680442810059
1.727527716694692e+18,-0.009590212255716324,-0.0331265963613987,-10.592144966125488
1.7275277166976922e+18,-0.0705392062664032,0.03086121380329132,-10.56912899017334
1.7275277167036923e+18,0.016158582642674446,-0.01749849133193493,-10.607770919799805
1.7275277167096924e+18,-0.00618161354213953,-0.04040968045592308,-10.62209701538086
1.7275277167156925e+18,0.0215184036642313,0.03919718414545059,-10.518176078796387
1.7275277167216927e+18,0.029958415776491165,-0.03318656608462334,-10.531622886657715
1.7275277167246927e+18,0.017744416370987892,0.03824145719408989,-10.604223251342773
1.7275277167306929e+18,0.008431894704699516,0.016744662076234818,-10.579489707946777
1.727527716736693e+18,0.0011018516961485147,0.0038412529975175858,-10.558816909790039
1.727527716742693e+18,-0.04296008497476578,-0.05647400766611099,-10.600311279296875
1.7275277167456932e+18,-0.01826786994934082,-0.04570417106151581,-10.591694831848145
1.7275277167516933e+18,0.016070064157247543,-0.011979522183537483,-10.61936092376709
1.7275277167576934e+18,-0.029333965852856636,0.03566507622599602,-10.473923683166504
1.7275277167636936e+18,0.029762133955955505,-0.057165298610925674,-10.551817893981934
1.7275277167696937e+18,0.017877090722322464,0.0010695414384827018,-10.551264762878418
1.7275277167726938e+18,-0.0222795307636261,-0.03210081160068512,-10.592214584350586
1.727527716778694e+18,-0.0045199766755104065,-0.07514988631010056,-10.56799030303955
1.727527716784694e+18,-0.07405605912208557,0.07330496609210968,-10.533180236816406
1.7275277167906941e+18,0.022318139672279358,-0.06161947548389435,-10.614603042602539
1.7275277167936942e+18,0.0007836839649826288,-0.011361145414412022,-10.576327323913574
1.7275277167996943e+18,-0.008194830268621445,0.06278282403945923,-10.5789794921875
1.7275277168056945e+18,0.062209371477365494,-0.01290088053792715,-10.614768981933594
1.7275277168116946e+18,0.027043825015425682,-0.0468137226998806,-10.567366600036621
1.7275277168146947e+18,0.009642234072089195,0.07659300416707993,-10.599629402160645
1.7275277168206948e+18,-0.023825261741876602,-0.02711394429206848,-10.571800231933594
1.727527716826695e+18,-0.020594874396920204,-0.009042177349328995,-10.573143005371094
1.727527716832695e+18,0.030680140480399132,-0.05301534757018089,-10.575830459594727
1.7275277168386952e+18,-0.018573377281427383,-0.016952738165855408,-10.554136276245117
1.7275277168446953e+18,0.0052936989814043045,-0.02591356448829174,-10.52242374420166
1.7275277168476954e+18,-0.020900605246424675,0.0030160127207636833,-10.615787506103516
1.7275277168536955e+18,0.05970078706741333,-0.025247003883123398,-10.552233695983887
1.7275277168596956e+18,0.046088993549346924,0.06819333881139755,-10.517219543457031
1.7275277168656957e+18,-0.02492607571184635,0.02272867038846016,-10.497316360473633
1.7275277168686958e+18,0.05617623031139374,-0.04871948063373566,-10.483729362487793
1.727527716874696e+18,0.008379574865102768,0.03482208028435707,-10.536090850830078
1.727527716880696e+18,0.0016767402412369847,-0.04891793429851532,-10.591748237609863
1.7275277168866962e+18,0.05394645035266876,-0.015534549951553345,-10.568387985229492
1.7275277168926963e+18,-0.05512389913201332,0.04617774859070778,-10.551844596862793
1.7275277168986964e+18,0.02655925787985325,0.09958918392658234,-10.552633285522461
1.7275277169016965e+18,0.02152928337454796,-0.04599349573254585,-10.518566131591797
1.7275277169076966e+18,-0.027370648458600044,0.017735373228788376,-10.56308650970459
1.7275277169136968e+18,-0.018418731167912483,0.007322482764720917,-10.549291610717773
1.727527716919697e+18,-0.02635040134191513,-0.016528312116861343,-10.528926849365234
1.727527716925697e+18,0.09272009134292603,0.03327922523021698,-10.547542572021484
1.727527716928697e+18,-0.02565418928861618,0.013202082365751266,-10.59146785736084
1.7275277169346972e+18,0.017972327768802643,-0.01834231987595558,-10.60560417175293
1.7275277169406973e+18,0.026258859783411026,-0.003111724043264985,-10.586329460144043
1.7275277169466975e+18,0.03750383108854294,0.06097911298274994,-10.609969139099121
1.7275277169526976e+18,0.030675675719976425,-0.06589028239250183,-10.505009651184082
1.7275277169556977e+18,0.03056752122938633,-0.05155044421553612,-10.541204452514648
1.7275277169616978e+18,-0.020408350974321365,0.020851735025644302,-10.58353328704834
1.727527716967698e+18,-0.0291727427393198,-0.03370612487196922,-10.606232643127441
1.727527716973698e+18,-0.016198622062802315,-0.005700267851352692,-10.58635425567627
1.727527716976698e+18,0.03661999851465225,0.08516523241996765,-10.618300437927246
1.7275277169826982e+18,0.04924715310335159,-0.007452480029314756,-10.525324821472168
1.7275277169886984e+18,-0.05354829877614975,-0.09986374527215958,-10.589123725891113
1.7275277169946985e+18,-0.034604184329509735,-0.02993335761129856,-10.588109016418457
1.7275277170006986e+18,-0.03786557912826538,-0.01771838404238224,-10.567521095275879
1.7275277170036987e+18,-0.02564069628715515,-0.03266092762351036,-10.673373222351074
1.7275277170096988e+18,-0.09686723351478577,0.011046641506254673,-10.52157211303711
1.727527717015699e+18,0.011369244195520878,-0.012168035842478275,-10.498580932617188
1.727527717021699e+18,-0.017562104389071465,-0.022259263321757317,-10.514966011047363
1.7275277170246991e+18,-0.016071436926722527,-0.024143036454916,-10.450470924377441
1.7275277170306993e+18,0.005882240831851959,-0.01966118812561035,-10.519142150878906
1.7275277170366994e+18,0.016216401010751724,-0.03858919441699982,-10.544843673706055
1.7275277170396995e+18,-0.02634236216545105,-0.04642750695347786,-10.498948097229004
1.7275277170456996e+18,-0.00017080466204788536,0.07088741660118103,-10.591286659240723
1.7275277170516997e+18,-0.026761876419186592,0.01784539967775345,-10.54223346710205
1.7275277170576998e+18,-0.02401736006140709,-0.03678705543279648,-10.569937705993652
1.7275277170637e+18,0.03734757378697395,0.03176434338092804,-10.527850151062012
1.7275277170667e+18,0.004527063108980656,0.0020608780905604362,-10.557291030883789
1.7275277170727002e+18,0.003440292552113533,-0.03700638562440872,-10.474069595336914
1.7275277170787003e+18,0.01400686800479889,-0.012404823675751686,-10.500349044799805
1.7275277170847004e+18,0.05958566069602966,-0.009173957630991936,-10.49299144744873
1.7275277170877005e+18,-0.027362709864974022,-0.0013714366359636188,-10.480993270874023
1.7275277170967007e+18,-0.055266790091991425,-0.014964013360440731,-10.515439987182617
1.7275277170997007e+18,0.08732280135154724,-0.001987507799640298,-10.51077651977539
1.7275277171057009e+18,0.007119302172213793,-0.02740544080734253,-10.534814834594727
1.727527717111701e+18,0.03596598654985428,0.014542832970619202,-10.544509887695312
1.727527717114701e+18,0.007005535997450352,-0.024069540202617645,-10.5009765625
1.7275277171207012e+18,0.015938911586999893,-0.07522736489772797,-10.453801155090332
1.7275277171267013e+18,0.03840283304452896,-0.039037082344293594,-10.457414627075195
1.7275277171327014e+18,0.004157121758908033,-0.009372254833579063,-10.396808624267578
1.7275277171387016e+18,0.03579174727201462,0.02724274806678295,-10.460753440856934
1.7275277171417016e+18,0.01622219942510128,-0.07227957248687744,-10.397636413574219
1.7275277171477018e+18,0.05894255265593529,0.022299133241176605,-10.426980972290039
1.727527717153702e+18,-0.008901959285140038,0.019331995397806168,-10.317684173583984
1.727527717159702e+18,0.04199841246008873,-0.028515666723251343,-10.35813045501709
1.7275277171657021e+18,0.11955323815345764,0.02241116389632225,-10.312371253967285
1.7275277171717023e+18,0.009085435420274734,0.005796774756163359,-10.403295516967773
1.7275277171747023e+18,-0.035119958221912384,0.02937549352645874,-10.269893646240234
1.7275277171807025e+18,0.0009235654142685235,-0.060591526329517365,-10.287884712219238
1.7275277171867026e+18,0.06784235686063766,0.04225604236125946,-10.243861198425293
1.7275277171927027e+18,-0.03350217640399933,-0.011656024493277073,-10.28041934967041
1.7275277171987028e+18,0.10104627162218094,-0.06811533868312836,-10.232439994812012
1.727527717201703e+18,0.016844168305397034,-0.00569060118868947,-10.264533042907715
1.727527717207703e+18,0.026328062638640404,-0.07930264621973038,-10.242441177368164
1.7275277172137032e+18,-0.03150734305381775,0.038989145308732986,-10.164507865905762
1.7275277172197033e+18,0.030825836583971977,0.0018948526121675968,-10.13957405090332
1.7275277172227034e+18,0.06781928986310959,-0.018192848190665245,-10.139171600341797
1.7275277172287035e+18,-0.05930202826857567,0.0630212053656578,-10.146060943603516
1.7275277172347036e+18,-0.04865603521466255,-0.09494929015636444,-10.077393531799316
1.7275277172407037e+18,0.05132370442152023,0.007075943984091282,-10.06004810333252
1.7275277172467039e+18,-0.09092357754707336,-0.01799982413649559,-10.058079719543457
1.727527717252704e+18,-0.04703546315431595,-0.009262140840291977,-10.080706596374512
1.7275277172587041e+18,-0.0096956267952919,0.0512075312435627,-10.025147438049316
1.7275277172617042e+18,0.11435304582118988,0.01634838804602623,-9.958351135253906
1.7275277172677043e+18,0.034453220665454865,-0.06582389026880264,-10.05879020690918
1.7275277172737044e+18,0.008756991475820541,-0.026339709758758545,-9.991701126098633
1.7275277172797046e+18,-0.07062961906194687,0.052399080246686935,-9.956985473632812
1.7275277172857047e+18,0.09675953537225723,-0.026352722197771072,-9.990110397338867
1.7275277172917048e+18,0.007276722230017185,-0.04036746546626091,-10.05074691772461
1.727527717294705e+18,0.0038530328311026096,0.012815442867577076,-9.941060066223145
1.727527717300705e+18,-0.06677842885255814,0.0059512099251151085,-9.944160461425781
1.7275277173067052e+18,0.012847550213336945,0.039776723831892014,-9.896150588989258
1.7275277173127053e+18,0.026485227048397064,0.016037840396165848,-9.862876892089844
1.7275277173187054e+18,0.10036511719226837,0.03130525350570679,-9.786200523376465
1.7275277173217055e+18,-0.020000223070383072,-0.019588559865951538,-9.86628246307373
1.7275277173277056e+18,-0.05831233039498329,0.05162341147661209,-9.769133567810059
1.7275277173337057e+18,0.06709311902523041,0.011823019944131374,-9.789899826049805
1.7275277173397059e+18,-0.026893453672528267,0.0113309845328331,-9.805424690246582
1.727527717345706e+18,-0.011287971399724483,0.010219304822385311,-9.767793655395508
1.727527717351706e+18,0.02297675982117653,-0.08436845242977142,-9.801583290100098
1.7275277173577062e+18,0.042011603713035583,0.0030657905153930187,-9.728179931640625
1.7275277173637064e+18,-0.043012697249650955,-0.003452104749158025,-9.754070281982422
1.7275277173667064e+18,-0.01915888860821724,0.051626209169626236,-9.726858139038086
1.7275277173727066e+18,0.04536714032292366,0.017557604238390923,-9.657715797424316
1.7275277173787067e+18,0.061318203806877136,0.00917146448045969,-9.765013694763184
1.7275277173847068e+18,0.0699169784784317,0.007420999463647604,-9.698060035705566
1.727527717387707e+18,0.004241142421960831,0.023521598428487778,-9.730796813964844
1.727527717393707e+18,-0.027738092467188835,-0.03857176750898361,-9.750085830688477
1.7275277173997071e+18,0.005959603935480118,-0.031069690361618996,-9.727517127990723
1.7275277174057073e+18,0.045325689017772675,0.01162323635071516,-9.768204689025879
1.7275277174087073e+18,-0.010361005552113056,0.01089018676429987,-9.661355018615723
1.7275277174147075e+18,0.0021818974055349827,0.030810192227363586,-9.6685209274292
1.7275277174207076e+18,-0.0642252191901207,-0.027499990537762642,-9.761689186096191
1.7275277174267077e+18,0.03840254992246628,0.020447567105293274,-9.72502326965332
1.7275277174297078e+18,-0.026201970875263214,-0.06307036429643631,-9.662862777709961
1.727527717435708e+18,-0.04287004470825195,0.02231338992714882,-9.615903854370117
1.727527717441708e+18,-0.10032614320516586,0.027268769219517708,-9.604104995727539
1.7275277174477082e+18,0.017297130078077316,0.0058878036215901375,-9.668893814086914
1.7275277174537083e+18,0.0211225263774395,0.025164488703012466,-9.74447250366211
1.7275277174567084e+18,0.03319709002971649,-0.058205682784318924,-9.698434829711914
1.7275277174627085e+18,0.07428028434515,-0.04292936995625496,-9.65424919128418
1.7275277174687086e+18,0.09597672522068024,0.01709781214594841,-9.707741737365723
1.7275277174717087e+18,-0.05102669447660446,-0.02838786318898201,-9.628445625305176
1.7275277174777088e+18,-0.07434030622243881,-0.01553908921778202,-9.610634803771973
1.727527717483709e+18,-0.00042062002466991544,0.004570383578538895,-9.690330505371094
1.727527717489709e+18,0.0960022360086441,-0.00805748626589775,-9.708342552185059
1.7275277174957092e+18,0.013013494201004505,-0.08656088262796402,-9.684237480163574
1.7275277175017093e+18,0.00887538492679596,0.06170816719532013,-9.580343246459961
1.7275277175047094e+18,0.021712657064199448,0.016583021730184555,-9.552852630615234
1.7275277175107095e+18,0.010424506850540638,0.004601241089403629,-9.612422943115234
1.7275277175167096e+18,-0.035100195556879044,0.050473496317863464,-9.592824935913086
1.7275277175227098e+18,0.06102395057678223,-0.014448953792452812,-9.59329891204834
1.72752771752871e+18,0.024410385638475418,0.01926417276263237,-9.676088333129883
1.72752771753171e+18,0.011322206817567348,0.0016805474879220128,-9.70795726776123
1.72752771753771e+18,-0.03640495240688324,0.02895580604672432,-9.645248413085938
1.7275277175437102e+18,-0.029676223173737526,0.0017433423781767488,-9.716374397277832
1.7275277175497103e+18,0.06099654734134674,-0.011686266399919987,-9.62818431854248
1.7275277175527104e+18,0.0236541535705328,-0.024619117379188538,-9.660415649414062
1.7275277175587105e+18,-0.024373535066843033,-0.02294517681002617,-9.581008911132812
1.7275277175647107e+18,0.026077482849359512,0.037727974355220795,-9.690494537353516
1.7275277175707108e+18,-0.008375285193324089,0.012379595078527927,-9.622997283935547
1.727527717576711e+18,-0.029555849730968475,0.00291173392906785,-9.678478240966797
1.727527717579711e+18,0.016103563830256462,-0.004902908578515053,-9.640774726867676
1.727527717585711e+18,0.010509474202990532,0.019862279295921326,-9.689990997314453
1.7275277175917112e+18,0.029337262734770775,-0.018434658646583557,-9.636996269226074
1.7275277175977114e+18,0.0378163643181324,0.000493733212351799,-9.662492752075195
1.7275277176007114e+18,0.10318737477064133,0.007276194170117378,-9.71678352355957
1.7275277176067116e+18,-0.09063269942998886,0.03043127804994583,-9.70051383972168
1.7275277176127117e+18,-0.012476911768317223,-0.001433319179341197,-9.670713424682617
1.7275277176187118e+18,0.024652380496263504,0.04733826220035553,-9.606884002685547
1.727527717624712e+18,0.028179923072457314,0.03997635096311569,-9.570805549621582
1.727527717630712e+18,0.023882081732153893,-0.012168209999799728,-9.668214797973633
1.7275277176367122e+18,-0.03366277366876602,-0.0015818540705367923,-9.726754188537598
1.7275277176427123e+18,-0.01846040040254593,-0.0249597430229187,-9.617432594299316
1.7275277176457124e+18,0.016093825921416283,-0.051042843610048294,-9.766999244689941
1.7275277176517125e+18,-0.004867889452725649,0.05800548568367958,-9.803418159484863
1.7275277176577126e+18,-0.03692825883626938,0.05507010221481323,-9.623988151550293
1.7275277176637128e+18,0.0010261270217597485,-0.054505594074726105,-9.610116958618164
1.727527717669713e+18,0.043941207230091095,0.016429711133241653,-9.629227638244629
1.727527717672713e+18,0.08174299448728561,0.09660244733095169,-9.602180480957031
1.727527717678713e+18,0.030354997143149376,0.002452234970405698,-9.55565071105957
1.7275277176847132e+18,0.08024512976408005,0.003523625899106264,-9.574350357055664
1.7275277176877133e+18,-0.0634734258055687,-0.004981606733053923,-9.632974624633789
1.7275277176937134e+18,-0.044812899082899094,0.03943479061126709,-9.616057395935059
1.7275277176997135e+18,0.023828692734241486,-0.0008086570887826383,-9.669053077697754
1.7275277177057137e+18,-0.017641879618167877,-0.05536699667572975,-9.648627281188965
1.7275277177117138e+18,-0.0054025715216994286,0.005128405522555113,-9.614470481872559
1.727527717717714e+18,-0.021785592660307884,0.07701550424098969,-9.626791954040527
1.727527717720714e+18,-0.04883570596575737,0.014849504455924034,-9.68645191192627
1.727527717726714e+18,-0.015862680971622467,0.009975953958928585,-9.659727096557617
1.7275277177327142e+18,-0.06910943984985352,-0.04711270332336426,-9.589253425598145
1.7275277177387144e+18,-0.062354907393455505,-0.001763063482940197,-9.573132514953613
1.7275277177447145e+18,0.023280441761016846,0.005650751292705536,-9.540912628173828
1.7275277177477146e+18,-0.05324139446020126,0.031568557024002075,-9.568546295166016
1.7275277177537147e+18,0.025850683450698853,-0.10299992561340332,-9.60428237915039
1.7275277177597148e+18,-0.08856994658708572,-0.029749685898423195,-9.59300422668457
1.727527717765715e+18,0.0052558002062141895,0.05289376154541969,-9.72970199584961
1.727527717768715e+18,-0.003062220523133874,-0.04739537835121155,-9.60895824432373
1.7275277177747151e+18,0.02108730934560299,0.07296520471572876,-9.685708999633789
1.7275277177807153e+18,0.008957195095717907,-0.02933039888739586,-9.651678085327148
1.7275277177867154e+18,-0.007320741191506386,0.05329972505569458,-9.540640830993652
1.7275277177927155e+18,0.00435624411329627,0.005082189571112394,-9.544650077819824
1.7275277177957156e+18,-0.006221218965947628,0.04651195555925369,-9.576351165771484
1.7275277178017157e+18,0.025228913873434067,0.042746394872665405,-9.6216459274292
1.7275277178077158e+18,-0.05421330779790878,0.014410541392862797,-9.63827896118164
1.727527717813716e+18,0.08079568296670914,-0.0734451562166214,-9.502750396728516
1.727527717816716e+18,-0.03211360052227974,-0.03348559886217117,-9.609587669372559
1.7275277178227162e+18,-0.0011315667070448399,-0.0007078700000420213,-9.553945541381836
1.7275277178287163e+18,-0.050057798624038696,-0.0352250337600708,-9.636641502380371
1.7275277178347164e+18,0.03467648848891258,-0.030502289533615112,-9.565241813659668
1.7275277178407165e+18,-0.004149020183831453,-0.013193473219871521,-9.539372444152832
1.7275277178437166e+18,-0.004730225075036287,-0.08124163746833801,-9.636552810668945
1.7275277178497167e+18,0.0033073138911277056,-0.019377928227186203,-9.553106307983398
1.7275277178557169e+18,0.0835271030664444,0.0461353175342083,-9.595218658447266
1.727527717861717e+18,0.03384857997298241,0.008065735921263695,-9.550108909606934
1.727527717867717e+18,0.03892028331756592,-0.08008913695812225,-9.454029083251953
1.7275277178737172e+18,-0.0021738752257078886,-0.017294064164161682,-9.624650001525879
1.7275277178767173e+18,0.07328980416059494,-0.04727102443575859,-9.667098045349121
1.7275277178827174e+18,-0.05747504532337189,-0.06385282427072525,-9.509888648986816
1.7275277178887176e+18,-0.0017245548078790307,-0.0415957048535347,-9.600789070129395
1.7275277178947177e+18,-0.03293048217892647,-0.049994125962257385,-9.641382217407227
1.7275277178977178e+18,-0.059478286653757095,0.033843278884887695,-9.606325149536133
1.727527717903718e+18,-0.006266487296670675,-0.005672255530953407,-9.482491493225098
1.727527717909718e+18,-0.0644347295165062,0.023471638560295105,-9.543612480163574
1.7275277179157181e+18,0.030394140630960464,-0.06312517821788788,-9.556930541992188
1.7275277179187182e+18,0.06241477280855179,-0.044619120657444,-9.594305038452148
1.7275277179247183e+18,-0.05478915572166443,-0.05627084895968437,-9.545476913452148
1.7275277179307185e+18,0.018323849886655807,0.032881759107112885,-9.536072731018066
1.7275277179367186e+18,0.010525038465857506,-0.023583795875310898,-9.526230812072754
1.7275277179397187e+18,0.04148025065660477,-0.04224970191717148,-9.508500099182129
1.7275277179457188e+18,-0.09045945107936859,0.11170993745326996,-9.559085845947266
1.727527717951719e+18,0.008623741567134857,0.002677392214536667,-9.52946949005127
1.727527717957719e+18,0.07850857824087143,0.05163642764091492,-9.458014488220215
1.727527717960719e+18,0.07146503776311874,0.03600176051259041,-9.571435928344727
1.7275277179667192e+18,0.024386145174503326,-0.04899069666862488,-9.543846130371094
1.7275277179727194e+18,0.025228289887309074,0.06422152370214462,-9.524484634399414
1.7275277179787195e+18,-0.03022097796201706,-0.017404625192284584,-9.491661071777344
1.7275277179847196e+18,0.0010751765221357346,-0.03812616690993309,-9.535494804382324
1.7275277179877197e+18,0.02820965275168419,-0.04477846249938011,-9.540342330932617
1.7275277179937198e+18,0.015344812534749508,-0.05338496342301369,-9.520050048828125
1.72752771799972e+18,-0.058179788291454315,0.021639421582221985,-9.510912895202637
1.72752771800572e+18,0.005156086757779121,0.02453138679265976,-9.666353225708008
1.7275277180087201e+18,-0.041837017983198166,0.037290170788764954,-9.572447776794434
1.7275277180147203e+18,-0.010409325361251831,-0.010407904163002968,-9.528325080871582
1.7275277180207204e+18,-0.05697579309344292,0.013954207301139832,-9.596338272094727
1.7275277180267205e+18,0.05468368157744408,-0.030468281358480453,-9.57580852508545
1.7275277180297206e+18,-0.0714714378118515,0.041353847831487656,-9.521516799926758
1.7275277180357207e+18,0.027636241167783737,0.013647528365254402,-9.485559463500977
1.7275277180417208e+18,-0.04688804969191551,-0.07181382179260254,-9.510693550109863
1.727527718047721e+18,-0.05306769162416458,0.050781164318323135,-9.585203170776367
1.727527718050721e+18,0.07286493480205536,0.025984251871705055,-9.522714614868164
1.7275277180567212e+18,-0.01963789016008377,0.027775678783655167,-9.584375381469727
1.7275277180627213e+18,0.013148724101483822,-0.026615187525749207,-9.643742561340332
1.7275277180687214e+18,0.08759287744760513,-0.05530184507369995,-9.603296279907227
1.7275277180717215e+18,0.04001284018158913,-0.05081524699926376,-9.489545822143555
1.7275277180777216e+18,-0.06140969321131706,0.06090540066361427,-9.615911483764648
1.7275277180837217e+18,-0.05759183689951897,-0.020846575498580933,-9.547037124633789
1.7275277180867218e+18,-0.028116874396800995,-0.012959129177033901,-9.49338150024414
1.727527718092722e+18,0.0840594470500946,-0.02411288022994995,-9.533380508422852
1.727527718098722e+18,-0.005025497637689114,-0.11841185390949249,-9.47609806060791
1.7275277181047222e+18,-0.0303560271859169,-0.011987551115453243,-9.456241607666016
1.7275277181077222e+18,-0.08960799127817154,0.043984901160001755,-9.46684455871582
1.7275277181137224e+18,-0.0008660929161123931,-0.024727489799261093,-9.486833572387695
1.7275277181197225e+18,0.007845556363463402,0.06176745891571045,-9.557926177978516
1.7275277181227226e+18,-0.015305083245038986,0.040948305279016495,-9.546563148498535
1.7275277181287227e+18,0.06702694296836853,0.012085934169590473,-9.543731689453125
1.7275277181347228e+18,0.005708103999495506,0.032994020730257034,-9.545766830444336
1.727527718140723e+18,-0.0345846451818943,-0.009465901181101799,-9.495220184326172
1.727527718146723e+18,0.006663579028099775,-0.051156580448150635,-9.451123237609863
1.7275277181497231e+18,-0.04584020376205444,-0.011998229660093784,-9.534470558166504
1.7275277181557233e+18,-0.010430322960019112,0.025172226130962372,-9.492203712463379
1.7275277181617234e+18,0.009705071337521076,-0.04153923690319061,-9.436944961547852
1.7275277181677235e+18,-0.07433474808931351,0.06513535976409912,-9.428572654724121
1.7275277181737236e+18,0.049598343670368195,-0.05000646784901619,-9.510957717895508
1.7275277181767237e+18,0.020293502137064934,-0.007537963334470987,-9.51787281036377
1.7275277181827238e+18,-0.014478079974651337,0.09977591037750244,-9.50871467590332
1.727527718188724e+18,0.03452374041080475,-0.05629843845963478,-9.53934383392334
1.727527718194724e+18,-0.0677189826965332,-0.03623870387673378,-9.51899242401123
1.7275277181977242e+18,0.03763531893491745,0.009160961024463177,-9.48289966583252
1.7275277182037243e+18,0.06342292577028275,-0.06968258321285248,-9.42195987701416
1.7275277182097244e+18,0.0482628159224987,-0.030029207468032837,-9.481182098388672
1.7275277182157245e+18,0.012199081480503082,-0.06274239718914032,-9.529572486877441
1.7275277182217247e+18,-0.01627953350543976,0.024218199774622917,-9.554585456848145
1.7275277182277248e+18,-0.027959784492850304,-0.02988000586628914,-9.48157787322998
1.727527718233725e+18,-0.007530753035098314,0.006819024216383696,-9.496781349182129
1.727527718236725e+18,-0.03610694408416748,0.07154741138219833,-9.51123332977295
1.727527718242725e+18,-0.005369721446186304,-0.015085810795426369,-9.439192771911621
1.7275277182487252e+18,0.06839066743850708,-0.04089318588376045,-9.589734077453613
1.7275277182547254e+18,-0.053459059447050095,0.039208002388477325,-9.570717811584473
1.7275277182607255e+18,0.0171414315700531,-0.05960125848650932,-9.496979713439941
1.7275277182637256e+18,-0.02128731459379196,0.06954235583543777,-9.449006080627441
1.7275277182697257e+18,0.006350218318402767,-0.01935802400112152,-9.490679740905762
1.7275277182757258e+18,0.061715368181467056,0.02596004493534565,-9.486762046813965
1.727527718281726e+18,-0.05668606236577034,-0.03631962835788727,-9.46219539642334
1.727527718287726e+18,0.014680389314889908,0.08161520212888718,-9.496013641357422
1.7275277182937262e+18,-0.029655681923031807,-0.01882627233862877,-9.452412605285645
1.7275277182967263e+18,-0.048822008073329926,-0.003140678396448493,-9.454983711242676
1.7275277183027264e+18,-0.012173715978860855,-0.03789467364549637,-9.489840507507324
1.7275277183087265e+18,0.009897422976791859,0.04737091809511185,-9.517638206481934
1.7275277183147267e+18,0.026952704414725304,-0.042243245989084244,-9.445292472839355
1.7275277183207268e+18,-0.06412290781736374,0.03770601004362106,-9.426627159118652
1.727527718326727e+18,-0.023513002321124077,0.029826294630765915,-9.447850227355957
1.727527718329727e+18,-0.030000489205121994,0.029029080644249916,-9.437832832336426
1.727527718335727e+18,-0.01893753930926323,0.03821553289890289,-9.493072509765625
1.7275277183417272e+18,0.015579277649521828,0.016451330855488777,-9.44506549835205
1.7275277183477274e+18,0.05480901524424553,-0.017903706058859825,-9.464375495910645
1.7275277183537275e+18,-0.022888842970132828,-0.03544654697179794,-9.476838111877441
1.7275277183567276e+18,0.004693729802966118,0.01795140653848648,-9.451187133789062
1.7275277183627277e+18,0.06890027970075607,-0.018419373780488968,-9.488537788391113
1.7275277183687278e+18,-0.06734376400709152,-0.040982116013765335,-9.527771949768066
1.727527718374728e+18,-0.04759683087468147,0.07606888562440872,-9.406794548034668
1.727527718377728e+18,-0.002506439806893468,-0.021405328065156937,-9.504880905151367
1.727527718383728e+18,-0.025780435651540756,0.012386474758386612,-9.514561653137207
1.7275277183897283e+18,-0.04245177283883095,0.0182631965726614,-9.433564186096191
1.7275277183957284e+18,-0.013887519016861916,0.01810339465737343,-9.410070419311523
1.7275277184017285e+18,-0.046558912843465805,-0.018548769876360893,-9.464198112487793
1.7275277184077286e+18,0.03415418788790703,0.07165423035621643,-9.506573677062988
1.7275277184107287e+18,0.004840816371142864,-0.048630811274051666,-9.411857604980469
1.7275277184167288e+18,0.006209875922650099,-0.01689499244093895,-9.473221778869629
1.727527718422729e+18,0.07203026860952377,-0.005361413583159447,-9.38305377960205
1.727527718428729e+18,0.05500801280140877,0.014774257317185402,-9.507988929748535
1.7275277184317292e+18,-0.09278102219104767,0.026816820725798607,-9.462455749511719
1.7275277184377293e+18,-0.018037255853414536,0.02691786177456379,-9.39276123046875
1.7275277184437294e+18,-0.06049147993326187,0.003370029153302312,-9.451437950134277
1.7275277184497295e+18,0.05598828196525574,-0.07831846922636032,-9.383654594421387
1.7275277184557297e+18,0.007508683949708939,0.022801939398050308,-9.449163436889648
1.7275277184587297e+18,0.0025695988442748785,-0.005576268769800663,-9.426591873168945
1.7275277184647299e+18,0.02712467685341835,0.019773993641138077,-9.418891906738281
1.72752771847073e+18,0.05603789910674095,0.056857287883758545,-9.50135612487793
1.72752771847673e+18,0.03968603536486626,-0.017448313534259796,-9.364779472351074
1.7275277184827302e+18,0.010358680039644241,-0.040621913969516754,-9.500511169433594
1.7275277184887304e+18,0.06084301695227623,0.003877294482663274,-9.433465957641602
1.7275277184947305e+18,0.03195265308022499,-0.03155328333377838,-9.475005149841309
1.7275277185007306e+18,-0.021203093230724335,-0.04827696830034256,-9.41594409942627
1.7275277185037307e+18,0.05869466811418533,0.04856275022029877,-9.405418395996094
1.7275277185097308e+18,0.02232876978814602,0.01474824734032154,-9.433843612670898
1.727527718515731e+18,-0.013116437010467052,0.0199541375041008,-9.396329879760742
1.727527718521731e+18,0.04599316790699959,-0.008146179839968681,-9.462573051452637
1.7275277185277312e+18,0.02214590460062027,-0.055988796055316925,-9.389192581176758
1.7275277185337313e+18,-0.07016358524560928,0.012041669338941574,-9.444132804870605
1.7275277185367314e+18,0.07556015998125076,0.02013973705470562,-9.463510513305664
1.7275277185427315e+18,-0.007409142795950174,-0.07328865677118301,-9.399030685424805
1.7275277185487316e+18,0.04993131384253502,0.028065156191587448,-9.444162368774414
1.7275277185547318e+18,0.020773794502019882,-0.012414216995239258,-9.435050964355469
1.7275277185577318e+18,-0.006038172170519829,-0.029123473912477493,-9.468384742736816
1.727527718563732e+18,-0.02335231937468052,0.019971230998635292,-9.459692001342773
1.727527718569732e+18,0.034588661044836044,0.023180224001407623,-9.401015281677246
1.7275277185757322e+18,0.016699468716979027,-0.09583401679992676,-9.369546890258789
1.7275277185787323e+18,0.004941824823617935,0.01661728322505951,-9.341198921203613
1.7275277185847324e+18,-0.015804246068000793,-0.037018224596977234,-9.51120662689209
1.7275277185907325e+18,-0.05246470868587494,-0.026270702481269836,-9.370478630065918
1.7275277185967327e+18,0.020115911960601807,-0.01574791595339775,-9.32176399230957
1.7275277185997327e+18,-0.02577630616724491,-0.0681399255990982,-9.432660102844238
1.7275277186057329e+18,-0.058518070727586746,-0.06263373792171478,-9.462278366088867
1.727527718611733e+18,0.03685760498046875,-0.00443337531760335,-9.471434593200684
1.727527718617733e+18,-0.03866208344697952,-0.08244577795267105,-9.458971977233887
1.7275277186207332e+18,-0.05940420925617218,0.020213793963193893,-9.441121101379395
1.7275277186267333e+18,0.05633245408535004,-0.02983807399868965,-9.46664047241211
1.7275277186327334e+18,-0.024447252973914146,-0.05964629724621773,-9.396230697631836
1.7275277186387336e+18,-0.02195185422897339,0.032273080199956894,-9.383086204528809
1.7275277186447337e+18,-0.014946934767067432,0.05158448964357376,-9.432849884033203
1.7275277186507338e+18,-0.029184183105826378,0.017320016399025917,-9.460000991821289
1.727527718653734e+18,-0.002722116420045495,-0.0658416599035263,-9.44184398651123
1.727527718659734e+18,-0.03503533452749252,-0.011362213641405106,-9.500412940979004
1.7275277186657341e+18,0.083353191614151,0.007141002453863621,-9.513470649719238
1.7275277186717343e+18,-0.07961960881948471,-0.044744208455085754,-9.493297576904297
1.7275277186747343e+18,0.05096131190657616,-0.004480941686779261,-9.412220001220703
1.7275277186807345e+18,-0.08470148593187332,-0.010280543006956577,-9.367737770080566
1.7275277186867346e+18,0.0012408492621034384,-0.004686790518462658,-9.528141021728516
1.7275277186927347e+18,-0.06668563932180405,-0.011002752929925919,-9.442022323608398
1.7275277186957348e+18,-0.07613637298345566,0.006140890996903181,-9.38789176940918
1.727527718701735e+18,0.04922328516840935,0.02711295709013939,-9.390369415283203
1.727527718707735e+18,-0.006560579873621464,-0.0053324331529438496,-9.387744903564453
1.727527718710735e+18,-0.07264607399702072,-0.013451388105750084,-9.431903839111328
1.7275277187167352e+18,0.014409413561224937,0.0035726181231439114,-9.330511093139648
1.7275277187227354e+18,0.06086117774248123,0.025415031239390373,-9.397692680358887
1.7275277187287355e+18,-0.010241303592920303,0.021393902599811554,-9.420852661132812
1.7275277187347356e+18,-0.03703732043504715,-0.013738635927438736,-9.448808670043945
1.7275277187377357e+18,0.06523886322975159,-0.0037157938349992037,-9.40772533416748
1.7275277187437358e+18,-0.029974639415740967,-0.0043338146060705185,-9.446619987487793
1.727527718749736e+18,0.017810605466365814,0.027871018275618553,-9.4447021484375
1.727527718755736e+18,0.01607602834701538,0.02569318376481533,-9.406362533569336
1.7275277187587361e+18,0.06830963492393494,-0.0045893751084804535,-9.410945892333984
1.7275277187647363e+18,0.030312765389680862,0.007309840526431799,-9.397008895874023
1.7275277187707364e+18,-0.06659793853759766,0.03361525014042854,-9.362077713012695
1.7275277187737364e+18,-0.005823623389005661,-0.07546578347682953,-9.41405200958252
1.7275277187797366e+18,0.03374967724084854,0.022842105478048325,-9.457479476928711
1.7275277187857367e+18,-0.022696686908602715,-0.03668409213423729,-9.411577224731445
1.7275277187917368e+18,-0.05158082768321037,0.1078273206949234,-9.497862815856934
1.727527718794737e+18,-0.05775226652622223,0.049905359745025635,-9.360612869262695
1.727527718800737e+18,-0.0012605574447661638,0.01250301394611597,-9.49881649017334
1.7275277188067372e+18,0.023577921092510223,0.03632750362157822,-9.395915985107422
1.7275277188127373e+18,0.01679442636668682,0.053889576345682144,-9.385026931762695
1.7275277188187374e+18,-0.03439920395612717,-0.00951339676976204,-9.367225646972656
1.7275277188217375e+18,-0.039036817848682404,0.022122450172901154,-9.430434226989746
1.7275277188277376e+18,0.06554774194955826,-0.0018241261132061481,-9.373746871948242
1.7275277188337377e+18,-0.015688445419073105,-0.031843218952417374,-9.299692153930664
1.7275277188367378e+18,-0.015691325068473816,0.0042230817489326,-9.28808879852295
1.727527718842738e+18,0.020543765276670456,-0.028054364025592804,-9.325501441955566
1.727527718848738e+18,0.059721119701862335,-0.053907908499240875,-9.205945014953613
1.7275277188547382e+18,-0.07009865343570709,-0.06769322603940964,-9.306855201721191
1.7275277188607383e+18,-0.03808623552322388,-0.02552133798599243,-9.235708236694336
1.7275277188637384e+18,0.05230717360973358,0.10920850187540054,-9.244007110595703
1.7275277188697385e+18,-0.029188720509409904,-0.03704966604709625,-9.200638771057129
1.7275277188757386e+18,0.047651927918195724,-0.019766271114349365,-9.129990577697754
1.7275277188817388e+18,-0.07016579806804657,-0.038371287286281586,-9.215605735778809
1.7275277188847388e+18,0.0008864588453434408,0.029247958213090897,-9.173174858093262
1.727527718890739e+18,0.02018570899963379,0.028022916987538338,-9.135368347167969
1.727527718896739e+18,-0.008859146386384964,0.039518892765045166,-9.136614799499512
1.7275277188997391e+18,0.01585496962070465,-0.012140700593590736,-9.047722816467285
1.7275277189057393e+18,0.0706113800406456,-0.02164401113986969,-9.040518760681152
1.7275277189117394e+18,-0.03934886306524277,0.022008342668414116,-9.062432289123535
1.7275277189177395e+18,0.06530860811471939,0.031726956367492676,-9.00319766998291
1.7275277189237396e+18,0.04530009999871254,0.047656647861003876,-8.957268714904785
1.7275277189267397e+18,0.023727798834443092,-0.10375070571899414,-8.949119567871094
1.7275277189327398e+18,-0.043486323207616806,0.03479864448308945,-8.967615127563477
1.72752771893874e+18,0.011221886612474918,0.0007070634164847434,-9.085338592529297
1.72752771894474e+18,-0.04366128519177437,0.016439028084278107,-8.93702507019043
1.7275277189477402e+18,-0.006595433223992586,0.040769606828689575,-8.989884376525879
1.7275277189537403e+18,-0.015649225562810898,-0.03868228569626808,-8.937931060791016
1.7275277189597404e+18,-0.05134164169430733,0.040820419788360596,-8.980521202087402
1.7275277189657405e+18,0.04520741477608681,-0.053766608238220215,-8.845855712890625
1.7275277189717407e+18,-0.013211032375693321,-0.004643084481358528,-8.86091136932373
1.7275277189747407e+18,0.07039804756641388,-0.04431317746639252,-8.894007682800293
1.7275277189807409e+18,0.034711483865976334,0.004441372584551573,-8.884613037109375
1.727527718986741e+18,-0.01213319506496191,0.015150033868849277,-8.812841415405273
1.727527718992741e+18,0.0066113597713410854,0.06236061453819275,-8.816701889038086
1.7275277189957412e+18,0.024701353162527084,0.02011232078075409,-8.763809204101562
1.7275277190017413e+18,-0.055995941162109375,-0.03569965809583664,-8.779284477233887
1.7275277190077414e+18,-0.007054254412651062,0.017761243507266045,-8.808289527893066
1.7275277190137416e+18,-0.025267602875828743,0.024823550134897232,-8.680069923400879
1.7275277190197417e+18,-0.02718147449195385,-0.03330075740814209,-8.740921020507812
1.7275277190257418e+18,0.029391421005129814,0.032633766531944275,-8.664856910705566
1.727527719028742e+18,0.017505304887890816,0.012333689257502556,-8.676454544067383
1.727527719034742e+18,-0.025579338893294334,0.029850423336029053,-8.675861358642578
1.7275277190407421e+18,-0.03507470712065697,-0.058494847267866135,-8.707383155822754
1.7275277190467423e+18,0.020251702517271042,0.06706953048706055,-8.651802062988281
1.7275277190497423e+18,0.09419567883014679,-0.021325338631868362,-8.664941787719727
1.7275277190557425e+18,-0.020512808114290237,-0.10087309032678604,-8.599349021911621
1.7275277190617426e+18,-0.04621061310172081,-0.003251690184697509,-8.589631080627441
1.7275277190677427e+18,0.027819836512207985,-0.057977281510829926,-8.619214057922363
1.7275277190737428e+18,-0.07931960374116898,-0.03650481626391411,-8.656763076782227
1.727527719076743e+18,0.025879723951220512,-0.004606897942721844,-8.571006774902344
1.727527719082743e+18,-0.01221976988017559,-0.08232832700014114,-8.662052154541016
1.7275277190887432e+18,0.03691927716135979,-0.03704892098903656,-8.612964630126953
1.7275277190947433e+18,-0.012585128657519817,0.06968431919813156,-8.55036735534668
1.7275277191007434e+18,-0.062128446996212006,0.058704935014247894,-8.762317657470703
1.7275277191067436e+18,-0.0007959639187902212,-0.02806342951953411,-8.752975463867188
1.7275277191127437e+18,-0.07691829651594162,-0.05437367409467697,-8.658824920654297
1.7275277191157437e+18,-0.023558462038636208,0.09213414043188095,-8.670409202575684
1.727527719121744e+18,3.211025250493549e-05,-0.011313913390040398,-8.710916519165039
1.727527719127744e+18,-0.04048377647995949,-0.04324479401111603,-8.782535552978516
1.727527719133744e+18,-0.012498046271502972,-0.05638539046049118,-8.700112342834473
1.7275277191397443e+18,-0.027445148676633835,0.02126171439886093,-8.721918106079102
1.7275277191457444e+18,-0.03265393525362015,0.055390920490026474,-8.753210067749023
1.7275277191517445e+18,0.025147397071123123,-0.0017478408990427852,-8.662586212158203
1.7275277191577446e+18,0.09182833880186081,-0.0017803272930905223,-13.905808448791504
1.7275277191637448e+18,0.05475940927863121,-0.07020139694213867,-15.494230270385742
1.727527719169745e+18,0.006088538561016321,-0.01570742577314377,-16.0122013092041
1.727527719175745e+18,-0.0073403604328632355,-0.0322425551712513,-16.157625198364258
1.727527719178745e+18,0.024204140529036522,0.08100491762161255,-16.17905616760254
1.7275277191847452e+18,0.03562432900071144,0.0600641593337059,-16.21010971069336
1.7275277191907453e+18,-0.02396174892783165,-0.020652780309319496,-16.216331481933594
1.7275277191967455e+18,-0.03667999804019928,-0.046398717910051346,-16.101348876953125
1.7275277192027456e+18,0.018758920952677727,0.011697206646203995,-16.102155685424805
1.7275277192087457e+18,-0.024762023240327835,-0.021756477653980255,-16.087642669677734
1.7275277192147459e+18,-0.03803234547376633,-0.010997855104506016,-15.954323768615723
1.727527719220746e+18,0.0020813995506614447,-0.014668098650872707,-15.823404312133789
1.727527719226746e+18,0.026817021891474724,-0.051786307245492935,-15.777101516723633
1.7275277192327462e+18,-0.029969267547130585,0.03776077926158905,-15.59618091583252
1.7275277192387464e+18,-0.0038078397046774626,-0.003679468296468258,-15.575325012207031
1.7275277192447465e+18,-0.024915210902690887,0.06774722784757614,-15.519813537597656
1.7275277192507466e+18,-0.061673618853092194,0.05614533647894859,-15.335639953613281
1.7275277192567468e+18,-0.015557277016341686,-0.035500817000865936,-15.286075592041016
1.727527719262747e+18,-0.06854806840419769,-0.00846854504197836,-15.129348754882812
1.727527719268747e+18,0.040860094130039215,0.045711107552051544,-15.217166900634766
1.7275277192747471e+18,0.012651260942220688,0.025247905403375626,-14.961956024169922
1.7275277192807473e+18,-0.02091861143708229,-0.05261048302054405,-14.92707633972168
1.7275277192867474e+18,-0.09321143478155136,-0.05709207057952881,-14.852890014648438
1.7275277192897475e+18,-0.017090806737542152,0.04702581465244293,-14.824263572692871
1.7275277192987476e+18,0.019140660762786865,-0.04521939903497696,-14.68132209777832
1.7275277193047478e+18,-0.0016401156317442656,0.02028852328658104,-14.662201881408691
1.7275277193077478e+18,-0.03138510882854462,0.06162168085575104,-14.605499267578125
1.727527719313748e+18,0.07864697277545929,0.024315588176250458,-14.497684478759766
1.727527719319748e+18,-0.04017209634184837,-0.03727887198328972,-14.420586585998535
1.7275277193257482e+18,0.03718716278672218,0.022373871877789497,-14.308231353759766
1.7275277193317484e+18,0.09105493128299713,-0.007452182937413454,-14.315021514892578
1.7275277193377485e+18,-0.016965249553322792,-0.013154151849448681,-14.176775932312012
1.7275277193437486e+18,-0.016460230574011803,-0.003201814368367195,-14.134662628173828
1.7275277193497487e+18,0.04330441728234291,0.09290748089551926,-14.115659713745117
1.7275277193557489e+18,-0.03140126168727875,-0.021864192560315132,-14.039111137390137
1.727527719361749e+18,0.02451959438621998,-0.04335813969373703,-14.010303497314453
1.727527719367749e+18,0.019245650619268417,-0.020530465990304947,-13.835753440856934
1.7275277193737492e+18,-0.0004476614994928241,0.023443182930350304,-13.775472640991211
1.7275277193767493e+18,0.048924874514341354,0.10799763351678848,-13.831867218017578
1.7275277193827494e+18,0.06959404051303864,0.04473147913813591,-13.709582328796387
1.7275277193887496e+18,-0.014651807956397533,0.013018407858908176,-13.64105224609375
1.7275277193947497e+18,-0.0706835389137268,-0.03983514755964279,-13.6446533203125
1.7275277194007498e+18,-0.006479419767856598,-0.010491802357137203,-13.49928092956543
1.72752771940675e+18,0.03225818648934364,0.03131052851676941,-13.366621017456055
1.72752771940975e+18,0.005088740959763527,-0.050735488533973694,-13.410039901733398
1.7275277194157501e+18,-0.06137653812766075,-0.01909817010164261,-13.458878517150879
1.7275277194217503e+18,0.033345215022563934,-0.04784543067216873,-13.315322875976562
1.7275277194277504e+18,-0.004728109575808048,-0.03880305960774422,-13.206368446350098
1.7275277194337505e+18,-0.007999861612915993,-0.01227831281721592,-13.19713306427002
1.7275277194367506e+18,-0.06562374532222748,-0.010959000326693058,-13.147442817687988
1.7275277194427507e+18,-0.014931609854102135,-0.10725833475589752,-13.11330795288086
1.7275277194487508e+18,-0.06818646192550659,0.039051927626132965,-13.127100944519043
1.727527719454751e+18,0.06277038902044296,0.039843373000621796,-13.008096694946289
1.727527719460751e+18,0.06768816709518433,-0.033220045268535614,-12.932417869567871
1.7275277194637512e+18,-0.07938221096992493,-0.023975703865289688,-12.968545913696289
1.7275277194697513e+18,-0.07256951183080673,0.07627364248037338,-12.795872688293457
1.7275277194757514e+18,-0.06780245155096054,0.00544311385601759,-12.75484561920166
1.7275277194817516e+18,-0.05691549926996231,-0.013885232619941235,-12.836179733276367
1.7275277194877517e+18,-0.041579000651836395,0.02328687347471714,-12.738936424255371
1.7275277194907517e+18,0.0457945354282856,0.01664084382355213,-12.739373207092285
1.7275277194967519e+18,0.036114402115345,0.018313203006982803,-12.62256145477295
1.727527719502752e+18,-0.029247120022773743,-0.05528762936592102,-12.63873291015625
1.7275277195087521e+18,0.04417313262820244,-0.03319457545876503,-12.514342308044434
1.7275277195117522e+18,0.016941221430897713,-0.062048546969890594,-12.603456497192383
1.7275277195177523e+18,-0.04183465242385864,0.028657156974077225,-12.511841773986816
1.7275277195237524e+18,0.017791537567973137,-0.013046205043792725,-12.489212989807129
1.7275277195297526e+18,0.036848440766334534,0.0031957875471562147,-12.514823913574219
1.7275277195327526e+18,0.02977679669857025,-0.06751666218042374,-12.386412620544434
1.7275277195387528e+18,0.020819447934627533,-0.015840940177440643,-12.364723205566406
1.727527719544753e+18,0.028281735256314278,0.03892599791288376,-12.423929214477539
1.727527719550753e+18,0.008336914703249931,0.06259084492921829,-12.327199935913086
1.727527719553753e+18,0.03681501746177673,0.03304781764745712,-12.344562530517578
1.7275277195597532e+18,0.055031873285770416,0.022492745891213417,-12.307378768920898
1.7275277195657533e+18,0.024668462574481964,0.03822113946080208,-12.10184097290039
1.7275277195717535e+18,0.03321196511387825,0.002802349627017975,-12.253293991088867
1.7275277195747535e+18,-0.08082997053861618,0.044785670936107635,-12.197107315063477
1.7275277195807537e+18,-0.046615708619356155,0.00709685729816556,-12.150219917297363
1.7275277195867538e+18,0.012207873165607452,0.03204106539487839,-12.067755699157715
1.727527719592754e+18,0.00961325690150261,0.009430482983589172,-12.153985977172852
1.727527719598754e+18,-0.004656693898141384,0.022640982642769814,-12.090914726257324
1.727527719601754e+18,0.017055191099643707,0.0342864915728569,-12.065400123596191
1.7275277196077542e+18,0.037699002772569656,0.11170993745326996,-12.008999824523926
1.7275277196137544e+18,-0.07442969083786011,-0.058051515370607376,-11.948365211486816
1.7275277196197545e+18,0.04374098405241966,-0.029880274087190628,-11.860908508300781
1.7275277196257546e+18,-0.040643565356731415,0.06621366739273071,-11.904562950134277
1.7275277196287547e+18,-0.010863656178116798,0.005174518097192049,-11.881553649902344
1.7275277196347548e+18,-0.023573003709316254,0.03870496153831482,-11.813227653503418
1.727527719640755e+18,0.014603929594159126,0.06663408875465393,-11.783287048339844
1.727527719646755e+18,0.015130477026104927,0.10956458747386932,-11.767807006835938
1.7275277196527552e+18,-0.037496455013751984,-0.025815170258283615,-11.706867218017578
1.7275277196557553e+18,-0.012049304321408272,0.022049598395824432,-11.692944526672363
1.7275277196617554e+18,-0.029037950560450554,-0.057095542550086975,-11.723931312561035
1.7275277196677555e+18,-0.06988148391246796,0.03972392529249191,-11.618597984313965
1.7275277196707556e+18,-0.051824651658535004,-0.055413857102394104,-11.660947799682617
1.7275277196767557e+18,-0.004547374788671732,-0.06585847586393356,-11.644707679748535
1.7275277196827558e+18,-0.013798256404697895,-0.05066809803247452,-11.587079048156738
1.727527719688756e+18,0.061038512736558914,0.02875877171754837,-11.607951164245605
1.727527719691756e+18,-0.06483672559261322,0.03307013958692551,-11.599526405334473
1.7275277196977562e+18,0.029308244585990906,0.0013329698704183102,-11.562389373779297
1.7275277197037563e+18,0.04231227561831474,-0.052610598504543304,-11.496251106262207
1.7275277197097564e+18,-0.013034077361226082,0.04174760729074478,-11.649591445922852
1.7275277197127565e+18,-0.055570416152477264,-0.006360609550029039,-11.478330612182617
1.7275277197187566e+18,0.10216975212097168,0.013940726406872272,-11.476329803466797
1.7275277197247567e+18,0.06902531534433365,0.011302192695438862,-11.376304626464844
1.7275277197307569e+18,0.044306304305791855,0.051602378487586975,-11.397256851196289
1.727527719736757e+18,0.01782105676829815,-0.008372358977794647,-11.389250755310059
1.727527719739757e+18,-0.006477934308350086,-0.03732988238334656,-11.418020248413086
1.7275277197457572e+18,0.0421171598136425,-0.008249511942267418,-11.377808570861816
1.7275277197517573e+18,0.008214971981942654,0.029866434633731842,-11.415925979614258
1.7275277197577574e+18,0.02091331221163273,0.10158611834049225,-11.295924186706543
1.7275277197637576e+18,0.01506228931248188,-0.013226853683590889,-11.300843238830566
1.7275277197667576e+18,0.003831658512353897,-0.021146288141608238,-11.325505256652832
1.7275277197727578e+18,0.008309373632073402,-0.08546525239944458,-11.274497032165527
1.727527719778758e+18,-0.027437767013907433,0.06426441669464111,-11.242203712463379
1.727527719784758e+18,0.006617113947868347,-0.03795207291841507,-11.280604362487793
1.7275277197907581e+18,-0.027438435703516006,0.009581330232322216,-11.21877384185791
1.7275277197937582e+18,-0.03221090883016586,-0.007183813489973545,-11.257177352905273
1.7275277197997583e+18,-0.025746235623955727,0.012855369597673416,-11.212882041931152
1.7275277198057585e+18,-0.009490812197327614,0.040435247123241425,-11.100404739379883
1.7275277198147587e+18,0.0043588727712631226,0.11390826106071472,-11.175772666931152
1.7275277198237588e+18,0.043077968060970306,0.0646061971783638,-11.104446411132812
1.727527719832759e+18,-0.0012145567452535033,-0.06264954060316086,-11.11938762664795
1.7275277198417592e+18,0.0021016423124819994,-0.014378026127815247,-11.0861177444458
1.7275277198507594e+18,0.05393403768539429,0.1186373308300972,-11.062942504882812
1.7275277198597596e+18,-0.035645484924316406,-0.032443635165691376,-11.015260696411133
1.7275277198687598e+18,0.01682339981198311,-0.0020475403871387243,-10.870868682861328
1.72752771987776e+18,0.014639589935541153,-0.012226907536387444,-10.907407760620117
1.7275277198867602e+18,0.02519403211772442,-0.05488983169198036,-10.855603218078613
1.7275277198957604e+18,-0.01892435923218727,0.018976975232362747,-10.87202262878418
1.7275277199047606e+18,-0.05131509155035019,0.021079199388623238,-10.901625633239746
1.7275277199137608e+18,0.00873594544827938,0.06377215683460236,-10.83663272857666
1.727527719922761e+18,-0.024266839027404785,0.01573694869875908,-10.761751174926758
1.727527719928761e+18,-0.03131559491157532,0.03755701705813408,-10.784941673278809
1.7275277199377613e+18,-0.04224105924367905,-0.028184186667203903,-10.780593872070312
1.7275277199467615e+18,0.05602153390645981,-0.0697011649608612,-10.7439546585083
1.7275277199557617e+18,-0.00039538840064778924,0.03442367538809776,-10.764756202697754
1.7275277199647619e+18,-0.015050360932946205,-0.015908759087324142,-10.760595321655273
1.727527719973762e+18,-0.030899029225111008,0.08168067038059235,-10.634357452392578
1.7275277199827622e+18,0.08440419286489487,0.003310800762847066,-10.670334815979004
1.7275277199917624e+18,0.032781366258859634,-0.09179089218378067,-10.67110538482666
1.7275277200007626e+18,-0.07409060746431351,-0.006223083008080721,-10.654383659362793
1.7275277200097628e+18,0.009375618770718575,0.08680202811956406,-10.612678527832031
1.727527720018763e+18,-0.07113371044397354,0.04936526343226433,-10.680535316467285
1.7275277200277632e+18,-0.01160922460258007,-0.060070380568504333,-10.643441200256348
1.7275277200367634e+18,-0.005467361770570278,0.023421581834554672,-10.583669662475586
1.7275277200457636e+18,0.035085197538137436,-0.0018489165231585503,-10.614173889160156
1.7275277200547638e+18,0.016224639490246773,-0.045248739421367645,-10.476065635681152
1.727527720063764e+18,0.017656901851296425,0.04208686575293541,-10.446035385131836
1.7275277200727642e+18,-0.027047013863921165,-0.0317474864423275,-10.468644142150879
1.7275277200817644e+18,0.011910494416952133,0.03345731273293495,-10.564109802246094
1.7275277200907645e+18,0.013579598627984524,0.02915283292531967,-10.531636238098145
1.7275277200997647e+18,-0.06046801432967186,0.013702868483960629,-10.453402519226074
1.727527720108765e+18,0.03531881049275398,0.015155229717493057,-10.522626876831055
1.727527720117765e+18,-0.01517837680876255,-0.019782107323408127,-10.420669555664062
1.7275277201267653e+18,0.04023703560233116,0.020049184560775757,-10.425874710083008
1.7275277201357655e+18,-0.00021221257338766009,-0.002462185686454177,-10.425317764282227
1.7275277201447657e+18,0.0033397048246115446,-0.044815633445978165,-10.336047172546387
1.727527720153766e+18,-0.10804136842489243,0.015317175537347794,-10.337660789489746
1.727527720159766e+18,-0.0610983669757843,0.02975083701312542,-10.436385154724121
1.7275277201687662e+18,0.041746653616428375,0.009954224340617657,-10.347232818603516
1.7275277201717663e+18,0.029100703075528145,-0.052378494292497635,-10.347968101501465
1.7275277201807665e+18,-0.05127296969294548,0.07579029351472855,-10.283008575439453
1.7275277201897667e+18,-0.015084420330822468,0.017552897334098816,-10.39410400390625
1.7275277201987668e+18,-0.07827943563461304,-0.017354417592287064,-10.328579902648926
1.727527720210767e+18,0.022112717851996422,0.02498375065624714,-10.277005195617676
1.7275277202167672e+18,0.10077635943889618,-0.00749809667468071,-10.27867603302002
1.7275277202257674e+18,0.06360926479101181,0.0032843740191310644,-10.314874649047852
1.7275277202347676e+18,0.07532018423080444,0.042106471955776215,-10.295230865478516
1.7275277202437678e+18,-0.033385779708623886,-0.035501886159181595,-10.212970733642578
1.727527720252768e+18,-0.020865237340331078,0.0023041723761707544,-10.222167015075684
1.7275277202617682e+18,0.025352397933602333,0.03203459084033966,-10.245574951171875
1.7275277202707684e+18,-0.051882464438676834,0.030020184814929962,-10.204851150512695
1.7275277202797686e+18,-0.06314665824174881,0.05419645085930824,-10.153599739074707
1.7275277202857687e+18,0.02617710828781128,-0.061445336788892746,-10.222623825073242
1.727527720294769e+18,0.01873932033777237,0.0490589514374733,-10.13172721862793
1.727527720303769e+18,-0.02110760658979416,0.009877574630081654,-10.183027267456055
1.7275277203127693e+18,0.010317682288587093,-0.003071577986702323,-10.168112754821777
1.7275277203217695e+18,-0.05478988587856293,-0.0473567470908165,-10.187325477600098
1.7275277203307697e+18,0.052263043820858,-0.03379085287451744,-10.171536445617676
1.7275277203367698e+18,-0.0027635619044303894,0.03337014466524124,-10.151610374450684
1.72752772034877e+18,0.055515918880701065,0.005207473412156105,-10.093169212341309
1.7275277203577702e+18,0.024388093501329422,-0.09111197292804718,-10.13850212097168
1.7275277203667704e+18,0.004318477585911751,0.003313625231385231,-10.09142017364502
1.7275277203727706e+18,-0.057476501911878586,0.050672996789216995,-10.08135986328125
1.7275277203817708e+18,-0.03197529539465904,-0.00827809888869524,-10.079100608825684
1.727527720390771e+18,0.06172972917556763,0.04079093411564827,-10.09394359588623
1.7275277203997711e+18,0.041649021208286285,0.002232902217656374,-9.999308586120605
1.7275277204087713e+18,0.044430505484342575,-0.058388639241456985,-9.975235939025879
1.7275277204177715e+18,0.006425091996788979,-0.027350837364792824,-10.086369514465332
1.7275277204267717e+18,-0.038897763937711716,-0.017899109050631523,-10.072196960449219
1.7275277204327718e+18,0.04610787704586983,0.026333754882216454,-10.040355682373047
1.727527720441772e+18,0.00566063029691577,-0.04554438218474388,-10.047539710998535
1.7275277204537723e+18,-0.07157555222511292,-0.006652369163930416,-10.106775283813477
1.7275277204627725e+18,0.00843876227736473,0.04540131613612175,-9.994601249694824
1.7275277204717727e+18,-0.0937623605132103,-0.010151714086532593,-10.063020706176758
1.7275277204777728e+18,0.03983815386891365,-0.02083580568432808,-10.042240142822266
1.727527720489773e+18,0.05665558949112892,-0.03672169893980026,-9.915243148803711
1.7275277204957732e+18,0.005389239173382521,-0.015126585960388184,-10.005043029785156
1.7275277205047734e+18,-0.0243083443492651,-0.013023576699197292,-9.925962448120117
1.7275277205137736e+18,0.04461393877863884,-0.0884409099817276,-9.819295883178711
1.7275277205227738e+18,-0.048726025968790054,-0.02838057279586792,-9.992798805236816
1.727527720531774e+18,0.061086613684892654,-0.027736347168684006,-9.991473197937012
1.7275277205407741e+18,-0.024196915328502655,0.04990541562438011,-9.933231353759766
1.7275277205497743e+18,-0.11223901063203812,-0.05035822093486786,-9.87182903289795
1.7275277205587745e+18,-0.03706527501344681,0.00859096646308899,-9.933342933654785
1.7275277205677747e+18,-0.01771184429526329,-0.003754194127395749,-9.930723190307617
1.727527720576775e+18,0.07187536358833313,0.0456501729786396,-9.83903980255127
1.727527720585775e+18,0.0497228279709816,0.030671395361423492,-9.869462013244629
1.7275277205947753e+18,-0.01474821101874113,0.0399462915956974,-9.936832427978516
1.7275277206037755e+18,-0.019865527749061584,-0.04439973086118698,-9.867263793945312
1.7275277206127757e+18,-0.03294917568564415,0.020358802750706673,-9.87674617767334
1.727527720621776e+18,-0.04441268742084503,0.008907478302717209,-9.894752502441406
1.727527720630776e+18,0.014279530383646488,-0.08675814419984818,-9.989607810974121
1.7275277206397763e+18,-0.0031172828748822212,-0.006457164883613586,-9.91777515411377
1.7275277206487764e+18,0.06569185107946396,-0.007190459407866001,-9.869783401489258
1.7275277206577766e+18,-0.003999773412942886,-0.03845986723899841,-9.816580772399902
1.7275277206667768e+18,0.07525758445262909,0.08931268006563187,-9.95728588104248
1.727527720675777e+18,-0.09117814898490906,0.027875803411006927,-9.821796417236328
1.7275277206847772e+18,-0.04093240574002266,-0.03521788492798805,-9.835762023925781
1.7275277206937774e+18,-0.04168184474110603,0.0071996236220002174,-9.872989654541016
1.7275277207027776e+18,0.05596813187003136,-0.009579627774655819,-9.919346809387207
1.7275277207117778e+18,0.0602974034845829,0.0029175507370382547,-9.829140663146973
1.727527720720778e+18,0.07889517396688461,-0.0005265759536996484,-9.861907005310059
1.7275277207297782e+18,-0.021360158920288086,-0.0304158553481102,-9.823134422302246
1.7275277207387784e+18,-0.014959707856178284,0.06923387199640274,-9.91463565826416
1.7275277207477786e+18,0.08411978930234909,0.03181755170226097,-9.757006645202637
1.7275277207567788e+18,0.036668531596660614,-0.03357754275202751,-9.846135139465332
1.727527720762779e+18,-0.01939396932721138,0.026201486587524414,-9.795768737792969
1.727527720771779e+18,0.013018107041716576,-0.03349236398935318,-9.78036880493164
1.7275277207777792e+18,0.020499899983406067,0.04888210818171501,-9.84338665008545
1.7275277207867794e+18,-0.04898020252585411,0.0048089222982525826,-9.806188583374023
1.7275277207897795e+18,0.08102035522460938,0.00580290611833334,-9.817763328552246
1.7275277207987796e+18,0.02769894152879715,-0.06496233493089676,-9.841279029846191
1.7275277208047798e+18,-0.006647251546382904,-0.045723188668489456,-9.893613815307617
1.72752772081378e+18,0.04708503931760788,-0.036761827766895294,-9.8538179397583
1.7275277208227802e+18,-0.018670015037059784,-0.020165707916021347,-9.788944244384766
1.7275277208317804e+18,0.005447706673294306,-0.04774976521730423,-9.776419639587402
1.7275277208407805e+18,0.03350157290697098,0.01401258073747158,-9.787920951843262
1.7275277208467807e+18,0.013242785818874836,0.016367103904485703,-9.839425086975098
1.7275277208557809e+18,-0.04982375353574753,-0.07672135531902313,-9.79779052734375
1.727527720864781e+18,-0.008263135328888893,-0.0012116964207962155,-9.769171714782715
1.7275277208737812e+18,0.014001758769154549,0.046618495136499405,-9.884270668029785
1.7275277208827814e+18,-0.00254808715544641,0.039376407861709595,-9.783869743347168
1.7275277208917816e+18,0.02295314520597458,-0.005017407704144716,-9.792776107788086
1.7275277208977818e+18,-0.03501306474208832,-0.03422049060463905,-9.798080444335938
1.727527720903782e+18,-0.0004321274464018643,0.04278041422367096,-9.788257598876953
1.727527720909782e+18,-0.03948076814413071,0.013255870901048183,-9.786284446716309
1.7275277209187822e+18,-0.010724784806370735,-0.07889924943447113,-9.781576156616211
1.7275277209247823e+18,0.03860251232981682,-0.05325622111558914,-9.729541778564453
1.7275277209307825e+18,0.01034684106707573,-0.02440420538187027,-9.817567825317383
1.7275277209367826e+18,0.002922889543697238,-0.01921648159623146,-9.746280670166016
1.7275277209457828e+18,0.03029668889939785,-0.030430180951952934,-9.801104545593262
1.727527720954783e+18,-0.05195572227239609,0.0531257800757885,-9.705678939819336
1.7275277209637832e+18,0.041300807148218155,-0.002566681010648608,-9.799215316772461
1.7275277209727834e+18,0.025016391649842262,0.02425912767648697,-9.756720542907715
1.7275277209817836e+18,-0.004116967786103487,-0.047148626297712326,-9.884468078613281
1.7275277209877837e+18,0.02934771589934826,-0.01928022690117359,-9.760053634643555
1.7275277209937838e+18,-0.0027589097153395414,-0.03344111144542694,-9.808538436889648
1.727527721002784e+18,0.06097723916172981,-0.028431210666894913,-9.824149131774902
1.7275277210117842e+18,0.03807767853140831,-0.05009125545620918,-9.686666488647461
1.7275277210207844e+18,0.12985463440418243,-0.06863168627023697,-9.734503746032715
1.7275277210297846e+18,0.07847678661346436,-0.062424760311841965,-9.725456237792969
1.7275277210387848e+18,0.00824492983520031,0.022628875449299812,-9.766718864440918
1.7275277210417848e+18,-0.033616699278354645,0.04033020883798599,-9.689406394958496
1.727527721047785e+18,-0.04569488763809204,0.042120009660720825,-9.793198585510254
1.7275277210567852e+18,-0.029480842873454094,-0.08077111095190048,-9.775975227355957
1.7275277210657853e+18,-0.007794878911226988,0.04217296093702316,-9.747255325317383
1.7275277210717855e+18,-0.0008918799576349556,0.03798646852374077,-9.75914192199707
1.7275277210807857e+18,0.0401730090379715,0.01262608915567398,-9.714569091796875
1.7275277210897859e+18,0.012975471094250679,-0.04708600044250488,-9.727314949035645
1.727527721095786e+18,0.05782024934887886,-0.005139979068189859,-9.704063415527344
1.7275277211047862e+18,0.034344568848609924,-0.018648996949195862,-9.770071983337402
1.7275277211137864e+18,0.07336587458848953,-0.07012023776769638,-9.780861854553223
1.7275277211197865e+18,0.04019252583384514,0.028446821495890617,-9.709332466125488
1.7275277211287867e+18,-0.03224323317408562,-0.00722251832485199,-9.793291091918945
1.7275277211347868e+18,0.0009504707995802164,0.013236552476882935,-9.761274337768555
1.727527721140787e+18,-0.0628037080168724,0.023056717589497566,-9.732076644897461
1.727527721146787e+18,0.040986113250255585,0.004972937051206827,-9.673176765441895
1.7275277211527872e+18,-0.0117056705057621,-0.035202644765377045,-9.761016845703125
1.7275277211587873e+18,0.04615702107548714,0.08535011112689972,-9.724224090576172
1.7275277211677875e+18,-0.02299070917069912,0.025897076353430748,-9.736218452453613
1.7275277211737876e+18,-0.04666927456855774,0.035743266344070435,-9.763079643249512
1.7275277211797878e+18,-0.002887411741539836,-0.025580378249287605,-9.79615592956543
1.727527721185788e+18,0.011670725420117378,-0.1069953441619873,-9.741344451904297
1.727527721194788e+18,-0.04782264307141304,0.003416171297430992,-9.754616737365723
1.7275277212007882e+18,-0.03030778095126152,0.014537384733557701,-9.773726463317871
1.7275277212067884e+18,-0.08645936846733093,0.013524283654987812,-9.89669418334961
1.7275277212127885e+18,0.013834549114108086,0.04006987437605858,-9.852829933166504
1.7275277212187886e+18,-0.04349721223115921,0.04244557023048401,-9.877055168151855
1.7275277212247887e+18,0.02375878021121025,-0.05450836941599846,-9.86464786529541
1.7275277212307889e+18,-0.014719633385539055,-0.0021227197721600533,-9.831594467163086
1.727527721239789e+18,0.03582412004470825,0.011065812781453133,-9.819064140319824
1.7275277212457892e+18,0.029798775911331177,-0.02245759591460228,-9.791215896606445
1.7275277212547894e+18,-0.10334807634353638,-0.007658826652914286,-9.798375129699707
1.7275277212637896e+18,-0.05500687658786774,0.022048233076930046,-9.793927192687988
1.7275277212697897e+18,0.0629233792424202,-0.03255588561296463,-9.830830574035645
1.72752772127879e+18,0.08325160294771194,0.1047964096069336,-9.802328109741211
1.72752772128479e+18,0.03328442573547363,-0.03772205486893654,-9.784796714782715
1.7275277212937902e+18,-0.017996590584516525,-0.029078230261802673,-9.77092456817627
1.7275277213027904e+18,0.03958166763186455,0.00013218808453530073,-9.826045989990234
1.7275277213087905e+18,-0.016446877270936966,0.018358390778303146,-9.792557716369629
1.7275277213147907e+18,0.02196955680847168,-0.08749531954526901,-9.7557954788208
1.7275277213207908e+18,0.07649900019168854,-0.03077179752290249,-9.759981155395508
1.727527721329791e+18,-0.00877603143453598,0.07666893303394318,-9.773772239685059
1.7275277213387912e+18,-0.05394401401281357,-0.052163854241371155,-9.92432689666748
1.7275277213477914e+18,-0.018019521608948708,0.007140202913433313,-9.819971084594727
1.7275277213567916e+18,-0.10499383509159088,0.059434738010168076,-9.72255802154541
1.7275277213627917e+18,-0.008336160331964493,0.04453912004828453,-9.79389762878418
1.7275277213687918e+18,0.1355256289243698,0.035260919481515884,-9.760775566101074
1.727527721377792e+18,0.029703328385949135,0.06373531371355057,-9.811352729797363
1.727527721383792e+18,0.00891939178109169,-0.03167910873889923,-9.812124252319336
1.7275277213927923e+18,-0.010326197370886803,-0.0500965341925621,-9.79248332977295
1.7275277213987924e+18,0.01289493776857853,0.04906044527888298,-9.730119705200195
1.7275277214047926e+18,-0.07803661376237869,0.019566059112548828,-9.842020988464355
1.7275277214137928e+18,-0.01100300345569849,0.012996095232665539,-9.682312965393066
1.727527721419793e+18,-0.00839892029762268,-0.09098020195960999,-9.850397109985352
1.727527721425793e+18,0.05869871377944946,0.034919675439596176,-9.777358055114746
1.7275277214347932e+18,0.06922277063131332,-0.01639781892299652,-9.781580924987793
1.7275277214407933e+18,0.040224336087703705,-0.0011473268968984485,-9.729045867919922
1.7275277214497935e+18,0.022514866665005684,0.00030889271874912083,-9.759659767150879
1.7275277214557937e+18,0.07223163545131683,-0.04402859881520271,-9.743108749389648
1.7275277214647939e+18,0.10846849530935287,-0.016123972833156586,-9.827733993530273
1.727527721470794e+18,-0.04079189896583557,-0.07459747791290283,-9.816679954528809
1.7275277214797942e+18,0.07038171589374542,0.03429175913333893,-9.849821090698242
1.7275277214857943e+18,0.035186197608709335,0.0933542251586914,-9.835864067077637
1.7275277214917944e+18,-0.02448463812470436,0.018078912049531937,-9.71749210357666
1.7275277214977946e+18,-0.09155966341495514,0.042539987713098526,-9.704854965209961
1.7275277215037947e+18,-0.012176772579550743,0.04127952456474304,-9.743681907653809
1.727527721512795e+18,-0.0002552974910940975,-0.06975110620260239,-9.794365882873535
1.727527721518795e+18,-0.0721871629357338,0.040567945688962936,-9.771541595458984
1.7275277215277952e+18,0.025748465210199356,0.055343613028526306,-9.687931060791016
1.7275277215337953e+18,0.0038257401902228594,-0.08073501288890839,-9.777884483337402
1.7275277215397955e+18,0.03254798799753189,-0.060393866151571274,-9.837357521057129
1.7275277215487956e+18,0.05488814786076546,-0.029900556430220604,-9.752939224243164
1.7275277215577958e+18,-0.022963423281908035,0.015590528026223183,-9.76956558227539
1.727527721563796e+18,0.002262173453345895,-0.0025543735828250647,-9.706482887268066
1.727527721569796e+18,0.002880098996683955,0.013224740512669086,-9.732223510742188
1.7275277215757962e+18,0.08690979331731796,-0.0016239339020103216,-9.770968437194824
1.7275277215817964e+18,0.03787475824356079,-0.013502770103514194,-9.637269973754883
1.7275277215907965e+18,-0.0019781666342169046,-0.012224635109305382,-9.810184478759766
1.7275277215967967e+18,-0.02477916143834591,0.04422523453831673,-9.722405433654785
1.7275277216057969e+18,-0.06745965778827667,-0.06347610056400299,-9.715020179748535
1.727527721611797e+18,-0.04862124100327492,0.0739239901304245,-9.723268508911133
1.727527721617797e+18,-0.012319926172494888,-0.030374586582183838,-9.657777786254883
1.7275277216267973e+18,-0.012372437864542007,-0.13508307933807373,-9.66385555267334
1.7275277216327974e+18,-0.004912114702165127,0.05680282413959503,-9.780648231506348
1.7275277216447977e+18,-0.07939846813678741,-0.021329432725906372,-9.678797721862793
1.7275277216507978e+18,0.009750239551067352,-0.02659086510539055,-9.752284049987793
1.727527721656798e+18,0.04625813290476799,0.036343205720186234,-9.703817367553711
1.7275277216657981e+18,0.020590955391526222,-0.009036140516400337,-9.754786491394043
1.7275277216747983e+18,-0.047997839748859406,0.0708063542842865,-9.726654052734375
1.7275277216837985e+18,0.014243338257074356,-0.015700891613960266,-9.742218971252441
1.7275277216897987e+18,0.02812086045742035,-0.08075160533189774,-9.773103713989258
1.7275277216987988e+18,-0.008331544697284698,0.012610672041773796,-9.741914749145508
1.727527721707799e+18,0.0063134171068668365,-0.05950731784105301,-9.68600845336914
1.7275277217137992e+18,-0.08852709829807281,0.04355044662952423,-9.689997673034668
1.7275277217227994e+18,-0.017267633229494095,0.0207558274269104,-9.704695701599121
1.7275277217287995e+18,-0.03560319170355797,0.07635080814361572,-9.731549263000488
1.7275277217347996e+18,0.004235969856381416,0.0013515908503904939,-9.814300537109375
1.7275277217437998e+18,0.04749986156821251,0.044027503579854965,-9.77074909210205
1.7275277217528e+18,-0.0074342698790133,-0.04773789271712303,-9.720585823059082
1.7275277217618002e+18,0.002777194371446967,0.0663832351565361,-9.688045501708984
1.7275277217708004e+18,0.05046050623059273,0.01851152442395687,-9.753947257995605
1.7275277217798006e+18,0.013820569962263107,0.016513241454958916,-9.724238395690918
1.7275277217858007e+18,0.013808732852339745,0.005180438049137592,-9.801517486572266
1.727527721794801e+18,-0.03561059758067131,-0.05199849233031273,-9.72413444519043
1.727527721803801e+18,0.023349083960056305,-0.017875200137495995,-9.737383842468262
1.7275277218098012e+18,-0.019750915467739105,0.04006846621632576,-9.732327461242676
1.7275277218188014e+18,0.027910949662327766,-0.01659655198454857,-9.818768501281738
1.7275277218278016e+18,0.018237434327602386,0.04142160341143608,-9.785573959350586
1.7275277218338017e+18,-0.0991068109869957,-0.02090059034526348,-9.726240158081055
1.727527721842802e+18,0.006327161565423012,0.01330441515892744,-9.707864761352539
1.7275277218548022e+18,0.03718104213476181,-0.052476149052381516,-9.733796119689941
1.7275277218638024e+18,-0.04236948862671852,0.06169965863227844,-9.725138664245605
1.7275277218728026e+18,0.012274728156626225,0.003088579513132572,-9.689600944519043
1.7275277218818028e+18,0.032051488757133484,0.04625149816274643,-9.788530349731445
1.727527721890803e+18,0.02959408424794674,0.0407148078083992,-9.771037101745605
1.7275277218998031e+18,-0.028007613494992256,-0.04091461002826691,-9.686491966247559
1.7275277219088033e+18,-0.05551188066601753,-0.02931208536028862,-9.751909255981445
1.7275277219148035e+18,0.04678811505436897,-0.0046797385439276695,-9.79272174835205
1.7275277219238036e+18,-0.06927025318145752,-0.0036924558226019144,-9.683676719665527
1.7275277219328038e+18,-0.04127988591790199,-0.03088538907468319,-9.704126358032227
1.727527721938804e+18,-0.10215497016906738,0.03635406121611595,-9.742342948913574
1.727527721944804e+18,-0.04078974947333336,-0.0020014881156384945,-9.742342948913574
1.7275277219538043e+18,-0.02399659901857376,-0.06047135218977928,-9.792564392089844
1.7275277219628045e+18,0.004986981861293316,-0.06733343005180359,-9.692421913146973
1.7275277219748047e+18,-0.019678501412272453,-0.02877957746386528,-9.645646095275879
1.727527721983805e+18,-0.01800079084932804,-0.01876085251569748,-9.696351051330566
1.727527721992805e+18,-0.0379590205848217,-0.01983765698969364,-9.714299201965332
1.7275277220018053e+18,0.028252672404050827,0.00042541505536064506,-9.771549224853516
1.7275277220138056e+18,0.03987462818622589,-0.05722153186798096,-9.754791259765625
1.7275277220228058e+18,-0.01391365472227335,0.01941838301718235,-9.788250923156738
1.727527722031806e+18,-0.007141575682908297,0.07256877422332764,-9.684819221496582
1.7275277220408061e+18,-0.03427036479115486,0.05072033032774925,-9.69670581817627
1.7275277220498063e+18,-0.05469726026058197,-0.0026243331376463175,-9.752671241760254
1.7275277220588065e+18,-0.06250873953104019,0.04523617774248123,-9.806371688842773
1.7275277220678067e+18,-0.02681543305516243,0.13420721888542175,-9.770160675048828
1.727527722076807e+18,-0.04190538823604584,-0.06522764265537262,-9.744742393493652
1.7275277220888072e+18,0.09439972788095474,0.011728414334356785,-9.817489624023438
1.7275277220978074e+18,-0.012889986857771873,-0.009103147312998772,-9.67617130279541
1.7275277221068076e+18,-0.03750618174672127,-0.0419638454914093,-9.75512409210205
1.7275277221158077e+18,0.05706878378987312,0.08649007976055145,-9.650039672851562
1.727527722124808e+18,0.06057220697402954,0.018835624679923058,-9.677783966064453
1.7275277221368082e+18,-0.003483482403680682,-0.01605205610394478,-9.919260025024414
1.7275277221458084e+18,-0.01903914101421833,0.0024895488750189543,-9.71506118774414
1.7275277221548086e+18,-0.001921763876453042,0.05000873655080795,-9.75965690612793
1.7275277221638088e+18,-0.01481965184211731,0.011663018725812435,-9.750862121582031
1.727527722172809e+18,0.02109174244105816,-0.02604573778808117,-9.754830360412598
1.7275277221818092e+18,-0.048527661710977554,0.021078700199723244,-9.672157287597656
1.7275277221908093e+18,0.039212826639413834,-0.050996407866477966,-9.850080490112305
1.7275277222028096e+18,0.07737727463245392,-0.01704327203333378,-9.787675857543945
1.7275277222118098e+18,-0.05481136217713356,0.02467050962150097,-9.804757118225098
1.72752772222381e+18,-0.019068017601966858,-0.045258779078722,-9.806265830993652
1.7275277222328102e+18,-0.11214364320039749,0.09994274377822876,-9.713193893432617
1.7275277222418104e+18,0.002253230195492506,-0.02341807261109352,-9.77171516418457
1.7275277222508106e+18,-0.07675226032733917,0.03453463688492775,-9.662543296813965
1.7275277222598108e+18,0.05803626775741577,-0.1087733805179596,-9.72560977935791
1.727527722268811e+18,-0.025850903242826462,-0.009826526045799255,-9.760622024536133
1.7275277222778112e+18,0.01080934889614582,0.049552757292985916,-9.80286693572998
1.7275277222868114e+18,-0.035031840205192566,-0.00483351107686758,-9.75857925415039
1.7275277222988116e+18,0.007932482287287712,-0.026572152972221375,-9.721781730651855
1.7275277223078118e+18,-0.06915483623743057,-0.01646728441119194,-9.767083168029785
