timestamp,gyro_x,gyro_y,gyro_z
1.7275261712935386e+18,-0.0013900988269597292,-0.0016564360121265054,-0.000538260443136096
1.7275261713025388e+18,-0.001134710037149489,-0.0001473481097491458,-0.0038576959632337093
1.7275261713055388e+18,0.0002409314038231969,0.0008118874975480139,0.0004503361415117979
1.727526171311539e+18,-0.001912910956889391,-0.0027400946710258722,0.00025402792380191386
1.727526171317539e+18,0.0020765422377735376,0.002650272101163864,-0.0031323512084782124
1.7275261713235392e+18,0.0008230123203247786,-0.00014518044190481305,0.0030281899962574244
1.7275261713265393e+18,-0.0008335784659720957,0.0002462913398630917,-0.00025941620697267354
1.7275261713325394e+18,-0.000568499555811286,0.004483853932470083,-0.0005139631102792919
1.7275261713385395e+18,-0.0035318275913596153,0.0027903993614017963,0.0007742103771306574
1.7275261713445396e+18,-0.00043975241715088487,5.8575253206072375e-05,0.00063795514870435
1.7275261713475397e+18,-0.002504260279238224,0.0008918584790080786,-0.001034802058711648
1.7275261713535398e+18,0.002003653673455119,0.001558661344461143,-0.0008134069503284991
1.72752617135954e+18,-0.0005471537006087601,0.0031527981627732515,0.0034592070151120424
1.72752617136254e+18,-0.0007377638830803335,-0.0023320699110627174,0.00191633147187531
1.7275261713685402e+18,-0.0024427904281765223,-0.0013763353927060962,0.0009072278044186532
1.7275261713745403e+18,0.0024638595059514046,0.0009970348328351974,-0.0007649109466001391
1.7275261713775404e+18,-0.0004070749564561993,0.0003449342038948089,-3.843154991045594e-05
1.7275261713835405e+18,0.0021938749123364687,-0.0007239277474582195,0.0019029768882319331
1.7275261713895406e+18,-0.0009264604886993766,-0.0012444190215319395,-0.003140202956274152
1.7275261713955407e+18,-0.0005301321507431567,-0.0005255385767668486,0.00043828992056660354
1.7275261714015409e+18,0.0006369765033014119,0.0032001773361116648,-0.0004850593104492873
1.727526171404541e+18,0.0007537851925007999,-0.0023517890367656946,0.003346697660163045
1.727526171410541e+18,0.0009049943182617426,-0.00032163935247808695,-0.0013492105063050985
1.7275261714165412e+18,-0.0010816234862431884,-0.000693847774527967,0.002019750652834773
1.7275261714195412e+18,0.0014566164463758469,-0.0025952928699553013,-0.0004198100068606436
1.7275261714255414e+18,0.0022003338672220707,0.003986739087849855,0.0006345660658553243
1.7275261714315415e+18,-0.0005700816982425749,-0.001059164060279727,-0.0016026005614548922
1.7275261714375416e+18,-0.0007452082354575396,0.00031133912852965295,0.0019562290981411934
1.7275261714435418e+18,-0.0016401573084294796,0.001395976054482162,0.0005367494304664433
1.727526171449542e+18,-0.0010680198902264237,-0.0016035543521866202,-0.0016277661779895425
1.727526171455542e+18,-0.002060871571302414,-0.0010342014720663428,-0.003228262532502413
1.7275261714615421e+18,-0.001091540209017694,-0.0031687086448073387,0.00019060280465055257
1.7275261714645422e+18,-0.000512989005073905,0.0030320531222969294,-0.0015814666403457522
1.7275261714705423e+18,-0.001135223894380033,9.350226173410192e-05,-0.0011754248989745975
1.7275261714765425e+18,0.0018557766452431679,-0.00024290700093843043,0.00302810943685472
1.7275261714825426e+18,0.0007118520443327725,-0.0019223953131586313,0.000315290002617985
1.7275261714855427e+18,0.0017435324843972921,0.0020405957475304604,-0.00040993321454152465
1.7275261714915428e+18,0.00016475650772918016,-0.0003800712001975626,0.0014349714620038867
1.727526171497543e+18,-0.0003810943162534386,-0.0005952971987426281,-0.0012958148727193475
1.727526171500543e+18,-0.0005175590049475431,0.00028545729583129287,0.00256582023575902
1.727526171506543e+18,-0.0028267453890293837,-0.0001302437885897234,-0.001237155287526548
1.7275261715125432e+18,0.0017431395826861262,0.0016603342955932021,-0.0005921467090956867
1.7275261715185434e+18,0.0007868326501920819,-0.0014842876698821783,-0.0025417401921004057
1.7275261715245435e+18,-0.001307943370193243,-0.0013028712710365653,0.002303403802216053
1.7275261715275436e+18,-0.0008410540176555514,-0.0005228277295827866,0.00022647048172075301
1.7275261715335437e+18,-0.0002211605169577524,0.0010721819708123803,0.0013003313215449452
1.7275261715395438e+18,-4.937011544825509e-05,0.0013919746270403266,-0.0017087041633203626
1.727526171545544e+18,4.142617035540752e-05,-0.0003898503491654992,0.0022621166426688433
1.727526171548544e+18,0.0014279619790613651,0.0014923373237252235,-4.4394753786036745e-05
1.727526171554544e+18,0.0005950926570221782,-0.0014678006991744041,-0.00014751234266441315
1.7275261715605443e+18,0.0017269991803914309,-0.0005212152609601617,0.00144875212572515
1.7275261715665444e+18,-5.1703267672564834e-05,-0.0024200868792831898,0.0003466156485956162
1.7275261715725445e+18,-0.0004969053552486002,-0.0005452680052258074,0.0011569836642593145
1.7275261715755446e+18,-0.0023524777498096228,0.0013393951812759042,3.4368404158158228e-06
1.7275261715815447e+18,0.0007742455927655101,-0.000800394278485328,0.0008400135557167232
1.7275261715875448e+18,-0.002230457728728652,0.002856817562133074,0.0007701684953644872
1.727526171593545e+18,-0.0010502022923901677,-0.0015552103286609054,-0.0009636157192289829
1.727526171596545e+18,0.0010758081916719675,-0.0011815446196123958,0.00029115352663211524
1.7275261716025452e+18,-0.0008890164899639785,0.0009399966802448034,-0.000377488526282832
1.7275261716115453e+18,0.0001956848573172465,-0.0020273372065275908,-0.0004846084339078516
1.7275261716175455e+18,0.0010909494012594223,-0.001455472782254219,0.0007464195950888097
1.7275261716265457e+18,-0.0012868785997852683,0.0008335604215972126,-0.001435134094208479
1.7275261716325458e+18,-0.0014135329984128475,-0.0027434846851974726,-0.0005438948282971978
1.727526171641546e+18,0.000355070544173941,-0.0026291729882359505,0.000758201873395592
1.7275261716505462e+18,0.000364551815437153,-0.00037120922934263945,-0.0020077270455658436
1.7275261716565463e+18,-0.0029001091606914997,-0.0011285515502095222,0.002162002259865403
1.7275261716625464e+18,-0.003163808723911643,-0.0017572937067598104,0.00018174562137573957
1.7275261716685466e+18,0.0029137516394257545,-0.002677356591448188,0.0008505387231707573
1.7275261716745467e+18,-0.000361091922968626,-0.00031039450550451875,-0.0028110803104937077
1.7275261716805468e+18,-0.0015149114187806845,0.000780560658313334,0.00038221621070988476
1.727526171686547e+18,0.0007406192016787827,-0.00020433029567357153,-0.0009761019027791917
1.727526171692547e+18,-0.0013726315228268504,-0.0013364296173676848,-0.0014060678659006953
1.7275261716955471e+18,0.002544226124882698,0.0008207845385186374,-0.0010570185258984566
1.7275261717015473e+18,0.0013491468271240592,-0.002745667938143015,-0.0005343161174096167
1.7275261717075474e+18,-0.001281294971704483,-0.0007835287251509726,0.0012656667968258262
1.7275261717135475e+18,-0.0014048890443518758,-0.0006904434412717819,-0.0004905881942249835
1.7275261717195476e+18,-0.00216997810639441,0.0001164054119726643,0.00012860291462857276
1.7275261717225477e+18,-0.0017971794586628675,0.001205412670969963,-0.0011513123754411936
1.7275261717285478e+18,-0.0008737505413591862,-0.0002424841222818941,0.0013581269886344671
1.727526171734548e+18,0.0008519012480974197,-0.0027312953025102615,0.001954432809725404
1.727526171740548e+18,0.0019653106573969126,-0.00010665836452972144,0.0010704920860007405
1.7275261717435482e+18,-0.0017757363384589553,-0.002507374156266451,0.0006343292770907283
1.7275261717495483e+18,0.0014010979793965816,0.0006464928155764937,0.0026454704347997904
1.7275261717555484e+18,0.0006134091527201235,0.0037575389724224806,-0.00016998789214994758
1.7275261717615485e+18,0.002360538812354207,-0.00018856534734368324,-0.001051147817634046
1.7275261717645486e+18,-0.001529807923361659,-0.002686786698177457,-0.00035512499744072556
1.7275261717705487e+18,-0.0008127711480483413,-0.0010224160505458713,-0.0003889717918355018
1.7275261717765489e+18,-0.0022511843126267195,-0.0020730681717395782,0.0001763984764693305
1.727526171782549e+18,-0.0004786518984474242,0.0017932797782123089,-0.0017838702769950032
1.727526171788549e+18,-0.0011135190725326538,-0.0008017782238312066,0.001432707766070962
1.7275261717945492e+18,-0.0015123963821679354,-0.0010009099496528506,0.0032195555977523327
1.7275261717975493e+18,-0.0002914622309617698,-0.003277064301073551,0.003952087834477425
1.7275261718035494e+18,-0.0008243172196671367,-0.0006757089286111295,-0.00043735155486501753
1.7275261718095496e+18,-0.0016412509139627218,0.0015634734882041812,-0.003290516557171941
1.7275261718155497e+18,0.0030247399117797613,0.0004117536300327629,-0.001844540936872363
1.7275261718215498e+18,0.0010941370856016874,-0.000884084147401154,-0.0029544809367507696
1.72752617182755e+18,-0.0011005871929228306,-0.0003252771857660264,0.002584930742159486
1.72752617183355e+18,-0.0009812685893848538,-9.045807382790372e-05,0.0009084515040740371
1.7275261718365501e+18,-4.203813659842126e-05,0.002511810977011919,0.0005590000655502081
1.7275261718425503e+18,-0.001778680831193924,0.0009183455840684474,0.0005214146804064512
1.7275261718485504e+18,0.001105263247154653,0.00019445139332674444,0.0030392147600650787
1.7275261718515505e+18,-0.0009504063636995852,-0.0004258137778379023,-0.0010813911212608218
1.7275261718575506e+18,0.0014968033647164702,0.0020103035494685173,0.0035544196143746376
1.7275261718635507e+18,-0.0023917651269584894,-0.0008120070560835302,-0.0006314548081718385
1.7275261718695508e+18,-0.0005300748161971569,0.00037361454451456666,0.0004183092969469726
1.727526171875551e+18,0.003290641587227583,-0.0011114362860098481,-0.0036425048019737005
1.727526171881551e+18,0.0020363545045256615,-4.4061624066671357e-05,-0.0010408221278339624
1.7275261718875512e+18,1.5181836943156668e-06,0.0018257705960422754,-0.0016121674561873078
1.7275261718935514e+18,-0.00039185723289847374,0.00012856886314693838,0.0017749650869518518
1.7275261718995515e+18,0.0003093018021900207,-0.001455081976018846,-0.002425792161375284
1.7275261719025516e+18,0.002879352541640401,0.002396402880549431,0.0023444630205631256
1.7275261719085517e+18,-0.0008984212181530893,0.002061781706288457,-0.0014149188064038754
1.7275261719145518e+18,-0.002539142733439803,-0.000595788296777755,-0.0014838648494333029
1.727526171920552e+18,-0.0010695869568735361,-0.0002563373709563166,0.0010110153816640377
1.727526171926552e+18,-0.0012306086719036102,-0.0009719018125906587,0.001523975864984095
1.7275261719325522e+18,4.91568171128165e-05,-0.0024548876099288464,-0.0004348686197772622
1.7275261719385523e+18,0.0012341365218162537,0.0034471414983272552,-0.0021745171397924423
1.7275261719445524e+18,-0.002567691495642066,-0.0014865838456898928,-0.0010488057741895318
1.7275261719505526e+18,0.00021547013602685183,-0.00034594335011206567,-0.0017582617001608014
1.7275261719565527e+18,0.00014877576904837042,0.0027611495461314917,-0.0027885015588253736
1.7275261719595528e+18,-0.0005431371973827481,-0.0006883348105475307,0.0020243986509740353
1.727526171965553e+18,-0.0018439795821905136,-0.00022577479830943048,0.0016589894657954574
1.727526171971553e+18,0.0013685389421880245,-0.0014129512710496783,-0.00037787260953336954
1.7275261719775532e+18,0.0027804600540548563,0.0010220789117738605,-0.002608552575111389
1.7275261719805532e+18,0.0005589565262198448,0.0003337977104820311,-0.0008936611120589077
1.7275261719865533e+18,-0.0014612041413784027,0.0032433411106467247,-0.0018550846725702286
1.7275261719925535e+18,-0.0009852328803390265,0.0017787718679755926,0.0028985266108065844
1.7275261719955535e+18,-0.0016831370303407311,0.001059067784808576,0.002452573971822858
1.7275261720015537e+18,-4.436454037204385e-05,-0.0007280821446329355,0.002028415212407708
1.7275261720075538e+18,0.0003123783098999411,-0.0003607546095736325,-0.0009184067603200674
1.727526172013554e+18,0.0031891101971268654,0.0026189470663666725,-0.002128106541931629
1.727526172016554e+18,0.0018774762284010649,0.002759184455499053,0.001707961200736463
1.727526172022554e+18,-0.0017535868100821972,0.001123611000366509,0.0006852369988337159
1.7275261720285542e+18,0.002224159426987171,0.00028781540459021926,-6.771606422262266e-05
1.7275261720345544e+18,0.00016611802857369184,0.0006067850044928491,0.002508103847503662
1.7275261720405545e+18,-0.000654384377412498,0.0019027473172172904,0.0018077968852594495
1.7275261720435546e+18,0.002816169522702694,-0.0016584184486418962,-0.00042990330257453024
1.7275261720495547e+18,0.0012982486514374614,-0.0019270252669230103,0.0022968074772506952
1.7275261720555548e+18,-0.002131059765815735,-0.000815675244666636,-0.0008802510565146804
1.727526172061555e+18,-0.00022234419884625822,-0.0013993085594847798,5.539179255720228e-05
1.727526172067555e+18,0.0022155053447932005,-0.00045185157796368003,0.0013384366175159812
1.7275261720735552e+18,0.0009428569464944303,-0.002139695454388857,0.002012442797422409
1.7275261720765553e+18,0.00039194501005113125,-0.0019852793775498867,0.0016691708005964756
1.7275261720825554e+18,-0.00019728345796465874,0.0003758153470698744,-0.00011100657866336405
1.7275261720885555e+18,0.0015498277498409152,0.0023861173540353775,-0.0007662257994525135
1.7275261720915556e+18,0.0011125762248411775,-0.0007707109325565398,0.0027072506491094828
1.7275261720975557e+18,-0.00037511283881030977,-0.0004531838931143284,-0.0009654741152189672
1.7275261721035558e+18,-0.0020108416210860014,7.233261567307636e-05,0.00021644041407853365
1.727526172109556e+18,-0.001044740085490048,-0.002507289871573448,0.003388637211173773
1.727526172112556e+18,0.004620589781552553,-0.001334690605290234,-9.960536408470944e-05
1.7275261721185562e+18,-1.5092186004039831e-05,-0.00039844930870458484,0.0004158226365689188
1.7275261721245563e+18,0.0010397374862805009,-0.002130798762664199,-0.0027964843902736902
1.7275261721275564e+18,0.00043379119597375393,-0.000302187108900398,0.0018509123474359512
1.7275261721335565e+18,-0.0007364729535765946,0.0011454187333583832,-0.0014092120109125972
1.7275261721395566e+18,-0.00019251748744864017,0.0008373690070584416,-3.031764026673045e-05
1.7275261721425567e+18,0.00026483775582164526,-0.0014354839222505689,0.0016517590265721083
1.7275261721485568e+18,0.0006868722848594189,0.002080135978758335,-0.0005014065536670387
1.727526172154557e+18,0.0007248749607242644,-0.0016728591872379184,0.0028115040622651577
1.727526172160557e+18,0.0031717794481664896,0.004287889692932367,-0.0022712682839483023
1.727526172163557e+18,0.00020751576812472194,0.0012214394519105554,-0.00123264966532588
1.7275261721695572e+18,-0.0017608191119506955,-0.0003501781611703336,-0.0004648757167160511
1.7275261721755574e+18,-0.00017934995412360877,0.002578670158982277,-0.0015863190637901425
1.7275261721785574e+18,0.0030594479758292437,0.0004194395150989294,-0.0009134493302553892
1.7275261721845576e+18,-0.001077443128451705,0.0012802585260942578,0.003357598092406988
1.7275261721905577e+18,-0.0005911784246563911,-0.00031181174563243985,-1.1988017831754405e-05
1.7275261721965578e+18,0.0015389214968308806,0.0013177822111174464,0.0013993642060086131
1.727526172199558e+18,-0.004688621498644352,0.0022354323882609606,-0.000885347428265959
1.727526172205558e+18,-0.0004920315113849938,0.0016225454164668918,0.0029150662012398243
1.7275261722115581e+18,-0.001320101204328239,-0.001270166365429759,-0.002104385755956173
1.7275261722145582e+18,-0.0011914626229554415,-0.0015299483202397823,-0.0015834070509299636
1.7275261722205583e+18,-0.00047645485028624535,0.00048145209439098835,-0.0017859479412436485
1.7275261722265585e+18,0.0007167821750044823,0.0015703670214861631,0.0007688985206186771
1.7275261722325586e+18,0.000478744157589972,0.0027015532832592726,0.003388907527551055
1.7275261722355587e+18,-0.0006515264976769686,0.00036763784009963274,-0.00033194158459082246
1.7275261722415588e+18,-0.0008405245607718825,0.0004515614709816873,0.0027980790473520756
1.727526172247559e+18,0.00015606152010150254,0.0007787467911839485,-0.0006136595038697124
1.727526172250559e+18,0.0004679326375480741,-0.0005112148937769234,-0.002156125381588936
1.727526172256559e+18,0.0017684553749859333,-0.00045408192090690136,0.0014020369853824377
1.7275261722625592e+18,-0.001375562627799809,-0.0032959040254354477,0.00017760743503458798
1.7275261722685594e+18,-0.001515599200502038,-0.0010957765625789762,-0.0003689196310006082
1.7275261722715594e+18,-0.0008252811967395246,-0.0019633483607321978,0.00016653227794449776
1.7275261722775596e+18,-0.00088988192146644,0.00018105226627085358,-0.001346610370092094
1.7275261722835597e+18,0.0004632518975995481,-0.0006224373355507851,0.0002439447707729414
1.7275261722865597e+18,-0.0018705817637965083,0.002212594263255596,0.0020175762474536896
1.72752617229256e+18,0.00044556264765560627,-5.038298695581034e-05,-0.0011519152903929353
1.72752617229856e+18,-0.0011676171561703086,-0.0014776741154491901,0.0023843736853450537
1.72752617230456e+18,0.0027041772846132517,0.0010238292161375284,0.002371715847402811
1.7275261723075602e+18,0.0014835675247013569,-0.00021401152480393648,-0.0005060917465016246
1.7275261723135603e+18,0.001315764500759542,0.0015034001553431153,0.0030564137268811464
1.7275261723195604e+18,-0.001681003370322287,0.0039003321435302496,-0.002340947277843952
1.7275261723225605e+18,-0.0009760703542269766,6.162236240925267e-05,-0.0005567008047364652
1.7275261723285606e+18,0.00020701694302260876,0.0012480980949476361,0.001398433931171894
1.7275261723345608e+18,-0.0004215985827613622,-0.0005081238923594356,-0.0006360095576383173
1.7275261723375608e+18,0.001156123005785048,-0.001848523155786097,-0.0016216263175010681
1.727526172343561e+18,0.002808641642332077,-0.0011158837005496025,-0.0021364211570471525
1.727526172349561e+18,0.004006738308817148,0.0006723247352056205,0.0010421290062367916
1.7275261723525612e+18,-0.0001577950461069122,-0.0009757493971846998,-0.0008201086893677711
1.7275261723585613e+18,0.0019499643240123987,-0.0015244748210534453,0.002486579120159149
1.7275261723645614e+18,0.0016529125859960914,0.001278519630432129,-0.00055948446970433
1.7275261723675615e+18,-0.002679568948224187,-0.00017529231263324618,-0.0023446453269571066
1.7275261723735616e+18,-0.000999200507067144,-0.0021761623211205006,0.0010775815462693572
1.7275261723795617e+18,-0.0003983564965892583,-0.0010856728767976165,0.0005089212208986282
1.7275261723855619e+18,-0.0014700288884341717,-0.0001820981124183163,-0.0016300835413858294
1.727526172388562e+18,0.001827915315516293,-0.0009727578144520521,-0.0005333598237484694
1.727526172394562e+18,0.0011995600070804358,-0.0009089418454095721,-0.012686179019510746
1.727526172397562e+18,0.000910724513232708,-0.002944446401670575,-0.01825503073632717
1.7275261724035622e+18,0.0050358641892671585,0.0014587417244911194,-0.03142281994223595
1.7275261724095624e+18,0.01016976311802864,0.000319078826578334,-0.03829687461256981
1.7275261724125624e+18,0.008075032383203506,0.000752050953451544,-0.047873079776763916
1.7275261724185626e+18,0.0045795137993991375,0.00151567324064672,-0.0588122233748436
1.7275261724245627e+18,0.0052437251433730125,0.00230916659347713,-0.07126544415950775
1.7275261724275628e+18,0.004020375665277243,0.003351823193952441,-0.07500506192445755
1.727526172433563e+18,0.0027412681374698877,-0.002797763328999281,-0.0888189896941185
1.727526172439563e+18,-0.002162297023460269,-0.0048424964770674706,-0.0974818542599678
1.7275261724455631e+18,0.002820810070261359,-0.00385763356462121,-0.11057259142398834
1.7275261724515633e+18,-3.986014053225517e-05,-0.004345104098320007,-0.11960709095001221
1.7275261724575634e+18,0.003252639900892973,-0.005744499154388905,-0.12875162065029144
1.7275261724635635e+18,0.00630432041361928,-0.0021275863982737064,-0.13956408202648163
1.7275261724665636e+18,0.003972555510699749,-0.003009665524587035,-0.14418210089206696
1.7275261724725637e+18,0.0049311257898807526,-0.0031960769556462765,-0.15309810638427734
1.7275261724785638e+18,0.00824499037116766,-0.00406113313511014,-0.16562102735042572
1.727526172484564e+18,0.005784665234386921,-0.00015952723333612084,-0.17463545501232147
1.727526172487564e+18,0.008219361305236816,0.0019625448621809483,-0.1789303421974182
1.7275261724935642e+18,0.006307544186711311,0.00128650083206594,-0.1890975832939148
1.7275261724995643e+18,0.001021906966343522,0.0023684126790612936,-0.19774620234966278
1.7275261725055644e+18,0.004076607525348663,0.00023126130690798163,-0.2098650485277176
1.7275261725085645e+18,0.0031268529128283262,-0.002194976666942239,-0.20971672236919403
1.7275261725145646e+18,0.0013167383149266243,-0.001362266018986702,-0.22246594727039337
1.7275261725205647e+18,0.0045503657311201096,-0.0023562537971884012,-0.22777462005615234
1.7275261725235648e+18,0.002220774535089731,-0.00204223720356822,-0.2355910688638687
1.727526172529565e+18,0.0016258819960057735,-0.0007162297843024135,-0.24333548545837402
1.727526172535565e+18,0.005506774410605431,-0.004756305832415819,-0.25166743993759155
1.727526172538565e+18,0.003954942338168621,-0.001942190807312727,-0.2526947259902954
1.7275261725445652e+18,0.004674925934523344,-0.00021112035028636456,-0.26100102066993713
1.7275261725505654e+18,0.004969453439116478,-0.0029394999146461487,-0.2710452675819397
1.7275261725565655e+18,0.00024142651818692684,-0.0007296626572497189,-0.27781322598457336
1.7275261725595656e+18,0.002423720434308052,-4.159013042226434e-05,-0.28191182017326355
1.7275261725655657e+18,0.001981669571250677,0.0008780248463153839,-0.2900410592556
1.7275261725715658e+18,-0.003718910040333867,-0.001095198793336749,-0.29954802989959717
1.727526172574566e+18,-0.001975436694920063,0.0010049776174128056,-0.3026546835899353
1.727526172580566e+18,-0.0024593158159404993,0.0007458527106791735,-0.3087359070777893
1.7275261725865661e+18,-0.003615119494497776,-0.0015188099350780249,-0.3157215714454651
1.7275261725895662e+18,-0.00021076976554468274,0.004251108039170504,-0.3189510405063629
1.7275261725955663e+18,-0.0014335524756461382,0.0035723343025892973,-0.3264019787311554
1.7275261726015665e+18,0.002447818173095584,0.003130944212898612,-0.33410951495170593
1.7275261726075666e+18,0.00364605407230556,-0.0009180675260722637,-0.3365534842014313
1.7275261726105667e+18,0.0059793125838041306,-0.0033054095692932606,-0.3391941487789154
1.7275261726165668e+18,0.004689666908234358,-0.0026314016431570053,-0.34551504254341125
1.727526172622567e+18,0.0024562946055084467,-0.003469033632427454,-0.3501044809818268
1.727526172625567e+18,0.004926073364913464,-0.003636046312749386,-0.35709550976753235
1.727526172631567e+18,-0.00018180522602051497,-0.00552180502563715,-0.3611219823360443
1.7275261726375672e+18,0.0033502564765512943,-7.324863690882921e-05,-0.36353352665901184
1.7275261726405673e+18,-0.0025167064741253853,-0.0018019193084910512,-0.3660006821155548
1.7275261726465674e+18,-0.0022828038781881332,-0.0007270639180205762,-0.3691345751285553
1.7275261726525676e+18,-0.0034161824733018875,0.000811269273981452,-0.377768874168396
1.7275261726585677e+18,-0.0007854840951040387,0.0028090854175388813,-0.37878844141960144
1.7275261726615677e+18,0.0009559018071740866,0.002327338792383671,-0.3857296109199524
1.7275261726675679e+18,-0.0004427671665325761,0.0011540225241333246,-0.3883087933063507
1.727526172673568e+18,0.0005299834883771837,-0.00028459762688726187,-0.39113596081733704
1.7275261726795681e+18,0.0023963346611708403,0.0008798644412308931,-0.3965502977371216
1.7275261726825682e+18,0.004133500158786774,0.0013643765123561025,-0.3976157307624817
1.7275261726885683e+18,0.0023027791175991297,-0.0010492827277630568,-0.40099355578422546
1.7275261726945684e+18,0.004376073833554983,-0.0024497995618730783,-0.4065742790699005
1.7275261726975685e+18,-0.0012551656691357493,-0.0049475389532744884,-0.4056510031223297
1.7275261727035686e+18,-0.0001419100008206442,-0.0003980602486990392,-0.41073131561279297
1.7275261727095688e+18,-0.0003897998249158263,-0.005068749189376831,-0.4090203046798706
1.7275261727125688e+18,-0.0023938054218888283,0.0016693446086719632,-0.4117295444011688
1.727526172718569e+18,-0.0028028429951518774,-0.00011949014151468873,-0.41270992159843445
1.727526172724569e+18,-0.0032469495199620724,0.004753910005092621,-0.41976597905158997
1.7275261727275692e+18,-0.006444679107517004,0.0033514073584228754,-0.4195060133934021
1.7275261727335693e+18,3.7078396417200565e-05,0.0048219189047813416,-0.42018482089042664
1.7275261727395694e+18,-0.0016006759833544493,0.0017351203132420778,-0.425226092338562
1.7275261727425695e+18,-0.00022111770522315055,0.0023052054457366467,-0.42894428968429565
1.7275261727485696e+18,-0.0020345745142549276,0.0017555577214807272,-0.4261753559112549
1.7275261727545697e+18,0.0022726093884557486,0.003656549146398902,-0.4284258782863617
1.7275261727605699e+18,0.002573428675532341,-0.0026155179366469383,-0.4288165271282196
1.72752617276357e+18,0.0007199328392744064,9.04587795957923e-05,-0.4311123788356781
1.72752617276957e+18,0.0006685170810669661,-0.00045536516699939966,-0.43331408500671387
1.7275261727755702e+18,0.0014601624570786953,-0.0007949270075187087,-0.43329334259033203
1.7275261727785702e+18,0.0013023065403103828,-0.002518782392144203,-0.4384431838989258
1.7275261727845704e+18,-0.0026718073058873415,-0.0006946970243006945,-0.4336516559123993
1.7275261727905705e+18,-0.0014628027565777302,-0.0020230819936841726,-0.43699246644973755
1.7275261727965706e+18,0.0004359284066595137,-0.0018291999585926533,-0.43927475810050964
1.7275261727995707e+18,-0.0020722844637930393,-0.002087843604385853,-0.437485009431839
1.7275261728055708e+18,-0.0022067599929869175,0.00015813307254575193,-0.4369993805885315
1.727526172811571e+18,0.000722315046004951,0.0010451701236888766,-0.4391862452030182
1.727526172814571e+18,0.0012864096788689494,-0.0013374905101954937,-0.4399062693119049
1.7275261728205711e+18,0.0019478797912597656,0.000861298874951899,-0.4412297010421753
1.7275261728265713e+18,0.002932613017037511,0.0007306751213036478,-0.44069069623947144
1.7275261728325714e+18,0.0032034264877438545,0.0012220179196447134,-0.4399000406265259
1.7275261728355715e+18,0.0025262359995394945,0.0022214818745851517,-0.4411391019821167
1.7275261728415716e+18,-0.0003959934110753238,0.0008401151280850172,-0.4403232932090759
1.7275261728475717e+18,0.0007035059970803559,-0.001960278255864978,-0.4378988444805145
1.7275261728505718e+18,0.0026161079294979572,-0.0007527322741225362,-0.4367083013057709
1.727526172856572e+18,-0.00038877944462001324,0.0005536832613870502,-0.4361661374568939
1.727526172862572e+18,-0.002032266929745674,0.000715321977622807,-0.43758562207221985
1.7275261728685722e+18,-0.0005716804880648851,-0.0006180236814543605,-0.43316301703453064
1.7275261728745723e+18,-0.005929553881287575,0.0006805878365412354,-0.4370805323123932
1.7275261728775724e+18,-0.0011035916395485401,-0.002612887881696224,-0.43687719106674194
1.7275261728835725e+18,0.0015714879846200347,0.002356358803808689,-0.435669481754303
1.7275261728895726e+18,0.0015620081685483456,0.000632047071121633,-0.4305415451526642
1.7275261728955727e+18,-0.0003028742503374815,-0.0006322438130155206,-0.43092694878578186
1.7275261728985728e+18,-0.0012199269840493798,0.0014736419543623924,-0.4300210177898407
1.727526172904573e+18,0.0009255630429834127,0.000582739245146513,-0.4289768934249878
1.727526172910573e+18,0.001562533900141716,0.0018826613668352365,-0.4260481297969818
1.7275261729165732e+18,-0.00038233172381296754,0.001629082951694727,-0.42902183532714844
1.7275261729225733e+18,0.0008917129598557949,0.001056692679412663,-0.42292243242263794
1.7275261729255734e+18,-0.004077025223523378,0.00022101294598542154,-0.42325788736343384
1.7275261729315735e+18,-0.002777303569018841,0.0013712180079892278,-0.4204503297805786
1.7275261729375736e+18,-0.0007560683880001307,0.001996045932173729,-0.42042988538742065
1.7275261729435738e+18,-0.001310440944507718,0.0011184514733031392,-0.41757509112358093
1.7275261729465738e+18,0.0006322506815195084,-0.002369099063798785,-0.41850438714027405
1.727526172952574e+18,-0.00041013554437085986,-0.0007417416200041771,-0.41520604491233826
1.727526172958574e+18,0.00013375291018746793,-0.0015253443270921707,-0.4119310975074768
1.7275261729615741e+18,0.0008282389608211815,-9.568454697728157e-05,-0.40894827246665955
1.7275261729675743e+18,0.0014367606490850449,0.0019018382299691439,-0.407222718000412
1.7275261729735744e+18,-0.0010827474761754274,-0.0006009649368934333,-0.40544816851615906
1.7275261729765745e+18,-0.0003397224936634302,-0.0030502029694616795,-0.4058087170124054
1.7275261729825746e+18,-0.002556791063398123,-0.002010310534387827,-0.4029807448387146
1.7275261729885747e+18,0.00031211820896714926,-0.0013222652487456799,-0.3981156051158905
1.7275261729945748e+18,-0.002452629618346691,-0.0022691963240504265,-0.3922005891799927
1.727526172997575e+18,-0.0005225330824032426,-0.0011180667206645012,-0.39302557706832886
1.727526173003575e+18,-0.0003816297394223511,-0.0027150041423738003,-0.38921040296554565
1.7275261730095752e+18,-0.00036138767609372735,0.0008979685371741652,-0.3829922080039978
1.7275261730125752e+18,0.000188598467502743,-0.002560914494097233,-0.37876787781715393
1.7275261730185754e+18,-0.0012137710582464933,0.0022920360788702965,-0.38012075424194336
1.7275261730245755e+18,-0.0006228574784472585,0.0011080969125032425,-0.3753625452518463
1.7275261730305756e+18,0.0011442143004387617,0.0019176260102540255,-0.3744867146015167
1.7275261730365757e+18,0.00041413441067561507,0.0006818713154643774,-0.3685709536075592
1.7275261730395758e+18,-0.0004150922759436071,-5.236594006419182e-05,-0.3711148798465729
1.727526173045576e+18,0.002129159402102232,0.000825342838652432,-0.3613971471786499
1.727526173051576e+18,-0.0006604910595342517,9.533553384244442e-05,-0.35772401094436646
1.727526173054576e+18,0.00011884244304383174,-0.003634654451161623,-0.357305645942688
1.7275261730605763e+18,0.00969813670963049,-0.0009338565869256854,-0.35274219512939453
1.7275261730665764e+18,0.022012503817677498,0.0006007672636769712,-0.35087206959724426
1.7275261730725765e+18,0.04219119995832443,0.0014890837483108044,-0.34223970770835876
1.7275261730755766e+18,0.050109218806028366,0.0035462677478790283,-0.3405052721500397
1.7275261730815767e+18,0.07147429883480072,0.009163714945316315,-0.3342140018939972
1.7275261730845768e+18,0.0840311273932457,0.00874573178589344,-0.33552876114845276
1.727526173090577e+18,0.10785458981990814,0.014853646978735924,-0.32961729168891907
1.727526173096577e+18,0.1309337317943573,0.013696844689548016,-0.3296847641468048
1.727526173099577e+18,0.13547348976135254,0.013963481411337852,-0.32339736819267273
1.7275261731055772e+18,0.15113192796707153,0.017126424238085747,-0.31932446360588074
1.7275261731115773e+18,0.16677680611610413,0.01873154379427433,-0.31240934133529663
1.7275261731175775e+18,0.1724136471748352,0.017229413613677025,-0.30736520886421204
1.7275261731205775e+18,0.1749473512172699,0.015565367415547371,-0.30625200271606445
1.7275261731265777e+18,0.18583190441131592,0.017237814143300056,-0.3000773787498474
1.7275261731325778e+18,0.2071540206670761,0.02044600248336792,-0.2953244149684906
1.727526173138578e+18,0.23232683539390564,0.02389635518193245,-0.2932845950126648
1.727526173141578e+18,0.24736149609088898,0.024689186364412308,-0.29074904322624207
1.727526173147578e+18,0.3050852119922638,0.03383844718337059,-0.2821033298969269
1.7275261731535782e+18,0.37665513157844543,0.044913504272699356,-0.2780468463897705
1.7275261731565783e+18,0.40827780961990356,0.04924808815121651,-0.27616673707962036
1.7275261731625784e+18,0.4724184274673462,0.05718636140227318,-0.27174997329711914
1.7275261731685786e+18,0.5447998642921448,0.06453442573547363,-0.2646986246109009
1.7275261731715786e+18,0.5780284404754639,0.07074758410453796,-0.2624213993549347
1.7275261731775788e+18,0.6256067752838135,0.07697585970163345,-0.2555711269378662
1.727526173183579e+18,0.6550693511962891,0.08028072118759155,-0.25057151913642883
1.727526173186579e+18,0.6699690818786621,0.0813675969839096,-0.24866877496242523
1.727526173192579e+18,0.6831810474395752,0.08688728511333466,-0.243625208735466
1.7275261731985792e+18,0.690532922744751,0.09345440566539764,-0.23708145320415497
1.7275261732045793e+18,0.6868196129798889,0.09469509869813919,-0.23462307453155518
1.7275261732075794e+18,0.6888002157211304,0.0966867059469223,-0.23095329105854034
1.7275261732135795e+18,0.6922170519828796,0.0986408144235611,-0.22347526252269745
1.7275261732195796e+18,0.702789306640625,0.10390445590019226,-0.22058738768100739
1.7275261732255798e+18,0.7197003364562988,0.10776044428348541,-0.21620233356952667
1.7275261732285798e+18,0.7241977453231812,0.10963083803653717,-0.21087077260017395
1.72752617323458e+18,0.7457162737846375,0.11165744066238403,-0.2065712958574295
1.72752617324058e+18,0.763761043548584,0.1156265139579773,-0.1999182552099228
1.7275261732465802e+18,0.7735201716423035,0.11716169863939285,-0.19240255653858185
1.7275261732495803e+18,0.7743261456489563,0.11718852818012238,-0.18839052319526672
1.7275261732555804e+18,0.7662732005119324,0.12351805716753006,-0.1861857920885086
1.7275261732615805e+18,0.7483125925064087,0.12091690301895142,-0.18224668502807617
1.7275261732645806e+18,0.7321805953979492,0.1213986948132515,-0.18014617264270782
1.7275261732705807e+18,0.6987799406051636,0.117512047290802,-0.17217577993869781
1.7275261732765809e+18,0.6639699339866638,0.11707489937543869,-0.16577747464179993
1.727526173282581e+18,0.6282147765159607,0.11831801384687424,-0.15922419726848602
1.727526173285581e+18,0.6117870211601257,0.11669714748859406,-0.15720321238040924
1.7275261732915812e+18,0.5825830698013306,0.1124892607331276,-0.15032237768173218
1.7275261732975813e+18,0.5636469125747681,0.11628416925668716,-0.14272019267082214
1.7275261733005814e+18,0.563575267791748,0.11163873970508575,-0.1439124047756195
1.7275261733065815e+18,0.5482195019721985,0.11673207581043243,-0.13818137347698212
1.7275261733125816e+18,0.5397195219993591,0.11111272871494293,-0.13287343084812164
1.7275261733185818e+18,0.5188148021697998,0.10880697518587112,-0.12705083191394806
1.7275261733215818e+18,0.5086135864257812,0.10920611023902893,-0.12095293402671814
1.727526173327582e+18,0.47328445315361023,0.10671048611402512,-0.12062814086675644
1.727526173333582e+18,0.4340899884700775,0.09962991625070572,-0.11378517001867294
1.7275261733395822e+18,0.38187047839164734,0.09437286853790283,-0.10666818171739578
1.7275261733425823e+18,0.35560038685798645,0.09109386801719666,-0.10546035319566727
1.7275261733485824e+18,0.30365240573883057,0.08498520404100418,-0.09835095703601837
1.7275261733545825e+18,0.2561463415622711,0.07985992729663849,-0.09286122769117355
1.7275261733575826e+18,0.23088477551937103,0.07566671073436737,-0.08892036229372025
1.7275261733635827e+18,0.18476064503192902,0.07360877096652985,-0.0858515202999115
1.7275261733695828e+18,0.15675021708011627,0.06932873278856277,-0.0805860236287117
1.727526173372583e+18,0.1453806310892105,0.06407064199447632,-0.07736088335514069
1.727526173378583e+18,0.11812183260917664,0.05953090637922287,-0.07220388203859329
1.7275261733845832e+18,0.09784739464521408,0.0529995858669281,-0.06455451995134354
1.7275261733905833e+18,0.07376842945814133,0.05168565735220909,-0.061415523290634155
1.7275261733935834e+18,0.06684475392103195,0.05005720257759094,-0.060935892164707184
1.7275261733995835e+18,0.03589116409420967,0.04442495480179787,-0.053668681532144547
1.7275261734055836e+18,0.00755669130012393,0.03817024454474449,-0.04281799867749214
1.7275261734115837e+18,-0.026220006868243217,0.033060070127248764,-0.04099191725254059
1.7275261734175839e+18,-0.05787866562604904,0.026758283376693726,-0.03569331392645836
1.727526173420584e+18,-0.07118062674999237,0.023328404873609543,-0.03721129521727562
1.727526173426584e+18,-0.10598953813314438,0.01987508125603199,-0.029123026877641678
1.7275261734325842e+18,-0.13032278418540955,0.01730085164308548,-0.022055979818105698
1.7275261734355843e+18,-0.14413700997829437,0.015354912728071213,-0.019676435738801956
1.7275261734415844e+18,-0.16443413496017456,0.009343959391117096,-0.015326590277254581
1.7275261734475845e+18,-0.17919591069221497,0.0024505367036908865,-0.010564800351858139
1.7275261734535846e+18,-0.18957063555717468,0.002963715000078082,-0.005021934863179922
1.7275261734565847e+18,-0.19618478417396545,-0.000521898502483964,-0.0026123118586838245
1.7275261734625848e+18,-0.2075342833995819,-0.003766808193176985,0.0012005481403321028
1.727526173468585e+18,-0.22328492999076843,-0.0069353473372757435,0.007467453368008137
1.727526173471585e+18,-0.22585883736610413,-0.011379417963325977,0.006303794682025909
1.7275261734775852e+18,-0.23514331877231598,-0.015191017650067806,0.019048474729061127
1.7275261734835853e+18,-0.2565947473049164,-0.015186420641839504,0.020878542214632034
1.7275261734895854e+18,-0.2758440375328064,-0.020238880068063736,0.024879900738596916
1.7275261734955855e+18,-0.2886049747467041,-0.019835425540804863,0.028827697038650513
1.7275261734985856e+18,-0.2974816560745239,-0.02274942956864834,0.031689442694187164
1.7275261735045857e+18,-0.30211666226387024,-0.024407466873526573,0.0359048917889595
1.7275261735105859e+18,-0.3043370544910431,-0.021998398005962372,0.04096613824367523
1.727526173516586e+18,-0.29964226484298706,-0.02836214378476143,0.044936653226614
1.727526173519586e+18,-0.29582515358924866,-0.02899547480046749,0.047134991735219955
1.7275261735255862e+18,-0.2890055477619171,-0.027366526424884796,0.04959065094590187
1.7275261735315863e+18,-0.28527921438217163,-0.031607989221811295,0.05237863212823868
1.7275261735375864e+18,-0.28584611415863037,-0.02846550941467285,0.061318591237068176
1.7275261735435866e+18,-0.285881370306015,-0.027982652187347412,0.06224099546670914
1.7275261735465866e+18,-0.2894548177719116,-0.030191119760274887,0.06270230561494827
1.7275261735525868e+18,-0.2990871071815491,-0.029222283512353897,0.06594738364219666
1.727526173558587e+18,-0.3158473074436188,-0.031820014119148254,0.0747305378317833
1.727526173561587e+18,-0.3244595229625702,-0.03198752552270889,0.07389223575592041
1.727526173567587e+18,-0.33973878622055054,-0.035515058785676956,0.0804390013217926
1.7275261735735872e+18,-0.35406363010406494,-0.03910237178206444,0.08020050823688507
1.7275261735795873e+18,-0.3554179072380066,-0.043019454926252365,0.08550793677568436
1.7275261735825874e+18,-0.3608219623565674,-0.04101930558681488,0.0858006626367569
1.7275261735885875e+18,-0.3706188499927521,-0.046769559383392334,0.09000999480485916
1.7275261735945876e+18,-0.3870467245578766,-0.04775006324052811,0.09339642524719238
1.7275261736005878e+18,-0.39264458417892456,-0.04858395829796791,0.09475456178188324
1.7275261736035878e+18,-0.39954352378845215,-0.05242248624563217,0.0994788110256195
1.727526173609588e+18,-0.42936909198760986,-0.05727750062942505,0.10549408942461014
1.727526173615588e+18,-0.465192049741745,-0.06089899688959122,0.10487050563097
1.7275261736215882e+18,-0.5003523826599121,-0.0706927701830864,0.10908877849578857
1.7275261736245883e+18,-0.512460470199585,-0.0678246021270752,0.1136997863650322
1.7275261736305884e+18,-0.5405302047729492,-0.07174226641654968,0.11805717647075653
1.7275261736365885e+18,-0.5606735348701477,-0.07994326204061508,0.11588574945926666
1.7275261736425887e+18,-0.5726726651191711,-0.07743923366069794,0.1212206780910492
1.7275261736485888e+18,-0.5671362280845642,-0.07680138945579529,0.12469593435525894
1.7275261736515889e+18,-0.5593235492706299,-0.08038031309843063,0.12596260011196136
1.727526173657589e+18,-0.5472160577774048,-0.076292023062706,0.12741316854953766
1.727526173663589e+18,-0.5222970843315125,-0.07501823455095291,0.13459067046642303
1.7275261736695892e+18,-0.5017207860946655,-0.07419662922620773,0.1372445523738861
1.7275261736725893e+18,-0.490189790725708,-0.06954146176576614,0.13808462023735046
1.7275261736785894e+18,-0.4746829569339752,-0.07411379367113113,0.13848082721233368
1.7275261736845896e+18,-0.462740421295166,-0.06946919858455658,0.1400616466999054
1.7275261736875896e+18,-0.45714715123176575,-0.06742369383573532,0.1433033049106598
1.7275261736935898e+18,-0.4514690339565277,-0.06802269071340561,0.1485547572374344
1.72752617369959e+18,-0.4487798511981964,-0.06342384219169617,0.14722320437431335
1.72752617370559e+18,-0.44589510560035706,-0.0655999481678009,0.15400290489196777
1.7275261737115901e+18,-0.4349193871021271,-0.06449109315872192,0.1539178043603897
1.7275261737175903e+18,-0.4219822585582733,-0.06395334005355835,0.15570271015167236
1.7275261737205903e+18,-0.41362953186035156,-0.06415991485118866,0.15951871871948242
1.7275261737265905e+18,-0.39373815059661865,-0.06104172393679619,0.1614028513431549
1.7275261737325906e+18,-0.3667412996292114,-0.05664915218949318,0.16147685050964355
1.7275261737385907e+18,-0.3396350145339966,-0.05064357444643974,0.16683587431907654
1.7275261737415908e+18,-0.3274005353450775,-0.05243448540568352,0.16348768770694733
1.727526173747591e+18,-0.30452629923820496,-0.04616425186395645,0.16969875991344452
1.727526173753591e+18,-0.2887815833091736,-0.04496193304657936,0.17051221430301666
1.7275261737595912e+18,-0.2721475064754486,-0.0420529842376709,0.17019851505756378
1.7275261737625912e+18,-0.26506102085113525,-0.03968825563788414,0.1758914440870285
1.7275261737685914e+18,-0.25846999883651733,-0.037569064646959305,0.17506471276283264
1.7275261737745915e+18,-0.25313442945480347,-0.03537914901971817,0.1789465695619583
1.7275261737805916e+18,-0.2436065971851349,-0.03333142027258873,0.18366913497447968
1.7275261737835917e+18,-0.23956699669361115,-0.03645263984799385,0.1826961189508438
1.7275261737895918e+18,-0.228140726685524,-0.03185827657580376,0.18716168403625488
1.727526173795592e+18,-0.2138010859489441,-0.028946181759238243,0.1912791132926941
1.727526173798592e+18,-0.20609189569950104,-0.028770096600055695,0.1911614090204239
1.727526173804592e+18,-0.1872742921113968,-0.026660099625587463,0.19558024406433105
1.7275261738105923e+18,-0.16992391645908356,-0.02680978924036026,0.19782447814941406
1.7275261738165924e+18,-0.15405908226966858,-0.02473677508533001,0.20369596779346466
1.7275261738195924e+18,-0.13963308930397034,-0.019832482561469078,0.20653463900089264
1.7275261738255926e+18,-0.13072390854358673,-0.019747275859117508,0.20748992264270782
1.7275261738315927e+18,-0.1206790953874588,-0.015819797292351723,0.2127864956855774
1.7275261738345928e+18,-0.11670350283384323,-0.015387200750410557,0.21269701421260834
1.727526173840593e+18,-0.11475570499897003,-0.016049502417445183,0.21732690930366516
1.727526173846593e+18,-0.11133508384227753,-0.013860022649168968,0.22587551176548004
1.7275261738525932e+18,-0.10920785367488861,-0.013241545297205448,0.22758620977401733
1.7275261738555932e+18,-0.10657248646020889,-0.013668463565409184,0.2266349196434021
1.7275261738615933e+18,-0.1023925244808197,-0.014996174722909927,0.23517803847789764
1.7275261738675935e+18,-0.09005240350961685,-0.011001454666256905,0.24055732786655426
1.7275261738705935e+18,-0.08567240089178085,-0.013523673638701439,0.23854728043079376
1.7275261738765937e+18,-0.07601891458034515,-0.010712850838899612,0.24796706438064575
1.7275261738825938e+18,-0.06620193272829056,-0.008314385078847408,0.25318434834480286
1.727526173888594e+18,-0.05145789310336113,-0.0077050733380019665,0.2586820125579834
1.727526173894594e+18,-0.047877613455057144,-0.01022055558860302,0.25890782475471497
1.727526173897594e+18,-0.043289825320243835,-0.0107164541259408,0.2641853094100952
1.7275261739035942e+18,-0.03908030688762665,-0.005156319588422775,0.27000874280929565
1.7275261739095944e+18,-0.03711612522602081,-0.005518896039575338,0.2745000422000885
1.7275261739125944e+18,-0.0324583426117897,-0.006681669503450394,0.2745414674282074
1.7275261739185946e+18,-0.03846949338912964,-0.005681746639311314,0.2807331085205078
1.7275261739215946e+18,-0.03603460639715195,-0.005976248998194933,0.2824220657348633
1.7275261739275948e+18,-0.035510994493961334,-0.006422336678951979,0.2865068018436432
1.727526173933595e+18,-0.037552349269390106,-0.006496016401797533,0.2924918234348297
1.727526173939595e+18,-0.03263542056083679,-0.0060419924557209015,0.2965897023677826
1.7275261739455951e+18,-0.025655297562479973,-0.0031311537604779005,0.304974764585495
1.7275261739485952e+18,-0.0229822788387537,-0.003331845160573721,0.30726325511932373
1.7275261739545953e+18,-0.015499989502131939,-0.006490752100944519,0.3114858567714691
1.7275261739605955e+18,-0.011571522802114487,-0.004489644896239042,0.3158528506755829
1.7275261739635955e+18,-0.007890607230365276,-0.002389514120295644,0.31917259097099304
1.7275261739695956e+18,-0.006897106766700745,-0.0025362232699990273,0.3224048912525177
1.7275261739755958e+18,-0.005357539746910334,-0.006964662112295628,0.3269626796245575
1.7275261739785958e+18,-0.0065389880910515785,-0.007214803248643875,0.3283355236053467
1.727526173984596e+18,-0.005917743779718876,-0.007830256596207619,0.33507606387138367
1.727526173990596e+18,-0.009189697913825512,-0.007343826815485954,0.34120267629623413
1.7275261739965962e+18,-0.009538981132209301,-0.004136250354349613,0.3458327651023865
1.7275261739995963e+18,-0.010560683906078339,-0.0054504177533090115,0.34718066453933716
1.7275261740055964e+18,-0.01036558672785759,-0.004900387022644281,0.35035157203674316
1.7275261740115965e+18,-0.005775694735348225,-0.00382023467682302,0.35757917165756226
1.7275261740175967e+18,-0.004174703266471624,-0.005751454271376133,0.3613209128379822
1.7275261740235968e+18,0.0010518681956455112,-0.0075845918618142605,0.3634563982486725
1.7275261740265969e+18,0.00010122766252607107,-0.0061007095500826836,0.36557623744010925
1.727526174032597e+18,0.004617961589246988,-0.008351548574864864,0.37347927689552307
1.727526174038597e+18,0.005110863130539656,-0.007514262106269598,0.37462618947029114
1.7275261740445972e+18,0.008714647963643074,-0.006400140002369881,0.3816496431827545
1.7275261740505974e+18,0.0038567043375223875,-0.00818006694316864,0.3830297887325287
1.7275261740535974e+18,0.005802755244076252,-0.006282817106693983,0.3859142065048218
1.7275261740595976e+18,0.005439288914203644,-0.007233334239572287,0.3872552514076233
1.7275261740655977e+18,0.004647345282137394,-0.006766389589756727,0.3893417716026306
1.7275261740715978e+18,-0.0024978239089250565,-0.0015397174283862114,0.3942910432815552
1.727526174074598e+18,-0.0009166323579847813,-0.005300839897245169,0.39454466104507446
1.727526174080598e+18,-0.001472295494750142,-0.008426249027252197,0.39779189229011536
1.7275261740865981e+18,-0.001314713153988123,-0.006928179878741503,0.3987444341182709
1.7275261740895982e+18,0.0009390583727508783,-0.007083024829626083,0.400246798992157
1.7275261740955983e+18,0.00020889053121209145,-0.006719624157994986,0.4023442566394806
1.7275261741015985e+18,0.004307732451707125,-0.008369695395231247,0.4037003219127655
1.7275261741075986e+18,0.003864623373374343,-0.008388658054172993,0.40821191668510437
1.7275261741105987e+18,0.006249136291444302,-0.005807635374367237,0.40874767303466797
1.7275261741165988e+18,0.005795019678771496,-0.006879665423184633,0.40941983461380005
1.727526174122599e+18,0.003966168500483036,-0.009324789978563786,0.41188573837280273
1.727526174128599e+18,0.003369155339896679,-0.0056903176009655,0.41563287377357483
1.727526174131599e+18,0.005749461706727743,-0.009171145968139172,0.4144248068332672
1.7275261741375992e+18,0.0009326962172053754,-0.004545200616121292,0.4117436707019806
1.7275261741435994e+18,0.000514965271577239,-0.004422334022819996,0.41566476225852966
1.7275261741465994e+18,-0.000384920829674229,-0.007290160749107599,0.4164865016937256
1.7275261741525996e+18,0.0008680941537022591,-0.005994399078190327,0.4183708429336548
1.7275261741585997e+18,0.00028446270152926445,-0.003917708061635494,0.4185265898704529
1.7275261741645998e+18,0.002225757110863924,-0.008023292757570744,0.4192074239253998
1.7275261741675999e+18,0.0027290857397019863,-0.006257534958422184,0.4225870668888092
1.7275261741736e+18,0.005830222275108099,-0.008678190410137177,0.4183056056499481
1.7275261741796001e+18,0.003507390385493636,-0.006066812667995691,0.42070844769477844
1.7275261741856003e+18,0.005199715960770845,-0.0069525898434221745,0.4232017993927002
1.7275261741886003e+18,0.0018340953392907977,-0.005097964778542519,0.42224130034446716
1.7275261741946004e+18,0.003058356000110507,-0.009973437525331974,0.42144936323165894
1.7275261742006006e+18,0.0007424202049151063,-0.0049855951219797134,0.4252246022224426
1.7275261742066007e+18,-0.0002116365940310061,-0.003964903764426708,0.4214870035648346
1.7275261742096008e+18,-0.0002771009458228946,-0.005787299945950508,0.4207885265350342
1.727526174215601e+18,-0.002607543021440506,-0.00682105915620923,0.42198365926742554
1.727526174221601e+18,0.0014837781200185418,-0.005892964545637369,0.42386594414711
1.7275261742276012e+18,-0.00018896273104473948,-0.004845361225306988,0.4260645806789398
1.7275261742306012e+18,0.001917884568683803,-0.005140983499586582,0.42270684242248535
1.7275261742366013e+18,0.0024794358760118484,-0.0053781503811478615,0.42571553587913513
1.7275261742426015e+18,0.0027422457933425903,-0.004481206648051739,0.42204126715660095
1.7275261742456015e+18,0.0016218079254031181,-0.00973379798233509,0.4231441617012024
1.7275261742516017e+18,-0.0006190880667418242,-0.005549847614020109,0.4253053367137909
1.7275261742576018e+18,0.005034969188272953,-0.006767706945538521,0.42122143507003784
1.727526174263602e+18,0.0021327375434339046,-0.005052558146417141,0.42265039682388306
1.727526174269602e+18,0.0016875118017196655,-0.006948378868401051,0.42255011200904846
1.727526174272602e+18,0.0008355171885341406,-0.006889040581882,0.42150065302848816
1.7275261742786022e+18,-0.0002518262481316924,-0.005106051918119192,0.42106443643569946
1.7275261742846024e+18,0.0026308437809348106,-0.000599701190367341,0.4230954945087433
1.7275261742906025e+18,4.729421925731003e-05,-0.00040603242814540863,0.4219737946987152
1.7275261742966026e+18,-7.519245991716161e-05,-0.00144611403811723,0.4228214621543884
1.7275261742996027e+18,-0.0017423832323402166,-0.0027231653220951557,0.4180358946323395
1.7275261743056028e+18,0.00048192814574576914,-0.0009748786687850952,0.41857215762138367
1.727526174311603e+18,-0.0012986109359189868,-0.004783599637448788,0.41761308908462524
1.727526174317603e+18,-0.0012578862952068448,-0.006241979543119669,0.4163476228713989
1.7275261743236032e+18,0.001248635700903833,-0.0051822178065776825,0.4177837073802948
1.7275261743296033e+18,0.0009020400466397405,-0.007623561657965183,0.4138889014720917
1.7275261743356035e+18,-0.00020665343618020415,-0.007799983955919743,0.41583243012428284
1.7275261743416036e+18,6.11513969488442e-05,-0.003984612412750721,0.4123632311820984
1.7275261743446036e+18,-0.0006021511508151889,-0.005024046171456575,0.4109359085559845
1.7275261743506038e+18,0.000943178660236299,-0.0045471396297216415,0.40734201669692993
1.727526174356604e+18,0.0011924656573683023,-0.001694035017862916,0.40694552659988403
1.727526174362604e+18,-0.0006077495636418462,0.0010152437025681138,0.40400969982147217
1.7275261743686042e+18,-0.002493639476597309,-0.0015658298507332802,0.3996339738368988
1.7275261743746043e+18,-0.00024050718639045954,-0.0009879523422569036,0.39525461196899414
1.7275261743776044e+18,-0.0018853851361200213,-0.004704099148511887,0.3963147699832916
1.7275261743836045e+18,-8.469214662909508e-06,-0.001366449985653162,0.39127612113952637
1.7275261743896046e+18,-0.0009001311846077442,-0.0013854100834578276,0.3856714367866516
1.7275261743956047e+18,0.0001688388001639396,-0.0025979275815188885,0.3835360109806061
1.7275261744016049e+18,-0.00027120410231873393,-0.0052942996844649315,0.37840911746025085
1.727526174404605e+18,0.00017103529535233974,-0.0029494985938072205,0.3767194449901581
1.727526174410605e+18,0.003269773907959461,-0.0031790516804903746,0.37195825576782227
1.7275261744166052e+18,0.0006142228958196938,-0.003298370633274317,0.3651532232761383
1.7275261744226053e+18,0.0009466155897825956,0.0002682972699403763,0.3616569936275482
1.7275261744256054e+18,-0.002644970780238509,-0.0015499284490942955,0.3609744906425476
1.7275261744316055e+18,-0.0009545344510115683,-0.0053142402321100235,0.35091716051101685
1.7275261744376056e+18,-0.002055434975773096,-0.003933648578822613,0.3479263186454773
1.7275261744436058e+18,-0.001741215935908258,-0.0030666543170809746,0.34277310967445374
1.727526174449606e+18,-0.0015425903256982565,-0.001283499994315207,0.33655887842178345
1.727526174455606e+18,-0.006476349197328091,-0.0025097187608480453,0.3298061788082123
1.727526174458606e+18,0.00024462665896862745,-7.118203211575747e-05,0.32823505997657776
1.7275261744646062e+18,-0.0031571483705192804,0.0016013075364753604,0.31956055760383606
1.7275261744706063e+18,1.2828386388719082e-05,0.0005662884213961661,0.31267595291137695
1.7275261744766065e+18,0.0035416479222476482,0.0005994151579216123,0.30827873945236206
1.7275261744826066e+18,0.002293543890118599,0.0010888648685067892,0.3058842122554779
1.7275261744856067e+18,0.0033692894503474236,0.001570154563523829,0.30300721526145935
1.7275261744916068e+18,0.002054921118542552,-0.0020216372795403004,0.29679808020591736
1.727526174497607e+18,0.0008781546493992209,-0.004554559476673603,0.2882440984249115
1.727526174503607e+18,-0.0018841447308659554,-0.002518892753869295,0.28181689977645874
1.727526174506607e+18,-0.0019619842059910297,-0.0018599549075588584,0.27810025215148926
1.7275261745126072e+18,-0.0013634979259222746,-0.003990352153778076,0.2747940421104431
1.7275261745186074e+18,-0.002477254718542099,-0.001621564500965178,0.26847901940345764
1.7275261745246075e+18,-0.0002851104363799095,0.0007287861662916839,0.26353949308395386
1.7275261745306076e+18,-0.0023350806441158056,-0.0008860502857714891,0.25596892833709717
1.7275261745336077e+18,-0.00114911247510463,-0.0012305338168516755,0.2510935664176941
1.7275261745396078e+18,-0.0017204061150550842,0.001927065197378397,0.24706150591373444
1.727526174545608e+18,-0.0009715798078104854,1.6439473256468773e-05,0.2392970770597458
1.727526174548608e+18,-0.003138211788609624,0.002719274954870343,0.23547400534152985
1.727526174554608e+18,-0.002706278348341584,0.001450834795832634,0.2311922013759613
1.7275261745606083e+18,0.0001440887281205505,0.001478652935475111,0.22258783876895905
1.7275261745636083e+18,0.0005766018875874579,-0.0009610101697035134,0.22007334232330322
1.7275261745696084e+18,0.0017871023155748844,-0.0029543612617999315,0.21297354996204376
1.7275261745756086e+18,-0.001093225204385817,0.00034898449666798115,0.205917090177536
1.7275261745816087e+18,-0.0019877871964126825,-0.0032590865157544613,0.1984822303056717
1.7275261745876088e+18,-0.0012145682703703642,0.0010487423278391361,0.19107143580913544
1.727526174590609e+18,-0.0006774556240998209,-0.00014062071568332613,0.19166052341461182
1.727526174596609e+18,0.0004732126835733652,-0.0004002708592452109,0.185634583234787
1.7275261746026092e+18,-0.0015552652766928077,-7.492839358747005e-05,0.17601703107357025
1.7275261746056092e+18,-0.00030433409847319126,0.005030537955462933,0.1769324690103531
1.7275261746116093e+18,-0.00037935603177174926,0.00371338427066803,0.1668376475572586
1.7275261746176095e+18,0.0013536469778046012,-0.0026869848370552063,0.16217336058616638
1.7275261746206095e+18,-0.0005416693747974932,0.0027376366779208183,0.16066449880599976
1.7275261746266097e+18,-0.0004263195442035794,-0.0007287042681127787,0.15619656443595886
1.7275261746326098e+18,-0.00021963822655379772,0.000474358384963125,0.14629755914211273
1.72752617463861e+18,0.00040824685129337013,-0.00048106838949024677,0.13932552933692932
1.72752617464161e+18,-0.0013570045121014118,-0.0017251665703952312,0.13590598106384277
1.72752617464761e+18,-0.0012888602213934064,-0.0019229474710300565,0.1296253651380539
1.7275261746536102e+18,0.0007259709527716041,-0.0007984895491972566,0.1223766952753067
1.7275261746566103e+18,-0.0005256557487882674,0.0009058326249942183,0.12148406356573105
1.7275261746626104e+18,0.0018782042898237705,-0.0011498521780595183,0.11355403065681458
1.7275261746686106e+18,-9.726358985062689e-05,-0.0009532702970318496,0.10704072564840317
1.7275261746716106e+18,0.002326064044609666,-0.002108275890350342,0.10459774732589722
1.7275261746776108e+18,0.002565136644989252,0.002257467480376363,0.09932147711515427
1.727526174683611e+18,-0.0015583892818540335,0.0021519337315112352,0.09183203428983688
1.727526174689611e+18,0.0013714863453060389,0.004301952663809061,0.08894746750593185
1.727526174692611e+18,0.0019038757309317589,-0.0027266633696854115,0.08423802256584167
1.7275261746986112e+18,0.0010300814174115658,0.0003603881341405213,0.07643043994903564
1.7275261747046113e+18,-0.002013229764997959,-0.0007205434376373887,0.07276064157485962
1.7275261747076114e+18,-0.0007086500991135836,0.0004387074732221663,0.06825246661901474
1.7275261747136115e+18,-0.0012520046439021826,-0.0021312946919351816,0.06343350559473038
1.7275261747196116e+18,0.0012741602258756757,-0.0005408032448031008,0.05661345645785332
1.7275261747226117e+18,-0.0016824394697323442,0.0006344670546241105,0.05506519973278046
1.7275261747286118e+18,-9.987698285840452e-05,-0.0005645171040669084,0.050077181309461594
1.727526174734612e+18,-0.0010941781802102923,-0.001930960570462048,0.03889993578195572
1.727526174740612e+18,0.0015522332396358252,-0.0007176771759986877,0.03442073613405228
1.7275261747436122e+18,0.0033680936321616173,0.0028582196682691574,0.030172312632203102
1.7275261747496123e+18,0.0008378976490348577,0.0024715967010706663,0.026499075815081596
1.7275261747556124e+18,0.005677222739905119,0.0005359768983907998,0.020019520074129105
1.7275261747616125e+18,-0.00012199665070511401,0.0005406384589150548,0.012753496877849102
1.7275261747646126e+18,-0.0020805620588362217,0.0013053612783551216,0.012818729504942894
1.7275261747706127e+18,0.0016973569290712476,-0.0013495467137545347,0.005786670371890068
1.7275261747766129e+18,-0.002518304158002138,-0.0014783486258238554,-0.0038572277408093214
1.727526174782613e+18,-0.00314606842584908,-0.0012774225324392319,-0.006224992219358683
1.727526174785613e+18,0.0007832427509129047,0.000821958645246923,-0.01102165412157774
1.7275261747916132e+18,-0.0018555198330432177,0.00040766887832432985,-0.012892818078398705
1.7275261747976133e+18,-0.0037324484437704086,-0.0015237557236105204,-0.020566517487168312
1.7275261748036134e+18,0.00018852937500923872,-0.001049719168804586,-0.026547890156507492
1.7275261748066135e+18,7.014532457105815e-05,-0.00017871963791549206,-0.02871781215071678
1.7275261748126136e+18,-0.0013974199537187815,0.00029399391496554017,-0.03372703492641449
1.7275261748186138e+18,0.0026704170741140842,-2.6480061933398247e-05,-0.03855527192354202
1.727526174824614e+18,0.00030795784550718963,-0.00036190199898555875,-0.04306389391422272
1.727526174827614e+18,0.0011818902567029,-0.0020525488071143627,-0.048843782395124435
1.727526174833614e+18,-0.0004599401727318764,-0.0010472169378772378,-0.054104629904031754
1.7275261748396142e+18,-0.000379513279767707,-0.001998838037252426,-0.05987662449479103
1.7275261748456143e+18,-0.0027982485480606556,-0.0026526679284870625,-0.05993707478046417
1.7275261748516145e+18,-0.0025156335905194283,3.105283758486621e-05,-0.06830953061580658
1.7275261748546145e+18,-0.0023209312930703163,-0.0011029166635125875,-0.06830094754695892
1.7275261748606147e+18,-0.0009139492176473141,0.0034543601796031,-0.07565129548311234
1.7275261748666148e+18,-0.0008396604098379612,0.0017315596342086792,-0.0788625180721283
1.7275261748696148e+18,-0.0008124427404254675,-0.0003092208644375205,-0.0841570571064949
1.727526174875615e+18,-0.0004623908316716552,0.002941894344985485,-0.08852836489677429
1.727526174881615e+18,-0.0005743397632613778,0.00433745700865984,-0.09390681236982346
1.7275261748876152e+18,-0.0014009363949298859,0.0029393965378403664,-0.09799778461456299
1.7275261748906153e+18,0.0023298512678593397,0.0009503578185103834,-0.10188383609056473
1.7275261748966154e+18,-0.003633212996646762,-0.0027596810832619667,-0.10262205451726913
1.7275261749026156e+18,-0.0005430306191556156,-0.0007333355024456978,-0.10756862908601761
1.7275261749086157e+18,0.0023381162900477648,-0.004206858575344086,-0.11408006399869919
1.7275261749146158e+18,0.0035610380582511425,-0.005396720953285694,-0.12174897640943527
1.7275261749176159e+18,0.00911406148225069,-0.0008480696706101298,-0.12014538049697876
1.727526174923616e+18,0.012035081163048744,-0.004296073690056801,-0.12873655557632446
1.7275261749296161e+18,0.019084583967924118,0.001181628555059433,-0.13389703631401062
1.7275261749326162e+18,0.025989526882767677,-0.0015922749880701303,-0.13284461200237274
1.7275261749386163e+18,0.039832111448049545,-0.0005925445584580302,-0.1353645771741867
1.7275261749446164e+18,0.05329373851418495,-0.0003847131156362593,-0.1408246010541916
1.7275261749506166e+18,0.07696104794740677,0.0004725581966340542,-0.1453445553779602
1.7275261749536166e+18,0.0869886726140976,-0.002502022311091423,-0.146100252866745
1.7275261749596168e+18,0.11045397073030472,-0.004166219383478165,-0.15111416578292847
1.727526174965617e+18,0.13405096530914307,-0.006757090799510479,-0.15547169744968414
1.727526174968617e+18,0.14365525543689728,-0.006707856897264719,-0.16048486530780792
1.727526174974617e+18,0.18137238919734955,-0.00888772401958704,-0.1611664742231369
1.7275261749806172e+18,0.2184145599603653,-0.011807478033006191,-0.1652391403913498
1.7275261749866173e+18,0.24854761362075806,-0.013483857735991478,-0.1720689982175827
1.7275261749926175e+18,0.2869001626968384,-0.015369459055364132,-0.17555634677410126
1.7275261749956175e+18,0.31177589297294617,-0.015107193030416965,-0.17576932907104492
1.7275261750016177e+18,0.3464144766330719,-0.01943259872496128,-0.17832429707050323
1.7275261750076178e+18,0.37461280822753906,-0.019359499216079712,-0.1820439249277115
1.7275261750106179e+18,0.38566944003105164,-0.020635033026337624,-0.18372900784015656
1.727526175016618e+18,0.41519472002983093,-0.021387919783592224,-0.1911391317844391
1.727526175022618e+18,0.4522246718406677,-0.021849000826478004,-0.1909119337797165
1.7275261750286182e+18,0.48560386896133423,-0.024195285513997078,-0.1957240104675293
1.7275261750346184e+18,0.5128066539764404,-0.0251642856746912,-0.19818708300590515
1.7275261750406185e+18,0.5501211881637573,-0.03004642017185688,-0.19986888766288757
1.7275261750436186e+18,0.5676344037055969,-0.029554102569818497,-0.20508629083633423
1.7275261750496187e+18,0.5959691405296326,-0.031105829402804375,-0.20581692457199097
1.7275261750556188e+18,0.6221987009048462,-0.031244991347193718,-0.20760175585746765
1.727526175061619e+18,0.6399466395378113,-0.0339762419462204,-0.21032088994979858
1.727526175064619e+18,0.6466773152351379,-0.03080783039331436,-0.21564941108226776
1.7275261750706191e+18,0.6563441753387451,-0.034019917249679565,-0.21687932312488556
1.7275261750766193e+18,0.6514295935630798,-0.03678353875875473,-0.21987386047840118
1.7275261750796193e+18,0.6476379036903381,-0.035885218530893326,-0.2228211909532547
1.7275261750856195e+18,0.6366570591926575,-0.03877965733408928,-0.22564581036567688
1.7275261750916196e+18,0.6234937906265259,-0.03673902153968811,-0.22653408348560333
1.7275261750976197e+18,0.6059602499008179,-0.033124394714832306,-0.23223502933979034
1.7275261751006198e+18,0.5955005884170532,-0.03464936465024948,-0.23083718121051788
1.72752617510662e+18,0.5801816582679749,-0.03245628625154495,-0.23527291417121887
1.72752617511262e+18,0.5643267035484314,-0.034743260592222214,-0.2358875572681427
1.7275261751186202e+18,0.5510808229446411,-0.03113521635532379,-0.23808884620666504
1.7275261751216202e+18,0.5380442142486572,-0.03016604110598564,-0.23922982811927795
1.7275261751276204e+18,0.5137906074523926,-0.03142470493912697,-0.23991385102272034
1.7275261751336205e+18,0.4872109889984131,-0.024338051676750183,-0.2426745593547821
1.7275261751396206e+18,0.45572996139526367,-0.027272524312138557,-0.24584901332855225
1.7275261751426207e+18,0.43078234791755676,-0.0262619499117136,-0.2486453354358673
1.7275261751486208e+18,0.38737234473228455,-0.024867601692676544,-0.24658487737178802
1.727526175154621e+18,0.3370838463306427,-0.01869994029402733,-0.24947643280029297
1.727526175160621e+18,0.2902181148529053,-0.020035462453961372,-0.2514425218105316
1.727526175163621e+18,0.2548930048942566,-0.01588534191250801,-0.2551545798778534
1.7275261751696212e+18,0.18097253143787384,-0.012359213083982468,-0.2561968266963959
1.7275261751756214e+18,0.11305150389671326,-0.01117650792002678,-0.2567387521266937
1.7275261751816215e+18,0.04112960398197174,-0.00738750584423542,-0.25932377576828003
1.7275261751846216e+18,0.007403128314763308,-0.005974199157208204,-0.2596670687198639
1.7275261751906217e+18,-0.07911630719900131,-0.002165873534977436,-0.26321861147880554
1.7275261751966218e+18,-0.13857723772525787,-0.0011575623648241162,-0.26416507363319397
1.727526175199622e+18,-0.1760561615228653,-0.0014566221507266164,-0.26591524481773376
1.727526175205622e+18,-0.25426170229911804,0.0044124010019004345,-0.26651817560195923
1.7275261752116221e+18,-0.32850146293640137,0.004472276195883751,-0.27101293206214905
1.7275261752176223e+18,-0.3857539892196655,0.00678310077637434,-0.2694549560546875
1.7275261752206223e+18,-0.4138266444206238,0.012618649750947952,-0.27014923095703125
1.7275261752266225e+18,-0.457355797290802,0.015325679443776608,-0.2692462205886841
1.7275261752326226e+18,-0.4839230179786682,0.015525246039032936,-0.26976338028907776
1.7275261752386227e+18,-0.4913530647754669,0.015827663242816925,-0.27514567971229553
1.7275261752416228e+18,-0.4939996600151062,0.017499135807156563,-0.2733030319213867
1.727526175247623e+18,-0.4913167655467987,0.015355221927165985,-0.2724498212337494
1.727526175253623e+18,-0.4843362867832184,0.02018721029162407,-0.27631720900535583
1.7275261752596232e+18,-0.480953574180603,0.018888844177126884,-0.2760680019855499
1.7275261752626232e+18,-0.47710132598876953,0.01774478890001774,-0.27749013900756836
1.7275261752686234e+18,-0.47526729106903076,0.01841215044260025,-0.2764211595058441
1.7275261752746235e+18,-0.4832860231399536,0.016688045114278793,-0.2772676646709442
1.7275261752806236e+18,-0.4879831373691559,0.018740540370345116,-0.2812708616256714
1.7275261752836237e+18,-0.4930580258369446,0.017746154218912125,-0.27870991826057434
1.7275261752896238e+18,-0.5003367066383362,0.019222943112254143,-0.27960148453712463
1.727526175295624e+18,-0.5012052059173584,0.0168437696993351,-0.28069886565208435
1.727526175301624e+18,-0.49631884694099426,0.016634732484817505,-0.28138959407806396
1.7275261753076242e+18,-0.48329365253448486,0.017760202288627625,-0.2788441479206085
1.7275261753106243e+18,-0.4686710834503174,0.017849665135145187,-0.282425194978714
1.7275261753166244e+18,-0.4468715488910675,0.01624368131160736,-0.2839506268501282
1.7275261753226245e+18,-0.4201943874359131,0.014887346886098385,-0.28314974904060364
1.7275261753286246e+18,-0.3957637548446655,0.013488257303833961,-0.2842625379562378
1.7275261753316247e+18,-0.3843175172805786,0.011167447082698345,-0.2846907079219818
1.7275261753376248e+18,-0.36451706290245056,0.011015390045940876,-0.28472205996513367
1.727526175343625e+18,-0.34899789094924927,0.013873838819563389,-0.28181183338165283
1.727526175349625e+18,-0.34102800488471985,0.010702257044613361,-0.2815558612346649
1.7275261753526252e+18,-0.33627983927726746,0.00961669534444809,-0.28165340423583984
1.7275261753586253e+18,-0.33363476395606995,0.010825474746525288,-0.28482145071029663
1.7275261753646254e+18,-0.3227916359901428,0.008704740554094315,-0.28260567784309387
1.7275261753706255e+18,-0.31402847170829773,0.009882142767310143,-0.28138861060142517
1.7275261753736256e+18,-0.31016260385513306,0.0064467014744877815,-0.28295016288757324
1.7275261753796257e+18,-0.29279181361198425,0.00485124159604311,-0.280194491147995
1.7275261753856259e+18,-0.27606040239334106,0.008777095004916191,-0.2781999111175537
1.727526175391626e+18,-0.251776784658432,0.005609439220279455,-0.27883195877075195
1.727526175394626e+18,-0.24397620558738708,0.0038542128168046474,-0.28126001358032227
1.7275261754006262e+18,-0.22245165705680847,0.0025455376598984003,-0.28216907382011414
1.7275261754066263e+18,-0.20344959199428558,0.0026757228188216686,-0.28254440426826477
1.7275261754126264e+18,-0.18836967647075653,0.005179386120289564,-0.2804412245750427
1.7275261754186266e+18,-0.1790698915719986,0.0022621508687734604,-0.27977868914604187
1.7275261754216266e+18,-0.17139559984207153,0.0018126082140952349,-0.28244733810424805
1.7275261754276268e+18,-0.16443592309951782,0.003944274969398975,-0.2779299318790436
1.727526175433627e+18,-0.16305947303771973,0.003130268771201372,-0.2808836102485657
1.727526175439627e+18,-0.15464559197425842,0.0027384774293750525,-0.28229138255119324
1.727526175442627e+18,-0.15102516114711761,-0.0030214411672204733,-0.27871376276016235
1.7275261754486272e+18,-0.14620910584926605,-0.0008385430555790663,-0.27826449275016785
1.7275261754546273e+18,-0.13530446588993073,-0.0021363559644669294,-0.27718639373779297
1.7275261754606275e+18,-0.1233527809381485,0.00017556967213749886,-0.2726234495639801
1.7275261754666276e+18,-0.1084587424993515,-0.0018163654021918774,-0.2745044529438019
1.7275261754726277e+18,-0.09292208403348923,-0.0019577592611312866,-0.2760620713233948
1.7275261754756278e+18,-0.0883253738284111,-0.004468402359634638,-0.2737574577331543
1.727526175481628e+18,-0.0780191719532013,-0.004777736961841583,-0.2716381251811981
1.727526175487628e+18,-0.06718658655881882,-0.0011242014588788152,-0.268110066652298
1.7275261754936282e+18,-0.0635649561882019,-0.001368663040921092,-0.27101200819015503
1.7275261754966282e+18,-0.06067861616611481,-0.005012412089854479,-0.2723925709724426
1.7275261755026284e+18,-0.059254638850688934,-0.0032343827188014984,-0.2701323926448822
1.7275261755086285e+18,-0.05954299122095108,-0.004613390192389488,-0.2683722674846649
1.7275261755146286e+18,-0.06041816622018814,-0.0056814635172486305,-0.26742076873779297
1.7275261755176287e+18,-0.05936703830957413,-0.003554572118446231,-0.26585033535957336
1.7275261755236288e+18,-0.05268995463848114,-0.0051970649510622025,-0.2659702003002167
1.727526175529629e+18,-0.05061061307787895,-0.0048314714804291725,-0.2620028555393219
1.727526175535629e+18,-0.041661474853754044,-0.0034477522131055593,-0.2661905586719513
1.7275261755416292e+18,-0.035729940980672836,-0.0031493334099650383,-0.26246729493141174
1.7275261755446292e+18,-0.03258899599313736,-0.004716741852462292,-0.25974419713020325
1.7275261755506294e+18,-0.024786585941910744,-0.005539936013519764,-0.2598148584365845
1.7275261755566295e+18,-0.019588133320212364,-0.004536141641438007,-0.2590061128139496
1.7275261755626296e+18,-0.01584438607096672,-0.004122409038245678,-0.25673630833625793
1.7275261755686298e+18,-0.010819457471370697,-0.003999019972980022,-0.25548920035362244
1.7275261755716298e+18,-0.018762513995170593,-0.005107892211526632,-0.2547644376754761
1.72752617557763e+18,-0.015611797571182251,-0.0025704936124384403,-0.25411322712898254
1.72752617558363e+18,-0.016323739662766457,-0.0021243621595203876,-0.2523480951786041
1.7275261755896302e+18,-0.018325066193938255,-0.0025350754149258137,-0.2482975572347641
1.7275261755926303e+18,-0.01973608322441578,-0.0020168861374258995,-0.2483261227607727
1.7275261755986304e+18,-0.01718750223517418,-0.0015499349683523178,-0.2474677413702011
1.7275261756046305e+18,-0.014183655381202698,-0.0009690099395811558,-0.2447378933429718
1.7275261756106307e+18,-0.009953412227332592,-0.003811027156189084,-0.24488753080368042
1.7275261756166308e+18,-0.005772720091044903,-0.0023650568909943104,-0.24311953783035278
1.7275261756196308e+18,-0.0022974112071096897,-0.002113888505846262,-0.2421845644712448
1.727526175625631e+18,-0.0016454270808026195,-0.0023017502389848232,-0.23994378745555878
1.727526175631631e+18,0.0032862122170627117,-0.000793700572103262,-0.2399647980928421
1.7275261756376312e+18,0.0012865447206422687,-0.0010140629019588232,-0.23715665936470032
1.7275261756406313e+18,0.0007085088873282075,-0.004283464513719082,-0.2335728108882904
1.7275261756466314e+18,0.0007602258119732141,-0.0029533402994275093,-0.2348298728466034
1.7275261756526316e+18,0.0010850939434021711,0.00041609047912061214,-0.23576366901397705
1.7275261756586317e+18,-0.002031829906627536,-0.002747930586338043,-0.23098570108413696
1.7275261756646318e+18,-0.0025890949182212353,-0.0006230908911675215,-0.22960375249385834
1.7275261756676319e+18,-0.003444751724600792,-0.005046156235039234,-0.2287522852420807
1.727526175673632e+18,-0.0027706781402230263,-0.00200146296992898,-0.22475822269916534
1.7275261756796321e+18,-0.00045884057180956006,-0.0028944024816155434,-0.22542020678520203
1.7275261756856323e+18,-0.0023120171390473843,-0.0024149217642843723,-0.22378972172737122
1.7275261756916324e+18,0.004128542263060808,4.359695594757795e-05,-0.22145365178585052
1.7275261756946324e+18,0.0033170809037983418,-0.0013962574303150177,-0.221374049782753
1.7275261757006326e+18,0.006711495574563742,5.117134423926473e-05,-0.21703466773033142
1.7275261757066327e+18,0.008470151573419571,-0.002338550053536892,-0.21644102036952972
1.7275261757096328e+18,0.008852574974298477,-0.0024142584297806025,-0.21458323299884796
1.727526175715633e+18,0.0069255828857421875,0.0007245843298733234,-0.2151845544576645
1.727526175721633e+18,0.006195335183292627,0.0011632571695372462,-0.21534965932369232
1.727526175724633e+18,0.005040131043642759,-0.002110324800014496,-0.2098948061466217
1.7275261757306332e+18,0.0018793134950101376,-0.0016809761291369796,-0.20941054821014404
1.7275261757366333e+18,0.000977186718955636,-0.0006843208102509379,-0.2094261199235916
1.7275261757426335e+18,-0.0030035858508199453,-0.0025337624829262495,-0.20577703416347504
1.7275261757486336e+18,-0.00041278149001300335,0.0023194209206849337,-0.20154710114002228
1.7275261757546337e+18,0.0004070514696650207,-0.001960321795195341,-0.20135971903800964
1.7275261757576338e+18,0.0031595267355442047,-0.001710708485916257,-0.20030683279037476
1.727526175763634e+18,0.0049788556061685085,0.0009435347164981067,-0.1988232582807541
1.727526175769634e+18,0.006428101100027561,4.21722506871447e-05,-0.1955687254667282
1.7275261757756342e+18,0.009686890058219433,0.0013889215188100934,-0.19477924704551697
1.7275261757786342e+18,0.009838453494012356,-0.00390334939584136,-0.1942906230688095
1.7275261757846344e+18,0.009035725146532059,3.8431084249168634e-05,-0.19179093837738037
1.7275261757906345e+18,0.004171100445091724,0.0013911779969930649,-0.187436044216156
1.7275261757966346e+18,0.002328956499695778,0.0006532308179885149,-0.1833268702030182
1.7275261758026348e+18,-0.0033359979279339314,0.0012756502255797386,-0.18349400162696838
1.7275261758056348e+18,0.0002822775859385729,-0.0024062786251306534,-0.18000702559947968
1.727526175811635e+18,-0.0037929469253867865,0.0005484075518324971,-0.1819397211074829
1.727526175817635e+18,-0.0010492135770618916,0.0014483568957075477,-0.17829912900924683
1.7275261758236352e+18,0.0007440145127475262,-0.0018022964941337705,-0.17932838201522827
1.7275261758266353e+18,9.688164573162794e-05,-0.0002994178794324398,-0.17604927718639374
1.7275261758326354e+18,0.002881864784285426,-0.000797454675193876,-0.17862612009048462
1.7275261758386355e+18,0.003077572211623192,0.0015943931648507714,-0.17544306814670563
1.7275261758446356e+18,0.00630692346021533,0.0002541286521591246,-0.17271679639816284
1.7275261758506358e+18,0.007348028011620045,-0.00052163953660056,-0.16840137541294098
1.727526175856636e+18,0.004806097596883774,-0.0014480648096650839,-0.1662755310535431
1.727526175859636e+18,6.429385393857956e-05,-0.0001895258028525859,-0.16729500889778137
1.727526175865636e+18,-0.000571822514757514,0.0008846071432344615,-0.16636116802692413
1.7275261758716362e+18,0.0004929170245304704,-0.002827848307788372,-0.16381050646305084
1.7275261758776364e+18,-0.006125069689005613,-0.0025943159125745296,-0.16003526747226715
1.7275261758806364e+18,-0.005315984599292278,0.00031015253625810146,-0.16311559081077576
1.7275261758866365e+18,-0.002758025424554944,-0.000974631286226213,-0.15761436522006989
1.7275261758926367e+18,-0.0022086009848862886,-8.095940575003624e-05,-0.15500852465629578
1.7275261758986368e+18,0.0021690314169973135,0.000747458660043776,-0.15613320469856262
1.727526175904637e+18,0.002399733290076256,-0.0026446536649018526,-0.15180066227912903
1.727526175907637e+18,0.0014629049692302942,0.003083127550780773,-0.15105833113193512
1.727526175913637e+18,0.0010318381246179342,0.0001963709364645183,-0.14937295019626617
1.7275261759196372e+18,0.005276232957839966,-0.0002546502510085702,-0.14793890714645386
1.7275261759256374e+18,0.003476100042462349,-0.002410067245364189,-0.14596746861934662
1.7275261759286374e+18,0.00703740119934082,-3.613875014707446e-05,-0.14639583230018616
1.7275261759346376e+18,0.0012099030427634716,0.002859352622181177,-0.1411985158920288
1.7275261759406377e+18,0.0010853296844288707,0.0022231361363083124,-0.13928815722465515
1.7275261759466378e+18,0.0008209550869651139,-0.0007957261987030506,-0.14005422592163086
1.727526175952638e+18,-0.0038196733221411705,0.0020574985537678003,-0.13564638793468475
1.727526175958638e+18,-0.0027578496374189854,-0.005712809041142464,-0.134092777967453
1.7275261759616381e+18,-0.0033011450432240963,-0.0005616009002551436,-0.13415440917015076
1.7275261759676383e+18,-0.0032681350130587816,-2.5138026103377342e-05,-0.13319337368011475
1.7275261759736384e+18,0.0017018889775499701,0.0009515586425550282,-0.1330145001411438
1.7275261759796385e+18,0.0014017963549122214,-0.0018235635943710804,-0.12944583594799042
1.7275261759856387e+18,-0.0011437390930950642,0.0005385361146181822,-0.126885786652565
1.7275261759886387e+18,0.0005498153041116893,-0.0016441990155726671,-0.12561120092868805
1.7275261759946388e+18,0.0011042242404073477,-0.0001905533717945218,-0.12448778003454208
1.727526176000639e+18,0.0016416849102824926,0.0025851193349808455,-0.12584640085697174
1.727526176003639e+18,0.0015701963566243649,0.0034776199609041214,-0.12427918612957001
1.7275261760096392e+18,0.001325025106780231,-0.00011444883421063423,-0.11991585046052933
1.7275261760156393e+18,-0.00225959625095129,-0.0020131526980549097,-0.11956769973039627
1.7275261760216394e+18,-0.0028464628849178553,-0.0015265101101249456,-0.11830709129571915
1.7275261760246395e+18,0.0036262546200305223,-0.00035981537075713277,-0.11645204573869705
1.7275261760306396e+18,-0.0033483209554105997,0.00034492617123760283,-0.11247310042381287
1.7275261760366397e+18,-0.0006586899980902672,0.002777233486995101,-0.11403519660234451
1.72752617604264e+18,-0.0007093444583006203,0.0005336813046596944,-0.11014062911272049
1.72752617604864e+18,1.5483994502574205e-05,0.0005699328612536192,-0.10792351514101028
1.72752617605464e+18,-0.001054225955158472,-0.0012822835706174374,-0.11344154179096222
1.7275261760606403e+18,-0.00029481432284228504,-0.0016721762949600816,-0.10883709788322449
1.7275261760666404e+18,-0.0004976455820724368,-0.000988696701824665,-0.10446106642484665
1.7275261760696404e+18,-0.0004122518002986908,-0.0011719781905412674,-0.10559838265180588
1.7275261760756406e+18,-0.0034961458295583725,-0.001921915216371417,-0.10587846487760544
1.7275261760816407e+18,-0.0012475373223423958,0.0009187341784127057,-0.10236387699842453
1.7275261760876408e+18,-0.0011455068597570062,0.0033850616309791803,-0.10124590247869492
1.727526176090641e+18,0.0018984326161444187,-8.634180994704366e-05,-0.09893708676099777
1.727526176096641e+18,-1.5481491573154926e-06,-0.001044130651280284,-0.0970858633518219
1.7275261761026412e+18,-0.000359336961992085,0.0018904982134699821,-0.09837637096643448
1.7275261761086413e+18,0.000931205169763416,-0.004331983160227537,-0.09235309064388275
1.7275261761116413e+18,-0.0012998221209272742,0.0005157047417014837,-0.0951370969414711
1.7275261761176415e+18,-0.0011680081952363253,-0.00041261111618950963,-0.09194697439670563
1.7275261761236416e+18,0.00018417771207168698,-4.941027145832777e-05,-0.09175495058298111
1.7275261761296417e+18,-0.0007591109024360776,-0.0029689925722777843,-0.09076633304357529
1.7275261761356419e+18,-0.001778752077370882,-0.0037865450140088797,-0.09087217599153519
1.727526176138642e+18,-6.466064951382577e-05,-0.0005085115553811193,-0.08953424543142319
1.727526176144642e+18,-0.0028800591826438904,-5.039095412939787e-05,-0.08486934006214142
1.7275261761506422e+18,0.0033101357985287905,0.0020031100139021873,-0.08666440844535828
1.7275261761566423e+18,0.013105351477861404,0.0004675766685977578,-0.08336007595062256
1.7275261761596424e+18,0.015356039628386497,-0.0007239122642204165,-0.08309409767389297
1.7275261761656425e+18,0.023362817242741585,-0.0015688259154558182,-0.08242572098970413
1.7275261761716426e+18,0.03708077222108841,-0.001954459585249424,-0.08081270009279251
1.7275261761746427e+18,0.04966169595718384,0.00040105346124619246,-0.0804411917924881
1.7275261761806428e+18,0.07327598333358765,0.004250070080161095,-0.08194127678871155
1.727526176186643e+18,0.09487872570753098,0.002502068178728223,-0.07709307223558426
1.727526176192643e+18,0.12023013085126877,0.0027227033860981464,-0.07655414193868637
1.7275261761986432e+18,0.16560809314250946,0.007169268559664488,-0.07434803247451782
1.7275261762016433e+18,0.1953342854976654,0.008102359250187874,-0.0778777152299881
1.7275261762076434e+18,0.24790549278259277,0.011815200559794903,-0.07371586561203003
1.7275261762136435e+18,0.30810803174972534,0.010028247721493244,-0.07386914640665054
1.7275261762196436e+18,0.36751171946525574,0.013065573759377003,-0.07144465297460556
1.7275261762226437e+18,0.3916746973991394,0.016069550067186356,-0.07099466770887375
1.7275261762286438e+18,0.4323453903198242,0.01641848497092724,-0.0717729702591896
1.727526176234644e+18,0.4655313491821289,0.01784622110426426,-0.0713060051202774
1.727526176240644e+18,0.48014625906944275,0.01954716257750988,-0.06906311213970184
1.7275261762466442e+18,0.48856011033058167,0.0163932666182518,-0.06763193011283875
1.7275261762526444e+18,0.4874928891658783,0.018481092527508736,-0.06790215522050858
1.7275261762556444e+18,0.4900864362716675,0.019983110949397087,-0.0631398931145668
1.7275261762616445e+18,0.49091601371765137,0.021353386342525482,-0.06570225208997726
1.7275261762676447e+18,0.4978030323982239,0.02419869229197502,-0.062050871551036835
1.7275261762736448e+18,0.5081971883773804,0.0243533868342638,-0.06410925090312958
1.727526176279645e+18,0.5365540981292725,0.02438192442059517,-0.06475614011287689
1.727526176282645e+18,0.5517351627349854,0.023448169231414795,-0.0631357729434967
1.727526176288645e+18,0.5839000940322876,0.0270652137696743,-0.06202569603919983
1.7275261762946452e+18,0.616375207901001,0.028320416808128357,-0.06039569899439812
1.7275261763006454e+18,0.6385171413421631,0.025720277801156044,-0.059650834649801254
1.7275261763036454e+18,0.6488459706306458,0.024755537509918213,-0.05850737541913986
1.7275261763096456e+18,0.656039834022522,0.02506595477461815,-0.057341884821653366
1.7275261763156457e+18,0.6579756736755371,0.025949984788894653,-0.057738177478313446
1.7275261763216458e+18,0.6480911374092102,0.02599906176328659,-0.05945105105638504
1.727526176327646e+18,0.6338697075843811,0.02492130547761917,-0.05821208283305168
1.727526176330646e+18,0.6224154829978943,0.028641995042562485,-0.05501999706029892
1.7275261763366461e+18,0.6079782843589783,0.02679590694606304,-0.0567476749420166
1.7275261763426463e+18,0.5902979969978333,0.03106882981956005,-0.054803747683763504
1.7275261763486464e+18,0.5765474438667297,0.028107738122344017,-0.055301569402217865
1.7275261763516465e+18,0.5736661553382874,0.025089861825108528,-0.05566845461726189
1.7275261763576466e+18,0.5613657832145691,0.025850465521216393,-0.05439363047480583
1.7275261763636467e+18,0.5541806817054749,0.0267629437148571,-0.052866362035274506
1.7275261763696468e+18,0.5396021604537964,0.024535948410630226,-0.05392616242170334
1.727526176375647e+18,0.5301646590232849,0.02434619702398777,-0.05065711587667465
1.727526176378647e+18,0.5182531476020813,0.024244209751486778,-0.05252320319414139
1.7275261763846472e+18,0.4926537871360779,0.02078806795179844,-0.05120495706796646
1.7275261763906473e+18,0.45334839820861816,0.02136046625673771,-0.04856789857149124
1.7275261763966474e+18,0.4123792052268982,0.019295597448945045,-0.05231127887964249
1.7275261764026476e+18,0.37598684430122375,0.020961446687579155,-0.051624540239572525
1.7275261764056476e+18,0.34791696071624756,0.01938646472990513,-0.049252189695835114
1.7275261764116477e+18,0.3048219382762909,0.021198276430368423,-0.04725777357816696
1.7275261764176479e+18,0.2630961537361145,0.016343342140316963,-0.050916969776153564
1.727526176423648e+18,0.22216251492500305,0.016858844086527824,-0.05022544413805008
1.727526176426648e+18,0.20037616789340973,0.013393329456448555,-0.04797569289803505
1.7275261764326482e+18,0.1694294810295105,0.014958025887608528,-0.046224355697631836
1.7275261764386483e+18,0.14195682108402252,0.011859861202538013,-0.04692528024315834
1.7275261764446484e+18,0.11431394517421722,0.010288228280842304,-0.048994336277246475
1.7275261764476485e+18,0.09920203685760498,0.0080539146438241,-0.04918786138296127
1.7275261764536486e+18,0.07352155447006226,0.005838718265295029,-0.0479096919298172
1.7275261764596488e+18,0.051960092037916183,0.006633917801082134,-0.046275120228528976
1.727526176465649e+18,0.02380935102701187,0.004897703882306814,-0.047521304339170456
1.727526176468649e+18,0.007562956772744656,0.0019499009940773249,-0.04716400057077408
1.727526176474649e+18,-0.021047458052635193,0.005529124289751053,-0.0442553274333477
1.7275261764806492e+18,-0.05041809007525444,0.005238181911408901,-0.04520457983016968
1.7275261764836493e+18,-0.06158901005983353,0.002818274311721325,-0.04556063190102577
1.7275261764896494e+18,-0.09690029919147491,0.006472550332546234,-0.04742657020688057
1.7275261764956495e+18,-0.1238023191690445,0.0013102579396218061,-0.04766584560275078
1.7275261765016497e+18,-0.1433301419019699,0.004619590938091278,-0.04408418759703636
1.7275261765076498e+18,-0.16746088862419128,0.0025375904515385628,-0.044998347759246826
1.7275261765106499e+18,-0.18402984738349915,-0.0013054306618869305,-0.045446306467056274
1.72752617651665e+18,-0.21192696690559387,-0.0036100149154663086,-0.0435500331223011
1.72752617652265e+18,-0.23926207423210144,-0.005116197746247053,-0.047763071954250336
1.7275261765286502e+18,-0.2651378810405731,-0.007406271994113922,-0.04512348026037216
1.7275261765316503e+18,-0.28019142150878906,-0.01023130863904953,-0.04225696623325348
1.7275261765376504e+18,-0.30477869510650635,-0.00803974736481905,-0.046187873929739
1.7275261765436506e+18,-0.32529014348983765,-0.009112074971199036,-0.0444246269762516
1.7275261765496507e+18,-0.33747899532318115,-0.010111678391695023,-0.04296968877315521
1.7275261765526508e+18,-0.3484187424182892,-0.00774768553674221,-0.04477627947926521
1.727526176558651e+18,-0.3568252921104431,-0.007886569015681744,-0.043030571192502975
1.727526176564651e+18,-0.36205217242240906,-0.0077242618426680565,-0.04609077051281929
1.7275261765706511e+18,-0.3633243441581726,-0.004906955175101757,-0.04704867675900459
1.7275261765766513e+18,-0.3624802827835083,-0.009903264231979847,-0.04547125846147537
1.7275261765796513e+18,-0.35790807008743286,-0.006958242040127516,-0.04355191811919212
1.7275261765856515e+18,-0.35262417793273926,-0.008808504790067673,-0.042220260947942734
1.7275261765916516e+18,-0.3512386679649353,-0.01011646632105112,-0.04638195037841797
1.7275261765976517e+18,-0.3578311502933502,-0.008160834200680256,-0.0454820953309536
1.7275261766036518e+18,-0.3631165623664856,-0.0119248665869236,-0.04601193219423294
1.727526176609652e+18,-0.3665221333503723,-0.012147757224738598,-0.04582986980676651
1.727526176612652e+18,-0.3723427951335907,-0.01292765885591507,-0.04710861295461655
1.7275261766186522e+18,-0.3835466206073761,-0.010446446016430855,-0.04653319716453552
1.7275261766246523e+18,-0.3889307677745819,-0.013110609725117683,-0.04652459919452667
1.7275261766306524e+18,-0.39920973777770996,-0.010882141999900341,-0.046145129948854446
1.7275261766366525e+18,-0.4017728567123413,-0.008361148647964,-0.0439985953271389
1.7275261766426527e+18,-0.4039839804172516,-0.00939371157437563,-0.044576067477464676
1.7275261766486528e+18,-0.4031970500946045,-0.008771284483373165,-0.04726354032754898
1.7275261766516529e+18,-0.3979133665561676,-0.0061652520671486855,-0.04452868923544884
1.727526176657653e+18,-0.3974354863166809,-0.010124684311449528,-0.04496321082115173
1.727526176663653e+18,-0.3912063241004944,-0.010603555478155613,-0.046503305435180664
1.7275261766696532e+18,-0.3885434865951538,-0.01299593411386013,-0.04627659544348717
1.7275261766756534e+18,-0.3861285150051117,-0.012152253650128841,-0.04621564596891403
1.7275261766816535e+18,-0.3864692151546478,-0.012163638137280941,-0.05057425796985626
1.7275261766876536e+18,-0.3903794288635254,-0.012125003151595592,-0.04948797449469566
1.7275261766906537e+18,-0.38902154564857483,-0.01253675390034914,-0.04816881939768791
1.7275261766966538e+18,-0.38869550824165344,-0.010705106891691685,-0.04977581650018692
1.727526176702654e+18,-0.3874948024749756,-0.009672186337411404,-0.04622909799218178
1.727526176708654e+18,-0.3805495500564575,-0.008555888198316097,-0.05094432458281517
1.7275261767146542e+18,-0.3709236979484558,-0.0075872610323131084,-0.05003209784626961
1.7275261767206543e+18,-0.36022064089775085,-0.009935721755027771,-0.052032869309186935
1.7275261767236544e+18,-0.3566250503063202,-0.010319538414478302,-0.04765992984175682
1.7275261767296545e+18,-0.34096258878707886,-0.009396304376423359,-0.05208856239914894
1.7275261767356547e+18,-0.32616126537323,-0.007646208629012108,-0.05169767513871193
1.7275261767416548e+18,-0.3180850148200989,-0.00922164786607027,-0.05284123122692108
1.7275261767446548e+18,-0.3089478015899658,-0.0072207082994282246,-0.052032921463251114
1.727526176750655e+18,-0.30256736278533936,-0.006937556900084019,-0.05271138995885849
1.727526176756655e+18,-0.28937986493110657,-0.007319780997931957,-0.05135861411690712
1.7275261767626552e+18,-0.2799726724624634,-0.006425564177334309,-0.0556970089673996
1.7275261767656553e+18,-0.27551907300949097,-0.006313364487141371,-0.05290502682328224
1.7275261767716554e+18,-0.2618764340877533,-0.005642848554998636,-0.053376875817775726
1.7275261767776556e+18,-0.2561722993850708,-0.0044901007786393166,-0.05336068198084831
1.7275261767836557e+18,-0.24383683502674103,-0.0022648528683930635,-0.05269915610551834
1.7275261767866557e+18,-0.23740807175636292,-0.004729270003736019,-0.055044934153556824
1.727526176792656e+18,-0.22396807372570038,-0.005403054412454367,-0.05194410681724548
1.727526176798656e+18,-0.21158193051815033,-0.006270446814596653,-0.056025002151727676
1.727526176804656e+18,-0.1986292451620102,-0.0026272707618772984,-0.05436393991112709
1.7275261768106563e+18,-0.1878676414489746,-0.0061512477695941925,-0.05371960252523422
1.7275261768136563e+18,-0.18135914206504822,-0.0033340833615511656,-0.05186011642217636
1.7275261768196564e+18,-0.16873051226139069,-0.0032559484243392944,-0.052804410457611084
1.7275261768256566e+18,-0.15873731672763824,-0.0031968988478183746,-0.05306083336472511
1.7275261768316567e+18,-0.14862287044525146,-0.004768896382302046,-0.05505026504397392
1.7275261768376568e+18,-0.138405442237854,0.0023466493003070354,-0.05506559833884239
1.727526176840657e+18,-0.13765928149223328,-0.0010035517625510693,-0.0522443912923336
1.727526176846657e+18,-0.13218000531196594,0.0011786480899900198,-0.05457216873764992
1.7275261768526572e+18,-0.12106416374444962,0.002307846676558256,-0.05389835312962532
1.7275261768556572e+18,-0.12021300196647644,0.0020097466185688972,-0.05010691285133362
1.7275261768616573e+18,-0.11191059648990631,0.0037733130156993866,-0.054227832704782486
1.7275261768676575e+18,-0.10475136339664459,0.0036624856293201447,-0.051053065806627274
1.7275261768736576e+18,-0.09311185032129288,0.0017452320316806436,-0.050505395978689194
1.7275261768796577e+18,-0.08538549393415451,0.005005772691220045,-0.05269358679652214
1.7275261768826578e+18,-0.08395761996507645,0.0019033665303140879,-0.04973200708627701
1.727526176888658e+18,-0.07716091722249985,0.0010336845880374312,-0.04869331791996956
1.727526176894658e+18,-0.06801795214414597,0.002241837326437235,-0.04786796495318413
1.7275261769006582e+18,-0.06497073173522949,0.0028172149322927,-0.04618237540125847
1.7275261769066583e+18,-0.06043195351958275,0.003623352386057377,-0.04564166069030762
1.7275261769096584e+18,-0.0588412880897522,0.006486476399004459,-0.04719960317015648
1.7275261769156585e+18,-0.05493951588869095,0.006472460925579071,-0.043541401624679565
1.7275261769216586e+18,-0.04669005796313286,0.0065357498824596405,-0.04230540618300438
1.7275261769276588e+18,-0.04448869824409485,0.00460594380274415,-0.04315953329205513
1.7275261769306588e+18,-0.042677223682403564,0.00830134842544794,-0.038185812532901764
1.727526176936659e+18,-0.03603237867355347,0.006982495076954365,-0.03567671775817871
1.727526176942659e+18,-0.03439726680517197,0.003419003449380398,-0.03480929508805275
1.7275261769486592e+18,-0.031277284026145935,0.005647898185998201,-0.035543303936719894
1.7275261769546593e+18,-0.02887161821126938,0.004213468637317419,-0.030784212052822113
1.7275261769576594e+18,-0.026311524212360382,0.0014996500685811043,-0.03283267840743065
1.7275261769636595e+18,-0.02487064339220524,0.007740935776382685,-0.0304142814129591
1.7275261769696596e+18,-0.02199089154601097,0.005293057765811682,-0.03113417699933052
1.7275261769756598e+18,-0.019943324849009514,0.007873764261603355,-0.024051416665315628
1.72752617698166e+18,-0.02281755395233631,0.005089160054922104,-0.026677999645471573
1.72752617698766e+18,-0.018126673996448517,0.006729968823492527,-0.024151308462023735
1.72752617699066e+18,-0.013245781883597374,0.007706411648541689,-0.02046690136194229
1.7275261769966602e+18,-0.0145400520414114,0.0029477179050445557,-0.02014893665909767
1.7275261770026604e+18,-0.009936726652085781,0.0018886005273088813,-0.016544083133339882
1.7275261770086605e+18,-0.010679108090698719,0.0004402984632179141,-0.016814809292554855
1.7275261770146606e+18,-0.009380456060171127,-0.0004468464758247137,-0.012585853226482868
1.7275261770236608e+18,-0.004932362120598555,1.9874656572937965e-05,-0.009484319016337395
1.7275261770266609e+18,-0.0038160057738423347,0.001336846500635147,-0.0069909063167870045
1.727526177035661e+18,-0.004457362927496433,0.0033358153887093067,-0.006494023837149143
1.7275261770416612e+18,-0.0016864544013515115,0.0026369576808065176,-0.0004966408014297485
1.7275261770476613e+18,-0.001288066734559834,0.008781960234045982,-0.00013872010458726436
1.7275261770536614e+18,-0.005898425355553627,0.006190144456923008,0.0001523691462352872
1.7275261770596616e+18,-0.000312723102979362,0.0028676711954176426,0.004814030136913061
1.7275261770656617e+18,0.0006140732439234853,0.001124104717746377,0.004922638647258282
1.7275261770716618e+18,0.0005664760246872902,0.00019112549489364028,0.009756472893059254
1.727526177077662e+18,0.00110436393879354,-0.0019733100198209286,0.007901581935584545
1.727526177083662e+18,0.0006005892064422369,-0.003679202403873205,0.013945345766842365
1.7275261770896622e+18,0.001956081949174404,-0.002838646760210395,0.013841621577739716
1.7275261770926623e+18,0.0006081298342905939,-0.0033848611637949944,0.018350373953580856
1.7275261770986624e+18,8.949183393269777e-05,-0.001732820295728743,0.02103709615767002
1.7275261771046625e+18,0.0027948454953730106,-0.0028974958695471287,0.023120515048503876
1.7275261771106627e+18,0.0014067115262150764,-0.001434597885236144,0.024999577552080154
1.7275261771166628e+18,0.0022733216173946857,-0.0026907999999821186,0.02506283111870289
1.727526177122663e+18,0.0016969277057796717,-0.0011345073580741882,0.028683137148618698
1.727526177128663e+18,0.003808960085734725,0.00027906359173357487,0.03048105165362358
1.7275261771346632e+18,0.0021802238188683987,-0.0005746164824813604,0.034442607313394547
1.7275261771436634e+18,0.0034206858836114407,-0.0023902819957584143,0.036527473479509354
1.7275261771496635e+18,-0.0014916188083589077,-0.005171129945665598,0.03953661397099495
1.7275261771556636e+18,0.0024163187481462955,-0.0032475627958774567,0.03844648599624634
1.7275261771616637e+18,0.00016325479373335838,-0.0075938766822218895,0.040490858256816864
1.727526177170664e+18,0.0003651909064501524,-0.0047044879756867886,0.0443255715072155
1.727526177176664e+18,0.0028249965980648994,-0.005104829091578722,0.04621019586920738
1.7275261771856643e+18,0.0024919561110436916,-0.005876427050679922,0.04697698354721069
1.7275261771916644e+18,0.0019464562647044659,-0.0028484759386628866,0.05109483376145363
1.7275261772006646e+18,0.00016826565843075514,-0.003576725721359253,0.05249291658401489
1.7275261772066647e+18,0.0006691416492685676,-0.005482580978423357,0.05567855387926102
1.7275261772126648e+18,0.002173788845539093,-0.003962825518101454,0.0529918372631073
1.727526177218665e+18,-0.0023032519966363907,-0.006690101698040962,0.05615035071969032
1.727526177221665e+18,-0.00168618222232908,-0.005880245938897133,0.057165421545505524
1.7275261772306652e+18,-0.0017835245234891772,-0.004887295886874199,0.06164729595184326
1.7275261772396654e+18,0.003667163662612438,-0.006391455885022879,0.06251127272844315
1.7275261772456655e+18,0.001998693449422717,-0.005948564503341913,0.060432642698287964
1.7275261772516657e+18,0.002966164378449321,-0.008283167146146297,0.06492673605680466
1.7275261772546657e+18,0.00198308564722538,-0.0046968297101557255,0.06276676803827286
1.727526177263666e+18,0.0017271493561565876,-0.005009838379919529,0.06334807723760605
1.727526177266666e+18,0.0020678360015153885,-0.004478807095438242,0.06308965384960175
1.727526177272666e+18,0.0002986365288961679,-0.0053122458048164845,0.06775643676519394
1.7275261772786662e+18,-5.407002754509449e-05,-0.0008485477883368731,0.06694193929433823
1.7275261772876664e+18,-0.0037535892333835363,-0.005732693709433079,0.06750353425741196
1.7275261772906665e+18,-0.004580222070217133,-0.006646079011261463,0.068427175283432
1.7275261772966666e+18,-0.0013231078628450632,-0.0035786351654678583,0.06907772272825241
1.7275261773056668e+18,-0.0017417140770703554,-0.005523685831576586,0.06818801164627075
1.727526177311667e+18,0.0006669708527624607,-0.006601753644645214,0.07201307266950607
1.727526177317667e+18,0.0003909233782906085,-0.005133237689733505,0.07474149763584137
1.7275261773236672e+18,0.00332067278213799,-0.004718162585049868,0.07091111689805984
1.7275261773296673e+18,0.0025676414370536804,-0.004293466452509165,0.07299510389566422
1.7275261773356675e+18,0.0008912574267014861,-0.001011229818686843,0.0770980715751648
1.7275261773416676e+18,0.0010252923239022493,-0.003857002127915621,0.07423407584428787
1.7275261773476677e+18,-0.0001824675127863884,-0.0001356620341539383,0.07284121960401535
1.7275261773536678e+18,-0.00045596377458423376,-0.006336604245007038,0.07450977712869644
1.727526177359668e+18,-0.002968367887660861,-0.0022534639574587345,0.07078991085290909
1.727526177365668e+18,-0.004398681223392487,-0.004429483786225319,0.07106644660234451
1.7275261773716682e+18,-0.004520938731729984,-0.005587308667600155,0.07342858612537384
1.7275261773776684e+18,-0.0016887739766389132,-0.002824928145855665,0.07539622485637665
1.7275261773866685e+18,-0.0007654346991330385,-0.003747953101992607,0.0731717050075531
1.7275261773926687e+18,0.0013611414469778538,-0.0005089149344712496,0.07229305803775787
1.7275261774016689e+18,0.002138415351510048,-0.0030131086241453886,0.07431073486804962
1.727526177407669e+18,-0.001200470607727766,-0.0020775545854121447,0.0700891837477684
1.727526177413669e+18,-0.0028823779430240393,-0.001985821407288313,0.07383422553539276
1.7275261774196692e+18,-0.0021801404654979706,-0.004003535024821758,0.07017488777637482
1.7275261774256694e+18,-0.0023538214154541492,-0.001889549195766449,0.06885471194982529
1.7275261774316695e+18,-0.005917203612625599,-0.0034181694500148296,0.0715564414858818
1.7275261774406697e+18,-0.005788810551166534,-0.003492784919217229,0.07038865238428116
1.7275261774466698e+18,-0.0035026029217988253,0.00046930438838899136,0.06651138514280319
1.72752617745267e+18,-0.005957116838544607,-0.0006481100572273135,0.06482118368148804
1.72752617745867e+18,-0.00041847952525131404,-0.0031904394272714853,0.06736346334218979
1.7275261774646702e+18,-0.0016632283804938197,-0.0025777239352464676,0.06770343333482742
1.7275261774736704e+18,0.0016574221663177013,-0.0020745880901813507,0.06438875198364258
1.7275261774796705e+18,0.0004462405340746045,0.0007943958044052124,0.06521065533161163
1.7275261774856707e+18,0.000667465035803616,-0.0032147755846381187,0.062318991869688034
1.7275261774916708e+18,-0.002335160505026579,0.0013261662097647786,0.06520228087902069
1.727526177497671e+18,-0.002594754798337817,-0.0014367608819156885,0.06295911222696304
1.727526177503671e+18,-0.0027109775692224503,0.0002492399653419852,0.06057295203208923
1.7275261775096712e+18,-0.0071906279772520065,-0.0001866703969426453,0.05723582208156586
1.7275261775186714e+18,-0.002993777859956026,0.0004806631477549672,0.05556083843111992
1.7275261775246715e+18,-0.0040397425182163715,-0.00028709182515740395,0.05855609476566315
1.7275261775306716e+18,-0.0013890835689380765,0.0027921171858906746,0.05729508399963379
1.7275261775366717e+18,0.002214105799794197,0.0014805389801040292,0.05458739772439003
1.727526177542672e+18,0.0012476850533857942,-0.003337626112625003,0.05275868624448776
1.727526177551672e+18,0.0012097812723368406,-0.0012859051348641515,0.05041789263486862
1.7275261775576722e+18,-0.00243341363966465,-0.00044103292748332024,0.04876689240336418
1.7275261775636723e+18,-0.0006693040486425161,0.0020603365264832973,0.04701995104551315
1.7275261775726725e+18,-0.0037767612375319004,-0.0019047465175390244,0.044077593833208084
1.7275261775786726e+18,-0.004014801699668169,0.0008919578976929188,0.047147247940301895
1.7275261775846728e+18,-0.0037081982009112835,-0.0011335908202454448,0.04482186585664749
1.727526177593673e+18,-0.005404116585850716,0.0017953336937353015,0.038363996893167496
1.727526177599673e+18,-0.0011469279415905476,0.0020464700646698475,0.03944623842835426
1.7275261776056732e+18,-0.002745815319940448,-0.0009640189236961305,0.0389774851500988
1.7275261776116733e+18,0.0024043272715061903,-0.0005844273837283254,0.03391439467668533
1.7275261776176735e+18,0.0020332143176347017,-0.0027229594998061657,0.03561006113886833
1.7275261776236736e+18,-0.0025906122755259275,-0.0020807499531656504,0.031657811254262924
1.7275261776266737e+18,-0.0024505772162228823,-0.0009941327152773738,0.0307998638600111
1.7275261776326738e+18,-0.0031226787250488997,0.0017691395478323102,0.0323118194937706
1.727526177638674e+18,-0.005084996577352285,-0.002370985457673669,0.0279396865516901
1.727526177644674e+18,-0.0030957525596022606,0.0014685760252177715,0.028273290023207664
1.727526177647674e+18,-0.0038531366735696793,-0.0005521985003724694,0.026673449203372
1.7275261776536742e+18,-0.0051373983733356,0.0010492629371583462,0.020979810506105423
1.7275261776596744e+18,0.0002517467364668846,-0.0010035575833171606,0.02149212546646595
1.7275261776656745e+18,-0.0009107710793614388,-0.0011929708998650312,0.0199612844735384
1.7275261776716746e+18,0.0004446703242138028,0.000626736378762871,0.01937269978225231
1.7275261776746747e+18,-0.0010811693500727415,-0.0011461712419986725,0.017342614009976387
1.7275261776806748e+18,-0.0005016279174014926,-0.000449994346126914,0.016901211813092232
1.727526177686675e+18,-0.0022040836047381163,-0.0015381262637674809,0.013641283847391605
1.727526177692675e+18,-0.001965387025848031,-0.0008371694129891694,0.013555510900914669
1.7275261776956751e+18,-0.005152447614818811,-0.0025214431807398796,0.011438111774623394
1.7275261777016753e+18,-0.005598912015557289,-0.0007925478857941926,0.01157204806804657
1.7275261777076754e+18,-0.013383826240897179,-0.001264188438653946,0.007370431907474995
1.7275261777136755e+18,-0.02184053137898445,-0.003656262531876564,0.0048650773242115974
1.7275261777196756e+18,-0.033929891884326935,0.0010145556880161166,0.002030359348282218
1.7275261777226757e+18,-0.03847229853272438,0.0012503985781222582,0.0014745318330824375
1.7275261777286758e+18,-0.053862374275922775,-0.0003669508150778711,0.0016787718050181866
1.727526177734676e+18,-0.07241357117891312,-0.0018189239781349897,0.0007491142605431378
1.727526177740676e+18,-0.08977547287940979,9.631257853470743e-05,-0.0013407178921625018
1.7275261777466762e+18,-0.10512799769639969,0.0001198837417177856,-0.0023977598175406456
1.7275261777526764e+18,-0.12415718287229538,-0.0020953109487891197,-0.006177605129778385
1.7275261777556764e+18,-0.13184115290641785,-0.0014356228057295084,-0.00598764605820179
1.7275261777616765e+18,-0.1417664885520935,-0.0014954396756365895,-0.011030543595552444
1.7275261777676767e+18,-0.15910577774047852,-0.0009716780041344464,-0.007155038416385651
1.7275261777736768e+18,-0.17351986467838287,-0.0005692267441190779,-0.014374423772096634
1.7275261777766769e+18,-0.18014563620090485,-0.001232443144544959,-0.014841859228909016
1.727526177782677e+18,-0.19809181988239288,0.0012871468206867576,-0.015826856717467308
1.727526177788677e+18,-0.21821017563343048,-0.0032618867699056864,-0.017044831067323685
1.7275261777946772e+18,-0.24313922226428986,0.00025799009017646313,-0.018926002085208893
1.7275261778006774e+18,-0.2651078701019287,-0.004050283692777157,-0.020406337454915047
1.7275261778066775e+18,-0.2988540530204773,-6.297599611571059e-05,-0.019955838099122047
1.7275261778096776e+18,-0.3192044794559479,0.00016222284466493875,-0.025585811585187912
1.7275261778156777e+18,-0.3642556667327881,0.0009039930300787091,-0.02998199686408043
1.7275261778216778e+18,-0.40054118633270264,0.0005762424552813172,-0.026922622695565224
1.727526177827678e+18,-0.43285104632377625,0.002663026098161936,-0.028249770402908325
1.727526177833678e+18,-0.46356698870658875,0.0005204635672271252,-0.02978007309138775
1.7275261778366781e+18,-0.4692293703556061,0.0010529339779168367,-0.034059200435876846
1.7275261778426783e+18,-0.47892752289772034,0.0024354099296033382,-0.03237615525722504
1.7275261778486784e+18,-0.47736015915870667,0.002088268520310521,-0.03698303550481796
1.7275261778516785e+18,-0.4832185208797455,0.0009156886953860521,-0.03696460276842117
1.7275261778576786e+18,-0.4871179461479187,-0.00046330015175044537,-0.038650330156087875
1.7275261778636787e+18,-0.49235355854034424,0.0018097226275131106,-0.043986834585666656
1.7275261778696788e+18,-0.49113908410072327,0.002339278580620885,-0.03885602951049805
1.727526177872679e+18,-0.49139612913131714,0.0016326350159943104,-0.04368685930967331
1.727526177878679e+18,-0.4966829717159271,0.0035659405402839184,-0.04565371572971344
1.7275261778846792e+18,-0.49928316473960876,0.0032236631959676743,-0.04905630648136139
1.7275261778876792e+18,-0.498626172542572,0.0052268123254179955,-0.048183828592300415
1.7275261778936794e+18,-0.49960097670555115,0.00574399484321475,-0.04752235859632492
1.7275261778996795e+18,-0.5038034319877625,0.006174658890813589,-0.050186965614557266
1.7275261779056796e+18,-0.5042253136634827,0.004073628224432468,-0.05654541403055191
1.7275261779086797e+18,-0.5006000995635986,0.006888345815241337,-0.055739473551511765
1.7275261779146798e+18,-0.49352654814720154,0.0032866925466805696,-0.060608070343732834
1.72752617792068e+18,-0.4814898669719696,0.004124316852539778,-0.05853007733821869
1.72752617792668e+18,-0.4680961072444916,0.003688444383442402,-0.06031909957528114
1.7275261779326802e+18,-0.4583818316459656,0.004271868150681257,-0.062070246785879135
1.7275261779356803e+18,-0.4554550051689148,0.0024325186386704445,-0.06365890800952911
1.7275261779416804e+18,-0.4480153024196625,0.005455884616822004,-0.06491225212812424
1.7275261779476805e+18,-0.447196364402771,0.0006386176683008671,-0.06347936391830444
1.7275261779536806e+18,-0.4398648738861084,0.004322730470448732,-0.06963860243558884
1.7275261779566807e+18,-0.43791016936302185,0.0025561628863215446,-0.06925974786281586
1.7275261779626808e+18,-0.4314435124397278,0.008069375529885292,-0.06867746263742447
1.727526177968681e+18,-0.4224887490272522,0.007845159620046616,-0.07060782611370087
1.727526177974681e+18,-0.40913477540016174,0.007805464323610067,-0.07436444610357285
1.7275261779776812e+18,-0.40123072266578674,0.007771383970975876,-0.07546299695968628
1.7275261779836813e+18,-0.3798731565475464,0.00888486672192812,-0.07685674726963043
1.7275261779896814e+18,-0.35932454466819763,0.006638918537646532,-0.08023516088724136
1.7275261779956815e+18,-0.3406168818473816,0.00554103497415781,-0.0809837356209755
1.7275261779986816e+18,-0.32943329215049744,0.006154627539217472,-0.07884789258241653
1.7275261780046817e+18,-0.3119944632053375,0.003329112660139799,-0.08148689568042755
1.7275261780106819e+18,-0.2954472005367279,0.0039002427365630865,-0.08242916315793991
1.727526178016682e+18,-0.2804962992668152,0.00441299332305789,-0.08468865603208542
1.727526178019682e+18,-0.27134937047958374,0.002479283604770899,-0.08665400743484497
1.7275261780256822e+18,-0.2637482285499573,0.0036659673787653446,-0.09104827046394348
1.7275261780316823e+18,-0.2520470917224884,0.0021999673917889595,-0.09029462188482285
1.7275261780376824e+18,-0.23627056181430817,0.0030557301361113787,-0.0919383242726326
1.7275261780436826e+18,-0.2225843369960785,0.00365589652210474,-0.0905706062912941
1.7275261780496827e+18,-0.20875930786132812,0.005884887184947729,-0.09598167985677719
1.7275261780526828e+18,-0.20278377830982208,0.005286726169288158,-0.09392102807760239
1.727526178058683e+18,-0.18198031187057495,0.003412571270018816,-0.09839887171983719
1.727526178064683e+18,-0.17328403890132904,0.0018776076612994075,-0.09597821533679962
1.7275261780706831e+18,-0.15862980484962463,0.0018015861278399825,-0.10042240470647812
1.7275261780766833e+18,-0.14745908975601196,-0.0020706981886178255,-0.10091021656990051
1.7275261780796833e+18,-0.1343550980091095,-0.0011659084120765328,-0.09970198571681976
1.7275261780856835e+18,-0.11959093064069748,0.001868187915533781,-0.10287264734506607
1.7275261780916836e+18,-0.10303296893835068,-0.0006615853635594249,-0.10417492687702179
1.7275261780946836e+18,-0.09499279409646988,0.0020348443649709225,-0.10565632581710815
1.7275261781006838e+18,-0.07440480589866638,0.0014530327171087265,-0.10870394855737686
1.727526178106684e+18,-0.05384711176156998,0.0002395917836111039,-0.10759862512350082
1.727526178112684e+18,-0.03509816154837608,-0.000672915019094944,-0.10796847194433212
1.7275261781186842e+18,-0.012462634593248367,-0.0014229031512513757,-0.11282271146774292
1.7275261781216842e+18,-0.006483273580670357,-0.0008525058510713279,-0.11238951236009598
1.7275261781276844e+18,0.012857403606176376,-0.003953063860535622,-0.11444460600614548
1.7275261781336845e+18,0.03149104490876198,-0.00047908397391438484,-0.11481216549873352
1.7275261781396846e+18,0.04631722345948219,-0.0033704256638884544,-0.11945059895515442
1.7275261781456847e+18,0.05952576920390129,-0.0032258033752441406,-0.1152946799993515
1.7275261781486848e+18,0.06721452623605728,-0.001331753097474575,-0.11946005374193192
1.727526178154685e+18,0.07870466262102127,-0.0015404175501316786,-0.11979010701179504
1.727526178160685e+18,0.09475242346525192,-0.004443885758519173,-0.12045122683048248
1.7275261781666852e+18,0.10136362910270691,-0.0045914361253380775,-0.12282118201255798
1.7275261781696852e+18,0.10523641854524612,-0.0020504784770309925,-0.12175791710615158
1.7275261781756854e+18,0.11480523645877838,-0.0052195400930941105,-0.12246792763471603
1.7275261781816855e+18,0.11703634262084961,-0.0034866738133132458,-0.12371502816677094
1.7275261781876856e+18,0.11677562445402145,-0.007415745407342911,-0.13000521063804626
1.7275261781906857e+18,0.11623749136924744,-0.008005144074559212,-0.12387154251337051
1.7275261781966858e+18,0.11382008343935013,-0.0076805897988379,-0.12515121698379517
1.727526178202686e+18,0.11263266950845718,-0.007161433342844248,-0.12757234275341034
1.727526178208686e+18,0.11567597836256027,-0.00534375524148345,-0.13045060634613037
1.7275261782116861e+18,0.11163900047540665,-0.00517208082601428,-0.12914018332958221
1.7275261782176863e+18,0.11118883639574051,-0.006141189485788345,-0.13092729449272156
1.7275261782236864e+18,0.11460611969232559,-0.0030740010552108288,-0.1326352059841156
1.7275261782296865e+18,0.11870204657316208,-0.005353771150112152,-0.13295838236808777
1.7275261782356867e+18,0.1257036179304123,-0.00577619718387723,-0.13321568071842194
1.7275261782386867e+18,0.12967777252197266,-0.006736156530678272,-0.1333763152360916
1.7275261782446868e+18,0.1369141787290573,-0.005934880580753088,-0.13118518888950348
1.727526178250687e+18,0.1408412605524063,-0.007911108434200287,-0.13565610349178314
1.727526178256687e+18,0.1449604034423828,-0.007730737794190645,-0.13673675060272217
1.7275261782596872e+18,0.14033660292625427,-0.004488344304263592,-0.13771310448646545
1.7275261782656873e+18,0.1405225247144699,-0.010153083130717278,-0.13917459547519684
1.7275261782716874e+18,0.131202831864357,-0.006397637072950602,-0.13880470395088196
1.7275261782776876e+18,0.12243933230638504,-0.0061706556007266045,-0.14133895933628082
1.7275261782806876e+18,0.11772560328245163,-0.007260775193572044,-0.14401409029960632
1.7275261782866877e+18,0.11150460690259933,-0.005428693722933531,-0.14144842326641083
1.727526178292688e+18,0.10447121411561966,-0.006546681746840477,-0.1435619294643402
1.727526178298688e+18,0.10202974826097488,-0.008490691892802715,-0.14423233270645142
1.727526178301688e+18,0.10518816858530045,-0.00876977201551199,-0.14286847412586212
1.7275261783076882e+18,0.10268286615610123,-0.004443509969860315,-0.14008475840091705
1.7275261783136883e+18,0.1071651428937912,-0.005783663131296635,-0.14713545143604279
1.7275261783196884e+18,0.1076270341873169,-0.008763161487877369,-0.14463511109352112
1.7275261783226885e+18,0.10859601199626923,-0.005005134269595146,-0.144245907664299
1.7275261783286886e+18,0.10559139400720596,-0.008186531253159046,-0.14694525301456451
1.7275261783346888e+18,0.11509150266647339,-0.0062497807666659355,-0.1476765275001526
1.727526178340689e+18,0.11966083943843842,-0.009995218366384506,-0.1468895822763443
1.727526178346689e+18,0.11812447011470795,-0.008160610683262348,-0.14815157651901245
1.727526178349689e+18,0.12193845957517624,-0.007971581071615219,-0.14493392407894135
1.7275261783556892e+18,0.12310076504945755,-0.009599834680557251,-0.14986401796340942
1.7275261783616893e+18,0.12104270607233047,-0.010166928172111511,-0.14800064265727997
1.7275261783676895e+18,0.11443129926919937,-0.006968783214688301,-0.14616164565086365
1.7275261783706895e+18,0.11158530414104462,-0.011274563148617744,-0.14847368001937866
1.7275261783766897e+18,0.1129545122385025,-0.012472080066800117,-0.14794880151748657
1.7275261783826898e+18,0.11287002265453339,-0.007454849313944578,-0.15094047784805298
1.72752617838869e+18,0.11890701204538345,-0.006495530251413584,-0.14681963622570038
1.72752617839469e+18,0.13906528055667877,-0.006172568071633577,-0.14953531324863434
1.7275261784006902e+18,0.16329476237297058,-0.007803896442055702,-0.1497613489627838
1.7275261784066903e+18,0.1924377828836441,-0.007843554951250553,-0.15027347207069397
1.7275261784096904e+18,0.20537124574184418,-0.006812943145632744,-0.15081624686717987
1.7275261784156905e+18,0.23203209042549133,-0.009220726788043976,-0.15003858506679535
1.7275261784216906e+18,0.2500673234462738,-0.009820490144193172,-0.15157903730869293
1.7275261784276908e+18,0.2621079981327057,-0.011394482105970383,-0.1525537371635437
1.7275261784306908e+18,0.2626746892929077,-0.009144105017185211,-0.1528821438550949
1.727526178436691e+18,0.262056827545166,-0.010753456503152847,-0.1517435908317566
1.727526178442691e+18,0.24789321422576904,-0.010529761202633381,-0.14828979969024658
1.7275261784486912e+18,0.23683962225914001,-0.010524498298764229,-0.1515302211046219
1.7275261784546913e+18,0.22348038852214813,-0.010424094274640083,-0.15088103711605072
1.7275261784576914e+18,0.22481350600719452,-0.008974650874733925,-0.1523953676223755
1.7275261784636915e+18,0.23764944076538086,-0.00950961746275425,-0.1471865475177765
1.7275261784696916e+18,0.2553524672985077,-0.010216502472758293,-0.1516520380973816
1.7275261784756918e+18,0.28541886806488037,-0.009891942143440247,-0.14995251595973969
1.7275261784786918e+18,0.29873302578926086,-0.011017807759344578,-0.15150347352027893
1.727526178484692e+18,0.32302772998809814,-0.012167473323643208,-0.1525791734457016
1.727526178490692e+18,0.33941084146499634,-0.01200883463025093,-0.1504686176776886
1.7275261784936922e+18,0.3423495292663574,-0.011079961434006691,-0.14860054850578308
1.7275261784996923e+18,0.33697637915611267,-0.010037447325885296,-0.14828723669052124
1.7275261785056924e+18,0.331102579832077,-0.010084887035191059,-0.14746323227882385
1.7275261785116925e+18,0.3157421350479126,-0.010491560213267803,-0.15037761628627777
1.7275261785146926e+18,0.30862152576446533,-0.011673606932163239,-0.15072472393512726
1.7275261785206927e+18,0.2951047420501709,-0.009782334789633751,-0.14818334579467773
1.7275261785266929e+18,0.292822927236557,-0.011263894848525524,-0.1476396769285202
1.727526178532693e+18,0.2978900372982025,-0.014100528322160244,-0.14695711433887482
1.727526178538693e+18,0.30586615204811096,-0.012084699235856533,-0.14658676087856293
1.7275261785446932e+18,0.3198242485523224,-0.010795229114592075,-0.1469937562942505
1.7275261785506934e+18,0.3353419899940491,-0.01272115670144558,-0.14329668879508972
1.7275261785536934e+18,0.3446884751319885,-0.012507381848990917,-0.14649498462677002
1.7275261785596936e+18,0.35618436336517334,-0.013836430385708809,-0.14489507675170898
1.7275261785656937e+18,0.35560235381126404,-0.011598569341003895,-0.145263209939003
1.7275261785716938e+18,0.3505783975124359,-0.011758595705032349,-0.1414814442396164
1.727526178577694e+18,0.33945661783218384,-0.011082703247666359,-0.14567559957504272
1.727526178583694e+18,0.3197123110294342,-0.008689971640706062,-0.14376839995384216
1.7275261785896942e+18,0.2957138419151306,-0.010897225700318813,-0.13964465260505676
1.7275261785956943e+18,0.27521228790283203,-0.009843705222010612,-0.1390814334154129
1.7275261785986944e+18,0.26932355761528015,-0.009946211241185665,-0.139218270778656
1.7275261786076946e+18,0.25190451741218567,-0.009180843830108643,-0.139995276927948
1.7275261786106947e+18,0.2485060691833496,-0.008799268864095211,-0.13893619179725647
1.7275261786166948e+18,0.24416661262512207,-0.01155825238674879,-0.1371612399816513
1.727526178622695e+18,0.246000736951828,-0.011735524982213974,-0.13605095446109772
1.727526178628695e+18,0.2477901577949524,-0.013545707799494267,-0.1347091645002365
1.7275261786346952e+18,0.2437817007303238,-0.011964263394474983,-0.13535581529140472
1.7275261786406953e+18,0.23883302509784698,-0.009631022810935974,-0.13374803960323334
1.7275261786466954e+18,0.22379113733768463,-0.01715468056499958,-0.1337745487689972
1.7275261786526956e+18,0.21067972481250763,-0.014529971405863762,-0.12966954708099365
1.7275261786586957e+18,0.19043144583702087,-0.014046404510736465,-0.13039949536323547
1.7275261786646958e+18,0.1742781102657318,-0.011047963984310627,-0.13008908927440643
1.727526178670696e+18,0.15276406705379486,-0.009479743428528309,-0.12793534994125366
1.727526178673696e+18,0.14861774444580078,-0.01009935513138771,-0.12729573249816895
1.7275261786826962e+18,0.13432677090168,-0.009306685999035835,-0.127936452627182
1.7275261786856963e+18,0.129119411110878,-0.011134352535009384,-0.12621265649795532
1.7275261786916964e+18,0.12673629820346832,-0.009544319473206997,-0.12311585247516632
1.7275261786976965e+18,0.12680131196975708,-0.006947425659745932,-0.12254294008016586
1.7275261787036966e+18,0.12638536095619202,-0.010327760130167007,-0.12106841802597046
1.7275261787096968e+18,0.120969258248806,-0.009911168366670609,-0.11698737740516663
1.727526178715697e+18,0.11459305137395859,-0.010218039155006409,-0.1172620952129364
1.727526178721697e+18,0.10840557515621185,-0.013089089654386044,-0.1160435676574707
1.7275261787276972e+18,0.0971217006444931,-0.010718029923737049,-0.11581440269947052
1.7275261787306972e+18,0.08898360282182693,-0.011757567524909973,-0.11562085896730423
