timestamp,accel_x,accel_y,accel_z
1.7294926124359793e+18,-0.05798433721065521,0.06081513687968254,-9.772086143493652
1.7294926124449795e+18,-0.049246758222579956,0.01321727130562067,-9.79166316986084
1.7294926124539796e+18,-0.0012811130145564675,-0.018184419721364975,-9.826069831848145
1.7294926124629798e+18,-0.004411408677697182,0.009226585738360882,-9.760456085205078
1.72949261247198e+18,0.0579756461083889,-0.012552251107990742,-9.788802146911621
1.7294926124809802e+18,0.006597929168492556,-0.013553120195865631,-9.863975524902344
1.7294926124869804e+18,0.010302172042429447,0.08886095881462097,-9.824002265930176
1.7294926124959805e+18,0.030895236879587173,0.061433762311935425,-9.79149055480957
1.7294926125049807e+18,-0.010414348915219307,0.0805998221039772,-9.727011680603027
1.729492612513981e+18,-0.00260622869245708,0.008256823755800724,-9.868539810180664
1.729492612522981e+18,0.042958807200193405,-0.021160747855901718,-9.854692459106445
1.7294926125319813e+18,0.05450811982154846,-0.04307083785533905,-9.810946464538574
1.7294926125409815e+18,0.09907373785972595,0.023116281256079674,-9.854320526123047
1.7294926125469816e+18,-0.040770262479782104,-0.009895618073642254,-9.817405700683594
1.7294926125559818e+18,-0.03144879266619682,-0.005104353651404381,-9.809871673583984
1.729492612564982e+18,0.030582435429096222,-0.0704524889588356,-9.832132339477539
1.7294926125739822e+18,0.024790862575173378,-0.06298119574785233,-9.756085395812988
1.7294926125799823e+18,0.04728013277053833,0.026858152821660042,-9.88885498046875
1.7294926125889825e+18,-0.0614590086042881,-0.06548650562763214,-9.852279663085938
1.7294926125979827e+18,0.061987705528736115,-0.0590212382376194,-9.834282875061035
1.729492612606983e+18,-0.08751831203699112,-0.009426875971257687,-9.77382755279541
1.729492612615983e+18,-0.02837357670068741,-0.039849188178777695,-9.828678131103516
1.7294926126249833e+18,-0.06520722061395645,0.03917941823601723,-9.824474334716797
1.7294926126339835e+18,-0.024073641747236252,-0.04530610889196396,-9.785061836242676
1.7294926126399836e+18,0.0012595448642969131,0.018309779465198517,-9.783309936523438
1.7294926126489838e+18,0.016690371558070183,0.07369392365217209,-9.818744659423828
1.729492612657984e+18,0.07842081040143967,-0.02218717522919178,-9.752767562866211
1.7294926126669842e+18,0.016555048525333405,0.03985677659511566,-9.798569679260254
1.7294926126759844e+18,0.007569808512926102,-0.036790911108255386,-9.853530883789062
1.7294926126849846e+18,-0.03676172345876694,0.04151999577879906,-9.77507495880127
1.7294926126939848e+18,0.1053246259689331,-0.03474273160099983,-9.754822731018066
1.729492612702985e+18,0.04753202944993973,0.11094144731760025,-9.790011405944824
1.7294926127119852e+18,0.033056728541851044,0.03507136553525925,-9.817262649536133
1.7294926127209853e+18,-0.009188491851091385,-0.006780535448342562,-9.733449935913086
1.7294926127299855e+18,-0.01457622367888689,-0.03293844684958458,-9.785027503967285
1.7294926127389857e+18,-0.05689525231719017,-0.012053138576447964,-9.835942268371582
1.729492612747986e+18,0.10554385930299759,0.0680704191327095,-9.828660011291504
1.729492612756986e+18,-0.06253296881914139,-0.005589212756603956,-9.79401969909668
1.7294926127659863e+18,-0.006810192950069904,0.06980326026678085,-9.778502464294434
1.7294926127749865e+18,0.018763577565550804,0.005199648905545473,-9.852583885192871
1.7294926127809866e+18,0.033979613333940506,0.05321921035647392,-9.792707443237305
1.7294926127899868e+18,0.06121670454740524,-0.013582774437963963,-9.89250373840332
1.729492612798987e+18,-0.0501408688724041,-0.004437508527189493,-9.828819274902344
1.7294926128079872e+18,0.04277649521827698,-0.054268188774585724,-9.766358375549316
1.7294926128169874e+18,0.0029682405292987823,0.00995220523327589,-9.755992889404297
1.7294926128259876e+18,0.03196727856993675,-0.027456441894173622,-9.808051109313965
1.7294926128349878e+18,0.0015097176656126976,0.03857193514704704,-9.832428932189941
1.729492612840988e+18,0.027336476370692253,0.021518154069781303,-9.800020217895508
1.729492612849988e+18,0.045785967260599136,-0.0353916697204113,-9.852224349975586
1.7294926128589883e+18,0.0885562151670456,-0.01204659417271614,-9.775376319885254
1.7294926128679885e+18,0.039392873644828796,0.03754620999097824,-9.841776847839355
1.7294926128769887e+18,0.0003959761234000325,0.0279372688382864,-9.819522857666016
1.7294926128859889e+18,-0.007631700951606035,-0.06738757342100143,-9.82791805267334
1.729492612894989e+18,-0.005011283326894045,-0.007383645977824926,-9.848087310791016
1.7294926129039892e+18,-0.04464593157172203,-0.022777104750275612,-9.853116989135742
1.7294926129129894e+18,0.04678526148200035,-0.013114430010318756,-9.793907165527344
1.7294926129189896e+18,-0.00664397981017828,0.02643156424164772,-9.876289367675781
1.7294926129279898e+18,0.028596172109246254,0.02000025101006031,-9.803772926330566
1.72949261293699e+18,-0.03130744397640228,0.029841631650924683,-9.835387229919434
1.7294926129459901e+18,0.001037075649946928,0.00905117392539978,-9.88972282409668
1.7294926129549903e+18,0.06928937882184982,-0.028387198224663734,-9.781021118164062
1.7294926129609905e+18,-0.012590317055583,-0.0009083982440643013,-9.806199073791504
1.7294926129699907e+18,-0.0423332117497921,0.03019235096871853,-9.819668769836426
1.7294926129789908e+18,-0.01711607538163662,0.010302692651748657,-9.742019653320312
1.729492612987991e+18,-0.06596328318119049,0.00912280660122633,-9.773898124694824
1.7294926129969912e+18,0.002178474562242627,0.09962988644838333,-9.841784477233887
1.7294926130059914e+18,-0.04655245319008827,0.02209794521331787,-9.7625093460083
1.7294926130149916e+18,0.01272394135594368,-0.06676007062196732,-9.783760070800781
1.7294926130239918e+18,-0.03228433430194855,-0.009131376631557941,-9.794378280639648
1.729492613032992e+18,-0.029406359419226646,0.027878373861312866,-9.778083801269531
1.7294926130419922e+18,-0.05569823086261749,-0.08057542890310287,-9.783073425292969
1.7294926130509924e+18,-0.06786232441663742,-0.00356042361818254,-9.776676177978516
1.7294926130599926e+18,-0.039272893220186234,-0.11007127165794373,-9.84720230102539
1.7294926130689928e+18,-0.08842428028583527,-0.009264140389859676,-9.820058822631836
1.729492613074993e+18,-0.07309407740831375,-0.03517470508813858,-9.762944221496582
1.7294926130869932e+18,-0.0004750722728203982,0.009697001427412033,-9.819517135620117
1.7294926130929933e+18,-0.09136632829904556,-0.01474939938634634,-9.747255325317383
1.7294926131019935e+18,-0.0008791868458501995,0.01684148609638214,-9.808581352233887
1.7294926131109937e+18,-0.015427177771925926,-0.02266026847064495,-9.842232704162598
1.7294926131199939e+18,-0.09729364514350891,-0.08604952692985535,-9.726777076721191
1.729492613128994e+18,0.012223525904119015,0.0020664616022258997,-9.779172897338867
1.7294926131349942e+18,0.06850706040859222,0.01896892488002777,-9.805962562561035
1.7294926131439944e+18,0.06472758203744888,0.08159852027893066,-9.752399444580078
1.7294926131529946e+18,0.03434929624199867,-0.011263592168688774,-9.818720817565918
1.7294926131619948e+18,0.0031024860218167305,0.0062590972520411015,-9.832233428955078
1.729492613167995e+18,0.022201066836714745,-0.008215345442295074,-9.836931228637695
1.729492613176995e+18,0.04465937986969948,-0.05095776170492172,-9.785313606262207
1.7294926131859953e+18,0.0822056457400322,-0.03763040900230408,-9.8240327835083
1.7294926131949955e+18,-0.005469998344779015,0.02764187380671501,-9.7874116897583
1.7294926132039956e+18,0.017479341477155685,-0.032291214913129807,-9.767437934875488
1.7294926132129958e+18,-0.015001419931650162,-0.04905861243605614,-9.83352279663086
1.729492613218996e+18,-0.028003238141536713,-0.030787112191319466,-9.78238296508789
1.7294926132279962e+18,0.00274317292496562,-0.005235619843006134,-9.796159744262695
1.7294926132369964e+18,0.013418312184512615,0.03522821515798569,-9.840751647949219
1.7294926132459965e+18,-0.01494508609175682,0.03966689482331276,-9.843489646911621
1.7294926132549967e+18,-0.07751071453094482,-0.06056538596749306,-9.751591682434082
1.729492613263997e+18,-0.005782452877610922,0.01249634474515915,-9.796051025390625
1.729492613272997e+18,0.030623797327280045,-0.053319983184337616,-9.744314193725586
1.7294926132819973e+18,0.028522400185465813,0.05855349451303482,-9.875748634338379
1.7294926132879974e+18,-0.04500620812177658,0.051467131823301315,-9.75605297088623
1.7294926132999977e+18,0.05086144432425499,-0.02709568850696087,-9.836296081542969
1.729492613308998e+18,-0.039197467267513275,-0.054818421602249146,-9.805793762207031
1.729492613314998e+18,8.23860091259121e-07,-0.09823542088270187,-9.796619415283203
1.7294926133269983e+18,0.049913451075553894,0.017438357695937157,-9.831003189086914
1.7294926133329984e+18,-0.03560018539428711,0.026718005537986755,-9.827869415283203
1.7294926133419986e+18,-0.022471463307738304,-0.05642430856823921,-9.757160186767578
1.7294926133539988e+18,-0.008094370365142822,0.020299464464187622,-9.761578559875488
1.729492613362999e+18,0.06619285047054291,0.0013313990784808993,-9.813986778259277
1.7294926133719992e+18,-0.02055811695754528,-0.04880797117948532,-9.8306245803833
1.7294926133809994e+18,0.05107356235384941,0.0994747206568718,-9.795570373535156
1.7294926133899996e+18,0.061721645295619965,-0.002253631129860878,-9.779329299926758
1.7294926133989998e+18,-0.012769179418683052,0.020625591278076172,-9.8012113571167
1.729492613408e+18,0.09637419134378433,-0.06986220180988312,-9.866044044494629
1.7294926134170002e+18,-0.01956109143793583,0.003652755171060562,-9.770000457763672
1.7294926134260004e+18,0.023632679134607315,0.04293940216302872,-9.882264137268066
1.7294926134350006e+18,0.062306128442287445,-0.031235672533512115,-9.863529205322266
1.7294926134440008e+18,-0.009417240507900715,-0.020469648763537407,-9.814973831176758
1.729492613450001e+18,0.053478844463825226,0.003409609431400895,-9.80994701385498
1.729492613459001e+18,-0.0005996524123474956,0.011868813075125217,-9.756232261657715
1.7294926134710013e+18,-0.010076005943119526,-0.012862054631114006,-9.794137954711914
1.7294926134800015e+18,-0.0646643117070198,-0.011055785231292248,-9.862825393676758
1.7294926134860017e+18,-0.024247681722044945,0.05034877359867096,-9.809453010559082
1.7294926134950019e+18,0.0003230936417821795,-0.03237457200884819,-9.821905136108398
1.729492613504002e+18,0.010174911469221115,-0.006165120285004377,-9.800368309020996
1.7294926135100022e+18,0.036276839673519135,-0.00015079758304636925,-9.787284851074219
1.7294926135220024e+18,0.023364415392279625,-0.008856925182044506,-9.790057182312012
1.7294926135310026e+18,-0.02055804617702961,-0.08357364684343338,-9.83234691619873
1.7294926135400028e+18,-0.02050589956343174,0.034411363303661346,-9.75685977935791
1.729492613549003e+18,0.0022815042175352573,0.0056869639083743095,-9.874598503112793
1.7294926135580032e+18,-0.010411039926111698,-0.007900998927652836,-9.827239990234375
1.7294926135670034e+18,-0.03910478949546814,-0.02849413827061653,-9.724502563476562
1.7294926135760036e+18,-0.0032211828511208296,0.06597749143838882,-9.858884811401367
1.7294926135850038e+18,-0.025197194889187813,0.040069449692964554,-9.786866188049316
1.729492613594004e+18,-0.16841813921928406,0.023723268881440163,-9.718713760375977
1.729492613600004e+18,0.010148465633392334,-0.028501233085989952,-9.761468887329102
1.7294926136090043e+18,-0.026201806962490082,0.0683889165520668,-9.763204574584961
1.7294926136180045e+18,0.026308182626962662,-0.020327219739556313,-9.846112251281738
1.7294926136270047e+18,-0.032497670501470566,-0.006269584875553846,-9.857470512390137
1.7294926136360049e+18,0.11172051727771759,0.029189931228756905,-9.896498680114746
1.729492613648005e+18,-0.06284072995185852,-0.04347178339958191,-9.810220718383789
1.7294926136540052e+18,0.014122074469923973,-0.002550204750150442,-9.71304988861084
1.7294926136660055e+18,0.01200506929308176,-0.00987523328512907,-9.875931739807129
1.7294926136750057e+18,0.026858480647206306,-0.053217146545648575,-9.765130996704102
1.7294926136810058e+18,0.007973556406795979,0.015600998885929585,-9.841176986694336
1.729492613693006e+18,0.02200702205300331,-0.03459553048014641,-9.818284034729004
1.7294926137020063e+18,0.02085888758301735,0.021504392847418785,-9.866307258605957
1.7294926137080064e+18,0.019747143611311913,-0.02721240557730198,-9.84827995300293
1.7294926137170066e+18,-0.008489456959068775,0.002858889289200306,-9.74501895904541
1.7294926137260068e+18,-0.016031136736273766,-0.027602337300777435,-9.902881622314453
1.729492613735007e+18,-0.008233165368437767,-0.0008743751677684486,-9.84585189819336
1.7294926137440072e+18,-0.07166659086942673,0.03363717347383499,-9.862058639526367
1.7294926137530074e+18,0.04046492278575897,-0.0656740665435791,-9.863630294799805
1.7294926137620076e+18,-0.07494305819272995,-0.03905922546982765,-9.82504653930664
1.7294926137710077e+18,0.01792285591363907,-0.018286164849996567,-9.797738075256348
1.729492613780008e+18,0.01698296144604683,0.059002235531806946,-9.678022384643555
1.729492613786008e+18,0.07408232241868973,0.00752150546759367,-9.819001197814941
1.7294926137950083e+18,0.036180417984724045,-0.016840772703289986,-9.794050216674805
1.7294926138040084e+18,0.02621593326330185,-0.0064659882336854935,-9.7803955078125
1.7294926138100086e+18,0.028857553377747536,-0.011487428098917007,-9.780377388000488
1.7294926138220088e+18,-0.051623016595840454,0.019875681027770042,-9.813632011413574
1.729492613828009e+18,-0.02643614076077938,0.0035608746111392975,-9.840934753417969
1.7294926138370092e+18,-0.024462588131427765,-0.023277202621102333,-9.817279815673828
1.7294926138460093e+18,0.023131728172302246,-0.03313742205500603,-9.731754302978516
1.7294926138520095e+18,-0.009372950531542301,0.017604093998670578,-9.78316593170166
1.7294926138610097e+18,0.054658569395542145,-0.07629135996103287,-9.836567878723145
1.7294926138700099e+18,-0.05255306139588356,-0.014326708391308784,-9.826704978942871
1.72949261387901e+18,-0.00404468784108758,0.0170441847294569,-9.862798690795898
1.7294926138880102e+18,-0.05708247795701027,0.028825964778661728,-9.837432861328125
1.7294926138940104e+18,0.04877546802163124,0.0352567620575428,-9.827667236328125
1.7294926139030106e+18,-0.059564508497714996,-0.11174103617668152,-9.829326629638672
1.7294926139120108e+18,0.03737824410200119,0.019211383536458015,-9.779196739196777
1.729492613921011e+18,0.026458492502570152,-0.06779193133115768,-9.78223705291748
1.7294926139300111e+18,0.00867080595344305,-0.013547539710998535,-9.827162742614746
1.7294926139390113e+18,-0.015175294131040573,0.02269599214196205,-9.876688957214355
1.7294926139480115e+18,-0.026655716821551323,0.04970134422183037,-9.781468391418457
1.7294926139570117e+18,0.006725660990923643,0.0013224720023572445,-9.786906242370605
1.729492613966012e+18,0.03956247493624687,0.0020977130625396967,-9.872391700744629
1.729492613975012e+18,0.05099333077669144,-0.060812730342149734,-9.843094825744629
1.7294926139810122e+18,0.01550196297466755,0.023715613409876823,-9.808320999145508
1.7294926139900124e+18,0.0020229765214025974,-0.07150055468082428,-9.844307899475098
1.7294926139990126e+18,0.017091939225792885,-0.04672546312212944,-9.827746391296387
1.7294926140080128e+18,-0.015291782096028328,-0.0027740513905882835,-9.791624069213867
1.729492614017013e+18,0.013563198037445545,-0.04226294532418251,-9.742842674255371
1.7294926140290132e+18,-0.0007015372393652797,0.052585482597351074,-9.766412734985352
1.7294926140380134e+18,-0.008740408346056938,0.05687744542956352,-9.805254936218262
1.7294926140470136e+18,-0.011462259106338024,0.049858056008815765,-9.767648696899414
1.7294926140560138e+18,0.06522276997566223,0.0026388627011328936,-9.801116943359375
1.729492614065014e+18,-0.038052722811698914,0.005473865196108818,-9.846635818481445
1.7294926140770143e+18,-0.08867145329713821,-0.008989100344479084,-9.853117942810059
1.7294926140860145e+18,0.010551766492426395,-0.009075603447854519,-9.818419456481934
1.7294926140950147e+18,-0.02544414810836315,0.03286158666014671,-9.786181449890137
1.7294926141040148e+18,-0.03414716571569443,-0.03200836107134819,-9.780189514160156
1.729492614113015e+18,-0.022781113162636757,-0.022799909114837646,-9.816078186035156
1.7294926141220152e+18,0.03473120927810669,-0.05309804528951645,-9.808443069458008
1.7294926141310154e+18,0.049798641353845596,0.03619556501507759,-9.770015716552734
1.7294926141400156e+18,-0.028367727994918823,0.023637712001800537,-9.767791748046875
1.7294926141490158e+18,0.06105317175388336,0.03670809045433998,-9.832036972045898
1.729492614158016e+18,-0.06386729329824448,0.017431670799851418,-9.806938171386719
1.7294926141670162e+18,-0.015752317383885384,-0.03350047022104263,-9.731766700744629
1.7294926141790164e+18,0.03732616454362869,0.05524636059999466,-9.742792129516602
1.7294926141880166e+18,-0.02914901077747345,0.037908151745796204,-9.739494323730469
1.7294926141970168e+18,0.013253714889287949,0.04850553348660469,-9.842601776123047
1.729492614206017e+18,0.030668215826153755,-0.02248361147940159,-9.7564058303833
1.7294926142120172e+18,-0.004352695774286985,0.014082805253565311,-9.727424621582031
1.7294926142210173e+18,-0.05108653008937836,-0.03031364269554615,-9.795953750610352
1.7294926142300175e+18,-0.04256033897399902,-0.046296775341033936,-9.781716346740723
1.7294926142390177e+18,0.023299554362893105,0.03036622703075409,-9.721395492553711
1.7294926142450179e+18,0.004638750106096268,0.02851777710020542,-9.849801063537598
1.729492614254018e+18,-0.050651829689741135,-0.0015443689189851284,-9.770161628723145
1.7294926142630182e+18,-0.0021869984921067953,0.026563169434666634,-9.786955833435059
1.7294926142720184e+18,0.012551301158964634,0.05574477091431618,-9.77850341796875
1.7294926142780186e+18,0.05579822510480881,0.014009441249072552,-9.775419235229492
1.7294926142870188e+18,-0.04698153957724571,0.033746350556612015,-9.829723358154297
1.729492614293019e+18,0.0017429719446226954,0.02621062844991684,-9.809364318847656
1.729492614302019e+18,0.0663987472653389,0.023851601406931877,-9.798064231872559
1.7294926143110193e+18,-0.08712248504161835,-0.039692748337984085,-9.867963790893555
1.7294926143200195e+18,0.01926468126475811,0.0032797979656606913,-9.762113571166992
1.7294926143290196e+18,0.04191816225647926,0.007018526550382376,-9.781227111816406
1.7294926143350198e+18,-0.017102044075727463,-0.05213790014386177,-9.807475090026855
1.72949261434402e+18,0.01075776293873787,-0.020527096465229988,-9.800045013427734
1.7294926143530202e+18,-0.029415378347039223,0.03803882747888565,-9.889242172241211
1.7294926143590203e+18,0.03342411294579506,-0.005866303574293852,-9.817578315734863
1.7294926143680205e+18,0.005626436788588762,-0.08486542105674744,-9.774199485778809
1.7294926143740206e+18,-0.019157247617840767,0.11027205735445023,-9.81424617767334
1.7294926143830208e+18,-0.09444655478000641,-0.02086794562637806,-9.82866382598877
1.729492614392021e+18,0.0011743875220417976,-0.000995174515992403,-9.841383934020996
1.7294926144010212e+18,0.003959474619477987,-0.02038840763270855,-9.790935516357422
1.7294926144070213e+18,-0.08920357376337051,-0.03434852510690689,-9.765337944030762
1.7294926144160215e+18,0.0171828456223011,0.007769437972456217,-9.773719787597656
1.7294926144250217e+18,-0.039872512221336365,-0.024236397817730904,-9.83521556854248
1.7294926144310218e+18,0.06542032212018967,0.06130538135766983,-9.776154518127441
1.729492614440022e+18,0.028312696143984795,-0.040373705327510834,-9.756632804870605
1.7294926144490222e+18,0.01844131574034691,-0.022616999223828316,-9.77071762084961
1.7294926144580224e+18,-0.043104592710733414,0.011753734201192856,-9.791421890258789
1.7294926144640225e+18,-0.020073724910616875,0.09172224998474121,-9.85750961303711
1.7294926144730227e+18,-0.06802285462617874,0.024324513971805573,-9.74269962310791
1.729492614482023e+18,-0.09087254852056503,0.02720191702246666,-9.786709785461426
1.729492614488023e+18,0.004979087505489588,0.03962855413556099,-9.787840843200684
1.7294926144970232e+18,-0.057293497025966644,0.0579783134162426,-9.769229888916016
1.7294926145060234e+18,0.014125630259513855,0.009301163256168365,-9.836971282958984
1.7294926145120236e+18,-0.13766425848007202,0.0027192714624106884,-9.838406562805176
1.7294926145210237e+18,0.03192887455224991,0.046419695019721985,-9.809592247009277
1.7294926145270239e+18,-0.08135879784822464,0.007228645030409098,-9.817572593688965
1.729492614536024e+18,0.003879076335579157,-0.06108562648296356,-9.808351516723633
1.7294926145420242e+18,0.0015580676263198256,-0.02734769508242607,-9.831962585449219
1.7294926145510244e+18,0.021167881786823273,-0.03511837124824524,-9.832639694213867
1.7294926145600246e+18,-0.011909597553312778,0.019970018416643143,-9.800397872924805
1.7294926145690248e+18,0.0029173623770475388,0.02543577179312706,-9.829629898071289
1.729492614575025e+18,-0.01931583136320114,0.08481322228908539,-9.823556900024414
1.729492614584025e+18,0.050168726593256,-0.034040939062833786,-9.78209400177002
1.7294926145930253e+18,0.02288525179028511,-0.045823268592357635,-9.81886100769043
1.7294926145990254e+18,0.01693776808679104,-0.02517315000295639,-9.782492637634277
1.7294926146080256e+18,-0.006526011507958174,-0.04679877683520317,-9.816699981689453
1.7294926146140257e+18,0.005229789298027754,0.02446553483605385,-9.845193862915039
1.729492614623026e+18,-0.03309426084160805,0.03180970624089241,-9.799097061157227
1.729492614632026e+18,0.020589018240571022,0.0726613700389862,-9.7946195602417
1.7294926146380262e+18,-0.06416867673397064,0.041306596249341965,-9.810186386108398
1.7294926146470264e+18,-0.04315662011504173,-0.051341284066438675,-9.823358535766602
1.7294926146560266e+18,0.025748617947101593,0.011300926096737385,-9.775125503540039
1.7294926146620268e+18,0.049782365560531616,0.03511596471071243,-9.776589393615723
1.729492614671027e+18,-0.024322735145688057,0.08086585998535156,-9.742371559143066
1.7294926146800271e+18,0.001284581026993692,-0.03432842344045639,-9.78267765045166
1.7294926146860273e+18,-0.020068462938070297,-0.005498107522726059,-9.775138854980469
1.7294926146950275e+18,-0.0035177634563297033,0.07095255702733994,-9.813769340515137
1.7294926147040276e+18,-0.06775114685297012,0.04407094046473503,-9.824570655822754
1.7294926147100278e+18,-0.04116057977080345,-0.012026951648294926,-9.802478790283203
1.729492614719028e+18,-0.016186518594622612,0.07321127504110336,-9.807021141052246
1.7294926147280282e+18,-0.0593174584209919,-0.07015816867351532,-9.840630531311035
1.7294926147340283e+18,-0.07948096841573715,0.0631791353225708,-9.830020904541016
1.7294926147430285e+18,-0.07250931859016418,0.0018883513985201716,-9.730984687805176
1.7294926147520287e+18,-0.04284986853599548,-0.03274349123239517,-9.830429077148438
1.7294926147610289e+18,-0.05748515576124191,-0.12806837260723114,-9.779947280883789
1.729492614767029e+18,0.07648834586143494,0.028463028371334076,-9.834815979003906
1.7294926147760292e+18,-0.037333905696868896,0.07663240283727646,-9.784958839416504
1.7294926147820293e+18,-0.01966279372572899,0.004968302324414253,-9.785002708435059
1.7294926147910295e+18,-0.09819049388170242,-0.008681979961693287,-9.834850311279297
1.7294926148000297e+18,-0.038836512714624405,0.029263755306601524,-9.757410049438477
1.7294926148060298e+18,-0.027446702122688293,-0.012868288904428482,-9.79288387298584
1.72949261481503e+18,-0.08670029044151306,-0.07665979117155075,-9.819670677185059
1.7294926148240302e+18,0.0050313835963606834,0.07755085825920105,-9.8320951461792
1.7294926148300303e+18,0.05884355679154396,0.027463184669613838,-9.780394554138184
1.7294926148390305e+18,-0.021297816187143326,-0.031603746116161346,-9.781167030334473
1.7294926148480307e+18,-0.005839671473950148,0.03193221986293793,-9.862627029418945
1.7294926148540308e+18,0.02195441909134388,-0.08371195942163467,-9.832887649536133
1.729492614863031e+18,0.0076214950531721115,-0.012964154593646526,-9.873550415039062
1.7294926148720312e+18,-0.03901855647563934,0.0321604385972023,-9.82291316986084
1.7294926148810314e+18,-0.1020684614777565,-0.01967574656009674,-9.843908309936523
1.7294926148870316e+18,-0.07842836529016495,0.0010896772146224976,-9.834378242492676
1.7294926148960317e+18,-0.006087846122682095,0.047985419631004333,-9.939994812011719
1.729492614905032e+18,-0.0533527135848999,0.04245264083147049,-9.88981819152832
1.729492614911032e+18,-0.01594909280538559,0.034428562968969345,-9.94935417175293
1.7294926149200323e+18,-0.027709227055311203,-0.053509242832660675,-9.98635482788086
1.7294926149260324e+18,-0.05313391983509064,0.014776188880205154,-9.944098472595215
1.7294926149350326e+18,-0.02187320962548256,0.05216732621192932,-9.9156494140625
1.7294926149410327e+18,0.08144182711839676,0.013182472437620163,-10.006898880004883
1.729492614950033e+18,-0.0444173701107502,0.0029920805245637894,-9.921133995056152
1.729492614959033e+18,-0.007432753685861826,-1.1684373021125793e-05,-10.043070793151855
1.7294926149680333e+18,-0.025874683633446693,-0.008214866742491722,-10.035783767700195
1.7294926149740334e+18,-0.0464361347258091,0.11292014271020889,-10.073817253112793
1.7294926149830336e+18,0.007346706464886665,-0.011788002215325832,-10.10468864440918
1.7294926149890337e+18,-0.05519761145114899,0.052704501897096634,-10.089457511901855
1.729492614998034e+18,0.023022539913654327,0.006280726753175259,-10.119107246398926
1.729492615007034e+18,-0.007955535314977169,0.010145088657736778,-10.093189239501953
1.7294926150130342e+18,-0.028567446395754814,0.020672759041190147,-10.400212287902832
1.7294926150220344e+18,-0.029040362685918808,0.0488843098282814,-10.444680213928223
1.7294926150310346e+18,0.01713755913078785,-0.01452389545738697,-10.551299095153809
1.7294926150370348e+18,0.015890220180153847,-0.03679206967353821,-10.519806861877441
1.729492615046035e+18,-0.029853325337171555,0.0039031144697219133,-10.551582336425781
1.7294926150550351e+18,-0.025629302486777306,0.07013694941997528,-10.478631019592285
1.7294926150640353e+18,0.0064170388504862785,-0.03302258253097534,-10.465493202209473
1.7294926150700355e+18,-0.02565358765423298,-0.022975368425250053,-10.471076965332031
1.7294926150790356e+18,-0.01878569833934307,-0.014301842078566551,-10.57622241973877
1.7294926150880358e+18,0.04846973717212677,-0.06163851171731949,-10.537264823913574
1.729492615094036e+18,0.013613457791507244,0.07978937774896622,-10.593252182006836
1.7294926151030362e+18,-0.0012462649028748274,0.0214714165776968,-10.594432830810547
1.7294926151090363e+18,-0.0669623613357544,-0.07168025523424149,-10.583617210388184
1.7294926151180365e+18,-0.03456008434295654,-0.03224482387304306,-10.498636245727539
1.7294926151270367e+18,-0.05514652281999588,0.034043632447719574,-10.553169250488281
1.729492615139037e+18,-0.0265752412378788,-0.04220076650381088,-10.606603622436523
1.729492615148037e+18,0.050905875861644745,0.005954590626060963,-10.546866416931152
1.7294926151570373e+18,-0.03656784072518349,-0.032414745539426804,-10.57066535949707
1.7294926151630374e+18,0.027916885912418365,-0.011541935615241528,-10.591529846191406
1.7294926151720376e+18,-0.04567715525627136,0.023534948006272316,-10.624855041503906
1.7294926151780378e+18,0.03725144639611244,-0.006595738232135773,-10.529070854187012
1.729492615187038e+18,0.12081597000360489,0.02242923155426979,-10.573229789733887
1.729492615193038e+18,-0.03557116910815239,-0.017651889473199844,-10.629606246948242
1.7294926152020383e+18,0.015620495192706585,-0.02711598575115204,-10.538297653198242
1.7294926152110385e+18,0.062111884355545044,0.02575763314962387,-10.627754211425781
1.7294926152200387e+18,0.03977081924676895,0.03510836884379387,-10.575257301330566
1.7294926152260388e+18,-0.02033010683953762,-0.0502735935151577,-10.548090934753418
1.729492615235039e+18,0.037955865263938904,-0.0042066131718456745,-10.68228816986084
1.7294926152440392e+18,0.012033302336931229,-0.09135989099740982,-10.651424407958984
1.7294926152530394e+18,-0.010359494015574455,-0.018056776374578476,-10.629495620727539
1.7294926152590395e+18,0.05711580440402031,-0.019961543381214142,-10.581282615661621
1.7294926152680397e+18,0.028963012620806694,-0.003817915916442871,-10.653707504272461
1.7294926152770399e+18,-0.022649453952908516,0.028766073286533356,-10.718647003173828
1.72949261528304e+18,0.04485313594341278,-0.03859972581267357,-10.604636192321777
1.7294926152920402e+18,-0.035532426089048386,0.04095486178994179,-10.700519561767578
1.7294926153010404e+18,0.09469030797481537,-0.027739915996789932,-10.658549308776855
1.7294926153070405e+18,-0.04512278735637665,0.017373379319906235,-10.488771438598633
1.7294926153160407e+18,-0.0643458142876625,0.05065307766199112,-10.681567192077637
1.729492615325041e+18,0.07259660959243774,-0.052017148584127426,-10.669434547424316
1.729492615334041e+18,0.062537781894207,0.10802532732486725,-10.64907169342041
1.7294926153400412e+18,0.004285316914319992,-0.05347377434372902,-10.667158126831055
1.7294926153490414e+18,-0.011743243783712387,-0.018298234790563583,-10.619428634643555
1.7294926153550415e+18,0.01859189383685589,0.035775747150182724,-10.618556022644043
1.7294926153640417e+18,0.01251533068716526,0.029956530779600143,-10.60562801361084
1.7294926153700419e+18,-0.043266598135232925,-0.017704010009765625,-10.62622356414795
1.729492615379042e+18,0.00426487298682332,0.04971020668745041,-10.645675659179688
1.7294926153880422e+18,0.02499627321958542,-0.04004860669374466,-10.622675895690918
1.7294926153940424e+18,-0.03556903451681137,-0.028469571843743324,-10.720596313476562
1.7294926154030426e+18,-0.06734132021665573,-0.0008115700911730528,-10.66727066040039
1.7294926154120428e+18,-0.0008543385192751884,-0.046589773148298264,-10.728964805603027
1.729492615421043e+18,-0.05441799759864807,0.01258032489567995,-10.520580291748047
1.729492615427043e+18,0.036887276917696,-0.07660456746816635,-10.61037826538086
1.7294926154360433e+18,-0.03400392085313797,0.010992059484124184,-10.571395874023438
1.7294926154450435e+18,0.014602433890104294,-0.028629403561353683,-10.613286972045898
1.7294926154510436e+18,-0.01514674536883831,-0.028026562184095383,-10.708271026611328
1.7294926154600438e+18,0.051248326897621155,-0.037367526441812515,-10.806623458862305
1.729492615466044e+18,-0.01621253602206707,0.07726594060659409,-10.572961807250977
1.729492615475044e+18,-0.07155591249465942,-0.00261302781291306,-10.583230972290039
1.7294926154840443e+18,0.043625183403491974,-0.03967159986495972,-10.580921173095703
1.7294926154900444e+18,0.0005520584527403116,0.09131210297346115,-10.666717529296875
1.7294926154990446e+18,-0.052970774471759796,-0.07778068631887436,-10.620816230773926
1.7294926155080448e+18,-0.011089026927947998,-0.025609582662582397,-10.572219848632812
1.729492615514045e+18,0.07093815505504608,-0.026137501001358032,-10.708985328674316
1.729492615523045e+18,-0.006189615465700626,-0.015544366091489792,-10.534111022949219
1.7294926155290452e+18,0.003598119132220745,-0.026100296527147293,-10.72056770324707
1.7294926155380454e+18,-0.013114407658576965,0.08527694642543793,-10.658384323120117
1.7294926155470456e+18,0.02995387278497219,-0.04675107076764107,-10.636168479919434
1.7294926155560458e+18,0.018797017633914948,0.0446515716612339,-10.630509376525879
1.729492615562046e+18,-0.029830852523446083,0.020427631214261055,-10.612488746643066
1.7294926155710461e+18,0.0024387913290411234,-0.039147451519966125,-10.619196891784668
1.7294926155800463e+18,-0.10818789154291153,0.060485027730464935,-10.621217727661133
1.7294926155890465e+18,0.023804783821105957,-0.1011328175663948,-10.73731803894043
1.7294926155950467e+18,-0.013832522556185722,-0.024488288909196854,-10.628539085388184
1.7294926156040468e+18,0.04238103702664375,-0.008974455296993256,-10.686808586120605
1.729492615613047e+18,-0.04886731132864952,-0.024393664672970772,-10.558287620544434
1.7294926156190472e+18,0.059498131275177,-0.037581417709589005,-10.662925720214844
1.7294926156280474e+18,0.030573813244700432,0.002348545240238309,-10.690497398376465
1.7294926156340475e+18,-0.027817828580737114,-0.001890224521048367,-10.592113494873047
1.7294926156430477e+18,0.024179130792617798,-0.05729232355952263,-10.741440773010254
1.729492615655048e+18,0.0031324021983891726,0.054532285779714584,-10.695722579956055
1.729492615661048e+18,-0.0028135147877037525,0.04685826972126961,-10.66434097290039
1.7294926156700483e+18,0.00913301296532154,0.057884879410266876,-10.631503105163574
1.7294926156790484e+18,-0.052495326846838,0.003485945053398609,-10.652348518371582
1.7294926156880486e+18,-0.02675604820251465,-0.0638500452041626,-10.58076000213623
1.7294926156940488e+18,-0.02111945115029812,0.04451002925634384,-10.628260612487793
1.729492615703049e+18,-0.06573408097028732,-0.010668646544218063,-10.606827735900879
1.7294926157120492e+18,-0.008384926244616508,-0.013146914541721344,-10.618182182312012
1.7294926157210493e+18,0.026371514424681664,-0.031083330512046814,-10.62148666381836
1.7294926157300495e+18,0.023482762277126312,-0.016873616725206375,-10.582817077636719
1.7294926157360497e+18,0.001465096022002399,-0.05273791775107384,-10.534683227539062
1.7294926157450499e+18,0.021906627342104912,0.008280100300908089,-10.60898208618164
1.72949261575405e+18,0.037472888827323914,-0.027022192254662514,-10.576827049255371
1.7294926157600502e+18,0.0372343435883522,-0.011368731036782265,-10.56472110748291
1.7294926157690504e+18,0.01656189188361168,-0.0005717453896068037,-10.565543174743652
1.7294926157780506e+18,-0.0006907971110194921,0.021140417084097862,-10.695836067199707
1.7294926157870508e+18,0.01626540906727314,-0.10325208306312561,-10.693771362304688
1.729492615793051e+18,0.0539388433098793,0.03923112154006958,-10.616833686828613
1.729492615802051e+18,0.07484305649995804,-0.022303001955151558,-10.567852973937988
1.7294926158110513e+18,-0.05321630463004112,0.04098091274499893,-10.551283836364746
1.7294926158200515e+18,-0.03941874951124191,0.04552703723311424,-10.646536827087402
1.7294926158260516e+18,-0.04177119582891464,-0.04729617387056351,-10.669671058654785
1.7294926158350518e+18,-0.00682784104719758,-0.007612116169184446,-10.572602272033691
1.729492615841052e+18,-0.04941369965672493,0.009944368153810501,-10.710611343383789
1.729492615850052e+18,0.004923466593027115,-0.04540636017918587,-10.598063468933105
1.7294926158590523e+18,-0.00441091088578105,-0.008227705955505371,-10.549177169799805
1.7294926158680525e+18,-0.03186134621500969,0.01943689025938511,-10.557641983032227
1.7294926158770527e+18,0.023459095507860184,0.051753055304288864,-10.683538436889648
1.7294926158860529e+18,-0.03786039724946022,-0.008339676074683666,-10.61087417602539
1.729492615892053e+18,0.0677141547203064,0.005036613903939724,-10.553905487060547
1.7294926159010532e+18,0.029919516295194626,0.08975687623023987,-10.643292427062988
1.7294926159100534e+18,0.004039797931909561,-0.002431296743452549,-10.573464393615723
1.7294926159190536e+18,0.02764742076396942,0.0017757120076566935,-10.636788368225098
1.7294926159250537e+18,0.04403569921851158,-0.03903636336326599,-10.531042098999023
1.729492615934054e+18,0.06372331827878952,-0.014538808725774288,-10.573792457580566
1.729492615943054e+18,-0.08053399622440338,-0.03508201986551285,-10.607664108276367
1.7294926159520543e+18,-0.036921776831150055,0.045931924134492874,-10.525985717773438
1.7294926159610545e+18,0.06271945685148239,-0.022401968017220497,-10.672029495239258
1.7294926159670546e+18,0.04379407688975334,0.09039779752492905,-10.597304344177246
1.7294926159760548e+18,0.06558047235012054,0.033929575234651566,-10.581089973449707
1.729492615985055e+18,0.021006211638450623,-0.05033411085605621,-10.50442886352539
1.7294926159940552e+18,0.0010532070882618427,-0.023424450308084488,-10.633828163146973
1.7294926160000553e+18,-0.0027545574121177197,0.04605623334646225,-10.659503936767578
1.7294926160090555e+18,-0.000877868034876883,-0.014514802023768425,-10.552508354187012
1.7294926160180557e+18,-0.010859432630240917,-0.006594785954803228,-10.594581604003906
1.7294926160270559e+18,-0.03410191461443901,-0.02377389557659626,-10.56661319732666
1.729492616036056e+18,0.010826785117387772,-0.052527572959661484,-10.53219985961914
1.7294926160450563e+18,0.0035593865904957056,-0.0034880395978689194,-10.612457275390625
1.7294926160540564e+18,0.11040284484624863,0.01906977780163288,-10.55358600616455
1.7294926160600566e+18,-0.10220900177955627,0.05706717446446419,-10.585472106933594
1.7294926160690568e+18,0.0072820307686924934,0.028167886659502983,-10.529704093933105
1.729492616078057e+18,-0.0017811376601457596,0.007906231097877026,-10.623425483703613
1.7294926160870572e+18,-0.05148228257894516,-0.06850728392601013,-10.563982009887695
1.7294926160960573e+18,0.008769561536610126,-0.03760746866464615,-10.594175338745117
1.7294926161020575e+18,0.06411362439393997,-0.007107258308678865,-10.55168628692627
1.7294926161110577e+18,-0.07679533213376999,-0.10053305327892303,-10.564358711242676
1.7294926161200579e+18,-0.0239359512925148,-0.039315078407526016,-10.521161079406738
1.729492616129058e+18,0.01384448166936636,-0.06790676712989807,-10.618782043457031
1.7294926161380582e+18,0.038843028247356415,-0.08426448702812195,-10.575371742248535
1.7294926161440584e+18,0.045104313641786575,-0.000719082891009748,-10.525705337524414
1.7294926161530586e+18,0.024922089651226997,-0.007975496351718903,-10.594463348388672
1.7294926161620588e+18,-0.0783148929476738,0.03265056386590004,-10.620445251464844
1.729492616171059e+18,0.00017075355572160333,0.031263019889593124,-10.666711807250977
1.729492616177059e+18,-0.030304931104183197,-0.02267737127840519,-10.54299259185791
1.7294926161860593e+18,-0.007271066308021545,0.06951642036437988,-10.552063941955566
1.7294926161950595e+18,0.023318232968449593,0.05398525670170784,-10.489060401916504
1.7294926162040596e+18,-0.028644362464547157,-0.04781106859445572,-10.45336627960205
1.7294926162130598e+18,0.011191711761057377,0.023711174726486206,-10.536877632141113
1.72949261622206e+18,-0.02599477954208851,-0.04788724333047867,-10.537945747375488
1.7294926162280602e+18,0.020659945905208588,-0.02433057874441147,-10.619131088256836
1.7294926162370604e+18,-0.023379269987344742,0.04989699274301529,-10.540067672729492
1.7294926162460605e+18,0.07038111239671707,-0.11124905198812485,-10.529053688049316
1.7294926162550607e+18,0.014976506121456623,0.05629926174879074,-10.57303524017334
1.7294926162610609e+18,-0.017925258725881577,-0.0666094422340393,-10.561731338500977
1.729492616270061e+18,-0.009445901960134506,0.029663914814591408,-10.625393867492676
1.7294926162790612e+18,0.018726496025919914,0.03695155680179596,-10.508790969848633
1.7294926162880614e+18,0.02654426544904709,-0.012001830153167248,-10.488548278808594
1.7294926162940616e+18,0.010365436784923077,-0.03863673284649849,-10.525887489318848
1.7294926163030618e+18,-0.01161699928343296,0.04741412028670311,-10.486160278320312
1.729492616312062e+18,-0.009057413786649704,0.06143448129296303,-10.398788452148438
1.729492616318062e+18,0.04180688410997391,-0.03142807260155678,-10.405974388122559
1.7294926163270623e+18,-0.02286999486386776,-0.054178863763809204,-10.340583801269531
1.7294926163360625e+18,0.10457266122102737,0.05334273353219032,-10.408056259155273
1.7294926163450627e+18,-0.0243648923933506,-0.015454994514584541,-10.339333534240723
1.7294926163540628e+18,-0.04384643957018852,0.007466839626431465,-10.30078125
1.729492616363063e+18,-0.0447276309132576,0.024141360074281693,-10.251346588134766
1.7294926163720632e+18,0.003384628798812628,-0.04499925300478935,-10.203254699707031
1.7294926163780634e+18,0.03917744383215904,0.04560542479157448,-10.234128952026367
1.7294926163870636e+18,-0.048577018082141876,-0.0430486761033535,-10.246986389160156
1.7294926163960637e+18,0.09284766018390656,0.02298828586935997,-10.088854789733887
1.729492616405064e+18,-0.028452560305595398,0.08682011067867279,-10.080456733703613
1.729492616414064e+18,-0.0521719753742218,-0.015389314852654934,-10.173070907592773
1.7294926164230643e+18,0.0022430422250181437,-0.029956337064504623,-10.075618743896484
1.7294926164320645e+18,-0.01484038308262825,-0.015748057514429092,-10.039048194885254
1.7294926164380646e+18,0.02811681479215622,0.00782443955540657,-10.03541374206543
1.7294926164470648e+18,0.06433171033859253,0.09922508895397186,-10.02372932434082
1.729492616456065e+18,0.0039704651571810246,-0.048334889113903046,-9.89220905303955
1.7294926164650652e+18,0.11727221310138702,0.01792151667177677,-9.983044624328613
1.7294926164740654e+18,-0.0012962130131199956,0.04006488248705864,-9.961915969848633
1.7294926164800655e+18,0.012278775684535503,0.0039956094697117805,-9.959829330444336
1.7294926164890657e+18,0.007457778789103031,0.01813490130007267,-9.853076934814453
1.729492616498066e+18,-0.05010052025318146,-0.047436125576496124,-9.844746589660645
1.729492616507066e+18,-0.026035407558083534,0.06233692914247513,-9.815924644470215
1.7294926165130662e+18,0.0048823184333741665,0.057381849735975266,-9.780056953430176
1.7294926165220664e+18,-0.028729679062962532,0.08805425465106964,-9.760597229003906
1.7294926165310666e+18,-0.06467096507549286,0.039418261498212814,-9.7783842086792
1.7294926165400668e+18,-0.011149289086461067,-0.03302065283060074,-9.721853256225586
1.729492616546067e+18,0.041153885424137115,0.03481448069214821,-9.78271198272705
1.7294926165550671e+18,0.06772440671920776,-0.02007835917174816,-9.64954662322998
1.7294926165640673e+18,0.0023224162869155407,-0.022337762638926506,-9.723506927490234
1.7294926165730675e+18,-0.013333382084965706,0.034320369362831116,-9.697155952453613
1.7294926165820677e+18,-0.024882113561034203,0.015564078465104103,-9.674019813537598
1.729492616591068e+18,-0.026749107986688614,0.06263129413127899,-9.635220527648926
1.729492616597068e+18,-0.016529224812984467,-0.04935896396636963,-9.700311660766602
1.7294926166060682e+18,-0.04932863265275955,0.005663489457219839,-9.595879554748535
1.7294926166150684e+18,-0.06396747380495071,0.06541652232408524,-9.64935302734375
1.7294926166240686e+18,-0.02903699316084385,-0.10207057744264603,-9.765341758728027
1.7294926166300687e+18,0.009067734703421593,-0.018431417644023895,-9.697383880615234
1.729492616639069e+18,-0.019717900082468987,-0.056590788066387177,-9.745091438293457
1.729492616648069e+18,-0.014843830838799477,-0.008858888410031796,-9.752667427062988
1.7294926166540692e+18,0.020175492390990257,0.022984031587839127,-9.729982376098633
1.7294926166630694e+18,0.019405938684940338,-0.0007659920956939459,-9.78221321105957
1.7294926166720696e+18,0.07392055541276932,-0.049437906593084335,-9.770173072814941
1.7294926166810698e+18,0.02429126389324665,0.0097880307585001,-9.687114715576172
1.72949261669007e+18,0.0219668410718441,0.01096068974584341,-9.675724983215332
1.7294926167020703e+18,-0.017847321927547455,-0.06228034943342209,-9.642901420593262
1.7294926167110705e+18,-0.011814615689218044,0.0006340915570035577,-9.632915496826172
1.7294926167200707e+18,0.014158596284687519,0.042373429983854294,-9.6928129196167
1.7294926167290708e+18,-0.03536713868379593,0.027352849021553993,-9.623002052307129
1.729492616738071e+18,0.03472384065389633,-0.07351314276456833,-9.739274024963379
1.7294926167470712e+18,0.002761175623163581,-0.05407482758164406,-9.694238662719727
1.7294926167560714e+18,0.0243225134909153,-0.028455860912799835,-9.56313419342041
1.7294926167650716e+18,0.04125584661960602,-0.024266621097922325,-9.57855224609375
1.7294926167740718e+18,0.016349341720342636,-0.026646114885807037,-9.709338188171387
1.729492616783072e+18,0.08340221643447876,-0.0126354293897748,-9.735014915466309
1.7294926167920722e+18,0.052760958671569824,-0.03745883330702782,-9.676944732666016
1.7294926167980723e+18,-0.001981914509087801,-0.0077773453667759895,-9.670254707336426
1.7294926168070725e+18,-0.005301710218191147,-0.03456518054008484,-9.644181251525879
1.7294926168190728e+18,0.004045798443257809,-0.028612572699785233,-9.578088760375977
1.729492616828073e+18,0.02037791907787323,0.032221920788288116,-9.655061721801758
1.7294926168370732e+18,0.07964733242988586,-0.05519426614046097,-9.62900447845459
1.7294926168460733e+18,0.003101622685790062,0.022813208401203156,-9.655750274658203
1.7294926168580736e+18,0.09399447590112686,-0.01349550299346447,-9.777275085449219
1.7294926168670738e+18,-0.03236635401844978,0.033658139407634735,-9.686293601989746
1.729492616876074e+18,0.051459964364767075,0.052803754806518555,-9.650254249572754
1.7294926168850742e+18,-0.004662449937313795,0.023478610441088676,-9.611315727233887
1.7294926168940744e+18,-0.05171370133757591,0.05145232379436493,-9.541464805603027
1.7294926169030746e+18,0.05021379888057709,-0.02543502300977707,-9.616446495056152
1.7294926169090747e+18,0.012622632086277008,-0.01627107337117195,-9.693692207336426
1.729492616921075e+18,-0.05662284791469574,-0.03131827339529991,-9.636171340942383
1.729492616927075e+18,-0.05460823327302933,0.04505552351474762,-9.693886756896973
1.7294926169390753e+18,0.012252060696482658,-0.002583264373242855,-9.701115608215332
1.7294926169480755e+18,0.03053171932697296,0.014441316947340965,-9.570734977722168
1.7294926169570757e+18,-0.014101158827543259,-0.0020523197017610073,-9.707539558410645
1.729492616966076e+18,0.019983915612101555,0.019723867997527122,-9.701059341430664
1.729492616975076e+18,0.006541905924677849,-0.021989356726408005,-9.691473960876465
1.7294926169840763e+18,0.037739820778369904,0.035755813121795654,-9.52787971496582
1.7294926169930765e+18,0.0031889774836599827,-0.04899504780769348,-9.705005645751953
1.7294926170020767e+18,0.03772678226232529,0.0006636957405135036,-9.63111686706543
1.729492617014077e+18,0.025627586990594864,-0.010722251608967781,-9.688547134399414
1.729492617023077e+18,-0.06922979652881622,-0.0017461080569773912,-9.689594268798828
1.7294926170320773e+18,0.033626098185777664,-0.013654680922627449,-9.591208457946777
1.7294926170440776e+18,-0.031056664884090424,-0.01730661280453205,-9.6690034866333
1.7294926170530778e+18,-0.01273861899971962,-0.027896547690033913,-9.597261428833008
1.729492617062078e+18,-0.01402867678552866,0.059033267199993134,-9.592472076416016
1.7294926170740782e+18,-0.011268957518041134,0.044682957231998444,-9.546648979187012
1.7294926170830784e+18,-0.03622569516301155,-0.05049106106162071,-9.536334991455078
1.7294926170950787e+18,0.0004491964355111122,0.05501100793480873,-9.647491455078125
1.7294926171040788e+18,0.039560746401548386,0.03813153877854347,-9.638115882873535
1.729492617116079e+18,-0.03756997734308243,-0.01610269583761692,-9.61966609954834
1.7294926171250793e+18,-0.034082960337400436,0.0640500858426094,-9.624428749084473
1.7294926171370796e+18,-0.030119799077510834,-0.09475342184305191,-9.554095268249512
1.7294926171490798e+18,-0.027872359380126,0.01846715807914734,-9.587160110473633
1.72949261715808e+18,0.01974502019584179,-0.06748656928539276,-9.54777717590332
1.7294926171670802e+18,-0.005218666046857834,0.005108085926622152,-9.601322174072266
1.7294926171790804e+18,0.06666997820138931,-0.07836468517780304,-9.537837982177734
1.7294926171880806e+18,-0.028355073183774948,-0.10492945462465286,-9.665274620056152
1.729492617200081e+18,-0.028724364936351776,0.016148660331964493,-9.570001602172852
1.729492617209081e+18,0.0840611383318901,0.0075417375192046165,-9.470968246459961
1.7294926172210813e+18,0.014955266378819942,0.00028000539168715477,-9.510443687438965
1.7294926172300815e+18,0.034258462488651276,0.04454227536916733,-9.563471794128418
1.7294926172390817e+18,0.005271969363093376,-0.002046567387878895,-9.566433906555176
1.729492617248082e+18,-0.034707099199295044,0.024526331573724747,-9.584978103637695
1.7294926172600822e+18,0.05790366977453232,0.014578582718968391,-9.55677604675293
1.7294926172690824e+18,-0.031922221183776855,-0.05285181477665901,-9.555351257324219
1.7294926172780826e+18,0.07635511457920074,-0.018633529543876648,-9.504843711853027
1.7294926172870828e+18,0.02293260022997856,0.048346761614084244,-9.640162467956543
1.729492617299083e+18,0.048399824649095535,-0.028571154922246933,-9.499429702758789
1.7294926173080832e+18,-0.0009039861615747213,0.002770396415144205,-9.526363372802734
1.7294926173170834e+18,-0.004646235145628452,0.0016725179739296436,-9.490083694458008
1.7294926173260836e+18,-0.018576575443148613,-0.03591535985469818,-9.59157657623291
1.7294926173380838e+18,0.01575491391122341,0.0882779210805893,-9.479537963867188
1.729492617347084e+18,0.09270387142896652,0.06637059897184372,-9.553424835205078
1.7294926173560842e+18,-0.04096697270870209,-0.03287728875875473,-9.55313491821289
1.7294926173650844e+18,0.0046193962916731834,0.016495147719979286,-9.520234107971191
1.7294926173710845e+18,-0.03339394927024841,0.03809308633208275,-9.497690200805664
1.7294926173830848e+18,-0.020098775625228882,-0.060050059109926224,-9.412906646728516
1.729492617389085e+18,-0.027272537350654602,-0.006163821555674076,-9.487666130065918
1.729492617398085e+18,0.0011488129384815693,0.1402912437915802,-9.536886215209961
1.7294926174070853e+18,-0.026238858699798584,-0.01616126298904419,-9.550606727600098
1.7294926174190856e+18,0.019294193014502525,-0.041100967675447464,-9.532328605651855
1.7294926174250857e+18,-0.06267505884170532,-0.037625133991241455,-9.484009742736816
1.729492617437086e+18,0.07090439647436142,-0.015908095985651016,-9.469882011413574
1.7294926174460861e+18,-0.06223683059215546,0.021556420251727104,-9.523921012878418
1.7294926174550863e+18,0.04385318234562874,0.031139837577939034,-9.501717567443848
1.7294926174640865e+18,-0.1511700451374054,-0.01343967579305172,-9.492939949035645
1.7294926174730867e+18,-0.015179735608398914,-0.012159138917922974,-9.476090431213379
1.729492617485087e+18,-0.11681389808654785,-0.037833988666534424,-9.526476860046387
1.7294926174940872e+18,-0.00476278830319643,0.06280753016471863,-9.50666332244873
1.7294926175030874e+18,-0.0856904610991478,0.0345236137509346,-9.450499534606934
1.7294926175150876e+18,-0.09322194010019302,0.01026969961822033,-9.471039772033691
1.7294926175240878e+18,0.004590758588165045,-0.01711314544081688,-9.494617462158203
1.729492617533088e+18,0.022193195298314095,-0.003581229131668806,-9.530708312988281
1.7294926175420882e+18,-0.08862079679965973,0.026437435299158096,-9.61023235321045
1.7294926175510884e+18,-0.09132734686136246,-0.05652664229273796,-9.440428733825684
1.7294926175600886e+18,-0.006314538419246674,0.06432995945215225,-9.442117691040039
1.7294926175690888e+18,-0.005244029685854912,0.049687836319208145,-9.431787490844727
1.729492617578089e+18,-0.06491316854953766,-0.07032743096351624,-9.546653747558594
1.7294926175870892e+18,0.040526363998651505,-0.09060207009315491,-9.43695068359375
1.7294926175930893e+18,-0.031893420964479446,-0.02066154032945633,-9.446355819702148
1.7294926176020895e+18,-0.0374939925968647,0.08355575799942017,-9.372100830078125
1.7294926176110897e+18,0.070395328104496,0.09151865541934967,-9.464945793151855
1.7294926176200899e+18,0.012637471780180931,0.03193749859929085,-9.42046070098877
1.72949261762909e+18,-0.034862786531448364,0.06472144275903702,-9.407428741455078
1.7294926176380902e+18,-0.02636893093585968,0.018659107387065887,-9.581787109375
1.7294926176470904e+18,-0.0003355878288857639,0.08396993577480316,-9.442220687866211
1.7294926176560906e+18,-0.02851027064025402,-0.04359113425016403,-9.481090545654297
1.7294926176650908e+18,-0.06955410540103912,-0.03024330921471119,-9.44056510925293
1.729492617674091e+18,-0.05326255038380623,0.026233576238155365,-9.398605346679688
1.7294926176830912e+18,0.006763739045709372,-0.09668795019388199,-9.444625854492188
1.7294926176920914e+18,0.0024587158113718033,0.07534857839345932,-9.415711402893066
1.7294926177010916e+18,-0.008129257708787918,0.05385653302073479,-9.469109535217285
1.7294926177100918e+18,0.04482211917638779,0.014326414093375206,-9.458885192871094
1.729492617719092e+18,0.018849877640604973,0.07166188210248947,-9.547245979309082
1.7294926177280922e+18,0.007321043871343136,0.01626373827457428,-9.375497817993164
1.7294926177370924e+18,0.03776919096708298,-0.0051174648106098175,-9.425521850585938
1.7294926177460925e+18,-0.0041245995089411736,0.08915640413761139,-9.481046676635742
1.7294926177520927e+18,0.028473732993006706,-0.04605816677212715,-9.468070983886719
1.7294926177610929e+18,-0.017963269725441933,-0.010451249778270721,-9.455312728881836
1.729492617770093e+18,-0.02932114340364933,0.054579783231019974,-9.470943450927734
1.7294926177790932e+18,-0.04913187772035599,0.024668199941515923,-9.488368034362793
1.7294926177880934e+18,-0.07283107191324234,-0.005275224335491657,-9.369940757751465
1.7294926177970936e+18,0.028472797945141792,-0.010959837585687637,-9.440594673156738
1.7294926178060938e+18,-0.05673852562904358,0.02183445356786251,-9.435672760009766
1.729492617815094e+18,0.04423937946557999,-0.0023350673727691174,-9.457736015319824
1.7294926178240942e+18,-0.018910769373178482,-0.03965846821665764,-9.440325736999512
1.7294926178330944e+18,-0.060475654900074005,0.04870904982089996,-9.501806259155273
1.7294926178420946e+18,-0.03953520581126213,0.0436287447810173,-9.478936195373535
1.7294926178510948e+18,0.04167060926556587,0.010709483176469803,-9.514692306518555
1.729492617860095e+18,0.011568070389330387,0.05493207648396492,-9.463659286499023
1.7294926178690952e+18,-0.04625856131315231,0.0222603939473629,-9.392321586608887
1.7294926178780954e+18,-0.04610694199800491,-0.038542889058589935,-9.46891975402832
1.7294926178900956e+18,0.000527585856616497,0.01424920279532671,-9.409111022949219
1.7294926178990958e+18,-0.001372573897242546,-0.031149907037615776,-9.451653480529785
1.729492617908096e+18,-0.010231001302599907,0.04254479706287384,-9.415660858154297
1.7294926179200963e+18,-0.03942893072962761,-0.04970381036400795,-9.475021362304688
1.7294926179290964e+18,-0.002006291877478361,0.05976302549242973,-9.392810821533203
1.7294926179380966e+18,-0.07504899054765701,-0.026161670684814453,-9.449793815612793
1.729492617950097e+18,-0.04031722620129585,-0.049792710691690445,-9.412185668945312
1.729492617959097e+18,0.0463583879172802,0.02144794538617134,-9.476792335510254
1.7294926179680973e+18,0.032123394310474396,0.057802822440862656,-9.261733055114746
1.7294926179770975e+18,-0.015455115586519241,0.0021628192625939846,-9.391261100769043
1.7294926179860977e+18,0.027851464226841927,-0.007333073765039444,-9.465431213378906
1.7294926179950979e+18,0.05797500163316727,0.03318973258137703,-9.459657669067383
1.729492618007098e+18,-0.015149212442338467,-0.062254149466753006,-9.433910369873047
1.7294926180160983e+18,-0.05139781907200813,-0.016302360221743584,-9.396207809448242
1.7294926180250985e+18,-0.00303109479136765,0.012793843634426594,-9.363094329833984
1.7294926180340987e+18,0.029785461723804474,-0.05726649612188339,-9.405698776245117
1.729492618043099e+18,-0.012014195322990417,-0.029571527615189552,-9.3648681640625
1.7294926180550991e+18,-0.0628562942147255,-0.031275808811187744,-9.33957290649414
1.7294926180640993e+18,0.06411149352788925,0.006263981107622385,-9.3575439453125
1.7294926180730995e+18,-0.0020225439220666885,-0.027968956157565117,-9.310707092285156
1.7294926180820997e+18,0.07694252580404282,0.04417595639824867,-9.185089111328125
1.7294926180911e+18,0.0197652205824852,-0.007019708398729563,-9.253690719604492
1.7294926181031002e+18,-0.031485315412282944,0.09603212773799896,-9.226799964904785
1.7294926181121004e+18,-0.030717751011252403,-0.01090769562870264,-9.080463409423828
1.7294926181211005e+18,0.013361494056880474,-0.01994597539305687,-9.146866798400879
1.7294926181301007e+18,-0.009750820696353912,0.028333289548754692,-9.070643424987793
1.729492618139101e+18,-0.021949294954538345,0.034757036715745926,-9.02624225616455
1.729492618148101e+18,0.05280077084898949,-0.06774348020553589,-8.963566780090332
1.7294926181571013e+18,0.008633475750684738,-0.004826625809073448,-9.050846099853516
1.7294926181661015e+18,0.08409261703491211,0.03508395329117775,-8.917223930358887
1.7294926181751017e+18,0.029737146571278572,0.018156368285417557,-8.96859359741211
1.729492618184102e+18,0.007807473186403513,-0.04329410567879677,-8.922656059265137
1.729492618193102e+18,-0.009694223292171955,0.03153856843709946,-8.898406028747559
1.7294926182021023e+18,-0.014876713044941425,-0.00703861890360713,-8.91909122467041
1.7294926182111025e+18,-0.1531318575143814,0.05500142276287079,-8.803841590881348
1.7294926182201027e+18,0.02069268934428692,0.006942707113921642,-8.83443832397461
1.7294926182291028e+18,-0.07283340394496918,-0.04972168430685997,-8.691128730773926
1.729492618238103e+18,-0.0194269809871912,-0.03780082240700722,-8.800225257873535
1.7294926182471032e+18,0.08481572568416595,-0.0444633886218071,-8.670211791992188
1.7294926182561034e+18,-0.005865259096026421,-0.043584976345300674,-8.733464241027832
1.7294926182651036e+18,-0.03899373486638069,0.005640064831823111,-8.690966606140137
1.7294926182711037e+18,-0.045756738632917404,-0.005694275256246328,-8.62966251373291
1.729492618280104e+18,0.008803293108940125,-0.10473351925611496,-8.646173477172852
1.7294926182891041e+18,-0.01605926640331745,-0.01579911820590496,-8.631942749023438
1.7294926182981043e+18,-0.029467390850186348,0.005316105205565691,-8.627847671508789
1.7294926183071045e+18,0.024982742965221405,-0.02154429629445076,-8.590097427368164
1.7294926183161047e+18,-0.0515349842607975,-0.0031065093353390694,-8.669561386108398
1.729492618325105e+18,-0.0072715324349701405,-0.018386995419859886,-8.704751968383789
1.729492618334105e+18,0.006884928792715073,0.04131976515054703,-8.71742057800293
1.7294926183431053e+18,0.012855755165219307,0.026775818318128586,-8.647844314575195
1.7294926183521055e+18,0.018408117815852165,-0.02296237275004387,-8.67848014831543
1.7294926183611057e+18,0.007296825293451548,0.027544718235731125,-8.733625411987305
1.7294926183701059e+18,0.03561782464385033,0.0028463490307331085,-8.6657133102417
1.729492618379106e+18,0.02252422831952572,-0.044302843511104584,-8.800210952758789
1.7294926183881062e+18,-0.02265750803053379,-0.007394891232252121,-8.763398170471191
1.7294926183971064e+18,0.01294361986219883,-0.0857047289609909,-8.801664352416992
1.7294926184061066e+18,0.006831947714090347,-0.011627021245658398,-8.82264232635498
1.7294926184151068e+18,-0.0024839313700795174,0.019606787711381912,-8.84654712677002
1.729492618427107e+18,0.03851834684610367,0.06453708559274673,-14.84040641784668
1.7294926184361073e+18,-0.04094628989696503,0.03978125378489494,-15.793645858764648
1.7294926184451075e+18,0.08111484348773956,-0.036847073584795,-16.041776657104492
1.7294926184541076e+18,-0.03477727621793747,0.011875307187438011,-16.038206100463867
1.7294926184631078e+18,-0.003775103949010372,0.013184367679059505,-16.119701385498047
1.729492618472108e+18,0.009871652349829674,-0.044156745076179504,-16.059694290161133
1.7294926184841083e+18,0.08961290121078491,0.02330264262855053,-16.007946014404297
1.7294926184931085e+18,-0.053049229085445404,0.006528007797896862,-15.880223274230957
1.7294926184991086e+18,0.06975231319665909,0.014760620892047882,-15.798255920410156
1.7294926185081088e+18,0.014471379108726978,0.11029555648565292,-15.693299293518066
1.729492618520109e+18,0.0570417083799839,-0.021613851189613342,-15.46858024597168
1.7294926185291092e+18,-0.01996421627700329,-0.03539270907640457,-15.32447338104248
1.7294926185381094e+18,-0.04717148095369339,0.05757337063550949,-15.202996253967285
1.7294926185471096e+18,0.062278226017951965,0.039948441088199615,-15.069300651550293
1.72949261855911e+18,0.08775779604911804,0.074983611702919,-15.010458946228027
1.72949261856811e+18,-0.05477457493543625,0.07014156877994537,-14.816401481628418
1.7294926185771103e+18,0.058443281799554825,0.0728963240981102,-14.689530372619629
1.7294926185861105e+18,0.04148885980248451,0.006240262649953365,-14.59237003326416
1.7294926185951107e+18,-0.011586799286305904,0.0162309929728508,-14.38477897644043
1.7294926186041108e+18,0.008747423067688942,-0.011688295751810074,-14.394570350646973
1.729492618613111e+18,0.02872397005558014,0.01475473027676344,-14.219141006469727
1.7294926186221112e+18,0.05015932768583298,-0.049567416310310364,-14.17469310760498
1.7294926186311114e+18,-0.0413101390004158,0.059724681079387665,-14.045217514038086
1.7294926186401116e+18,-0.02476012520492077,0.011853412725031376,-13.832698822021484
1.7294926186491118e+18,-0.008049551397562027,0.01695837266743183,-13.792058944702148
1.729492618661112e+18,-0.039399344474077225,-0.031249595806002617,-13.651240348815918
1.7294926186701123e+18,-0.056723568588495255,0.007142581976950169,-13.579276084899902
1.7294926186791124e+18,-0.06561499834060669,0.06912390887737274,-13.55662727355957
1.7294926186881126e+18,-0.0311572402715683,0.018483344465494156,-13.368185997009277
1.7294926186971128e+18,-0.008814536966383457,0.031242135912179947,-13.29936695098877
1.729492618706113e+18,0.12058337777853012,0.014843327924609184,-13.334877014160156
1.7294926187151132e+18,0.022754333913326263,-0.042849622666835785,-13.13237476348877
1.7294926187241134e+18,0.017113886773586273,-0.029498280957341194,-13.080110549926758
1.7294926187331136e+18,0.007052415516227484,0.05034248158335686,-12.991621017456055
1.7294926187421138e+18,0.03813052922487259,-0.04073401540517807,-12.919944763183594
1.729492618751114e+18,0.030247658491134644,-0.0019267890602350235,-12.878171920776367
1.7294926187601142e+18,-0.026778649538755417,-0.055277738720178604,-12.761844635009766
1.7294926187691144e+18,0.009020797908306122,0.036664001643657684,-12.740330696105957
1.7294926187781146e+18,-0.03287457302212715,0.01719614863395691,-12.632357597351074
1.7294926187871148e+18,-0.02570229209959507,-0.07174112647771835,-12.593810081481934
1.729492618793115e+18,-0.03096245601773262,0.06816914677619934,-12.548589706420898
1.729492618802115e+18,-0.01167373824864626,0.014715172350406647,-12.519705772399902
1.7294926188111153e+18,0.010938996449112892,0.02075190842151642,-12.457270622253418
1.7294926188171154e+18,0.03300568461418152,-0.024194663390517235,-12.367860794067383
1.7294926188261156e+18,0.057833507657051086,-0.040661439299583435,-12.297971725463867
1.7294926188351158e+18,-0.055758535861968994,-0.04793265461921692,-12.348788261413574
1.729492618841116e+18,0.06351172178983688,0.04122954607009888,-12.365495681762695
1.729492618850116e+18,0.010631488636136055,0.06367454677820206,-12.168644905090332
1.7294926188591163e+18,-0.055311791598796844,0.035513654351234436,-12.19034194946289
1.7294926188681165e+18,0.0622587725520134,-0.009320670738816261,-12.089703559875488
1.7294926188741166e+18,-0.060173071920871735,-0.07094921916723251,-12.073664665222168
1.7294926188831168e+18,-0.04072229936718941,0.013253040611743927,-11.988797187805176
1.729492618895117e+18,0.03741974011063576,0.013261384330689907,-11.976856231689453
1.7294926189041172e+18,-0.0008933111093938351,-0.0636661946773529,-11.918129920959473
1.7294926189161175e+18,-0.024375662207603455,-0.013427895493805408,-11.893867492675781
1.7294926189251177e+18,0.016307033598423004,0.06639443337917328,-11.783879280090332
1.729492618934118e+18,-0.010417638346552849,-0.020780760794878006,-11.67668342590332
1.729492618943118e+18,-0.0461108461022377,0.004660836420953274,-11.737372398376465
1.7294926189521183e+18,-0.03170231729745865,0.039489440619945526,-11.727124214172363
1.7294926189581184e+18,0.024034611880779266,-0.010180473327636719,-11.638740539550781
1.7294926189671186e+18,0.011690778657793999,-0.006252682767808437,-11.593219757080078
1.7294926189761188e+18,-0.06016463786363602,0.008927088230848312,-11.6038179397583
1.729492618985119e+18,-0.014190657995641232,0.05311709642410278,-11.569435119628906
1.7294926189941192e+18,-0.0743584856390953,-0.018977835774421692,-11.49263858795166
1.7294926190001193e+18,-0.03799346089363098,-0.08890657126903534,-11.455245018005371
1.7294926190091195e+18,-0.03510072082281113,0.015554532408714294,-11.419903755187988
1.7294926190181197e+18,0.06503304839134216,-0.013778695836663246,-11.375904083251953
1.7294926190271199e+18,0.06316923350095749,0.020974207669496536,-11.390003204345703
1.72949261903612e+18,0.02440478280186653,0.0007589678280055523,-11.28668212890625
1.7294926190421202e+18,-0.0002587385824881494,-0.029477521777153015,-11.231669425964355
1.7294926190511204e+18,0.091432124376297,0.05276963859796524,-11.264266014099121
1.7294926190571205e+18,0.013108154758810997,0.02589692920446396,-11.311867713928223
1.7294926190661207e+18,0.0031347956974059343,-0.030229855328798294,-11.219663619995117
1.729492619075121e+18,-0.005107976961880922,-0.017067167907953262,-11.235817909240723
1.729492619084121e+18,-0.002878219122067094,0.07858028262853622,-11.130592346191406
1.7294926190931213e+18,0.04660610854625702,0.020211178809404373,-11.087626457214355
1.7294926190991214e+18,-0.07504326105117798,0.049702972173690796,-11.10810375213623
1.7294926191081216e+18,0.0008455179631710052,-0.014631083235144615,-11.00582218170166
1.7294926191171218e+18,-0.0620785728096962,0.05001574754714966,-11.049458503723145
1.729492619123122e+18,-0.004929530434310436,-0.013407358899712563,-11.005972862243652
1.729492619132122e+18,0.03738842159509659,0.0038286522030830383,-11.0393648147583
1.7294926191411223e+18,0.0319988951086998,-0.07847939431667328,-10.986688613891602
1.7294926191501225e+18,-0.03274790197610855,-0.03530066832900047,-10.890106201171875
1.7294926191561226e+18,0.05112164467573166,0.09413464367389679,-10.966621398925781
1.7294926191651228e+18,-0.06184255704283714,-0.09098544716835022,-10.961567878723145
1.729492619174123e+18,-0.07063622772693634,-0.03218156844377518,-10.897488594055176
1.7294926191831232e+18,0.0005171793745830655,0.013969509862363338,-10.907977104187012
1.7294926191891233e+18,-0.008929263800382614,0.08932489156723022,-10.933960914611816
1.7294926191981235e+18,-0.03589605912566185,0.0021007275208830833,-10.864005088806152
1.7294926192071237e+18,0.06573919206857681,0.00555451912805438,-10.807882308959961
1.729492619216124e+18,0.017170654609799385,0.00820996891707182,-10.80482006072998
1.729492619225124e+18,-0.025897284969687462,-0.05072338879108429,-10.809422492980957
1.7294926192311242e+18,0.028434723615646362,0.004712854977697134,-10.774438858032227
1.7294926192401244e+18,0.005559821147471666,0.026669954881072044,-10.690656661987305
1.7294926192491246e+18,0.023312069475650787,0.0010206210426986217,-10.686553955078125
1.7294926192581248e+18,-0.08477425575256348,0.00099367112852633,-10.72819709777832
1.729492619264125e+18,0.026853006333112717,0.0517134889960289,-10.642457962036133
1.729492619273125e+18,0.026018165051937103,0.02686554566025734,-10.612330436706543
1.7294926192821253e+18,0.04988697171211243,-0.046309471130371094,-10.71377182006836
1.7294926192911255e+18,0.013938536867499352,0.03641032427549362,-10.540770530700684
1.7294926193001257e+18,0.026579231023788452,-0.005162136163562536,-10.600289344787598
1.729492619309126e+18,0.005858180113136768,-0.024468395859003067,-10.60659408569336
1.729492619318126e+18,0.055707842111587524,-0.07226163893938065,-10.626307487487793
1.7294926193271263e+18,-0.0036707581020891666,0.03615109622478485,-10.530892372131348
1.7294926193331264e+18,-0.00042359810322523117,0.07743481546640396,-10.562411308288574
1.7294926193421266e+18,0.025217898190021515,-0.02092762105166912,-10.529296875
1.7294926193511268e+18,-0.0451895110309124,0.04898976534605026,-10.50735092163086
1.729492619360127e+18,0.022196566686034203,-0.02167409658432007,-10.516072273254395
1.7294926193691272e+18,0.010219805873930454,-0.024297550320625305,-10.537673950195312
1.7294926193751273e+18,-0.03931870311498642,-0.05984839051961899,-10.391347885131836
1.7294926193841275e+18,-0.022886866703629494,0.09543348848819733,-10.496320724487305
1.7294926193931277e+18,0.04079478234052658,-0.012301773764193058,-10.45058822631836
1.729492619402128e+18,-0.015365982428193092,-0.024698588997125626,-10.40423583984375
1.729492619411128e+18,0.03272261843085289,0.0001419550972059369,-10.428343772888184
1.7294926194201283e+18,0.06856735050678253,-0.04122764617204666,-10.46008586883545
1.7294926194261284e+18,-0.010578902438282967,-0.09710250049829483,-10.415082931518555
1.7294926194351286e+18,-0.08662497997283936,-0.008781476877629757,-10.422252655029297
1.7294926194411287e+18,-0.04683356359601021,-0.02845809981226921,-10.252188682556152
1.729492619450129e+18,-0.050484757870435715,0.01416994258761406,-10.301527976989746
1.729492619459129e+18,-0.0066536967642605305,-0.01916247420012951,-10.263528823852539
1.7294926194651292e+18,0.030015621334314346,0.06695480644702911,-10.269671440124512
1.7294926194741294e+18,0.08473160862922668,-0.021536175161600113,-10.286993980407715
1.7294926194831296e+18,-0.011953629553318024,-0.002085592830553651,-10.295584678649902
1.7294926194921298e+18,0.017346985638141632,0.02710667997598648,-10.211357116699219
1.72949261950113e+18,-0.006417743396013975,-0.05158907175064087,-10.314056396484375
1.72949261950713e+18,-0.0015526232309639454,0.000661644502542913,-10.255755424499512
1.7294926195161303e+18,-0.006751523353159428,-0.11252234876155853,-10.24099349975586
1.7294926195251305e+18,0.04488490894436836,0.02928898110985756,-10.250667572021484
1.7294926195311306e+18,-0.09667975455522537,0.016174359247088432,-10.198038101196289
1.7294926195401308e+18,-0.04335472360253334,-0.026579640805721283,-10.280051231384277
1.729492619546131e+18,0.06626059114933014,0.008193714544177055,-10.2394380569458
1.7294926195551311e+18,-0.07127656787633896,-0.016431588679552078,-10.128244400024414
1.7294926195641313e+18,0.09762725979089737,-0.03405509144067764,-10.159563064575195
1.7294926195701315e+18,0.027429303154349327,0.015661347657442093,-10.181818962097168
1.7294926195791316e+18,0.03428279608488083,-0.007993747480213642,-10.222532272338867
1.7294926195881318e+18,0.0032566734589636326,-0.07171133905649185,-10.2012300491333
1.729492619597132e+18,0.015117112547159195,-0.026367850601673126,-10.189423561096191
1.7294926196031322e+18,-0.040526922792196274,-5.889334715902805e-05,-10.167560577392578
1.7294926196121324e+18,-0.06791006773710251,0.028261754661798477,-10.133142471313477
1.7294926196211325e+18,0.04838414490222931,-0.03038695640861988,-10.111233711242676
1.7294926196301327e+18,-0.05386897176504135,0.07936451584100723,-10.0924711227417
1.729492619639133e+18,-0.0015234178863465786,-0.021162720397114754,-10.143613815307617
1.729492619645133e+18,0.007707437500357628,-0.03356152027845383,-10.110355377197266
1.7294926196541332e+18,0.0321856364607811,0.029707130044698715,-10.059624671936035
1.7294926196631334e+18,-0.009801116771996021,0.05963496118783951,-10.040390014648438
1.7294926196721336e+18,-0.009726152755320072,0.04423511028289795,-10.07707691192627
1.7294926196811338e+18,0.0016014790162444115,0.05688348785042763,-10.099297523498535
1.729492619690134e+18,0.0006136258598417044,0.03650129213929176,-10.076763153076172
1.7294926196991342e+18,0.05640094354748726,-0.058632005006074905,-10.041394233703613
1.7294926197081344e+18,-0.009444724768400192,0.021770920604467392,-9.984146118164062
1.7294926197171346e+18,0.08110271394252777,0.008013894781470299,-10.044646263122559
1.7294926197231347e+18,-0.010653196834027767,0.058454085141420364,-10.029437065124512
1.729492619732135e+18,0.06634669750928879,-0.03793179616332054,-10.012825012207031
1.729492619741135e+18,-0.05049777776002884,-0.013294954784214497,-9.927103996276855
1.7294926197501353e+18,0.0718148723244667,0.030814914032816887,-9.999673843383789
1.7294926197591355e+18,0.043514054268598557,0.05508175119757652,-10.03487491607666
1.7294926197651356e+18,0.00025903969071805477,0.02890302613377571,-9.989012718200684
1.7294926197741358e+18,0.03895096108317375,-0.008220156654715538,-9.911824226379395
1.729492619783136e+18,0.030193274840712547,-0.009716606698930264,-10.02039623260498
1.7294926197921362e+18,-0.0075620259158313274,-0.08103208243846893,-9.927176475524902
1.7294926197981363e+18,0.017688164487481117,0.04870709404349327,-9.968192100524902
1.7294926198071365e+18,0.05806056782603264,0.023499812930822372,-9.973718643188477
1.7294926198161367e+18,0.004567107185721397,0.1069721058011055,-9.948420524597168
1.7294926198221368e+18,-0.04970252886414528,-0.021875372156500816,-9.900662422180176
1.729492619831137e+18,-0.04966827109456062,0.006725815124809742,-9.91751480102539
1.7294926198371372e+18,0.002241810318082571,-0.02230851911008358,-9.924149513244629
1.7294926198461373e+18,-0.030837932601571083,-0.05991312488913536,-9.903125762939453
1.7294926198521375e+18,0.02109334245324135,0.0020701508037745953,-9.951255798339844
1.7294926198671378e+18,-0.0003177258186042309,-0.034174595028162,-9.899397850036621
1.729492619873138e+18,-0.02392757311463356,0.03429113328456879,-9.929545402526855
1.729492619882138e+18,-0.05514604225754738,0.059613119810819626,-9.968412399291992
1.7294926198911383e+18,0.05959656462073326,-0.09888943284749985,-9.918519973754883
1.7294926199001385e+18,0.10880331695079803,0.011168375611305237,-9.927867889404297
1.7294926199061386e+18,0.009294387884438038,-0.023448003455996513,-9.896188735961914
1.729492619918139e+18,-0.004622175823897123,-0.026291899383068085,-9.9166259765625
1.729492619924139e+18,-0.005211669020354748,-0.01221582293510437,-9.934118270874023
1.7294926199331392e+18,-0.03328176960349083,0.017854170873761177,-9.836078643798828
1.7294926199451395e+18,-0.011650748550891876,-0.0728459432721138,-9.892802238464355
1.7294926199601398e+18,-0.011978290043771267,-0.00896469596773386,-9.844589233398438
1.72949261996914e+18,-0.01834390126168728,0.022917788475751877,-9.907405853271484
1.7294926199781402e+18,0.1206381618976593,0.09009655565023422,-9.87698745727539
1.7294926199871404e+18,-0.11507280170917511,-0.025818275287747383,-9.783933639526367
1.7294926199961405e+18,0.00813992414623499,0.002915200311690569,-9.879415512084961
1.7294926200051407e+18,-0.06192715838551521,-0.08447074145078659,-9.818597793579102
1.729492620014141e+18,0.0711376816034317,0.046145886182785034,-9.87804889678955
1.729492620020141e+18,-0.021450569853186607,0.05974160134792328,-9.82998275756836
1.7294926200291412e+18,0.027469951659440994,0.05794054642319679,-9.805912017822266
1.7294926200381414e+18,0.006674247793853283,-0.030876366421580315,-9.758056640625
1.7294926200471416e+18,-0.0982348844408989,-0.011873183771967888,-9.820121765136719
1.7294926200561418e+18,0.01615452580153942,-0.06740003079175949,-9.830355644226074
1.729492620062142e+18,-0.029811188578605652,0.08285585790872574,-9.846707344055176
1.7294926200711421e+18,0.013751469552516937,-0.07972926646471024,-9.777482032775879
1.7294926200801423e+18,0.014650586061179638,0.021599404513835907,-9.763394355773926
1.7294926200891425e+18,-0.06938745826482773,0.08650069683790207,-9.844675064086914
1.7294926200981427e+18,0.0240732803940773,-0.01442160177975893,-9.788256645202637
1.729492620107143e+18,0.01666957326233387,-0.0147447744384408,-9.767149925231934
1.729492620113143e+18,0.011001160368323326,-0.029523620381951332,-9.795231819152832
1.7294926201221432e+18,0.06976525485515594,-0.0027888547629117966,-9.76447868347168
1.7294926201311434e+18,0.05515337735414505,-0.06484544277191162,-9.78675365447998
1.7294926201401436e+18,0.049231983721256256,0.055742520838975906,-9.810890197753906
1.7294926201461437e+18,0.0025967832189053297,0.009891255758702755,-9.789306640625
1.729492620155144e+18,0.020823214203119278,-0.03764959052205086,-9.813121795654297
1.729492620161144e+18,-0.02507084608078003,-0.05650267004966736,-9.777060508728027
1.7294926201701443e+18,0.002548367250710726,0.01918720453977585,-9.843376159667969
1.7294926201761444e+18,0.018223419785499573,0.005447793751955032,-9.752408981323242
1.7294926201851446e+18,0.04502801597118378,0.05730266124010086,-9.773149490356445
1.7294926201911447e+18,0.034233029931783676,0.07092177122831345,-9.782550811767578
1.729492620200145e+18,0.046001795679330826,-0.050755683332681656,-9.790948867797852
1.729492620209145e+18,0.020185891538858414,-0.0005319549236446619,-9.722679138183594
1.7294926202151452e+18,-0.040701974183321,0.029470326378941536,-9.858315467834473
1.7294926202241454e+18,-0.005866636522114277,-0.08116135001182556,-9.738666534423828
1.7294926202331456e+18,0.08042888343334198,0.046834420412778854,-9.786311149597168
1.7294926202391457e+18,0.0413336381316185,0.027992188930511475,-9.729293823242188
1.729492620248146e+18,-0.021452302113175392,-0.014939535409212112,-9.723189353942871
1.7294926202601462e+18,0.017984602600336075,-0.02598022110760212,-9.745440483093262
1.7294926202661463e+18,-0.031297676265239716,0.01795949973165989,-9.750287055969238
1.7294926202751465e+18,-0.05638420209288597,0.02886136993765831,-9.754172325134277
1.7294926202841467e+18,-0.006965563632547855,-0.029912102967500687,-9.783406257629395
1.729492620293147e+18,0.0220552459359169,0.0382172092795372,-9.814908981323242
1.729492620302147e+18,0.06266635656356812,-0.08493611961603165,-9.836054801940918
1.7294926203081472e+18,0.05527624487876892,0.025915786623954773,-9.724838256835938
1.7294926203171474e+18,-0.029986895620822906,0.026734335348010063,-9.777983665466309
1.7294926203261476e+18,-0.03532857447862625,-0.08037654310464859,-9.755364418029785
1.7294926203351478e+18,-0.009735080413520336,-0.11318758130073547,-9.74826431274414
1.729492620341148e+18,0.056769438087940216,0.013238958083093166,-9.780147552490234
1.729492620350148e+18,-0.02446996234357357,0.003548744134604931,-9.72691535949707
1.7294926203591483e+18,-0.043699897825717926,-0.009926061145961285,-9.732534408569336
1.7294926203681485e+18,-0.005095314234495163,0.004273205529898405,-9.751511573791504
1.7294926203741486e+18,-0.048958320170640945,-0.005309611558914185,-9.685860633850098
1.7294926203831488e+18,0.01835077628493309,0.02403898909687996,-9.658599853515625
1.729492620392149e+18,0.007455631159245968,-0.02970306947827339,-9.727412223815918
1.729492620398149e+18,0.024790339171886444,-0.021107438951730728,-9.797985076904297
1.7294926204071493e+18,-0.015676777809858322,0.0807863399386406,-9.850878715515137
1.7294926204161495e+18,0.0627284049987793,0.07948262989521027,-9.797412872314453
1.7294926204251497e+18,0.028539283201098442,-0.07305613905191422,-9.764387130737305
1.72949262043415e+18,0.008812579326331615,0.04088816046714783,-9.785772323608398
1.72949262044315e+18,0.031081020832061768,0.035489026457071304,-9.777274131774902
1.7294926204521503e+18,-0.0016663884744048119,-0.04925014451146126,-9.776659965515137
1.7294926204611505e+18,-0.003456399543210864,0.03424648195505142,-9.851105690002441
1.7294926204701507e+18,0.017960505560040474,0.05226872116327286,-9.855645179748535
1.7294926204761508e+18,-0.09325475245714188,-0.040427837520837784,-9.831189155578613
1.729492620485151e+18,0.0016781570157036185,-0.030658181756734848,-9.871221542358398
1.7294926204941512e+18,0.06172123923897743,-0.005411136895418167,-9.814351081848145
1.7294926205001513e+18,0.020697571337223053,-0.07083955407142639,-9.799731254577637
1.7294926205091515e+18,-0.00010521119111217558,-0.037359002977609634,-9.799551010131836
1.7294926205151516e+18,-0.1312100738286972,-0.0260428749024868,-9.802925109863281
1.7294926205241518e+18,0.00020138949912507087,0.0019489978440105915,-9.823760986328125
1.729492620530152e+18,0.049767397344112396,0.043361518532037735,-9.829328536987305
1.7294926205391521e+18,0.06410366296768188,0.021829193457961082,-9.800045013427734
1.7294926205481523e+18,-0.059610914438962936,-0.10326715558767319,-9.84046459197998
1.7294926205571525e+18,0.02165444940328598,-0.0384308397769928,-9.821013450622559
1.7294926205631526e+18,-0.022118642926216125,0.06848892569541931,-9.820592880249023
1.7294926205721528e+18,0.021242626011371613,0.04505709931254387,-9.796908378601074
1.729492620581153e+18,-0.028038006275892258,0.005855462979525328,-9.876236915588379
1.7294926205871532e+18,0.008644561283290386,0.05593983829021454,-9.77927303314209
1.7294926205961533e+18,-0.048797912895679474,0.008789503946900368,-9.765043258666992
1.7294926206051535e+18,0.09063791483640671,-0.04361600801348686,-9.778935432434082
1.7294926206141537e+18,0.011701248586177826,0.05310177803039551,-9.825697898864746
1.729492620629154e+18,0.04768698289990425,0.02010009065270424,-9.720868110656738
1.7294926206381542e+18,0.021824168041348457,-0.08890867233276367,-9.76616096496582
1.7294926206441544e+18,0.02580878883600235,0.007256840355694294,-9.737268447875977
1.7294926206561546e+18,-0.01705247163772583,-0.01186286099255085,-9.742920875549316
1.729492620668155e+18,0.07230277359485626,-0.011208073236048222,-9.654685974121094
1.729492620677155e+18,0.013655202463269234,0.063463494181633,-9.839377403259277
1.7294926206861553e+18,0.03134068474173546,-0.00420546717941761,-9.739029884338379
1.7294926206951555e+18,0.026575185358524323,0.06453535705804825,-9.814718246459961
1.7294926207041556e+18,0.03521174564957619,0.053546346724033356,-9.766931533813477
1.729492620716156e+18,-0.07665583491325378,-0.024211710318922997,-9.845331192016602
1.729492620725156e+18,-0.03198028355836868,-0.014164096675813198,-9.745260238647461
1.7294926207341563e+18,0.0209241583943367,0.0768035352230072,-9.76976203918457
1.7294926207431565e+18,-0.03166956454515457,-0.041914839297533035,-9.802959442138672
1.7294926207521567e+18,0.009895818307995796,0.0296565480530262,-9.800859451293945
1.7294926207581568e+18,0.037421561777591705,-0.0006722611142322421,-9.765703201293945
1.729492620767157e+18,-0.02782589942216873,-0.0012858668342232704,-9.774565696716309
1.7294926207761572e+18,0.050461769104003906,-0.0055181970819830894,-9.749653816223145
1.7294926207851574e+18,0.07722814381122589,-0.03140532225370407,-9.716365814208984
1.7294926207941576e+18,0.05326566472649574,-0.02133783884346485,-9.832218170166016
1.7294926208031578e+18,-0.020819153636693954,-0.09303711354732513,-9.734800338745117
1.729492620809158e+18,0.018058015033602715,-0.00879889726638794,-9.774706840515137
1.729492620818158e+18,-0.03996635600924492,-0.019673023372888565,-9.813888549804688
1.7294926208271583e+18,0.03326621651649475,-0.057093530893325806,-9.772339820861816
1.7294926208331584e+18,-0.048660531640052795,0.017060983926057816,-9.717961311340332
1.7294926208421586e+18,0.0308349821716547,-0.10893934965133667,-9.746713638305664
1.7294926208481587e+18,0.09746646136045456,-0.002750881016254425,-9.715703964233398
1.729492620857159e+18,-4.9902620958164334e-05,0.035017214715480804,-9.735837936401367
1.729492620866159e+18,0.01919553615152836,-0.01688218303024769,-9.760613441467285
1.7294926208751593e+18,-0.01286425068974495,-0.0012210957938805223,-9.764232635498047
1.7294926208811594e+18,-0.009754195809364319,-0.042023830115795135,-9.748758316040039
1.7294926208901596e+18,-0.02252965047955513,-0.022937502712011337,-9.718321800231934
1.7294926208961597e+18,0.0034072473645210266,-0.016262874007225037,-9.711700439453125
1.72949262090516e+18,0.013387616723775864,-0.009575573727488518,-9.740301132202148
1.72949262091116e+18,-0.012331602163612843,-0.006306371185928583,-9.723162651062012
1.7294926209201603e+18,-0.06731262803077698,0.026206569746136665,-9.780101776123047
1.7294926209261604e+18,-0.007729174569249153,-0.031328197568655014,-9.63768482208252
1.7294926209351606e+18,0.046708401292562485,0.0014646286144852638,-9.717975616455078
1.7294926209441608e+18,0.058078110218048096,-0.03512429818511009,-9.736506462097168
1.729492620950161e+18,0.03135954216122627,-0.004304695408791304,-9.798158645629883
1.729492620959161e+18,0.04722711816430092,-0.003688835073262453,-9.729528427124023
1.7294926209681613e+18,-0.006804320495575666,-0.007220744621008635,-9.761137008666992
1.7294926209771615e+18,0.0245063379406929,0.00027241502539254725,-9.79179859161377
1.7294926209831616e+18,-0.024851512163877487,0.007265300955623388,-9.806628227233887
1.7294926209921618e+18,-0.00033951614750549197,-0.06743662804365158,-9.703346252441406
1.729492621001162e+18,-0.004840498324483633,0.07048014551401138,-9.657466888427734
1.7294926210101622e+18,-0.056318268179893494,0.024898512288928032,-9.72300910949707
1.7294926210191624e+18,0.07012911140918732,-0.022592972964048386,-9.758489608764648
1.7294926210251625e+18,-0.10230031609535217,-0.026018714532256126,-9.737465858459473
1.7294926210341627e+18,0.021293925121426582,0.017573900520801544,-9.724844932556152
1.729492621043163e+18,-0.06477165222167969,0.03290849179029465,-9.78512954711914
1.729492621052163e+18,-0.018539197742938995,-0.07144837826490402,-9.72044563293457
1.7294926210611633e+18,-0.02578870952129364,0.045460838824510574,-9.74106502532959
1.7294926210701635e+18,-0.06392237544059753,0.0361902192234993,-9.70197582244873
1.7294926210791636e+18,0.017037304118275642,-0.01773800700902939,-9.663586616516113
1.7294926210881638e+18,0.08048436045646667,0.07808847725391388,-9.691751480102539
1.729492621097164e+18,0.02690630406141281,-0.028476472944021225,-9.74394702911377
1.7294926211061642e+18,0.016011124476790428,0.05781544744968414,-9.800097465515137
1.7294926211151644e+18,0.007457107771188021,-0.011850407347083092,-9.843120574951172
1.7294926211241646e+18,-0.03344901278614998,-0.044788483530282974,-9.692354202270508
1.7294926211301647e+18,0.05281753093004227,-0.01279347576200962,-9.711990356445312
1.729492621139165e+18,0.0013362138997763395,0.04484507814049721,-9.722237586975098
1.729492621148165e+18,0.08921872079372406,-0.005926842801272869,-9.747462272644043
1.7294926211571653e+18,0.047229476273059845,0.07279416173696518,-9.796037673950195
1.7294926211661655e+18,-0.05714576691389084,-0.0355440154671669,-9.813599586486816
1.7294926211721656e+18,0.012918900698423386,0.022549469023942947,-9.733553886413574
1.7294926211811658e+18,0.012863250449299812,0.013556621968746185,-9.71074104309082
1.729492621190166e+18,0.06618068367242813,-0.01967541128396988,-9.737874984741211
1.7294926211991662e+18,0.08608695864677429,0.008309060707688332,-9.680517196655273
1.7294926212051663e+18,0.037299059331417084,-0.032365113496780396,-9.694053649902344
1.7294926212141665e+18,0.01824374496936798,0.02442670613527298,-9.777673721313477
1.7294926212231667e+18,0.025157717987895012,-0.029430676251649857,-9.77846622467041
1.729492621232167e+18,0.0006902444874867797,-0.00896407850086689,-9.685222625732422
1.729492621238167e+18,-0.026465613394975662,-0.00549293914809823,-9.757384300231934
1.7294926212471672e+18,0.06159700080752373,-0.012068750336766243,-9.743048667907715
1.7294926212561674e+18,-0.01920146495103836,0.05391930043697357,-9.740985870361328
1.7294926212621676e+18,-0.02247791364789009,0.005977004300802946,-9.722631454467773
1.7294926212711677e+18,-0.01236913911998272,0.010801155120134354,-9.743961334228516
1.729492621280168e+18,-0.00999713595956564,0.05570736527442932,-9.726411819458008
1.729492621286168e+18,0.013163510710000992,-0.03251194953918457,-9.76745891571045
1.7294926212951683e+18,-0.01787276566028595,0.008784255012869835,-9.79043197631836
1.7294926213041684e+18,0.05206229165196419,-0.0014317668974399567,-9.789863586425781
1.7294926213101686e+18,-0.030750857666134834,-0.040675580501556396,-9.742949485778809
1.7294926213191688e+18,0.017474960535764694,-0.04802530258893967,-9.621819496154785
1.729492621325169e+18,-0.007555585354566574,0.04951310530304909,-9.72080135345459
1.729492621331169e+18,0.05863380432128906,-0.03376562148332596,-9.736942291259766
1.7294926213401692e+18,-0.02194116823375225,0.006215356756001711,-9.731245994567871
1.7294926213491694e+18,0.007820541970431805,-0.023722141981124878,-9.705794334411621
1.7294926213581696e+18,-0.0030761787202209234,-0.0772358626127243,-9.74457836151123
1.7294926213641697e+18,0.013188106007874012,-0.028061117976903915,-9.713592529296875
1.72949262137317e+18,-0.025418013334274292,0.014214971102774143,-9.755414009094238
1.72949262138217e+18,0.019511094316840172,-0.03960086777806282,-9.715069770812988
1.7294926213911703e+18,-0.02278859354555607,-0.06880223006010056,-9.738434791564941
1.7294926214001705e+18,0.053222883492708206,-0.009227419272065163,-9.778824806213379
1.7294926214091707e+18,-0.07900463789701462,-0.0766298919916153,-9.694111824035645
1.729492621418171e+18,-0.005476249847561121,-0.030673377215862274,-9.72220230102539
1.729492621427171e+18,-0.04322410374879837,0.004566488787531853,-9.74199390411377
1.7294926214361713e+18,0.021456759423017502,0.04344390332698822,-9.71418285369873
1.7294926214451715e+18,0.022350981831550598,-0.0328037291765213,-9.707316398620605
1.7294926214541716e+18,0.03789195790886879,0.03630749508738518,-9.7506685256958
1.7294926214631718e+18,0.0757482647895813,0.0032819057814776897,-9.728330612182617
1.729492621472172e+18,0.010479405522346497,0.0152639951556921,-9.774433135986328
1.7294926214781722e+18,-0.0660405084490776,0.001601058291271329,-9.820503234863281
1.7294926214871724e+18,-0.0605151541531086,0.047787245362997055,-9.741934776306152
1.7294926214961725e+18,-0.025214379653334618,-0.03698378801345825,-9.711071014404297
1.7294926215051727e+18,0.007835735566914082,0.0760946050286293,-9.72706127166748
1.729492621514173e+18,0.05609535053372383,-0.002360077342018485,-9.741898536682129
1.729492621520173e+18,0.0914774015545845,-0.003770179580897093,-9.741108894348145
1.7294926215291732e+18,0.040997542440891266,-0.0039016588125377893,-9.776927947998047
1.7294926215381734e+18,0.05750683695077896,0.005252751521766186,-9.745035171508789
1.7294926215471736e+18,0.008255415596067905,-0.050523243844509125,-9.857073783874512
1.7294926215561738e+18,0.016447322443127632,0.0093143405392766,-9.782662391662598
1.729492621562174e+18,-0.021221017464995384,-0.014941566623747349,-9.66473388671875
1.7294926215711741e+18,-0.006919619161635637,-0.045471057295799255,-9.706971168518066
1.7294926215801743e+18,-0.009548441506922245,0.03284681215882301,-9.76279354095459
1.7294926215861745e+18,0.011868933215737343,0.02776024490594864,-9.793203353881836
1.7294926215951747e+18,0.039273135364055634,0.007532921619713306,-9.770905494689941
1.7294926216011748e+18,-0.049606580287218094,-0.0012596003944054246,-9.801355361938477
1.729492621610175e+18,-0.01159692369401455,-0.07062028348445892,-9.802345275878906
1.729492621616175e+18,-0.029437590390443802,0.0019673435017466545,-9.790227890014648
1.7294926216251753e+18,0.01612931489944458,0.018809214234352112,-9.80081844329834
1.7294926216311754e+18,0.037764351814985275,-0.00788809359073639,-9.681443214416504
1.7294926216401756e+18,-0.07340424507856369,-0.001619494752958417,-9.696253776550293
1.7294926216461757e+18,-0.01672980934381485,0.0940847173333168,-9.694967269897461
1.729492621655176e+18,0.019236814230680466,0.015300982631742954,-9.750895500183105
1.729492621664176e+18,0.029498394578695297,0.020095612853765488,-9.76471996307373
1.7294926216731763e+18,-0.01475793682038784,-0.03615282475948334,-9.712200164794922
1.7294926216821765e+18,-0.03498471528291702,-0.031081942841410637,-9.74155330657959
1.7294926216911767e+18,-0.041212767362594604,0.029297783970832825,-9.790533065795898
1.7294926216971768e+18,0.00970158725976944,-0.02739390917122364,-9.711892127990723
1.729492621706177e+18,0.011337789706885815,-0.043618664145469666,-9.831830978393555
1.7294926217151772e+18,-0.02277921512722969,-0.030054237693548203,-9.790507316589355
1.7294926217211773e+18,-0.06962620466947556,-0.05674819275736809,-9.742609977722168
1.7294926217301775e+18,-0.02606979012489319,-0.011119214817881584,-9.82867431640625
1.7294926217421778e+18,0.07804031670093536,-0.04143163934350014,-9.774255752563477
1.729492621751178e+18,0.060520268976688385,-0.05164991319179535,-9.712499618530273
1.7294926217601782e+18,0.03052487224340439,0.012475786730647087,-9.76490592956543
1.7294926217691784e+18,-0.02277449518442154,-0.07758533954620361,-9.751936912536621
1.7294926217811786e+18,-0.0028239998500794172,-0.06579376012086868,-9.739965438842773
1.7294926217871788e+18,-0.04588111862540245,0.06115635484457016,-9.790257453918457
1.729492621796179e+18,0.01775881089270115,-0.042605601251125336,-9.774693489074707
1.7294926218051791e+18,2.994900569319725e-05,0.04187436029314995,-9.758045196533203
1.7294926218141793e+18,-0.03349337726831436,-0.06682790070772171,-9.741471290588379
1.7294926218231795e+18,-0.020970791578292847,-5.128519842401147e-05,-9.766461372375488
1.7294926218321797e+18,-0.005048264749348164,-0.043313026428222656,-9.77598762512207
1.72949262184118e+18,0.049701057374477386,-0.06782745569944382,-9.797666549682617
1.72949262185018e+18,-0.011727896519005299,-0.030264632776379585,-9.799131393432617
1.7294926218591803e+18,-0.07138259708881378,0.1068606898188591,-9.679853439331055
1.7294926218681805e+18,0.043513692915439606,0.02155912108719349,-9.706049919128418
1.7294926218771807e+18,0.006287224590778351,-0.04819755256175995,-9.712522506713867
1.7294926218861809e+18,-0.011207718402147293,-0.07494741678237915,-9.685948371887207
1.729492621895181e+18,0.036165643483400345,-0.08870717138051987,-9.735934257507324
1.7294926219041812e+18,-0.015330573543906212,0.01306300051510334,-9.76913070678711
1.7294926219131814e+18,0.016906872391700745,0.017205040901899338,-9.841458320617676
1.7294926219221816e+18,0.0433182455599308,0.0018837286625057459,-9.755056381225586
1.7294926219281818e+18,0.027895497158169746,-0.017582347616553307,-9.801301002502441
1.729492621937182e+18,0.046820271760225296,-0.06358650326728821,-9.77971076965332
1.7294926219461821e+18,0.030282380059361458,-0.051694177091121674,-9.756694793701172
1.7294926219551823e+18,-0.08511379361152649,-0.01811555027961731,-9.83005428314209
1.7294926219641825e+18,0.04414279758930206,0.0491597056388855,-9.74526596069336
1.7294926219731827e+18,-0.037547577172517776,0.01684318482875824,-9.745713233947754
1.729492621982183e+18,0.07471738755702972,-0.011046826839447021,-9.763246536254883
1.729492621991183e+18,0.008290018886327744,-0.00043549766996875405,-9.783211708068848
1.7294926220001833e+18,-0.011726653203368187,0.0031159198842942715,-9.741925239562988
1.7294926220061834e+18,-0.013768736273050308,0.001127142459154129,-9.728388786315918
1.7294926220151836e+18,-0.058752670884132385,0.03246253728866577,-9.813766479492188
1.7294926220241838e+18,0.035130005329847336,0.05537714809179306,-9.767066955566406
1.729492622030184e+18,-0.035973191261291504,0.029926834627985954,-9.840384483337402
1.7294926220391841e+18,0.012460392899811268,-0.019840339198708534,-9.778371810913086
1.7294926220481843e+18,-0.04883363097906113,-0.06926000118255615,-9.782814025878906
1.7294926220541844e+18,-0.02595503255724907,0.024596815928816795,-9.78434944152832
1.7294926220631846e+18,0.013563865795731544,0.007541050668805838,-9.806023597717285
1.7294926220691848e+18,0.09944138675928116,0.10392215847969055,-9.755704879760742
1.729492622078185e+18,0.0176415853202343,0.003147211391478777,-9.759812355041504
1.7294926220871852e+18,-0.029001425951719284,0.023775490000844002,-9.765664100646973
1.7294926220961853e+18,0.011871937662363052,-0.026793383061885834,-9.79377269744873
1.7294926221021855e+18,0.016874443739652634,0.04916757345199585,-9.740583419799805
1.7294926221111857e+18,0.03236495330929756,-0.08380366116762161,-9.861635208129883
1.7294926221171858e+18,-0.009457940235733986,-0.08601594716310501,-9.74445915222168
1.729492622126186e+18,-0.011100132018327713,0.013787761330604553,-9.829959869384766
1.7294926221351862e+18,0.005826313979923725,0.052538469433784485,-9.745257377624512
1.7294926221441864e+18,-0.013398401439189911,0.014898950234055519,-9.730473518371582
1.7294926221501865e+18,0.012523890472948551,-0.007680797018110752,-9.770318031311035
1.7294926221591867e+18,-0.056041378527879715,-0.009278861805796623,-9.7329740524292
1.729492622168187e+18,0.0006249251309782267,-0.05313905328512192,-9.773090362548828
1.729492622174187e+18,0.009249466471374035,0.05817832797765732,-9.750822067260742
1.7294926221831872e+18,0.020268050953745842,0.015252882614731789,-9.853774070739746
1.7294926221921874e+18,-0.004882735200226307,0.025000719353556633,-9.848134994506836
1.7294926221981875e+18,-0.05375297740101814,0.0188982542604208,-9.820404052734375
1.7294926222071877e+18,-0.06442677974700928,-0.046598974615335464,-9.751029014587402
1.729492622216188e+18,0.04655545577406883,0.002339329104870558,-9.735945701599121
1.729492622225188e+18,0.014765530824661255,-0.03417113423347473,-9.76460075378418
1.7294926222341883e+18,-0.023908311501145363,-0.009713660925626755,-9.69272518157959
1.7294926222401884e+18,-0.04955727234482765,-0.03605442866683006,-9.713557243347168
1.7294926222491886e+18,0.05994259938597679,-0.013172289356589317,-9.800376892089844
1.7294926222581888e+18,-0.048325758427381516,-0.03882000967860222,-9.748895645141602
1.729492622267189e+18,-0.012948142364621162,0.03756961598992348,-9.728184700012207
1.7294926222761892e+18,-0.03448530286550522,-0.05868935212492943,-9.755584716796875
1.7294926222851894e+18,0.07025761157274246,0.01812453381717205,-9.83973503112793
1.7294926222941896e+18,-0.06162058934569359,-0.05414039269089699,-9.857000350952148
1.7294926223031898e+18,-0.008131559938192368,-0.052736230194568634,-9.789339065551758
1.72949262231219e+18,0.04092616215348244,-0.04943707957863808,-9.80380916595459
1.7294926223211901e+18,0.029351212084293365,0.04075446352362633,-9.767228126525879
1.7294926223301903e+18,0.03449875861406326,-0.028383610770106316,-9.765310287475586
1.7294926223391905e+18,0.030240647494792938,0.04398860037326813,-9.742250442504883
1.7294926223481907e+18,-0.009514553472399712,-0.023732418194413185,-9.803873062133789
1.729492622357191e+18,0.053175944834947586,-0.0628918707370758,-9.837158203125
1.729492622366191e+18,0.005950505845248699,-0.03577136993408203,-9.775364875793457
1.7294926223751913e+18,0.019367357715964317,0.032217077910900116,-9.7905855178833
1.7294926223841915e+18,-0.028193747624754906,-0.015048681758344173,-9.74399185180664
1.7294926223901916e+18,-0.023861724883317947,-0.04862172156572342,-9.832907676696777
1.7294926223991918e+18,-0.07346600294113159,-0.07206793874502182,-9.776802062988281
1.729492622408192e+18,0.02598952315747738,-0.06186464801430702,-9.781566619873047
1.7294926224171922e+18,-0.027623867616057396,0.01556940097361803,-9.772238731384277
1.7294926224261924e+18,-0.04885656759142876,0.044358592480421066,-9.78205394744873
1.7294926224351926e+18,-0.002896628575399518,0.04328170046210289,-9.730758666992188
1.7294926224411927e+18,0.0025360998697578907,-0.03621281683444977,-9.786314964294434
1.729492622450193e+18,-0.02016199566423893,0.010458208620548248,-9.738420486450195
1.729492622459193e+18,0.040384672582149506,0.028991738334298134,-9.747077941894531
1.7294926224651932e+18,0.011221553198993206,-0.00952890608459711,-9.746282577514648
1.7294926224741934e+18,0.05999451503157616,-0.03875700384378433,-9.805063247680664
1.7294926224831936e+18,-0.00852668471634388,0.013530422002077103,-9.767789840698242
1.7294926224891937e+18,-0.03630635514855385,-0.038491763174533844,-9.755030632019043
1.729492622498194e+18,-0.003410401986911893,0.04857369884848595,-9.757489204406738
1.729492622504194e+18,0.05894508957862854,0.01684592291712761,-9.814708709716797
1.7294926225131942e+18,0.027760503813624382,0.004924563691020012,-9.759613990783691
1.7294926225221944e+18,-0.047759972512722015,0.0014080338878557086,-9.827874183654785
1.7294926225281946e+18,0.07338220626115799,0.06934335827827454,-9.72665023803711
1.7294926225371948e+18,0.006876230239868164,0.035770028829574585,-9.833599090576172
1.729492622546195e+18,-0.012375397607684135,0.06008579209446907,-9.860796928405762
1.7294926225551951e+18,0.0004215405788272619,0.08105644583702087,-9.859933853149414
1.7294926225641953e+18,-0.038416069000959396,-0.00048501219134777784,-9.838590621948242
1.7294926225761956e+18,0.02685897797346115,-0.0033158999867737293,-9.84783935546875
1.7294926225821957e+18,0.051884472370147705,0.11112239956855774,-9.789427757263184
1.729492622591196e+18,-0.004596336744725704,-0.0330679751932621,-9.777274131774902
1.729492622597196e+18,0.012789206579327583,-0.10746517777442932,-9.823967933654785
1.7294926226091963e+18,-0.0009065616759471595,0.021069761365652084,-9.773091316223145
1.7294926226151964e+18,-0.09647464007139206,0.0012308699078857899,-9.790736198425293
1.7294926226241966e+18,-0.032026343047618866,-0.10137680917978287,-9.786874771118164
1.7294926226301967e+18,0.05208612233400345,-0.06380966305732727,-9.846602439880371
1.729492622639197e+18,0.04266761988401413,0.033520106226205826,-9.843085289001465
1.729492622645197e+18,0.04748320206999779,0.06412636488676071,-9.822234153747559
1.7294926226541972e+18,-0.018880881369113922,0.03855964168906212,-9.859296798706055
1.7294926226631974e+18,0.007816441357135773,0.019428538158535957,-9.806137084960938
1.7294926226721976e+18,-0.016408080235123634,0.030596179887652397,-9.819615364074707
1.7294926226781978e+18,-0.0015493497485294938,-0.006741535384207964,-9.696786880493164
1.729492622687198e+18,-0.02108236402273178,-0.037271544337272644,-9.75500202178955
1.7294926226961981e+18,-0.008540045469999313,0.029015444219112396,-9.857992172241211
1.7294926227021983e+18,0.03775712102651596,-0.02158401347696781,-9.741599082946777
1.7294926227111985e+18,0.030381260439753532,-0.03226041793823242,-9.777205467224121
1.7294926227201987e+18,-0.013207945972681046,0.015309609472751617,-9.860254287719727
1.7294926227261988e+18,0.008508861064910889,-0.02902698516845703,-9.823511123657227
1.729492622735199e+18,0.01902700588107109,-0.04116819053888321,-9.850075721740723
1.729492622741199e+18,0.004840383306145668,-0.0539277046918869,-9.817907333374023
1.7294926227501993e+18,-0.028249893337488174,0.0006084387423470616,-9.745586395263672
1.7294926227591995e+18,0.021994026377797127,0.02814512513577938,-9.827703475952148
1.7294926227681997e+18,0.015484107658267021,0.025264644995331764,-9.797578811645508
1.7294926227741998e+18,0.05019832402467728,-0.08376488834619522,-9.7933931350708
1.7294926227832e+18,0.011707217432558537,0.04153314232826233,-9.823512077331543
1.7294926227922002e+18,-0.011933884583413601,-0.01333690620958805,-9.854804039001465
1.7294926228012004e+18,0.007175142411142588,0.011498420499265194,-9.844301223754883
1.7294926228072005e+18,0.037170834839344025,0.005668966099619865,-9.783473014831543
1.7294926228162007e+18,0.026755981147289276,-0.004428241401910782,-9.754727363586426
1.729492622825201e+18,-0.04353988915681839,0.016501206904649734,-9.828519821166992
1.729492622831201e+18,-0.02318214811384678,0.042706988751888275,-9.804716110229492
1.7294926228402012e+18,0.0017363419756293297,-0.045160338282585144,-9.786850929260254
1.7294926228462013e+18,-0.025719214230775833,-0.019792083650827408,-9.705646514892578
1.7294926228582016e+18,-0.006473675835877657,-0.00750869233161211,-9.830568313598633
1.7294926228642017e+18,-0.03598049655556679,0.011591342277824879,-9.756299018859863
1.729492622873202e+18,-0.030997665598988533,-0.03400576114654541,-9.80901050567627
1.729492622882202e+18,0.012689338997006416,0.05400010943412781,-9.780705451965332
1.7294926228912023e+18,0.05601675435900688,0.012150908820331097,-9.840703964233398
1.7294926228972024e+18,-0.03207143768668175,0.0365445539355278,-9.816600799560547
1.7294926229062026e+18,0.004657678306102753,0.005817105993628502,-9.800332069396973
1.7294926229152028e+18,-0.008485868573188782,-0.011376963928341866,-9.834939956665039
1.729492622921203e+18,-0.004230116493999958,0.019294682890176773,-9.818570137023926
1.7294926229302031e+18,-0.006867794785648584,-0.0007289955974556506,-9.786789894104004
1.7294926229362033e+18,-0.08579308539628983,-0.02963150478899479,-9.765335083007812
1.7294926229452035e+18,-0.03210030123591423,0.027046330273151398,-9.782398223876953
1.7294926229512036e+18,-0.0543651282787323,-0.03212803229689598,-9.718218803405762
1.7294926229602038e+18,-0.016151003539562225,0.015518249943852425,-9.81110668182373
1.729492622966204e+18,0.046157337725162506,0.0862063616514206,-9.893400192260742
1.729492622975204e+18,-0.029246848076581955,0.016494115814566612,-9.856886863708496
1.7294926229812042e+18,0.025781597942113876,-0.07928694784641266,-9.843114852905273
1.7294926229902044e+18,0.0045053428038954735,0.02691933512687683,-9.866164207458496
1.7294926229992046e+18,0.08760742098093033,0.03555937483906746,-9.838284492492676
1.7294926230052047e+18,0.00927247479557991,-0.005842664744704962,-9.800902366638184
1.729492623017205e+18,-0.0623239241540432,0.02995475009083748,-9.710321426391602
1.7294926230292052e+18,-0.027692141011357307,0.04416312649846077,-9.798169136047363
1.7294926230352054e+18,-0.042671602219343185,-0.07731606066226959,-9.901972770690918
1.7294926230442056e+18,0.014855309389531612,-0.0605061799287796,-9.831547737121582
1.7294926230532058e+18,-0.04600871354341507,0.009884966537356377,-9.811376571655273
1.729492623059206e+18,0.003107665339484811,0.04472081735730171,-9.795019149780273
1.729492623068206e+18,0.04685984551906586,0.018411854282021523,-9.856488227844238
1.7294926230742062e+18,-0.019407445564866066,0.07334931939840317,-9.805753707885742
1.7294926230832064e+18,0.01413051225244999,0.02878892794251442,-9.77450180053711
1.7294926230892065e+18,-0.019455790519714355,0.0317552350461483,-9.827877044677734
1.7294926230982067e+18,0.011538805440068245,-0.0521918386220932,-9.768232345581055
1.729492623107207e+18,-0.027726497501134872,-0.04161667078733444,-9.7179536819458
1.729492623116207e+18,-0.0490349680185318,0.013185545802116394,-9.832481384277344
1.7294926231222072e+18,-0.030466994270682335,0.025821352377533913,-9.844143867492676
1.7294926231312074e+18,-0.0027377940714359283,-0.010151144117116928,-9.76844310760498
1.7294926231402076e+18,-0.0012531658867374063,0.020283667370676994,-9.743659973144531
1.7294926231462077e+18,-0.016759783029556274,0.059969983994960785,-9.874258041381836
1.729492623155208e+18,-0.05177609249949455,-0.01773298718035221,-9.797419548034668
1.729492623161208e+18,0.005821713712066412,0.03766341134905815,-9.830394744873047
1.7294926231702083e+18,-0.011386679485440254,-0.010939526371657848,-9.76484203338623
1.7294926231792084e+18,-0.0713687464594841,-0.05702388659119606,-9.778000831604004
1.7294926231852086e+18,0.017982620745897293,0.018319031223654747,-9.839847564697266
1.7294926231942088e+18,-0.014954790472984314,0.04636508971452713,-9.768074989318848
1.729492623203209e+18,0.03605639189481735,-0.004122311249375343,-9.74254035949707
1.729492623209209e+18,-0.03821806609630585,0.02763202041387558,-9.809380531311035
1.7294926232182093e+18,0.05802340805530548,0.025132548063993454,-9.781723022460938
1.7294926232242094e+18,0.03252024948596954,0.04642453044652939,-9.86059856414795
1.7294926232332096e+18,-0.07693002372980118,0.07891186326742172,-9.843596458435059
1.7294926232392097e+18,-0.025221548974514008,-0.014551674947142601,-9.742365837097168
1.72949262324821e+18,0.04398554563522339,0.027646351605653763,-9.828180313110352
1.72949262325421e+18,-0.028396515175700188,0.031240463256835938,-9.79920482635498
1.7294926232632102e+18,-0.036403775215148926,0.02455945871770382,-9.812663078308105
1.7294926232722104e+18,-0.017219990491867065,-0.03850431740283966,-9.797968864440918
1.7294926232812106e+18,-0.017303165048360825,-0.05207667872309685,-9.799408912658691
1.7294926232902108e+18,0.0057694390416145325,0.00037906167563050985,-9.808536529541016
1.729492623296211e+18,0.05752386525273323,-0.02167580835521221,-9.841431617736816
1.7294926233052111e+18,-0.05324212461709976,-0.013579265214502811,-9.81296157836914
1.7294926233112113e+18,0.07328397035598755,-0.004508238285779953,-9.770813941955566
1.7294926233202115e+18,-0.078558050096035,0.0029116100631654263,-9.858360290527344
1.7294926233292116e+18,0.05538341403007507,0.00949606392532587,-9.858149528503418
1.7294926233352118e+18,-0.033204901963472366,0.0063663022592663765,-9.706192016601562
1.729492623344212e+18,-0.039174679666757584,-0.010810991749167442,-9.748056411743164
1.729492623350212e+18,-0.05137369781732559,-0.09546059370040894,-9.804986953735352
1.7294926233592123e+18,-0.028312532231211662,0.08748972415924072,-9.799346923828125
1.7294926233682125e+18,0.04722147434949875,0.019205806776881218,-9.782882690429688
1.7294926233772127e+18,-0.024802150204777718,0.008203249424695969,-9.796140670776367
1.7294926233862129e+18,-0.0034357060212641954,0.0529085248708725,-9.762166976928711
1.729492623392213e+18,0.0681658387184143,-0.002432849258184433,-9.761905670166016
1.7294926234012132e+18,-0.0917680561542511,0.09297256916761398,-9.796761512756348
1.7294926234102134e+18,-0.03156539797782898,0.0006305804126895964,-9.785080909729004
1.7294926234192136e+18,0.028108632192015648,0.0350576788187027,-9.773358345031738
1.7294926234252137e+18,-0.06826844811439514,0.007818575017154217,-9.843134880065918
1.729492623434214e+18,-0.059303902089595795,-0.02316434681415558,-9.745511054992676
1.729492623440214e+18,0.03596043214201927,0.0051580630242824554,-9.756158828735352
1.7294926234492142e+18,-0.07167742401361465,-0.04395672678947449,-9.782614707946777
1.7294926234582144e+18,-0.07247412949800491,0.006007560063153505,-9.884662628173828
1.7294926234642145e+18,0.006651000119745731,0.038555268198251724,-9.808792114257812
1.7294926234732147e+18,-0.054241783916950226,-0.02624344825744629,-9.829154014587402
1.729492623482215e+18,0.009729926474392414,0.04961637407541275,-9.85589599609375
1.729492623488215e+18,0.005535841453820467,0.01702115684747696,-9.862369537353516
1.7294926234972152e+18,0.02930816262960434,-0.041678816080093384,-9.794933319091797
1.7294926235062154e+18,0.03180411458015442,0.026500368490815163,-9.74960994720459
1.7294926235122156e+18,0.10904847830533981,0.03445930406451225,-9.905754089355469
1.7294926235212157e+18,-0.029070639982819557,0.11434292793273926,-9.796817779541016
1.729492623530216e+18,-0.011843610554933548,0.020603612065315247,-9.860684394836426
1.729492623536216e+18,-0.020797956734895706,0.00010289662168361247,-9.811173439025879
1.7294926235452163e+18,0.030533326789736748,-0.02081615850329399,-9.768990516662598
1.7294926235542164e+18,-0.05013475567102432,-0.014022983610630035,-7.845274448394775
1.7294926235602166e+18,0.003378218039870262,-0.037382617592811584,-7.28803825378418
1.7294926235692168e+18,0.035265833139419556,0.01658669300377369,-7.148266315460205
1.729492623578217e+18,0.00376804918050766,0.01575763151049614,-7.115431308746338
1.7294926235872172e+18,0.01873861998319626,0.01062457263469696,-8.292685508728027
1.7294926235932173e+18,0.056251998990774155,-0.06584273278713226,-8.377228736877441
1.7294926236022175e+18,0.10564208030700684,-0.05855920910835266,-8.653292655944824
1.7294926236112177e+18,0.12369800359010696,-0.08687397837638855,-8.715840339660645
1.7294926236172178e+18,0.122030109167099,-0.08513868600130081,-8.777352333068848
1.729492623626218e+18,0.09917841851711273,-0.016744274646043777,-8.521790504455566
1.7294926236352182e+18,0.07641759514808655,-0.02411673590540886,-8.40749454498291
1.7294926236412183e+18,0.0738055408000946,-0.05824921280145645,-8.436657905578613
1.7294926236502185e+18,0.059293232858181,-0.06014477089047432,-8.190991401672363
1.7294926236592187e+18,0.06870661675930023,-0.048840392380952835,-8.055695533752441
1.729492623668219e+18,0.10193247348070145,-0.1010468602180481,-7.891683578491211
1.729492623677219e+18,0.04507289454340935,-0.09653212130069733,-8.00574779510498
1.7294926236862193e+18,-0.0583040788769722,-0.007201828062534332,-8.037215232849121
1.7294926236952195e+18,0.08055751025676727,0.0079541876912117,-7.748680114746094
1.7294926237042196e+18,0.008945450186729431,0.01490795612335205,-7.74045991897583
1.7294926237102198e+18,0.08340416103601456,-0.08042362332344055,-7.779596328735352
1.72949262371922e+18,0.038929421454668045,-0.05380701273679733,-7.87263298034668
1.7294926237282202e+18,0.007499808445572853,-0.046586327254772186,-7.894437789916992
1.7294926237342203e+18,0.020288191735744476,0.07663977146148682,-7.575265407562256
1.7294926237432205e+18,-0.020090606063604355,0.007256288081407547,-7.445621490478516
1.7294926237552207e+18,0.042192310094833374,-0.07071423530578613,-7.3622050285339355
1.729492623764221e+18,0.011076712980866432,0.0032971184700727463,-7.2567291259765625
1.729492623770221e+18,-0.007305314764380455,-0.08080312609672546,-7.400848865509033
1.7294926237792212e+18,0.038397811353206635,-0.05210873484611511,-7.365413188934326
1.7294926237882214e+18,0.03411463275551796,-0.03799678012728691,-7.535099506378174
1.7294926237942216e+18,0.020833076909184456,-0.002306940034031868,-7.397822856903076
1.7294926238032218e+18,0.013290343806147575,0.01606287807226181,-7.248714923858643
1.729492623809222e+18,0.022265493869781494,-0.022678513079881668,-7.348045825958252
1.729492623818222e+18,0.07611396908760071,0.04460390657186508,-7.183178901672363
1.7294926238272223e+18,0.04926329106092453,-0.04647601768374443,-7.112534999847412
1.7294926238332224e+18,0.019869260489940643,-0.0323253758251667,-7.335962772369385
1.7294926238422226e+18,-0.050651296973228455,-0.047503937035799026,-7.341806888580322
1.7294926238512228e+18,0.035275790840387344,-0.049699097871780396,-7.483229160308838
1.729492623857223e+18,-0.04696926847100258,-0.09534049034118652,-7.542900562286377
1.729492623866223e+18,-0.015897169709205627,-0.039821017533540726,-7.51054573059082
1.7294926238722232e+18,-0.02626710571348667,-0.0589822418987751,-7.4519782066345215
1.7294926238812234e+18,0.010476773604750633,0.039559125900268555,-7.579661846160889
1.7294926238902236e+18,0.003550614695996046,-0.035009048879146576,-7.56958532333374
1.7294926238962237e+18,0.049273960292339325,-0.024797681719064713,-7.532493591308594
1.729492623905224e+18,-0.05115858092904091,0.06814505159854889,-7.56414270401001
1.729492623914224e+18,-0.06004242226481438,-0.038888413459062576,-7.552266597747803
1.7294926239202243e+18,-0.03733499348163605,-0.046266064047813416,-7.46006441116333
1.7294926239292244e+18,0.01985071785748005,0.01023341529071331,-7.478537082672119
1.7294926239382246e+18,-0.052837468683719635,0.059614624828100204,-7.505066871643066
1.7294926239442248e+18,0.038743823766708374,-0.0009763520210981369,-7.476208686828613
1.729492623953225e+18,-0.03751282021403313,0.023957407101988792,-7.618073463439941
1.7294926239622252e+18,-0.0627608448266983,-0.04783822223544121,-7.600419044494629
1.7294926239682253e+18,0.0353684276342392,0.03744574636220932,-7.600643157958984
1.7294926239772255e+18,0.007256140932440758,-0.001613394357264042,-7.684702396392822
1.7294926239832256e+18,0.05268248915672302,0.02160148322582245,-7.633358001708984
1.7294926239922258e+18,-0.012668173760175705,0.02858312800526619,-7.591505527496338
1.729492623998226e+18,-0.022633232176303864,-0.024696853011846542,-7.646857738494873
1.729492624007226e+18,-0.03492317721247673,0.00451124832034111,-7.6988205909729
1.7294926240192264e+18,-0.12081185728311539,-0.028457194566726685,-7.837629795074463
1.7294926240252265e+18,0.034580640494823456,-0.04244615510106087,-7.847447395324707
1.7294926240342267e+18,-0.059902384877204895,0.028413424268364906,-7.848382949829102
1.729492624043227e+18,-0.051159318536520004,-0.04850166663527489,-7.854254722595215
1.729492624049227e+18,-0.01588006317615509,0.0004686536267399788,-7.895229816436768
1.7294926240612273e+18,0.0460059829056263,0.047899290919303894,-7.988394260406494
1.7294926240672274e+18,-0.04610827565193176,-0.03585796803236008,-7.942704677581787
1.7294926240762276e+18,0.02710658311843872,0.03616034612059593,-7.864964962005615
1.7294926240852278e+18,-0.02185952663421631,0.06952297687530518,-7.909550189971924
1.729492624091228e+18,0.0954788327217102,-0.03998991847038269,-7.896295547485352
1.729492624100228e+18,0.07189235836267471,0.01765681803226471,-8.001802444458008
1.7294926241092283e+18,-0.05335238203406334,0.03249064460396767,-8.027589797973633
1.7294926241182285e+18,-0.04763379320502281,-0.0028654849156737328,-8.09927749633789
1.7294926241242286e+18,0.04009547829627991,-0.050701748579740524,-8.228270530700684
1.7294926241332288e+18,-0.026224667206406593,-0.05692445486783981,-8.100399017333984
1.729492624139229e+18,0.00771187711507082,0.05103624239563942,-8.132841110229492
1.729492624148229e+18,-0.07929420471191406,0.07060898840427399,-8.051335334777832
1.7294926241572293e+18,-0.012322179041802883,-0.007100442424416542,-6.75482177734375
1.7294926241662295e+18,0.002590043470263481,-0.032522596418857574,-6.539572715759277
1.7294926241722296e+18,0.027688635513186455,0.004055794328451157,-6.6239094734191895
1.7294926241812298e+18,-0.008803575299680233,0.02059561014175415,-6.662164211273193
1.72949262418723e+18,0.0019766914192587137,0.03716527670621872,-6.751587867736816
1.7294926241962301e+18,-0.025757959112524986,0.043651312589645386,-6.8228864669799805
1.7294926242022303e+18,-0.06075049936771393,-0.039401449263095856,-6.7968668937683105
1.7294926242112305e+18,0.007252477575093508,-0.00959303230047226,-6.912525653839111
1.7294926242202307e+18,-0.024602258577942848,-0.0040023596957325935,-7.04379415512085
1.7294926242262308e+18,0.06463849544525146,-0.07384216040372849,-7.154180526733398
1.729492624235231e+18,0.01615755632519722,0.06735848635435104,-7.158631324768066
1.729492624241231e+18,0.019725386053323746,0.05083487182855606,-7.273808479309082
1.7294926242502313e+18,-0.023616615682840347,-0.03356173262000084,-7.262810230255127
1.7294926242592315e+18,-0.06844684481620789,-0.05107071250677109,-7.43271017074585
1.7294926242652316e+18,0.022713854908943176,-0.005435077473521233,-7.43745756149292
1.7294926242742318e+18,0.03536143898963928,0.0498616099357605,-7.5035319328308105
1.729492624283232e+18,-0.09119336307048798,-0.028476769104599953,-7.626593112945557
1.7294926242892321e+18,0.10773932188749313,0.051681846380233765,-7.691152572631836
1.7294926242982323e+18,0.0611179918050766,-0.1143268421292305,-7.830923080444336
1.7294926243072325e+18,0.011753593571484089,0.0389229990541935,-7.79659366607666
1.7294926243132326e+18,0.07824419438838959,-0.039202798157930374,-7.845117092132568
1.7294926243222328e+18,0.05380770564079285,0.053335245698690414,-7.962662220001221
1.729492624328233e+18,0.038375094532966614,-0.10296133160591125,-8.031248092651367
1.7294926243372332e+18,-0.0391327403485775,-0.11474603414535522,-8.059309959411621
1.7294926243462333e+18,0.03911040723323822,0.06032266467809677,-8.081832885742188
1.7294926243522335e+18,-0.012273866683244705,-0.07542885094881058,-8.12869644165039
1.7294926243612337e+18,0.05781527981162071,-0.03927115723490715,-8.153468132019043
1.7294926243672338e+18,-0.010010423138737679,-0.024698453024029732,-8.209478378295898
1.729492624376234e+18,-0.023805275559425354,-0.08852243423461914,-8.268722534179688
1.7294926243852342e+18,-0.005781853571534157,0.013965768739581108,-8.352691650390625
1.7294926243942344e+18,0.08058974146842957,0.03782488778233528,-8.392190933227539
1.7294926244032346e+18,0.006782215088605881,0.019185589626431465,-8.394333839416504
1.7294926244092347e+18,0.04504942148923874,0.056515298783779144,-8.421245574951172
1.729492624418235e+18,0.028602909296751022,-0.02307111769914627,-8.540462493896484
1.729492624427235e+18,0.030159667134284973,-0.01998266577720642,-8.586587905883789
1.7294926244332352e+18,-0.021497197449207306,-0.022450482472777367,-8.65855884552002
1.7294926244422354e+18,0.004232326522469521,0.027596335858106613,-8.68734073638916
1.7294926244512356e+18,-0.01451113075017929,-0.0004478711634874344,-8.692000389099121
1.7294926244602358e+18,0.016918282955884933,0.029376186430454254,-8.754167556762695
1.729492624466236e+18,0.016910148784518242,-0.06541231274604797,-8.766119003295898
1.729492624475236e+18,0.08436065167188644,-0.07099050283432007,-8.68098258972168
1.7294926244842363e+18,0.06502021104097366,-0.032878387719392776,-8.936437606811523
1.7294926244902364e+18,0.01461221743375063,-0.06461794674396515,-8.8109712600708
1.7294926244992366e+18,0.02369018830358982,0.033663541078567505,-8.838687896728516
1.7294926245082368e+18,-0.0550275519490242,0.012970522046089172,-8.812283515930176
1.729492624514237e+18,0.06081203371286392,-0.022570153698325157,-8.942619323730469
1.729492624523237e+18,0.07119111716747284,-0.04075033962726593,-9.001057624816895
1.7294926245292372e+18,0.015979290008544922,0.032569508999586105,-8.956733703613281
1.7294926245382374e+18,0.0039119720458984375,-0.05023830011487007,-9.037252426147461
1.7294926245472376e+18,-0.0062338486313819885,0.005675714462995529,-8.98497200012207
1.7294926245532378e+18,0.06553620100021362,0.024541322141885757,-9.068718910217285
1.729492624562238e+18,0.08129581063985825,-0.09861861914396286,-9.188446998596191
1.7294926245712381e+18,0.033444471657276154,-0.0001394227147102356,-9.107308387756348
1.7294926245772383e+18,0.011611120775341988,-0.08671148866415024,-9.041716575622559
