timestamp,gyro_x,gyro_y,gyro_z
1.7294926124359793e+18,-0.001489386660978198,0.0029189286287873983,0.0038380806799978018
1.7294926124449795e+18,0.0009465422481298447,-0.0009159737383015454,-0.0009854849195107818
1.7294926124539796e+18,-0.0033289443235844374,-0.00267925881780684,-0.000286266760667786
1.7294926124629798e+18,0.001400056411512196,-0.003730146447196603,0.002494355896487832
1.72949261247198e+18,0.0016213229391723871,0.0009725481504574418,-0.0019907632376998663
1.7294926124809802e+18,-0.0008384373504668474,0.0028377112466841936,0.0020949419122189283
1.7294926124869804e+18,-0.00020849829888902605,0.0012029192876070738,-0.0003444736066740006
1.7294926124959805e+18,0.0007102155359461904,0.0009703312534838915,-0.0014545980375260115
1.7294926125049807e+18,-0.0016101847868412733,0.0007928304257802665,-0.0008217569557018578
1.729492612513981e+18,-0.001180407591164112,0.0008606528281234205,-0.002218847628682852
1.729492612522981e+18,0.00151080044452101,-0.0006868650089018047,-0.0003662479866761714
1.7294926125319813e+18,-0.00046320128603838384,0.0014855710323899984,-0.0010741135338321328
1.7294926125409815e+18,-0.00021294332691468298,-0.0010143858380615711,-0.0007462439243681729
1.7294926125469816e+18,-0.0007993814651854336,0.0026950764004141092,0.0012498445576056838
1.7294926125559818e+18,-0.00025406002532690763,0.0009946830105036497,-0.0017026262357831001
1.729492612564982e+18,-0.00030969668296165764,-0.002037928905338049,-0.0022033373825252056
1.7294926125739822e+18,-0.0008096897508949041,0.0033156967256218195,0.002464743796736002
1.7294926125799823e+18,0.0005485953879542649,-0.001380857196636498,-0.00040697306394577026
1.7294926125889825e+18,0.0001171390904346481,-0.0005595206748694181,-0.0007351991953328252
1.7294926125979827e+18,0.0019521593349054456,0.0017451875610277057,-0.00045394376502372324
1.729492612606983e+18,0.0006548987585119903,0.002870863536372781,0.00111743516754359
1.729492612615983e+18,0.0015962766483426094,-0.0013446013908833265,0.0016057882457971573
1.7294926126249833e+18,-0.0015700814547017217,0.0002724729711189866,-0.00103907217271626
1.7294926126339835e+18,-0.0009147732052952051,-0.00019869997049681842,-0.0002408101863693446
1.7294926126399836e+18,-0.0011463704286143184,-0.0008668399532325566,0.0013018406461924314
1.7294926126489838e+18,-0.000295730191282928,-0.0003478292201180011,0.0006557259475812316
1.729492612657984e+18,0.0008688522502779961,0.00012386857997626066,0.00146890664473176
1.7294926126669842e+18,0.0024043472949415445,-0.0005215546116232872,-0.0015294606564566493
1.7294926126759844e+18,-0.000784822681453079,-9.132114792009816e-05,-0.0006514620617963374
1.7294926126849846e+18,0.002265199786052108,6.31678631179966e-05,0.00040484615601599216
1.7294926126939848e+18,0.0015554624842479825,-0.001880750758573413,0.00027932150987908244
1.729492612702985e+18,0.0017038466176018119,0.00029532218468375504,0.0012019589776173234
1.7294926127119852e+18,-0.0026305466890335083,-8.356613398063928e-05,0.00039964550524018705
1.7294926127209853e+18,-0.0008464534766972065,-0.000694036076311022,8.090548362815753e-05
1.7294926127299855e+18,-0.0014438644284382463,-0.0002825915580615401,0.0020114595536142588
1.7294926127389857e+18,-0.0009425372118130326,0.0017635085387155414,0.0005562299629673362
1.729492612747986e+18,0.0010623317211866379,0.0016193892806768417,-0.0006631850264966488
1.729492612756986e+18,-0.0017197083216160536,0.0020122446585446596,-0.000515674299094826
1.7294926127659863e+18,-0.00018037213885691017,0.000707990606315434,0.0004989703884348273
1.7294926127749865e+18,0.0024935901165008545,-0.00190323730930686,-0.0012205790262669325
1.7294926127809866e+18,0.0010453166905790567,-0.0009449945064261556,-0.0008062815177254379
1.7294926127899868e+18,-0.00023184579913504422,-0.0001376307918690145,-0.0024030718486756086
1.729492612798987e+18,-0.0014953381614759564,-0.0020681717433035374,0.0014653782127425075
1.7294926128079872e+18,-8.443964179605246e-05,-0.0006045909831300378,0.00024846382439136505
1.7294926128169874e+18,-0.001788786961697042,-0.0021638358011841774,-0.0004901824286207557
1.7294926128259876e+18,0.001202060142531991,-0.0014728180831298232,0.0002673276176210493
1.7294926128349878e+18,0.002872287528589368,0.003054461907595396,0.0013485862873494625
1.729492612840988e+18,0.0009154764120467007,0.0014239089796319604,-0.0003468931536190212
1.729492612849988e+18,-0.00035800636396743357,0.0020873926114290953,-0.0009322114055976272
1.7294926128589883e+18,0.0006786437006667256,-0.00045629043597728014,-0.003478211583569646
1.7294926128679885e+18,-0.0011313812574371696,-0.0006254650070331991,0.002732581226155162
1.7294926128769887e+18,0.000884717155713588,-0.001217251643538475,-0.0015488812932744622
1.7294926128859889e+18,0.001187834539450705,0.001733848243020475,-0.002193972235545516
1.729492612894989e+18,-0.001482696970924735,0.001439180807210505,0.00035626289900392294
1.7294926129039892e+18,-0.00347020267508924,-0.0007795891142450273,-0.0014050902100279927
1.7294926129129894e+18,-0.001248493674211204,0.0032595922239124775,0.000127352774143219
1.7294926129189896e+18,0.001299586845561862,-0.0015554983401671052,0.0006619164487347007
1.7294926129279898e+18,-0.001700849155895412,0.001114655053243041,0.0009606587118469179
1.72949261293699e+18,0.00041995098581537604,0.002147217746824026,0.0006198377814143896
1.7294926129459901e+18,0.0020451063755899668,-0.00048728083493188024,0.0017383128870278597
1.7294926129549903e+18,0.0009766146540641785,0.0021049135830253363,-0.0011927817249670625
1.7294926129609905e+18,0.0004367124929558486,6.001736983307637e-05,-0.0004122941172681749
1.7294926129699907e+18,0.0026600323617458344,0.0021341796964406967,-0.0015758284134790301
1.7294926129789908e+18,0.0006582102505490184,0.0005379676003940403,-0.0018651760183274746
1.729492612987991e+18,0.0010012720013037324,-0.0016610303428024054,0.0004854112630710006
1.7294926129969912e+18,0.0013587564462795854,-0.00013441852934192866,9.50054163695313e-05
1.7294926130059914e+18,-0.0011402758536860347,-1.2608786164491903e-05,0.0011673066765069962
1.7294926130149916e+18,0.00045976071851328015,-0.0035051144659519196,0.0029670700896531343
1.7294926130239918e+18,0.0028619002550840378,0.0010733974631875753,-0.0006131635163910687
1.729492613032992e+18,0.0009626153623685241,-0.00156679458450526,0.0012205681996420026
1.7294926130419922e+18,-0.0018569256644695997,-0.0023121805861592293,-0.0011211781529709697
1.7294926130509924e+18,0.000492317951284349,-0.001955684507265687,0.0002917506790254265
1.7294926130599926e+18,0.002976361894980073,0.0014827258419245481,0.0011228208895772696
1.7294926130689928e+18,-0.0007265100139193237,-0.0007207064190879464,1.4145663044473622e-05
1.729492613074993e+18,-0.0008938051178120077,0.0009630632121115923,-0.003401938360184431
1.7294926130869932e+18,-0.0027856118977069855,0.0007900007767602801,0.00024583761114627123
1.7294926130929933e+18,0.0006427823682315648,-0.0013447597157210112,-0.0018501662416383624
1.7294926131019935e+18,0.0013372988905757666,0.0004315976984798908,-0.0014685258502140641
1.7294926131109937e+18,0.0010719065321609378,-0.0005924510769546032,0.0004405264335218817
1.7294926131199939e+18,-0.0003722786786966026,0.00403499323874712,-0.000706951308529824
1.729492613128994e+18,-0.0014847713755443692,0.00017661687161307782,-0.0003356031666044146
1.7294926131349942e+18,-7.073835877235979e-05,0.0008750626002438366,0.00027617771411314607
1.7294926131439944e+18,-0.0015196452150121331,-0.0002880294341593981,-0.0016758718993514776
1.7294926131529946e+18,-0.0007036558235995471,0.0017478226218372583,-0.0016709868796169758
1.7294926131619948e+18,-0.0004741315497085452,-1.440387040929636e-05,0.0009197901817969978
1.729492613167995e+18,-0.001382149406708777,-0.001837986521422863,-0.002059435937553644
1.729492613176995e+18,-0.00010266376193612814,0.00036295855534262955,0.0004813128325622529
1.7294926131859953e+18,0.00015314141637645662,0.0008117214892990887,0.0021259519271552563
1.7294926131949955e+18,-0.0025056677404791117,-0.001124274916946888,0.0018278693314641714
1.7294926132039956e+18,-0.0003120448673143983,-0.001257409923709929,-0.0008259252645075321
1.7294926132129958e+18,0.0006055209669284523,0.0020025225821882486,0.001984456554055214
1.729492613218996e+18,-0.0009476915001869202,0.0020713249687105417,0.001468472182750702
1.7294926132279962e+18,-0.001936328480951488,-0.0011466701980680227,-0.0012337317457422614
1.7294926132369964e+18,-0.0003662397793959826,0.0016343927709385753,-0.002111801877617836
1.7294926132459965e+18,0.00024236031458713114,-0.0011334916343912482,-0.00011027527943952009
1.7294926132549967e+18,0.0009957019938156009,0.00046478130389004946,-0.0012645958922803402
1.729492613263997e+18,0.0020774498116225004,0.0009015312534756958,-0.0006952420226298273
1.729492613272997e+18,0.002520028268918395,-0.0002832532045431435,0.0011511561460793018
1.7294926132819973e+18,-0.0003819456906057894,-0.0007594773196615279,-5.487212183652446e-05
1.7294926132879974e+18,-0.002683566650375724,0.0011171705555170774,-0.0020197832491248846
1.7294926132999977e+18,0.002198858419433236,0.0016777010168880224,-0.00035948067670688033
1.729492613308998e+18,-0.0005814710166305304,-0.0025359310675412416,0.0028137238696217537
1.729492613314998e+18,0.0012204573722556233,0.0020004212856292725,-0.0018955249106511474
1.7294926133269983e+18,-0.0007890740525908768,0.0020865239202976227,-0.0023128946777433157
1.7294926133329984e+18,0.0013807086506858468,0.00014529160398524255,0.0025022521149367094
1.7294926133419986e+18,0.001989958109334111,-0.0005279897013679147,0.0018414129735901952
1.7294926133539988e+18,-0.0021245668176561594,0.002981910016387701,7.087252743076533e-05
1.729492613362999e+18,0.0005508240428753197,-0.0007683169096708298,0.0005765629466623068
1.7294926133719992e+18,-0.002662098966538906,0.0024014648515731096,-0.0006909503135830164
1.7294926133809994e+18,-0.0003348087484482676,-0.0013527360279113054,-0.002460141433402896
1.7294926133899996e+18,-0.000937563949264586,-0.0005192881217226386,-3.257167918491177e-05
1.7294926133989998e+18,0.003166981041431427,0.0030332906171679497,0.00020741113985423
1.729492613408e+18,0.0033415062353014946,0.00046751173795200884,0.0007625473663210869
1.7294926134170002e+18,0.0019683968275785446,7.589074812131003e-05,0.0026908901054412127
1.7294926134260004e+18,0.002094442956149578,-0.0009296857751905918,-0.001945509691722691
1.7294926134350006e+18,0.00034013562253676355,0.0010691455099731684,-0.0030790853779762983
1.7294926134440008e+18,-0.0012035705149173737,-2.3192369553726166e-05,0.0032085254788398743
1.729492613450001e+18,-0.00015861197607591748,-0.0018773896154016256,0.000303153065033257
1.729492613459001e+18,0.0013543064706027508,-0.0014079861575737596,8.133841038215905e-05
1.7294926134710013e+18,0.00020384443632792681,0.00031443481566384435,-0.000349211972206831
1.7294926134800015e+18,-0.0005883838166482747,-0.0013800443848595023,0.0005916389636695385
1.7294926134860017e+18,-0.0008572982042096555,-0.00017115517402999103,-0.0030864609871059656
1.7294926134950019e+18,-0.0026314600836485624,-0.0009138949681073427,-0.002478373935446143
1.729492613504002e+18,0.0017368948319926858,-0.0012600618647411466,0.0008750674314796925
1.7294926135100022e+18,-0.00019542819063644856,-0.0034340203274041414,-0.0016128988936543465
1.7294926135220024e+18,0.0027056923136115074,0.0008105689776130021,0.00022470713884104043
1.7294926135310026e+18,0.0016662708949297667,-0.0017281980253756046,0.00036205755895935
1.7294926135400028e+18,0.0012031840160489082,0.0010096868500113487,0.000564977468457073
1.729492613549003e+18,-0.0015325165586546063,5.075509761809371e-06,-0.0023509676102548838
1.7294926135580032e+18,-0.0010743170278146863,-0.0011825980618596077,0.0018869461491703987
1.7294926135670034e+18,0.0005261471960693598,0.0011462185066193342,-0.0006037798593752086
1.7294926135760036e+18,-0.0010382940527051687,-0.0016677069943398237,-0.0011842022649943829
1.7294926135850038e+18,0.00079298485070467,-0.003260471625253558,-0.0027046871837228537
1.729492613594004e+18,0.0020956832449883223,0.00039789031143300235,-0.0026110459584742785
1.729492613600004e+18,-0.0015165838412940502,7.945681136334315e-05,0.002024225424975157
1.7294926136090043e+18,-0.0022690820042043924,-0.0002453636843711138,0.00028450420359149575
1.7294926136180045e+18,-0.002392557682469487,-0.0014526144368574023,-0.0011762174544855952
1.7294926136270047e+18,0.001056731678545475,0.0006406405009329319,-0.0010566849960014224
1.7294926136360049e+18,-0.0013199937529861927,0.0008054596837610006,-6.924071931280196e-05
1.729492613648005e+18,-0.0019467991078272462,-0.0019776993431150913,0.001362097798846662
1.7294926136540052e+18,-0.0019899210892617702,0.0009095605928450823,0.0005022751865908504
1.7294926136660055e+18,0.0010116876801475883,0.0001819716562749818,0.000604997097980231
1.7294926136750057e+18,-0.0006316641229204834,-0.0010676045203581452,-0.001956842141225934
1.7294926136810058e+18,0.0010616588406264782,-0.0007854420109651983,0.001287257531657815
1.729492613693006e+18,-0.0007079602219164371,0.0018795235082507133,-0.0019772539380937815
1.7294926137020063e+18,0.0009494494879618287,0.0008792536682449281,-0.002753268927335739
1.7294926137080064e+18,-0.002187963342294097,0.000913730007596314,-0.000646590837277472
1.7294926137170066e+18,-0.0010636671213433146,0.0012293362524360418,-0.0010158952791243792
1.7294926137260068e+18,0.00013311099610291421,-0.0025115583557635546,-0.000741314550396055
1.729492613735007e+18,-9.951794345397502e-05,-0.0014035755302757025,-0.0007716283435001969
1.7294926137440072e+18,-0.000514155370183289,-9.605179366189986e-05,-0.0016880957409739494
1.7294926137530074e+18,-0.0006425537867471576,-0.001062278519384563,-0.0010304966708645225
1.7294926137620076e+18,0.001083665993064642,-0.0004928560229018331,0.0003006132901646197
1.7294926137710077e+18,0.0010991139570251107,0.001609091297723353,0.0011469796299934387
1.729492613780008e+18,-0.000940925267059356,0.0013608705485239625,0.0008446378051303327
1.729492613786008e+18,-7.726083276793361e-05,1.9711083041329402e-06,-0.003188665024936199
1.7294926137950083e+18,-0.0008239838061854243,0.0005343584925867617,-0.0009425590396858752
1.7294926138040084e+18,2.8609309083549306e-05,0.0004280939174350351,0.001273993868380785
1.7294926138100086e+18,0.0005673728883266449,-0.001590099767781794,-0.0022473002318292856
1.7294926138220088e+18,-0.0033937208354473114,-0.0012920746812596917,0.00022118752531241626
1.729492613828009e+18,-0.0010504163801670074,0.001666300930082798,0.0011379931820556521
1.7294926138370092e+18,-0.0011146409669891,-9.235265707729923e-08,-0.0018373799975961447
1.7294926138460093e+18,-0.00010741674486780539,-0.00036950764479115605,-0.0023347139358520508
1.7294926138520095e+18,-0.0011694536078721285,0.0008819246431812644,-0.0016270404448732734
1.7294926138610097e+18,0.00122719700448215,0.00015821213310118765,0.0006782740820199251
1.7294926138700099e+18,0.0012906566262245178,0.000361682556103915,0.0017039221711456776
1.72949261387901e+18,0.0010524541139602661,0.0002582634042482823,0.00178986182436347
1.7294926138880102e+18,0.0009873408125713468,0.0012756091309711337,-0.0016647260636091232
1.7294926138940104e+18,-3.256673880969174e-05,3.109782483079471e-05,-0.0006695164483971894
1.7294926139030106e+18,0.001972211990505457,-0.001241306192241609,0.0010284591699019074
1.7294926139120108e+18,-0.0023601895663887262,0.0022974638268351555,0.00015400818665511906
1.729492613921011e+18,0.0004921108484268188,0.0006585763185285032,0.0010936654871329665
1.7294926139300111e+18,0.0026846607215702534,-0.0013836233410984278,0.0021714279428124428
1.7294926139390113e+18,0.0035509131848812103,0.0013861225452274084,-0.00018329854356124997
1.7294926139480115e+18,-0.0003095355350524187,-0.0016638014931231737,0.002636640565469861
1.7294926139570117e+18,-0.0006144383805803955,0.0036837453953921795,-0.0005313865258358419
1.729492613966012e+18,0.0007405825308524072,-0.0008566026808694005,0.0004382993502076715
1.729492613975012e+18,-0.0007766156340949237,0.003239441430196166,-0.0016150085721164942
1.7294926139810122e+18,-0.0007892533903941512,0.0005848711007274687,-0.0005997781408950686
1.7294926139900124e+18,-0.00016764429165050387,-0.0015194168081507087,0.0013014842988923192
1.7294926139990126e+18,-0.0024324122350662947,0.0016124732792377472,0.0003543162310961634
1.7294926140080128e+18,0.0018795704236254096,-0.001238709082826972,0.0017867088317871094
1.729492614017013e+18,0.0004473930748645216,-0.000889522023499012,0.001944165793247521
1.7294926140290132e+18,0.0006327879382297397,-0.0001572216860949993,0.0006156264571473002
1.7294926140380134e+18,-0.002950888592749834,0.0006129632238298655,-0.0004160176613368094
1.7294926140470136e+18,-0.0006599127082154155,-0.0007519096252508461,-0.00016361649613827467
1.7294926140560138e+18,-0.00023671012604609132,0.0011066460283473134,0.0005916613154113293
1.729492614065014e+18,1.4752638890058734e-05,-0.0015764329582452774,0.0007971145096234977
1.7294926140770143e+18,0.002032167511060834,-0.0010292856022715569,-0.0010717568220570683
1.7294926140860145e+18,-0.0009933513356372714,0.0012929567601531744,0.0014857861679047346
1.7294926140950147e+18,6.0638325521722436e-05,-0.0026406687684357166,-0.0007422122871503234
1.7294926141040148e+18,0.00044541218085214496,-0.0018069632351398468,-0.001171084470115602
1.729492614113015e+18,-0.0033498352859169245,-0.0011477769585326314,0.0029353508725762367
1.7294926141220152e+18,0.0008305457886308432,0.00013885516091249883,0.0022864826023578644
1.7294926141310154e+18,9.329522072221152e-06,-0.0008637105929665267,-0.0005537839024327695
1.7294926141400156e+18,-0.0014765473315492272,-0.002195518696680665,0.0022621441166847944
1.7294926141490158e+18,0.0030290784779936075,-0.0004616724036168307,0.00043263580300845206
1.729492614158016e+18,-0.0001792814291547984,-1.685796860328992e-06,0.0004840180918108672
1.7294926141670162e+18,0.0008455915958620608,-5.052041160524823e-05,-0.001050702529028058
1.7294926141790164e+18,0.0010016788728535175,0.0036046416498720646,-7.043456571409479e-05
1.7294926141880166e+18,0.00037940990296192467,-0.0009448318160139024,-0.00017178893904201686
1.7294926141970168e+18,-0.0009820014238357544,0.002856261096894741,0.001364310272037983
1.729492614206017e+18,-0.003181180916726589,0.0006351729389280081,0.0023887960705906153
1.7294926142120172e+18,8.543059084331617e-05,0.0020485282875597477,-0.00027241947827860713
1.7294926142210173e+18,0.000838720123283565,0.0022231608163565397,0.0009793972130864859
1.7294926142300175e+18,-0.00140422023832798,0.00010920244676526636,2.964991108456161e-05
1.7294926142390177e+18,0.003083000658079982,-0.0030226793605834246,0.002508957404643297
1.7294926142450179e+18,-0.0005152786034159362,0.0011420873925089836,0.0009997306624427438
1.729492614254018e+18,-0.0002731589775066823,-0.00023643906752113253,0.0002458109811414033
1.7294926142630182e+18,-0.0005136153777129948,0.0015208262484520674,-0.0011325181694701314
1.7294926142720184e+18,-0.001969238044694066,0.000977787422016263,-0.0033608675003051758
1.7294926142780186e+18,0.0013745116302743554,-0.002341257408261299,0.0011241226457059383
1.7294926142870188e+18,-0.00015882110164966434,0.00032265493064187467,0.0013669674517586827
1.729492614293019e+18,-0.0011553899385035038,-0.0024778912775218487,0.0007290814537554979
1.729492614302019e+18,0.0014985662419348955,0.0002070903719868511,0.00122603599447757
1.7294926143110193e+18,-0.0008159797871485353,0.00015763670671731234,-0.0026648733764886856
1.7294926143200195e+18,-0.001225277199409902,0.0013795648701488972,0.0009326484287157655
1.7294926143290196e+18,9.72897105384618e-05,0.0014278143644332886,-0.0005022494005970657
1.7294926143350198e+18,-0.0004963866085745394,0.0023307434748858213,-3.5947370633948594e-05
1.72949261434402e+18,0.0017498345114290714,0.0010604258859530091,0.00023505924036726356
1.7294926143530202e+18,-0.0019511360442265868,-0.0019775726832449436,0.0002677969168871641
1.7294926143590203e+18,0.0007010921835899353,-0.000634834636002779,0.0011198204010725021
1.7294926143680205e+18,0.002730441279709339,-0.000463921605842188,-0.00029996331431902945
1.7294926143740206e+18,0.0007234487566165626,-0.0005682734772562981,0.0013307086192071438
1.7294926143830208e+18,-0.002726590959355235,-0.0013813399709761143,-0.0008861150126904249
1.729492614392021e+18,-0.0013338279677554965,-0.003342887619510293,-0.0007397921872325242
1.7294926144010212e+18,0.001106402836740017,-0.0010625498834997416,0.0015672108856961131
1.7294926144070213e+18,-0.00110276835039258,-1.7482696421211585e-05,0.001818823511712253
1.7294926144160215e+18,-0.0053447033278644085,0.00068284833105281,-2.4479824787704274e-05
1.7294926144250217e+18,-3.734325582627207e-05,0.000889718474354595,0.0009796322556212544
1.7294926144310218e+18,-0.004064911510795355,-0.0011894709896296263,-0.0033687734976410866
1.729492614440022e+18,-0.0012775836512446404,0.0012129507958889008,-0.0014546563616022468
1.7294926144490222e+18,-0.0012693146709352732,-0.002569139003753662,0.0012534764828160405
1.7294926144580224e+18,0.0017452260944992304,-0.0001878629846032709,-0.0008507653838023543
1.7294926144640225e+18,0.001563121099025011,-0.0005481907865032554,-0.0019054661970585585
1.7294926144730227e+18,-0.0017596596153452992,6.294852209975943e-05,0.00032401131466031075
1.729492614482023e+18,0.0023782155476510525,-0.0003684416878968477,-0.001862293342128396
1.729492614488023e+18,0.001988295465707779,0.000950814806856215,0.0034351516515016556
1.7294926144970232e+18,3.5394383303355426e-05,-0.0009917390998452902,-0.0005845802370458841
1.7294926145060234e+18,-0.002059065503999591,-0.0011712980922311544,0.0005233730771578848
1.7294926145120236e+18,-0.0006908388459123671,0.0006945409113541245,0.0029342309571802616
1.7294926145210237e+18,-0.0031361044384539127,-0.003636325243860483,-0.0004316803242545575
1.7294926145270239e+18,-0.0025717979297041893,0.0006274186889640987,0.0024312245659530163
1.729492614536024e+18,-0.0005428817239589989,0.0014925360446795821,-0.0004092314629815519
1.7294926145420242e+18,-0.0018247404368594289,0.00045493768993765116,0.0017582778818905354
1.7294926145510244e+18,0.004010783974081278,-0.00292622996494174,-0.003283443860709667
1.7294926145600246e+18,-0.00024368148297071457,0.0003490793751552701,0.0008084356086328626
1.7294926145690248e+18,-0.00209196750074625,-0.00025838628062047064,-0.0016819254960864782
1.729492614575025e+18,-0.002088033128529787,-0.0008172774105332792,0.0002899111423175782
1.729492614584025e+18,0.0004292564408387989,-0.0018609815742820501,-0.0018717760685831308
1.7294926145930253e+18,0.0020235362462699413,9.991607657866552e-05,0.0007882934878580272
1.7294926145990254e+18,0.002606620779260993,-0.0003662267990875989,0.00011211176024517044
1.7294926146080256e+18,-8.997325494419783e-05,-0.000157945352839306,0.0018823799910023808
1.7294926146140257e+18,0.00024851251509971917,0.0020687663927674294,0.0021498296409845352
1.729492614623026e+18,0.0022617322392761707,-0.00041973876068368554,0.0016569457948207855
1.729492614632026e+18,-0.00028766816831193864,-0.0012665174435824156,-0.0015906279440969229
1.7294926146380262e+18,-0.0006956244469620287,-0.00024927593767642975,0.001048562116920948
1.7294926146470264e+18,-0.0018522851169109344,-0.002099276753142476,0.0008917355444282293
1.7294926146560266e+18,0.0011080086696892977,-3.132207382350316e-07,-0.00021894248493481427
1.7294926146620268e+18,0.0029107690788805485,6.024029426043853e-05,0.000651572656352073
1.729492614671027e+18,0.0020959347020834684,0.0031362324953079224,0.0011057978263124824
1.7294926146800271e+18,-0.000908394402358681,-0.0009115324355661869,-0.002028679708018899
1.7294926146860273e+18,0.002511350205168128,-0.002859649946913123,-0.0013203738490119576
1.7294926146950275e+18,0.0002600369625724852,-0.002921339822933078,0.00037474907003343105
1.7294926147040276e+18,0.003135159146040678,0.000934858457185328,-0.0005011563189327717
1.7294926147100278e+18,0.0008212722605094314,-0.0023383405059576035,0.0005815718322992325
1.729492614719028e+18,0.0015737207140773535,0.00016347807832062244,0.00141390401404351
1.7294926147280282e+18,-0.003031747881323099,0.0007706077303737402,0.0023795298766344786
1.7294926147340283e+18,0.00025749983615241945,0.0011413124157115817,0.0011997767724096775
1.7294926147430285e+18,-0.00014273382839746773,-0.0017905645072460175,-0.0032378591131418943
1.7294926147520287e+18,0.0003593439469113946,-0.003550861496478319,-0.0006164122023619711
1.7294926147610289e+18,-0.0018831659108400345,0.0017581701977178454,9.782760753296316e-05
1.729492614767029e+18,-0.0006620293133892119,-0.0011159329442307353,-8.700165199115872e-05
1.7294926147760292e+18,-0.0017663217149674892,-0.0004286742478143424,0.0018969735829159617
1.7294926147820293e+18,0.0006763533456251025,-0.0003718661318998784,0.0006815364467911422
1.7294926147910295e+18,-0.0005877554649487138,0.00039239745819941163,-0.0013666832819581032
1.7294926148000297e+18,-0.0005603694007731974,0.0014615816762670875,-0.0009742070687934756
1.7294926148060298e+18,-0.001150039373897016,-0.0015713979955762625,-0.0001509262074250728
1.72949261481503e+18,0.0008627718780189753,0.0006403211154974997,-0.0024429955519735813
1.7294926148240302e+18,-0.00019275869999546558,-0.0020089757163077593,-0.00034627437707968056
1.7294926148300303e+18,-0.0009080446907319129,0.0030512302182614803,0.0013629506574943662
1.7294926148390305e+18,0.0008195387199521065,0.002885366789996624,-0.0004915583995170891
1.7294926148480307e+18,-0.023987840861082077,-0.030876804143190384,-0.0010154800256714225
1.7294926148540308e+18,-0.11616374552249908,-0.14679552614688873,-8.569835335947573e-05
1.729492614863031e+18,-0.255872517824173,-0.3276396095752716,0.0032440766226500273
1.7294926148720312e+18,-0.37771451473236084,-0.4816252291202545,0.002483982127159834
1.7294926148810314e+18,-0.4450710415840149,-0.5808179974555969,0.004078087862581015
1.7294926148870316e+18,-0.4360016882419586,-0.5923991203308105,0.006852250546216965
1.7294926148960317e+18,-0.3796258270740509,-0.5567324757575989,0.008593111298978329
1.729492614905032e+18,-0.3015309274196625,-0.5011107325553894,0.004551850259304047
1.729492614911032e+18,-0.26151302456855774,-0.4664727449417114,0.003592713735997677
1.7294926149200323e+18,-0.24562141299247742,-0.44895878434181213,0.006658576894551516
1.7294926149260324e+18,-0.2612471580505371,-0.4534872770309448,0.006628764793276787
1.7294926149350326e+18,-0.3127534091472626,-0.48541486263275146,0.00499296747148037
1.7294926149410327e+18,-0.34732165932655334,-0.5024268627166748,0.0007123341783881187
1.729492614950033e+18,-0.3659215569496155,-0.5093055963516235,0.004391874652355909
1.729492614959033e+18,-0.33309248089790344,-0.4847051799297333,0.00359676918014884
1.7294926149680333e+18,-0.26552003622055054,-0.4282626807689667,0.0035780356265604496
1.7294926149740334e+18,-0.20840373635292053,-0.3843134343624115,0.0009034120012074709
1.7294926149830336e+18,-0.143198624253273,-0.32236772775650024,0.003440350294113159
1.7294926149890337e+18,-0.12089832872152328,-0.2945147156715393,0.0029939431697130203
1.729492614998034e+18,-0.11637282371520996,-0.26124951243400574,0.001611329149454832
1.729492615007034e+18,-0.13865141570568085,-0.2393546998500824,0.0036334218457341194
1.7294926150130342e+18,-0.15039555728435516,-0.22988660633563995,0.0017029651207849383
1.7294926150220344e+18,-0.1528148502111435,-0.20640163123607635,0.002639454323798418
1.7294926150310346e+18,-0.12188448011875153,-0.17043250799179077,0.002015944104641676
1.7294926150370348e+18,-0.08511055260896683,-0.14153900742530823,0.0022016509901732206
1.729492615046035e+18,-0.02666635252535343,-0.09694486856460571,0.0003901408636011183
1.7294926150550351e+18,0.01660938747227192,-0.047556228935718536,0.0027606231160461903
1.7294926150640353e+18,0.03939765691757202,-0.013203276321291924,0.002178865484893322
1.7294926150700355e+18,0.03888148069381714,0.0043031699024140835,-0.002121484838426113
1.7294926150790356e+18,0.024898448958992958,0.02906312234699726,-0.0012806807644665241
1.7294926150880358e+18,0.020226318389177322,0.0470452643930912,0.0012490866938605905
1.729492615094036e+18,0.018664434552192688,0.0585503913462162,-0.0021567591466009617
1.7294926151030362e+18,0.039406709372997284,0.0811096653342247,0.0007870933040976524
1.7294926151090363e+18,0.05905977636575699,0.09884091466665268,0.0012343605048954487
1.7294926151180365e+18,0.09527157247066498,0.12172127515077591,0.0014070009347051382
1.7294926151270367e+18,0.12067729234695435,0.14357435703277588,-0.0021202657371759415
1.729492615139037e+18,0.13269653916358948,0.16781529784202576,-0.0009761733235791326
1.729492615148037e+18,0.12206049263477325,0.17816847562789917,4.139577504247427e-05
1.7294926151570373e+18,0.1055944412946701,0.18688300251960754,0.0003307096194475889
1.7294926151630374e+18,0.10259002447128296,0.19121800363063812,0.0009725833078846335
1.7294926151720376e+18,0.10609731823205948,0.20106567442417145,-0.0008933770004659891
1.7294926151780378e+18,0.11783712357282639,0.2067948579788208,-0.005343383178114891
1.729492615187038e+18,0.1368725746870041,0.2159830778837204,-0.003150157630443573
1.729492615193038e+18,0.14975106716156006,0.22124239802360535,-0.0007942705415189266
1.7294926152020383e+18,0.1567460596561432,0.22561568021774292,-0.0036955818068236113
1.7294926152110385e+18,0.15394772589206696,0.22819015383720398,-0.003610024694353342
1.7294926152200387e+18,0.13994231820106506,0.2287183403968811,-0.0043439799919724464
1.7294926152260388e+18,0.13155712187290192,0.22664396464824677,0.0007040328346192837
1.729492615235039e+18,0.1268467903137207,0.23126240074634552,-0.004601332359015942
1.7294926152440392e+18,0.12709102034568787,0.2342412769794464,-0.0035080555826425552
1.7294926152530394e+18,0.1312098354101181,0.23290427029132843,-0.0018039256101474166
1.7294926152590395e+18,0.13886553049087524,0.22995714843273163,-0.0028792230878025293
1.7294926152680397e+18,0.1448596715927124,0.22993476688861847,-0.002868564333766699
1.7294926152770399e+18,0.142295241355896,0.21908600628376007,-0.003053296823054552
1.72949261528304e+18,0.13853752613067627,0.22165246307849884,-0.005535035394132137
1.7294926152920402e+18,0.13082323968410492,0.21847791969776154,-0.0028699117247015238
1.7294926153010404e+18,0.11967799067497253,0.21228095889091492,-0.004175418522208929
1.7294926153070405e+18,0.11466758698225021,0.21303120255470276,-0.004935875069350004
1.7294926153160407e+18,0.11369446665048599,0.20631496608257294,-0.006705784238874912
1.729492615325041e+18,0.11899637430906296,0.20297694206237793,-0.005293182097375393
1.729492615334041e+18,0.11771074682474136,0.19937849044799805,-0.0034736073575913906
1.7294926153400412e+18,0.11915286630392075,0.19382016360759735,-0.00433169724419713
1.7294926153490414e+18,0.11663393676280975,0.18414229154586792,-0.007939044386148453
1.7294926153550415e+18,0.11237277835607529,0.18175078928470612,-0.0026965318247675896
1.7294926153640417e+18,0.10192406177520752,0.17790113389492035,-0.007422594353556633
1.7294926153700419e+18,0.09782081842422485,0.17165006697177887,-0.003595950547605753
1.729492615379042e+18,0.0927879735827446,0.1669330894947052,-0.005806589033454657
1.7294926153880422e+18,0.09085389971733093,0.16253118216991425,-0.006900731474161148
1.7294926153940424e+18,0.08948565274477005,0.15654554963111877,-0.008376358076930046
1.7294926154030426e+18,0.09515457600355148,0.15025365352630615,-0.005180301610380411
1.7294926154120428e+18,0.09874142706394196,0.1503102332353592,-0.0028242957778275013
1.729492615421043e+18,0.09623526781797409,0.1437027007341385,-0.004232929553836584
1.729492615427043e+18,0.09252956509590149,0.13855302333831787,-0.008684604428708553
1.7294926154360433e+18,0.08505371958017349,0.13348960876464844,-0.004649628885090351
1.7294926154450435e+18,0.07783713936805725,0.12905754148960114,-0.005663369782269001
1.7294926154510436e+18,0.07333522289991379,0.1234990581870079,-0.004536438267678022
1.7294926154600438e+18,0.07143628597259521,0.12061700224876404,-0.006763088051229715
1.729492615466044e+18,0.07276123762130737,0.11562789976596832,-0.008580253459513187
1.729492615475044e+18,0.07360227406024933,0.11135569214820862,-0.005096400622278452
1.7294926154840443e+18,0.07509250193834305,0.10949593037366867,-0.007377544417977333
1.7294926154900444e+18,0.0760374367237091,0.10874743014574051,-0.003909731283783913
1.7294926154990446e+18,0.07130837440490723,0.10651061683893204,-0.0060443696565926075
1.7294926155080448e+18,0.06761397421360016,0.10027848184108734,-0.0069687943905591965
1.729492615514045e+18,0.06540598720312119,0.09995352476835251,-0.005879453383386135
1.729492615523045e+18,0.06272152811288834,0.09371384978294373,-0.006106906104832888
1.7294926155290452e+18,0.062498223036527634,0.09321890026330948,-0.004557834472507238
1.7294926155380454e+18,0.0663377121090889,0.09178131073713303,-0.008641369640827179
1.7294926155470456e+18,0.06682725995779037,0.09303565323352814,-0.005269572138786316
1.7294926155560458e+18,0.06485454738140106,0.08885398507118225,-0.00772834150120616
1.729492615562046e+18,0.06240670755505562,0.08780111372470856,-0.0067560067400336266
1.7294926155710461e+18,0.057907961308956146,0.0841924324631691,-0.010669236071407795
1.7294926155800463e+18,0.0543486624956131,0.07988889515399933,-0.0070855095982551575
1.7294926155890465e+18,0.0515596978366375,0.07783053815364838,-0.008277715183794498
1.7294926155950467e+18,0.05675297975540161,0.07827358692884445,-0.007520979270339012
1.7294926156040468e+18,0.05654269456863403,0.07448474317789078,-0.005192972719669342
1.729492615613047e+18,0.05313616991043091,0.07556064426898956,-0.0076429578475654125
1.7294926156190472e+18,0.0534529834985733,0.07722054421901703,-0.004494537133723497
1.7294926156280474e+18,0.053634610027074814,0.07627083361148834,-0.005955701693892479
1.7294926156340475e+18,0.0528031587600708,0.07353083044290543,-0.005355798173695803
1.7294926156430477e+18,0.04913898557424545,0.06975743174552917,-0.008192960172891617
1.729492615655048e+18,0.048182353377342224,0.06896667182445526,-0.007135612890124321
1.729492615661048e+18,0.04636617749929428,0.06513611227273941,-0.006560624111443758
1.7294926156700483e+18,0.04760945960879326,0.06586402654647827,-0.0062739965505898
1.7294926156790484e+18,0.045363862067461014,0.0634220764040947,-0.004362098872661591
1.7294926156880486e+18,0.04192839190363884,0.06405004858970642,-0.007277154363691807
1.7294926156940488e+18,0.04285401478409767,0.06540112942457199,-0.008161066100001335
1.729492615703049e+18,0.04509453848004341,0.06315860897302628,-0.008742708712816238
1.7294926157120492e+18,0.04079964756965637,0.0633968859910965,-0.008131076581776142
1.7294926157210493e+18,0.04314003139734268,0.05874243751168251,-0.003489765105769038
1.7294926157300495e+18,0.044248294085264206,0.05467625707387924,-0.005555335897952318
1.7294926157360497e+18,0.040322668850421906,0.05849887803196907,-0.004370661918073893
1.7294926157450499e+18,0.04240022972226143,0.057279542088508606,-0.006353059783577919
1.72949261575405e+18,0.0422205813229084,0.05501275137066841,-0.005274057388305664
1.7294926157600502e+18,0.040539294481277466,0.05228743702173233,-0.0065146032720804214
1.7294926157690504e+18,0.04129846394062042,0.057466693222522736,-0.006400455255061388
1.7294926157780506e+18,0.04140942543745041,0.056278858333826065,-0.004380667582154274
1.7294926157870508e+18,0.038452427834272385,0.053203292191028595,-0.0029980475082993507
1.729492615793051e+18,0.03927960246801376,0.05305685102939606,-0.007918823510408401
1.729492615802051e+18,0.03634551167488098,0.05057736486196518,-0.008245019242167473
1.7294926158110513e+18,0.037111878395080566,0.0502452626824379,-0.0088280588388443
1.7294926158200515e+18,0.03292077034711838,0.05368941277265549,-0.007190018892288208
1.7294926158260516e+18,0.03552187606692314,0.05034283176064491,-0.006592024117708206
1.7294926158350518e+18,0.031146565452218056,0.051728542894124985,-0.006079425103962421
1.729492615841052e+18,0.032597865909338,0.05197811499238014,-0.005209424998611212
1.729492615850052e+18,0.030676167458295822,0.05088038370013237,-0.004904050845652819
1.7294926158590523e+18,0.03681250289082527,0.04830151051282883,-0.00678200414404273
1.7294926158680525e+18,0.034411393105983734,0.04746771603822708,-0.004589000251144171
1.7294926158770527e+18,0.03505181521177292,0.0417608805000782,-0.0062689390033483505
1.7294926158860529e+18,0.030818037688732147,0.04226823151111603,-0.006271939259022474
1.729492615892053e+18,0.03269965946674347,0.04128166660666466,-0.004739898722618818
1.7294926159010532e+18,0.027274388819932938,0.04377097636461258,-0.003875108901411295
1.7294926159100534e+18,0.030753035098314285,0.04527264088392258,-0.003680435474961996
1.7294926159190536e+18,0.03128555044531822,0.042130183428525925,-0.0037721607368439436
1.7294926159250537e+18,0.02912292256951332,0.04278111457824707,-0.004283281974494457
1.729492615934054e+18,0.03088345378637314,0.03915085271000862,-0.0027532668318599463
1.729492615943054e+18,0.026205580681562424,0.03858649358153343,-0.004192936699837446
1.7294926159520543e+18,0.026528440415859222,0.03802154213190079,-0.005926883779466152
1.7294926159610545e+18,0.02345707267522812,0.04054786264896393,-0.005189584568142891
1.7294926159670546e+18,0.023900378495454788,0.03763280063867569,-0.006789518520236015
1.7294926159760548e+18,0.019272461533546448,0.040461864322423935,-0.006152508780360222
1.729492615985055e+18,0.02126942202448845,0.032211679965257645,-0.0070608314126729965
1.7294926159940552e+18,0.018320485949516296,0.03266529738903046,-0.0022564202081412077
1.7294926160000553e+18,0.018914613872766495,0.029319515451788902,-0.004080908372998238
1.7294926160090555e+18,0.019949721172451973,0.03332088515162468,-0.004045554902404547
1.7294926160180557e+18,0.01976073533296585,0.029918720945715904,-0.005142322741448879
1.7294926160270559e+18,0.02084573358297348,0.03390951827168465,-0.008174605667591095
1.729492616036056e+18,0.019243154674768448,0.03251379355788231,-0.002498198300600052
1.7294926160450563e+18,0.016563039273023605,0.02963811345398426,-0.0037281629629433155
1.7294926160540564e+18,0.014908147044479847,0.028381232172250748,-0.005412738770246506
1.7294926160600566e+18,0.017295151948928833,0.028776399791240692,-0.00461159460246563
1.7294926160690568e+18,0.014769954606890678,0.02690654620528221,-0.0029442571103572845
1.729492616078057e+18,0.018677596002817154,0.02300267107784748,-0.0009532771073281765
1.7294926160870572e+18,0.01576550304889679,0.026240656152367592,-0.0006094523705542088
1.7294926160960573e+18,0.018431372940540314,0.02579675056040287,-0.004369854461401701
1.7294926161020575e+18,0.016520245000720024,0.02407418005168438,-0.00529739074409008
1.7294926161110577e+18,0.014063232578337193,0.022076984867453575,-0.0034701309632509947
1.7294926161200579e+18,0.01711421087384224,0.020677685737609863,-0.006051493808627129
1.729492616129058e+18,0.012848052196204662,0.020137052983045578,-0.003338724607601762
1.7294926161380582e+18,0.01802290417253971,0.018260961398482323,-0.005513328127563
1.7294926161440584e+18,0.012890537269413471,0.01702314428985119,-0.0048843128606677055
1.7294926161530586e+18,0.0127964336425066,0.018464110791683197,-0.0021207304671406746
1.7294926161620588e+18,0.014848805963993073,0.013839500956237316,-0.004185437690466642
1.729492616171059e+18,0.014400165528059006,0.01046730112284422,-0.002440449083223939
1.729492616177059e+18,0.013336697593331337,0.011105368845164776,-0.005593666806817055
1.7294926161860593e+18,0.012376229278743267,0.011485802009701729,-0.003982945811003447
1.7294926161950595e+18,0.014561107382178307,0.011691669933497906,-0.003271603025496006
1.7294926162040596e+18,0.013603189960122108,0.009363217279314995,-0.002730009611696005
1.7294926162130598e+18,0.012408757582306862,0.01158375944942236,-0.005882078316062689
1.72949261622206e+18,0.009679044596850872,0.010388234630227089,-0.004112770315259695
1.7294926162280602e+18,0.006489341147243977,0.009392770938575268,-0.0022849838715046644
1.7294926162370604e+18,0.008611712604761124,0.008137362077832222,-0.0035009148996323347
1.7294926162460605e+18,0.009463937021791935,0.010300862602889538,-0.00282161682844162
1.7294926162550607e+18,0.01151550654321909,0.005024620797485113,-0.005250066518783569
1.7294926162610609e+18,0.011014187708497047,0.005924329161643982,-0.002858436666429043
1.729492616270061e+18,0.012422378174960613,0.002765100449323654,-0.0035425573587417603
1.7294926162790612e+18,0.009278582409024239,0.0019523788942024112,-0.0034509762190282345
1.7294926162880614e+18,0.006254733540117741,0.004375015385448933,-0.0013270190684124827
1.7294926162940616e+18,0.006459896918386221,0.0019868160597980022,-0.0028080325573682785
1.7294926163030618e+18,0.004593529272824526,0.003317038994282484,-0.004122418351471424
1.729492616312062e+18,0.0010384824126958847,0.0025860306341201067,-0.004274505190551281
1.729492616318062e+18,0.0024837395176291466,0.0034428087528795004,-0.004681177902966738
1.7294926163270623e+18,0.0016884070355445147,-0.00032033806201070547,-0.003899375442415476
1.7294926163360625e+18,0.002531003672629595,-0.0001934119500219822,-0.005209577735513449
1.7294926163450627e+18,8.281262125819921e-05,-0.002941180719062686,-0.0035926573909819126
1.7294926163540628e+18,0.002463004784658551,-0.0018304624827578664,-0.00313851167447865
1.729492616363063e+18,-0.00030818977393209934,0.002445746911689639,-0.0008516734233126044
1.7294926163720632e+18,-0.0023535918444395065,-0.0009283647523261607,-0.0032882497180253267
1.7294926163780634e+18,-0.0003132914425805211,0.002565803239122033,-0.004830876365303993
1.7294926163870636e+18,-0.0008827646379359066,0.0010135816410183907,-0.0009623215300962329
1.7294926163960637e+18,0.0017454021144658327,0.0007545315893366933,-0.0025557554326951504
1.729492616405064e+18,0.0020004610996693373,0.0005914646899327636,-0.0023897120263427496
1.729492616414064e+18,-0.00018275948241353035,-0.002867319155484438,-0.0007016510935500264
1.7294926164230643e+18,0.0007110793958418071,-0.0017380912322551012,-0.0002865794813260436
1.7294926164320645e+18,-5.936017259955406e-05,-0.002615704433992505,-0.0047132708132267
1.7294926164380646e+18,-0.003460467327386141,-0.003029491752386093,-0.0017784242518246174
1.7294926164470648e+18,9.624194353818893e-05,-0.002169317100197077,-0.0020751534029841423
1.729492616456065e+18,-0.0038101724348962307,-0.004030896816402674,0.0007200998952612281
1.7294926164650652e+18,-0.0018216401804238558,-0.0038550710305571556,0.0026283985935151577
1.7294926164740654e+18,-0.0026088780723512173,-0.006239236798137426,-0.00046123622450977564
1.7294926164800655e+18,-0.002646914217621088,-0.003876657923683524,0.0004106310079805553
1.7294926164890657e+18,-0.004712254274636507,-0.006846339907497168,-9.62374615482986e-05
1.729492616498066e+18,-0.004489837680011988,-0.005030439235270023,-0.0014644959010183811
1.729492616507066e+18,-0.004167890641838312,-0.006102735176682472,-0.0014585538301616907
1.7294926165130662e+18,-0.002075035125017166,6.509106606245041e-05,0.0018809038447216153
1.7294926165220664e+18,-0.003846778767183423,-0.006267049349844456,-4.1018094634637237e-05
1.7294926165310666e+18,-0.006427275016903877,-0.0029727835208177567,-0.0011927566956728697
1.7294926165400668e+18,-0.006513556931167841,-0.004075238481163979,0.0008804425597190857
1.729492616546067e+18,-0.003448754781857133,-0.004104905761778355,0.0015189879341050982
1.7294926165550671e+18,-0.008740070275962353,-0.0054970355704426765,0.0014791866997256875
1.7294926165640673e+18,-0.00793689489364624,-0.003663218580186367,0.0006088392110541463
1.7294926165730675e+18,-0.008845143020153046,-0.008159761317074299,0.00319236540235579
1.7294926165820677e+18,-0.006027578376233578,-0.005528622306883335,0.0012136695440858603
1.729492616591068e+18,-0.009035157971084118,-0.006217630580067635,-0.0001627223682589829
1.729492616597068e+18,-0.010342820547521114,-0.0065675354562699795,0.0022868479136377573
1.7294926166060682e+18,-0.0075938403606414795,-0.00665068905800581,0.0017937544034793973
1.7294926166150684e+18,-0.0048872726038098335,-0.007569767069071531,0.0007908358238637447
1.7294926166240686e+18,-0.005692668259143829,-0.006526514887809753,-0.0011268125381320715
1.7294926166300687e+18,-0.009204486384987831,-0.00895336177200079,0.0016759082209318876
1.729492616639069e+18,-0.008089397102594376,-0.007957428693771362,-0.0008708684472367167
1.729492616648069e+18,-0.009843945503234863,-0.010869676247239113,0.004678688012063503
1.7294926166540692e+18,-0.00774975074455142,-0.011531473137438297,0.0004988813889212906
1.7294926166630694e+18,-0.007245343644171953,-0.01281673088669777,0.0017506186850368977
1.7294926166720696e+18,-0.0083059286698699,-0.014740534126758575,-0.0007567571010440588
1.7294926166810698e+18,-0.005974150728434324,-0.013061047531664371,0.0024767862632870674
1.72949261669007e+18,-0.007854122668504715,-0.010402251966297626,0.0029754815623164177
1.7294926167020703e+18,-0.006311874836683273,-0.011539391241967678,0.003004127647727728
1.7294926167110705e+18,-0.011240970343351364,-0.012936211191117764,-0.00040439143776893616
1.7294926167200707e+18,-0.011805864982306957,-0.015222664922475815,0.002671461785212159
1.7294926167290708e+18,-0.012220152653753757,-0.013608614914119244,0.002344337524846196
1.729492616738071e+18,-0.011727908626198769,-0.015558801591396332,-0.0017744021024554968
1.7294926167470712e+18,-0.008344271220266819,-0.01671438477933407,0.0009230716386809945
1.7294926167560714e+18,-0.00986384879797697,-0.015629669651389122,0.0018014548113569617
1.7294926167650716e+18,-0.009520900435745716,-0.018479522317647934,0.0030404729768633842
1.7294926167740718e+18,-0.0183328315615654,-0.017699409276247025,0.004639848601073027
1.729492616783072e+18,-0.01724034734070301,-0.017194747924804688,0.0033397721126675606
1.7294926167920722e+18,-0.01805766113102436,-0.016431841999292374,0.002961891470476985
1.7294926167980723e+18,-0.016023913398385048,-0.017854120582342148,4.132324829697609e-05
1.7294926168070725e+18,-0.017397461459040642,-0.017402755096554756,0.004669378511607647
1.7294926168190728e+18,-0.012965593487024307,-0.015428451821208,0.002474783221259713
1.729492616828073e+18,-0.011952376924455166,-0.016263823956251144,0.004002884496003389
1.7294926168370732e+18,-0.008943405002355576,-0.01891666278243065,0.0029613813385367393
1.7294926168460733e+18,-0.015173306688666344,-0.018458794802427292,0.0016005102079361677
1.7294926168580736e+18,-0.018995091319084167,-0.01596970483660698,0.005133264698088169
1.7294926168670738e+18,-0.018278121948242188,-0.019721221178770065,0.002877573948353529
1.729492616876074e+18,-0.017056435346603394,-0.021864496171474457,0.0038317583967000246
1.7294926168850742e+18,-0.01670386642217636,-0.01896161586046219,0.0057778810150921345
1.7294926168940744e+18,-0.014958733692765236,-0.02101280726492405,0.002726492239162326
1.7294926169030746e+18,-0.013377648778259754,-0.019212765619158745,0.006646999157965183
1.7294926169090747e+18,-0.01742824912071228,-0.02266446128487587,0.003092185128480196
1.729492616921075e+18,-0.01830790378153324,-0.0189583171159029,0.006287138443440199
1.729492616927075e+18,-0.019403044134378433,-0.023829059675335884,0.00312032550573349
1.7294926169390753e+18,-0.0190800279378891,-0.02303280122578144,0.0033970396034419537
1.7294926169480755e+18,-0.01863771118223667,-0.019407866522669792,0.006158466916531324
1.7294926169570757e+18,-0.016649706289172173,-0.023768829181790352,0.00529598630964756
1.729492616966076e+18,-0.018774230033159256,-0.02252941019833088,0.002781710121780634
1.729492616975076e+18,-0.020583609119057655,-0.02429693564772606,0.004402788355946541
1.7294926169840763e+18,-0.021987400949001312,-0.02536824345588684,0.0067873671650886536
1.7294926169930765e+18,-0.023719269782304764,-0.026880338788032532,0.006631157826632261
1.7294926170020767e+18,-0.023757340386509895,-0.024192966520786285,0.005310133099555969
1.729492617014077e+18,-0.018767448142170906,-0.021908555179834366,0.00637269951403141
1.729492617023077e+18,-0.015932194888591766,-0.021946940571069717,0.007071244064718485
1.7294926170320773e+18,-0.012600772082805634,-0.019879259169101715,0.006013691425323486
1.7294926170440776e+18,-0.015563147142529488,-0.02463623508810997,0.007110040634870529
1.7294926170530778e+18,-0.020428387448191643,-0.029360812157392502,0.0081478925421834
1.729492617062078e+18,-0.018682565540075302,-0.027790045365691185,0.0058945342898368835
1.7294926170740782e+18,-0.017359541729092598,-0.027640536427497864,0.008166298270225525
1.7294926170830784e+18,-0.01754876598715782,-0.024938171729445457,0.0075239622965455055
1.7294926170950787e+18,-0.019872797653079033,-0.022487018257379532,0.004964882042258978
1.7294926171040788e+18,-0.019669147208333015,-0.025587838143110275,0.008760016411542892
1.729492617116079e+18,-0.02112174779176712,-0.026612501591444016,0.006845186464488506
1.7294926171250793e+18,-0.017414627596735954,-0.030725395306944847,0.00862196832895279
1.7294926171370796e+18,-0.018098030239343643,-0.028551403433084488,0.009199365973472595
1.7294926171490798e+18,-0.017297642305493355,-0.02784743160009384,0.008493274450302124
1.72949261715808e+18,-0.017476731911301613,-0.024728303775191307,0.011688451282680035
1.7294926171670802e+18,-0.020625822246074677,-0.025627251714468002,0.008222713135182858
1.7294926171790804e+18,-0.022186115384101868,-0.027480479329824448,0.009219534695148468
1.7294926171880806e+18,-0.022202415391802788,-0.026521101593971252,0.008688508532941341
1.729492617200081e+18,-0.018201740458607674,-0.029359769076108932,0.007973603904247284
1.729492617209081e+18,-0.016057347878813744,-0.026766324415802956,0.006162774749100208
1.7294926172210813e+18,-0.015271863900125027,-0.029767462983727455,0.007187287323176861
1.7294926172300815e+18,-0.017665745690464973,-0.02567271701991558,0.010490273125469685
1.7294926172390817e+18,-0.019155556336045265,-0.020876463502645493,0.008750848472118378
1.729492617248082e+18,-0.020078042522072792,-0.02485516294836998,0.007655987050384283
1.7294926172600822e+18,-0.021152831614017487,-0.023265209048986435,0.011794054880738258
1.7294926172690824e+18,-0.008610974997282028,-0.03574125096201897,0.004960534628480673
1.7294926172780826e+18,0.008232735097408295,-0.0454551987349987,-0.010615246370434761
1.7294926172870828e+18,0.03154982998967171,-0.06103541702032089,-0.029600733891129494
1.729492617299083e+18,0.04486994445323944,-0.06467995792627335,-0.04039379954338074
1.7294926173080832e+18,0.032611630856990814,-0.06511367112398148,-0.04113619029521942
1.7294926173170834e+18,0.013701476156711578,-0.054736681282520294,-0.04149908572435379
1.7294926173260836e+18,-0.005712929181754589,-0.046720702201128006,-0.04190997779369354
1.7294926173380838e+18,-0.014140425249934196,-0.049075208604335785,-0.04028294235467911
1.729492617347084e+18,0.0003189564449712634,-0.0481412298977375,-0.044770531356334686
1.7294926173560842e+18,0.014933165162801743,-0.05017158389091492,-0.03945545852184296
1.7294926173650844e+18,0.020511526614427567,-0.05603054165840149,-0.037856340408325195
1.7294926173710845e+18,0.0229844618588686,-0.05652010813355446,-0.037258293479681015
1.7294926173830848e+18,0.008204948157072067,-0.04941283166408539,-0.03603691980242729
1.729492617389085e+18,-0.0013520759530365467,-0.04770143702626228,-0.03597830981016159
1.729492617398085e+18,-0.01574944518506527,-0.04267356917262077,-0.03501784801483154
1.7294926174070853e+18,-0.021160326898097992,-0.03740794584155083,-0.03614920377731323
1.7294926174190856e+18,-0.015164447948336601,-0.03572560101747513,-0.03291601315140724
1.7294926174250857e+18,-0.010648665018379688,-0.036779727786779404,-0.03501393646001816
1.729492617437086e+18,-0.004430723842233419,-0.03883563354611397,-0.03170831501483917
1.7294926174460861e+18,-0.009546255692839622,-0.03779897466301918,-0.030134711414575577
1.7294926174550863e+18,-0.01878281682729721,-0.03361048549413681,-0.03066616877913475
1.7294926174640865e+18,-0.026721779257059097,-0.03265431150794029,-0.025975624099373817
1.7294926174730867e+18,-0.03247832506895065,-0.033764880150556564,-0.024714622646570206
1.729492617485087e+18,-0.029608212411403656,-0.029201490804553032,-0.023202979937195778
1.7294926174940872e+18,-0.02491144835948944,-0.025067750364542007,-0.019857972860336304
1.7294926175030874e+18,-0.020790234208106995,-0.02629014290869236,-0.01577131450176239
1.7294926175150876e+18,-0.022410321980714798,-0.02583393268287182,-0.01445716805756092
1.7294926175240878e+18,-0.02890629507601261,-0.02598591148853302,-0.011778734624385834
1.729492617533088e+18,-0.03890904039144516,-0.024639667943120003,-0.008918723091483116
1.7294926175420882e+18,-0.03729189187288284,-0.024051956832408905,-0.005393871106207371
1.7294926175510884e+18,-0.04310660436749458,-0.020691344514489174,-0.005172782577574253
1.7294926175600886e+18,-0.037068650126457214,-0.01994122564792633,-0.0005891848122701049
1.7294926175690888e+18,-0.03311855345964432,-0.023999545723199844,0.003512811614200473
1.729492617578089e+18,-0.03320379927754402,-0.02219085581600666,0.004970010370016098
1.7294926175870892e+18,-0.0331382118165493,-0.023271115496754646,0.009459958411753178
1.7294926175930893e+18,-0.03653635084629059,-0.02460966631770134,0.011107080616056919
1.7294926176020895e+18,-0.041657496243715286,-0.023119088262319565,0.016933539882302284
1.7294926176110897e+18,-0.03943822905421257,-0.022174173966050148,0.020481863990426064
1.7294926176200899e+18,-0.04113107547163963,-0.018254060298204422,0.022465096786618233
1.72949261762909e+18,-0.03593820706009865,-0.019302411004900932,0.02497015707194805
1.7294926176380902e+18,-0.03449736535549164,-0.017706016078591347,0.02721698209643364
1.7294926176470904e+18,-0.03445085510611534,-0.017975732684135437,0.034417953342199326
1.7294926176560906e+18,-0.03564833477139473,-0.018723370507359505,0.03494233265519142
1.7294926176650908e+18,-0.041283395141363144,-0.01507188007235527,0.038526106625795364
1.729492617674091e+18,-0.04364698752760887,-0.015241613611578941,0.04463515058159828
1.7294926176830912e+18,-0.04168788716197014,-0.012690288946032524,0.046856530010700226
1.7294926176920914e+18,-0.03972511738538742,-0.019535960629582405,0.05011973902583122
1.7294926177010916e+18,-0.03654611110687256,-0.019178476184606552,0.05386282131075859
1.7294926177100918e+18,-0.03664839267730713,-0.019250944256782532,0.05631400644779205
1.729492617719092e+18,-0.036101069301366806,-0.019088823348283768,0.06512525677680969
1.7294926177280922e+18,-0.03449130058288574,-0.01710749790072441,0.06583613157272339
1.7294926177370924e+18,-0.03597727045416832,-0.015057791955769062,0.0698593333363533
1.7294926177460925e+18,-0.03434862568974495,-0.017561979591846466,0.07330162823200226
1.7294926177520927e+18,-0.035355616360902786,-0.015658291056752205,0.07331142574548721
1.7294926177610929e+18,-0.03622576966881752,-0.01774178072810173,0.07981656491756439
1.729492617770093e+18,-0.03647488355636597,-0.017238283529877663,0.08281765133142471
1.7294926177790932e+18,-0.034093696624040604,-0.01822492480278015,0.08462768793106079
1.7294926177880934e+18,-0.03059140034019947,-0.018975093960762024,0.08922342211008072
1.7294926177970936e+18,-0.033868253231048584,-0.019464805722236633,0.09159103780984879
1.7294926178060938e+18,-0.03171500563621521,-0.018402928486466408,0.09326671063899994
1.729492617815094e+18,-0.031092645600438118,-0.015748606994748116,0.09584976732730865
1.7294926178240942e+18,-0.027907555922865868,-0.017662348225712776,0.10368776321411133
1.7294926178330944e+18,-0.027415618300437927,-0.017909200862050056,0.10412389039993286
1.7294926178420946e+18,-0.02835981547832489,-0.023137245327234268,0.1091516837477684
1.7294926178510948e+18,-0.02680451050400734,-0.022432751953601837,0.11008724570274353
1.729492617860095e+18,-0.025173449888825417,-0.019675135612487793,0.11469629406929016
1.7294926178690952e+18,-0.025088734924793243,-0.02128615975379944,0.11711723357439041
1.7294926178780954e+18,-0.02571047656238079,-0.01993698626756668,0.11989837884902954
1.7294926178900956e+18,-0.02149602770805359,-0.02119293250143528,0.12101946771144867
1.7294926178990958e+18,-0.02504790760576725,-0.02094239927828312,0.12512226402759552
1.729492617908096e+18,-0.029603293165564537,-0.020353740081191063,0.12576943635940552
1.7294926179200963e+18,-0.027884190902113914,-0.017432861030101776,0.13304181396961212
1.7294926179290964e+18,-0.02441784366965294,-0.021510906517505646,0.1322614699602127
1.7294926179380966e+18,-0.02432091161608696,-0.021312518045306206,0.1344708502292633
1.729492617950097e+18,-0.022465476766228676,-0.022076966241002083,0.13758352398872375
1.729492617959097e+18,-0.021730564534664154,-0.023467684164643288,0.14159660041332245
1.7294926179680973e+18,-0.02219967171549797,-0.02341637946665287,0.14235413074493408
1.7294926179770975e+18,-0.023689379915595055,-0.024197151884436607,0.14388792216777802
1.7294926179860977e+18,-0.024916550144553185,-0.02434411458671093,0.1435013860464096
1.7294926179950979e+18,-0.025298357009887695,-0.022276118397712708,0.1495901197195053
1.729492618007098e+18,-0.024640364572405815,-0.022450024262070656,0.15190806984901428
1.7294926180160983e+18,-0.02070176973938942,-0.024141374975442886,0.15469998121261597
1.7294926180250985e+18,-0.02003665268421173,-0.02354196459054947,0.1515299677848816
1.7294926180340987e+18,-0.023194460198283195,-0.022448213770985603,0.15326426923274994
1.729492618043099e+18,-0.021762976422905922,-0.020693322643637657,0.15372464060783386
1.7294926180550991e+18,-0.022511465474963188,-0.016106396913528442,0.15963855385780334
1.7294926180640993e+18,-0.02081732451915741,-0.01737525686621666,0.15682388842105865
1.7294926180730995e+18,-0.020830662921071053,-0.018506716936826706,0.159330815076828
1.7294926180820997e+18,-0.017971506342291832,-0.01479407586157322,0.16117434203624725
1.7294926180911e+18,-0.017513196915388107,-0.019381500780582428,0.1610250473022461
1.7294926181031002e+18,-0.01927611231803894,-0.01769235171377659,0.1638348400592804
1.7294926181121004e+18,-0.019625414162874222,-0.017016107216477394,0.161587655544281
1.7294926181211005e+18,-0.02044234238564968,-0.015328510664403439,0.1634989082813263
1.7294926181301007e+18,-0.01904035173356533,-0.016089044511318207,0.15990151464939117
1.729492618139101e+18,-0.01796167902648449,-0.01563623733818531,0.16573186218738556
1.729492618148101e+18,-0.01964600197970867,-0.014218523167073727,0.1612788885831833
1.7294926181571013e+18,-0.021069936454296112,-0.015226218849420547,0.16520074009895325
1.7294926181661015e+18,-0.0198885016143322,-0.016436707228422165,0.1638728678226471
1.7294926181751017e+18,-0.021190347149968147,-0.01467233244329691,0.16456876695156097
1.729492618184102e+18,-0.019069768488407135,-0.015030620619654655,0.16370458900928497
1.729492618193102e+18,-0.01971263252198696,-0.0170509722083807,0.16142934560775757
1.7294926182021023e+18,-0.01965605840086937,-0.013395720161497593,0.16423213481903076
1.7294926182111025e+18,-0.019391199573874474,-0.010333256796002388,0.163603276014328
1.7294926182201027e+18,-0.01766856200993061,-0.01309487409889698,0.160852313041687
1.7294926182291028e+18,-0.018336975947022438,-0.01209662202745676,0.16515664756298065
1.729492618238103e+18,-0.020077181980013847,-0.011071802116930485,0.16023945808410645
1.7294926182471032e+18,-0.0210658460855484,-0.016776811331510544,0.15960784256458282
1.7294926182561034e+18,-0.021264290437102318,-0.012905925512313843,0.16091609001159668
1.7294926182651036e+18,-0.020297935232520103,-0.013088690117001534,0.1611504852771759
1.7294926182711037e+18,-0.015621614642441273,-0.014913626946508884,0.16168096661567688
1.729492618280104e+18,-0.013844550587236881,-0.01317029632627964,0.15865492820739746
1.7294926182891041e+18,-0.01614563725888729,-0.014075089246034622,0.15852731466293335
1.7294926182981043e+18,-0.011499719694256783,-0.010568032041192055,0.15842975676059723
1.7294926183071045e+18,-0.016846492886543274,-0.014128664508461952,0.15796653926372528
1.7294926183161047e+18,-0.014719739556312561,-0.014622232876718044,0.15562240779399872
1.729492618325105e+18,-0.011723006144165993,-0.01357842143625021,0.15375971794128418
1.729492618334105e+18,-0.012416801415383816,-0.010646718554198742,0.1524176299571991
1.7294926183431053e+18,-0.008730927482247353,-0.012729770503938198,0.14834080636501312
1.7294926183521055e+18,-0.008802583441138268,-0.013259068131446838,0.1507456749677658
1.7294926183611057e+18,-0.007045740261673927,-0.013082724995911121,0.1494235098361969
1.7294926183701059e+18,-0.012512794695794582,-0.009769703261554241,0.14383605122566223
1.729492618379106e+18,-0.012145266868174076,-0.012914921157062054,0.1445879191160202
1.7294926183881062e+18,-0.015767967328429222,-0.010519910603761673,0.14236710965633392
1.7294926183971064e+18,-0.013231003656983376,-0.013050458393990993,0.14090882241725922
1.7294926184061066e+18,-0.01015971414744854,-0.010415835306048393,0.13873036205768585
1.7294926184151068e+18,-0.01137287262827158,-0.01480849552899599,0.1399185061454773
1.729492618427107e+18,-0.012109743431210518,-0.02139808051288128,0.13505256175994873
1.7294926184361073e+18,-0.021852856501936913,-0.03644615039229393,0.13112756609916687
1.7294926184451075e+18,-0.02891240082681179,-0.053193189203739166,0.1282123476266861
1.7294926184541076e+18,-0.035029925405979156,-0.06392791867256165,0.12696178257465363
1.7294926184631078e+18,-0.03872576355934143,-0.06238006055355072,0.12306565046310425
1.729492618472108e+18,-0.0364571213722229,-0.0628146156668663,0.12292595952749252
1.7294926184841083e+18,-0.03157373145222664,-0.06224279850721359,0.11721882969141006
1.7294926184931085e+18,-0.03449783846735954,-0.061621829867362976,0.11369678378105164
1.7294926184991086e+18,-0.03676511347293854,-0.06962042301893234,0.11184085160493851
1.7294926185081088e+18,-0.03563046455383301,-0.07517002522945404,0.1109432801604271
1.729492618520109e+18,-0.04010973125696182,-0.07812037318944931,0.10925791412591934
1.7294926185291092e+18,-0.03942525386810303,-0.07400305569171906,0.10359765589237213
1.7294926185381094e+18,-0.039832886308431625,-0.07077796757221222,0.10199833661317825
1.7294926185471096e+18,-0.03888322785496712,-0.0646548867225647,0.10308901965618134
1.72949261855911e+18,-0.035767242312431335,-0.05983274430036545,0.0992346704006195
1.72949261856811e+18,-0.0347292423248291,-0.05954928696155548,0.09831605851650238
1.7294926185771103e+18,-0.03242771327495575,-0.060133710503578186,0.09574781358242035
1.7294926185861105e+18,-0.03420461341738701,-0.05779021605849266,0.09244373440742493
1.7294926185951107e+18,-0.03986617177724838,-0.058220166712999344,0.08888733386993408
1.7294926186041108e+18,-0.04580379277467728,-0.05316643789410591,0.08984605967998505
1.729492618613111e+18,-0.044355109333992004,-0.05092667415738106,0.08579686284065247
1.7294926186221112e+18,-0.0373920239508152,-0.04612812399864197,0.08268285542726517
1.7294926186311114e+18,-0.0331059992313385,-0.04130967706441879,0.08363290131092072
1.7294926186401116e+18,-0.02963498793542385,-0.03905918076634407,0.07859720289707184
1.7294926186491118e+18,-0.025443846359848976,-0.034883979707956314,0.07876107096672058
1.729492618661112e+18,-0.030538372695446014,-0.028365544974803925,0.07422716170549393
1.7294926186701123e+18,-0.03345444053411484,-0.028905432671308517,0.07796375453472137
1.7294926186791124e+18,-0.03313969820737839,-0.026573466137051582,0.07489505410194397
1.7294926186881126e+18,-0.03333831951022148,-0.022990576922893524,0.07316536456346512
1.7294926186971128e+18,-0.02727825753390789,-0.018144894391298294,0.06978154927492142
1.729492618706113e+18,-0.020848121494054794,-0.017679007723927498,0.06537951529026031
1.7294926187151132e+18,-0.017905177548527718,-0.014947940595448017,0.06772732734680176
1.7294926187241134e+18,-0.01723763719201088,-0.014280230738222599,0.0669211596250534
1.7294926187331136e+18,-0.014748661778867245,-0.008691612631082535,0.06504393368959427
1.7294926187421138e+18,-0.01652734912931919,-0.009448572061955929,0.05923040211200714
1.729492618751114e+18,-0.012945732101798058,-0.003899727715179324,0.06115239858627319
1.7294926187601142e+18,-0.01578960008919239,-0.0018134147394448519,0.059857312589883804
1.7294926187691144e+18,-0.01570526510477066,-0.002735308837145567,0.056102000176906586
1.7294926187781146e+18,-0.015373331494629383,0.0011133317602798343,0.0577494315803051
1.7294926187871148e+18,-0.01251083705574274,0.0008830766309984028,0.057867199182510376
1.729492618793115e+18,-0.009200429543852806,0.0016596335917711258,0.05429193377494812
1.729492618802115e+18,-0.006210631690919399,0.001598812174052,0.05252424255013466
1.7294926188111153e+18,-0.007068324834108353,0.004296130500733852,0.05095192790031433
1.7294926188171154e+18,-0.005498251412063837,0.004646772053092718,0.04901989549398422
1.7294926188261156e+18,-0.00856506172567606,0.0013172086328268051,0.05057429149746895
1.7294926188351158e+18,-0.011907301843166351,-0.0006882238667458296,0.04821689426898956
1.729492618841116e+18,-0.00813031755387783,0.0005097112734802067,0.0469171516597271
1.729492618850116e+18,-0.009181590750813484,0.0033952915109694004,0.04442092031240463
1.7294926188591163e+18,-0.008566350676119328,0.0086552444845438,0.04259662702679634
1.7294926188681165e+18,-0.007057640235871077,0.0075845541432499886,0.04509818181395531
1.7294926188741166e+18,-0.00398034043610096,0.007404742296785116,0.043397679924964905
1.7294926188831168e+18,-0.00020155817037448287,0.007430984638631344,0.04198101907968521
1.729492618895117e+18,-0.0033828590530902147,0.004862566944211721,0.0389520600438118
1.7294926189041172e+18,-0.004281235858798027,0.003838343545794487,0.044973328709602356
1.7294926189161175e+18,-0.007564738392829895,0.0078016240149736404,0.03637493774294853
1.7294926189251177e+18,-0.0026455214247107506,0.009516841731965542,0.03747347742319107
1.729492618934118e+18,-0.00014583859592676163,0.01028871163725853,0.03420620784163475
1.729492618943118e+18,0.0024462887085974216,0.011062323115766048,0.0367744043469429
1.7294926189521183e+18,0.0020068499725311995,0.00866627786308527,0.033339958637952805
1.7294926189581184e+18,0.005272803828120232,0.010687611065804958,0.03376530855894089
1.7294926189671186e+18,0.005008658394217491,0.010949857532978058,0.03349991887807846
1.7294926189761188e+18,0.0033740035723894835,0.010457776486873627,0.03401048481464386
1.729492618985119e+18,-0.002495533088222146,0.013142377138137817,0.03241848573088646
1.7294926189941192e+18,0.0013852398842573166,0.00891551747918129,0.029598018154501915
1.7294926190001193e+18,-0.0012174859875813127,0.008615802973508835,0.026146233081817627
1.7294926190091195e+18,0.002684107283130288,0.006776190362870693,0.029885409399867058
1.7294926190181197e+18,0.0033794385381042957,0.010117430239915848,0.025932617485523224
1.7294926190271199e+18,0.008264478296041489,0.012319372035562992,0.02871602401137352
1.72949261903612e+18,0.006479598581790924,0.012842634692788124,0.02737179398536682
1.7294926190421202e+18,0.01215360313653946,0.012735673226416111,0.02324621193110943
1.7294926190511204e+18,0.006993236020207405,0.012145986780524254,0.024591945111751556
1.7294926190571205e+18,0.00826106034219265,0.009735663421452045,0.023973673582077026
1.7294926190661207e+18,0.005312459077686071,0.009244495071470737,0.022528382018208504
1.729492619075121e+18,0.008334909565746784,0.009044872596859932,0.021584713831543922
1.729492619084121e+18,0.006654344964772463,0.005006736144423485,0.023928025737404823
1.7294926190931213e+18,0.012061497196555138,0.00966600701212883,0.020424984395503998
1.7294926190991214e+18,0.0140948835760355,0.009875601157546043,0.02271018922328949
1.7294926191081216e+18,0.015985112637281418,0.013307463377714157,0.01938900165259838
1.7294926191171218e+18,0.014965953305363655,0.013633958995342255,0.021906819194555283
1.729492619123122e+18,0.01847139187157154,0.01433254312723875,0.019491421058773994
1.729492619132122e+18,0.015899280086159706,0.016272597014904022,0.01963793858885765
1.7294926191411223e+18,0.0140814408659935,0.016393689438700676,0.01742897555232048
1.7294926191501225e+18,0.014591519720852375,0.016396725550293922,0.019732072949409485
1.7294926191561226e+18,0.015337923541665077,0.013224818743765354,0.017943814396858215
1.7294926191651228e+18,0.017528589814901352,0.012975361198186874,0.01781855709850788
1.729492619174123e+18,0.02344074472784996,0.013698898255825043,0.01710868999361992
1.7294926191831232e+18,0.021528562530875206,0.009460813365876675,0.015224090777337551
1.7294926191891233e+18,0.022506732493638992,0.013709023594856262,0.015654241666197777
1.7294926191981235e+18,0.02283332496881485,0.017263131216168404,0.016102228313684464
1.7294926192071237e+18,0.02016829513013363,0.018047962337732315,0.01570979319512844
1.729492619216124e+18,0.021603817120194435,0.018646489828824997,0.01365860179066658
1.729492619225124e+18,0.021443627774715424,0.01603170670568943,0.014897027052938938
1.7294926192311242e+18,0.022861182689666748,0.01611226424574852,0.013203972019255161
1.7294926192401244e+18,0.02362918108701706,0.013743157498538494,0.014359071850776672
1.7294926192491246e+18,0.02511746622622013,0.010597938671708107,0.018583884462714195
1.7294926192581248e+18,0.02692054957151413,0.012108665890991688,0.013347896747291088
1.729492619264125e+18,0.023987818509340286,0.012052072212100029,0.011640796437859535
1.729492619273125e+18,0.026736466214060783,0.012785326689481735,0.013127322308719158
1.7294926192821253e+18,0.0321587510406971,0.01845131441950798,0.009901109151542187
1.7294926192911255e+18,0.026137521490454674,0.020335931330919266,0.01199784129858017
1.7294926193001257e+18,0.029706235975027084,0.02110346034169197,0.01007834356278181
1.729492619309126e+18,0.03024001605808735,0.01918167993426323,0.011190475896000862
1.729492619318126e+18,0.029512161388993263,0.018866192549467087,0.013548331335186958
1.7294926193271263e+18,0.027262894436717033,0.014960996806621552,0.00918002612888813
1.7294926193331264e+18,0.029771070927381516,0.020537493750452995,0.009130951017141342
1.7294926193421266e+18,0.02663203701376915,0.01958249695599079,0.011251329444348812
1.7294926193511268e+18,0.028516560792922974,0.020726189017295837,0.0075351702980697155
1.729492619360127e+18,0.031742826104164124,0.02319885604083538,0.009046671912074089
1.7294926193691272e+18,0.02972390316426754,0.025158889591693878,0.00717315124347806
1.7294926193751273e+18,0.02905956096947193,0.02294045500457287,0.0074281538836658
1.7294926193841275e+18,0.029099972918629646,0.021612413227558136,0.004475882276892662
1.7294926193931277e+18,0.032618872821331024,0.01995348557829857,0.006230475381016731
1.729492619402128e+18,0.034198883920907974,0.02252827398478985,0.004769580904394388
1.729492619411128e+18,0.03100857511162758,0.022411154583096504,0.006288907490670681
1.7294926194201283e+18,0.031076829880475998,0.022880710661411285,0.005657609086483717
1.7294926194261284e+18,0.03267337754368782,0.025308480486273766,0.00700750108808279
1.7294926194351286e+18,0.03486904874444008,0.021079566329717636,0.0031465082429349422
1.7294926194411287e+18,0.03388362005352974,0.024475067853927612,0.0074503556825220585
1.729492619450129e+18,0.03675352782011032,0.025762520730495453,0.006336438003927469
1.729492619459129e+18,0.03508766368031502,0.023446712642908096,0.0023922354448586702
1.7294926194651292e+18,0.03568299114704132,0.024437256157398224,0.0018901017028838396
1.7294926194741294e+18,0.03843613341450691,0.027378112077713013,0.003410513047128916
1.7294926194831296e+18,0.03610062971711159,0.026383908465504646,0.004716535098850727
1.7294926194921298e+18,0.03771807998418808,0.02671566978096962,0.0011899361852556467
1.72949261950113e+18,0.03887610137462616,0.02780209481716156,0.001629619742743671
1.72949261950713e+18,0.03449654579162598,0.025393357500433922,0.00015999842435121536
1.7294926195161303e+18,0.036928363144397736,0.027629239484667778,0.0018340216483920813
1.7294926195251305e+18,0.03286914527416229,0.02439044788479805,0.0009494055993855
1.7294926195311306e+18,0.03501813858747482,0.02374826744198799,0.0033382715191692114
1.7294926195401308e+18,0.03360207751393318,0.024226194247603416,0.006068279501050711
1.729492619546131e+18,0.03691129758954048,0.02365214377641678,0.0034753093495965004
1.7294926195551311e+18,0.03674092888832092,0.03078537806868553,0.0002961619757115841
1.7294926195641313e+18,0.040993720293045044,0.02988317795097828,0.0037462543696165085
1.7294926195701315e+18,0.041043177247047424,0.026496926322579384,0.00088853994384408
1.7294926195791316e+18,0.04131067916750908,0.027549317106604576,-0.000785836367867887
1.7294926195881318e+18,0.04486589506268501,0.023972252383828163,0.0007964128162711859
1.729492619597132e+18,0.039534009993076324,0.026796480640769005,0.0006343589629977942
1.7294926196031322e+18,0.04018395021557808,0.02744433842599392,0.0001858091854956001
1.7294926196121324e+18,0.037924546748399734,0.025679267942905426,-0.002445044694468379
1.7294926196211325e+18,0.039429791271686554,0.02445540577173233,-0.0007731015793979168
1.7294926196301327e+18,0.0418185219168663,0.029077067971229553,0.001093729049898684
1.729492619639133e+18,0.04705800116062164,0.026044711470603943,0.000798042630776763
1.729492619645133e+18,0.047407831996679306,0.02600231021642685,-0.0012167934328317642
1.7294926196541332e+18,0.044869109988212585,0.028323562815785408,-0.0017920921090990305
1.7294926196631334e+18,0.043475743383169174,0.024879075586795807,0.001690310426056385
1.7294926196721336e+18,0.043174903839826584,0.026684872806072235,-0.0037608258426189423
1.7294926196811338e+18,0.036702655255794525,0.02562265843153,-0.0038446616381406784
1.729492619690134e+18,0.03606359660625458,0.027672646567225456,0.00209259451366961
1.7294926196991342e+18,0.03707289695739746,0.023298509418964386,-0.0024832510389387608
1.7294926197081344e+18,0.03735663369297981,0.023419467732310295,-0.0009114218410104513
1.7294926197171346e+18,0.041072409600019455,0.021894162520766258,-0.004447902087122202
1.7294926197231347e+18,0.04333147034049034,0.024538088589906693,4.683178849518299e-05
1.729492619732135e+18,0.04308408498764038,0.03142426908016205,0.0005473846103996038
1.729492619741135e+18,0.04313205927610397,0.02790161967277527,-0.0018459120765328407
1.7294926197501353e+18,0.039432212710380554,0.02999286539852619,-0.0040565431118011475
1.7294926197591355e+18,0.03567880392074585,0.027146602049469948,-0.0018209207337349653
1.7294926197651356e+18,0.036274876445531845,0.0264948308467865,-0.0028936255257576704
1.7294926197741358e+18,0.03773254528641701,0.02460876852273941,-0.0018041449366137385
1.729492619783136e+18,0.03709471598267555,0.022817492485046387,-0.0029588642064481974
1.7294926197921362e+18,0.03959747403860092,0.02867528609931469,-0.006911672186106443
1.7294926197981363e+18,0.043148718774318695,0.028693912550807,-0.0043360949493944645
1.7294926198071365e+18,0.04366111010313034,0.030304772779345512,-0.0037499170284718275
1.7294926198161367e+18,0.03913676366209984,0.030127588659524918,-0.00575161911547184
1.7294926198221368e+18,0.03910079970955849,0.03015894815325737,-0.0010358456056565046
1.729492619831137e+18,0.037203166633844376,0.02860519103705883,-0.0023510996252298355
1.7294926198371372e+18,0.03426961228251457,0.025355663150548935,-0.003641079179942608
1.7294926198461373e+18,0.032005153596401215,0.027688071131706238,-0.006702139973640442
1.7294926198521375e+18,0.035703834146261215,0.027781913056969643,-0.003167356364428997
1.7294926198671378e+18,0.037352196872234344,0.02868441864848137,-0.0033890996128320694
1.729492619873138e+18,0.036245327442884445,0.029612448066473007,-0.00393970962613821
1.729492619882138e+18,0.03750687092542648,0.02701995149254799,-0.005355367437005043
1.7294926198911383e+18,0.03735605999827385,0.029926413670182228,-0.0058362167328596115
1.7294926199001385e+18,0.03886081278324127,0.027301108464598656,-0.007706242613494396
1.7294926199061386e+18,0.03888794034719467,0.026441896334290504,-0.00478458683937788
1.729492619918139e+18,0.040027085691690445,0.02324964851140976,-0.005616254173219204
1.729492619924139e+18,0.037598252296447754,0.022751344367861748,-0.002583644352853298
1.7294926199331392e+18,0.03987010195851326,0.023269493132829666,-0.003956860397011042
1.7294926199451395e+18,0.035985443741083145,0.02640090137720108,-0.0040590111166238785
1.7294926199601398e+18,0.03761828690767288,0.032155320048332214,-0.005031670909374952
1.72949261996914e+18,0.03838127851486206,0.02823316492140293,-0.0021054232493042946
1.7294926199781402e+18,0.04272808879613876,0.026351505890488625,-0.006645348388701677
1.7294926199871404e+18,0.04062539339065552,0.022605210542678833,-0.005251300986856222
1.7294926199961405e+18,0.03598473593592644,0.022590462118387222,-0.0036119185388088226
1.7294926200051407e+18,0.03669248893857002,0.022069521248340607,-0.007052800618112087
1.729492620014141e+18,0.03906357288360596,0.024516381323337555,-0.002106578554958105
1.729492620020141e+18,0.03872784599661827,0.024529792368412018,-0.004219065420329571
1.7294926200291412e+18,0.041482068598270416,0.02491089515388012,-0.00744748767465353
1.7294926200381414e+18,0.04386701434850693,0.029827622696757317,-0.005724363960325718
1.7294926200471416e+18,0.042413078248500824,0.024355994537472725,-0.006130634807050228
1.7294926200561418e+18,0.04313092678785324,0.025086699053645134,-0.00671240733936429
1.729492620062142e+18,0.040887366980314255,0.02084980346262455,-0.0045851003378629684
1.7294926200711421e+18,0.034212738275527954,0.020609572529792786,-0.004488007165491581
1.7294926200801423e+18,0.03234267234802246,0.01877918280661106,-0.005118801258504391
1.7294926200891425e+18,0.033550895750522614,0.025211762636899948,-0.008628838695585728
1.7294926200981427e+18,0.03398927301168442,0.021286552771925926,-0.0072082108817994595
1.729492620107143e+18,0.03569746017456055,0.020981859415769577,-0.005878530442714691
1.729492620113143e+18,0.0336666963994503,0.020199276506900787,-0.004179475829005241
1.7294926201221432e+18,0.038485296070575714,0.022099487483501434,-0.004397732205688953
1.7294926201311434e+18,0.04105217754840851,0.022790074348449707,-0.00652728509157896
1.7294926201401436e+18,0.03940415382385254,0.023666951805353165,-0.005619707517325878
1.7294926201461437e+18,0.03893028199672699,0.025660259649157524,-0.004846733063459396
1.729492620155144e+18,0.031914517283439636,0.02428792230784893,-0.006938012782484293
1.729492620161144e+18,0.031390927731990814,0.02427775040268898,-0.004002666100859642
1.7294926201701443e+18,0.03092384710907936,0.022832052782177925,-0.004605671390891075
1.7294926201761444e+18,0.028097599744796753,0.023083031177520752,-0.008733595721423626
1.7294926201851446e+18,0.032499607652425766,0.024789774790406227,-0.003349910257384181
1.7294926201911447e+18,0.035024892538785934,0.02196923829615116,-0.0032110419124364853
1.729492620200145e+18,0.03524547815322876,0.025007620453834534,-0.0064895967952907085
1.729492620209145e+18,0.035351093858480453,0.024495266377925873,-0.006143389269709587
1.7294926202151452e+18,0.03221776708960533,0.023463673889636993,-0.005220906808972359
1.7294926202241454e+18,0.03077041730284691,0.022861763834953308,-0.005708734039217234
1.7294926202331456e+18,0.02557111345231533,0.0229935385286808,-0.006768836174160242
1.7294926202391457e+18,0.024539031088352203,0.02677314355969429,-0.004165646620094776
1.729492620248146e+18,0.027626540511846542,0.026009904220700264,-0.003967175725847483
1.7294926202601462e+18,0.02740687131881714,0.024066049605607986,-0.005451236851513386
1.7294926202661463e+18,0.02900390885770321,0.02094114013016224,-0.007291383109986782
1.7294926202751465e+18,0.028021303936839104,0.02214561402797699,-0.006688093300908804
1.7294926202841467e+18,0.02712334878742695,0.020794305950403214,-0.008673219010233879
1.729492620293147e+18,0.023728594183921814,0.024005001410841942,-0.005635169334709644
1.729492620302147e+18,0.024142272770404816,0.019465364515781403,-0.0071792504750192165
1.7294926203081472e+18,0.024654287844896317,0.022480560466647148,-0.005976723041385412
1.7294926203171474e+18,0.023833008483052254,0.021746421232819557,-0.005657367408275604
1.7294926203261476e+18,0.025657610967755318,0.0169508159160614,-0.006458624731749296
1.7294926203351478e+18,0.026689104735851288,0.016239294782280922,-0.006858842447400093
1.729492620341148e+18,0.02903674729168415,0.01672278717160225,-0.005046998616307974
1.729492620350148e+18,0.026932785287499428,0.01777712255716324,-0.008102061226963997
1.7294926203591483e+18,0.03055296652019024,0.020892847329378128,-0.008099991828203201
1.7294926203681485e+18,0.02641851268708706,0.01784484274685383,-0.005343453027307987
1.7294926203741486e+18,0.027539502829313278,0.0168351661413908,-0.0031553080771118402
1.7294926203831488e+18,0.025112222880125046,0.01778917945921421,-0.006669454742223024
1.729492620392149e+18,0.02558419108390808,0.013948429375886917,-0.0047975871711969376
1.729492620398149e+18,0.02581913024187088,0.015394923277199268,-0.005604663398116827
1.7294926204071493e+18,0.02322462946176529,0.011484427377581596,-0.006153156515210867
1.7294926204161495e+18,0.024234965443611145,0.010515900328755379,-0.0030227242968976498
1.7294926204251497e+18,0.024995392188429832,0.01222663838416338,-0.007217762991786003
1.72949262043415e+18,0.02071055769920349,0.011759625747799873,-0.006925391498953104
1.72949262044315e+18,0.02512684278190136,0.011792497709393501,-0.00831969641149044
1.7294926204521503e+18,0.022824855521321297,0.01235026866197586,-0.008292199112474918
1.7294926204611505e+18,0.0238807313144207,0.01400474738329649,-0.005615370813757181
1.7294926204701507e+18,0.02223525382578373,0.009567362256348133,-0.00658081891015172
1.7294926204761508e+18,0.02471867948770523,0.013590640388429165,-0.00693737156689167
1.729492620485151e+18,0.020270438864827156,0.011774894781410694,-0.00758482376113534
1.7294926204941512e+18,0.019073685631155968,0.012110592797398567,-0.0043947696685791016
1.7294926205001513e+18,0.017004111781716347,0.011958640068769455,-0.00689463596791029
1.7294926205091515e+18,0.01943512074649334,0.014885888434946537,-0.008363268338143826
1.7294926205151516e+18,0.017934508621692657,0.011341669596731663,-0.0060998001135885715
1.7294926205241518e+18,0.01772538758814335,0.013411875814199448,-0.007936548441648483
1.729492620530152e+18,0.022636504843831062,0.009572189301252365,-0.007769631687551737
1.7294926205391521e+18,0.019384322687983513,0.013198434375226498,-0.005879295989871025
1.7294926205481523e+18,0.019235465675592422,0.010588775388896465,-0.005568633787333965
1.7294926205571525e+18,0.01646086387336254,0.010558892041444778,-0.006583475973457098
1.7294926205631526e+18,0.015059426426887512,0.008878703229129314,-0.006684798281639814
1.7294926205721528e+18,0.009841527789831161,0.006136390380561352,-0.006020421162247658
1.729492620581153e+18,0.012709901668131351,0.008543617092072964,-0.00834093987941742
1.7294926205871532e+18,0.01052006334066391,0.007748608011752367,-0.008016740903258324
1.7294926205961533e+18,0.01103281881660223,0.006240536458790302,-0.0034872221294790506
1.7294926206051535e+18,0.011533403769135475,0.008051224052906036,-0.006516539491713047
1.7294926206141537e+18,0.011756651103496552,0.006737682968378067,-0.007489304523915052
1.729492620629154e+18,0.009424261748790741,0.006694601848721504,-0.009652414359152317
1.7294926206381542e+18,0.0027224160730838776,0.002719237469136715,-0.003063930431380868
1.7294926206441544e+18,0.0025779621209949255,0.005644596181809902,-0.009376399219036102
1.7294926206561546e+18,-0.001726257847622037,0.004820546135306358,-0.008363313972949982
1.729492620668155e+18,0.0023451156448572874,0.006380602717399597,-0.00700479606166482
1.729492620677155e+18,0.0022293380461633205,0.0019391621463000774,-0.005185309797525406
1.7294926206861553e+18,0.0021332143805921078,0.008061815053224564,-0.008654089644551277
1.7294926206951555e+18,0.0057196537964046,0.006168474443256855,-0.004857026506215334
1.7294926207041556e+18,0.0027771620079874992,0.007157731335610151,-0.008625639602541924
1.729492620716156e+18,0.00375100364908576,0.005026037804782391,-0.004007101058959961
1.729492620725156e+18,0.0020437445491552353,0.006979927886277437,-0.003761117812246084
1.7294926207341563e+18,-0.002929889364168048,0.00706360163167119,-0.005478956270962954
1.7294926207431565e+18,-0.005458070430904627,0.005900256801396608,-0.008493335917592049
1.7294926207521567e+18,-0.0043797846883535385,0.0037257694639265537,-0.005437006708234549
1.7294926207581568e+18,-0.002592479344457388,0.005849762819707394,-0.007546473294496536
1.729492620767157e+18,0.00015977397561073303,0.0019411955727264285,-0.007563620340079069
1.7294926207761572e+18,-0.004127339459955692,0.003012883011251688,-0.006121042650192976
1.7294926207851574e+18,-0.003742278553545475,0.0022776543628424406,-0.006221584975719452
1.7294926207941576e+18,-0.005409995559602976,0.003766728565096855,-0.004900055937469006
1.7294926208031578e+18,-0.008874745108187199,-0.001171871437691152,-0.0076347896829247475
1.729492620809158e+18,-0.008527123369276524,0.0004539890796877444,-0.006064163986593485
1.729492620818158e+18,-0.005884524900466204,0.0023024934343993664,-0.006420046556740999
1.7294926208271583e+18,-0.006951458286494017,0.001490345224738121,-0.006158750969916582
1.7294926208331584e+18,-0.005741523578763008,-0.0002056608209386468,-0.006368575617671013
1.7294926208421586e+18,-0.005078377667814493,0.003428483847528696,-0.0031122760847210884
1.7294926208481587e+18,-0.0012482244055718184,0.0041177780367434025,-0.005832055117934942
1.729492620857159e+18,-0.004446143284440041,0.0018215249292552471,-0.0058607012033462524
1.729492620866159e+18,-0.005357314832508564,-0.00028293958166614175,-0.006424855440855026
1.7294926208751593e+18,-0.006773993838578463,-0.00031484966166317463,-0.0085303895175457
1.7294926208811594e+18,-0.007025780156254768,-0.0038589215837419033,-0.005504172295331955
1.7294926208901596e+18,-0.007281171157956123,-0.0012403209693729877,-0.0034112543798983097
1.7294926208961597e+18,-0.008288650773465633,-0.00020217493874952197,-0.005042158532887697
1.72949262090516e+18,-0.005296509712934494,-0.0031018098816275597,-0.00804983451962471
1.72949262091116e+18,-0.007981592789292336,-0.0003067554207518697,-0.0029462287202477455
1.7294926209201603e+18,-0.006453400477766991,0.002111121080815792,-0.004934982862323523
1.7294926209261604e+18,-0.004969221074134111,0.0026471391320228577,-0.007684171665459871
1.7294926209351606e+18,-0.006893927697092295,0.0029222529847174883,-0.0067565953359007835
1.7294926209441608e+18,-0.009414716623723507,-0.0001550222368678078,-0.006683572195470333
1.729492620950161e+18,-0.009638031013309956,-0.0027183364145457745,-0.0050049638375639915
1.729492620959161e+18,-0.00478019006550312,-0.0014806664548814297,-0.0029246241319924593
1.7294926209681613e+18,-0.009957746602594852,-0.004559463821351528,-0.005056811962276697
1.7294926209771615e+18,-0.006394395604729652,-0.004204302094876766,-0.004086840432137251
1.7294926209831616e+18,-0.011330480687320232,-0.005452013574540615,-0.0020228733774274588
1.7294926209921618e+18,-0.008409446105360985,-0.0038612778298556805,-0.004797891713678837
1.729492621001162e+18,-0.010740046389400959,0.0011907496955245733,-0.006046421825885773
1.7294926210101622e+18,-0.010955678299069405,0.0002484658034518361,-0.005562964361160994
1.7294926210191624e+18,-0.012782116420567036,0.003301351796835661,-0.006417225580662489
1.7294926210251625e+18,-0.012574577704071999,0.0004047509573865682,-0.004159729927778244
1.7294926210341627e+18,-0.011226629838347435,-0.003010999411344528,-0.0076013607904314995
1.729492621043163e+18,-0.013052403926849365,-0.005276418291032314,-0.007418180350214243
1.729492621052163e+18,-0.012055435217916965,-0.004634324461221695,-0.004204615950584412
1.7294926210611633e+18,-0.014775254763662815,-0.0049520572647452354,-0.008317097090184689
1.7294926210701635e+18,-0.015480203554034233,-0.004090649541467428,-0.008056476712226868
1.7294926210791636e+18,-0.014035250060260296,-0.006398527417331934,-0.004093193914741278
1.7294926210881638e+18,-0.014886756427586079,-0.007806189823895693,-0.004566609393805265
1.729492621097164e+18,-0.016612978652119637,-0.0075028687715530396,-0.0031409566290676594
1.7294926211061642e+18,-0.014760497026145458,-0.011113367974758148,-0.0011211559176445007
1.7294926211151644e+18,-0.01187201403081417,-0.010754419490695,-0.005689446348696947
1.7294926211241646e+18,-0.014848776161670685,-0.013638180680572987,-0.006537494715303183
1.7294926211301647e+18,-0.019119499251246452,-0.012592196464538574,-0.003775161225348711
1.729492621139165e+18,-0.021600812673568726,-0.011745015159249306,-0.004972216207534075
1.729492621148165e+18,-0.0197202879935503,-0.008731523528695107,-0.0043892934918403625
1.7294926211571653e+18,-0.019753171131014824,-0.009250452741980553,-0.004041497129946947
1.7294926211661655e+18,-0.017720336094498634,-0.01349325105547905,-0.006017615087330341
1.7294926211721656e+18,-0.018325844779610634,-0.01014629565179348,-0.0022789177019149065
1.7294926211811658e+18,-0.01731322892010212,-0.00877099484205246,-0.0033805351704359055
1.729492621190166e+18,-0.014670428819954395,-0.013030415400862694,-0.007384407799690962
1.7294926211991662e+18,-0.016321320086717606,-0.01479845680296421,-0.006699796766042709
1.7294926212051663e+18,-0.020058266818523407,-0.01300089992582798,-0.005063342861831188
1.7294926212141665e+18,-0.023155339062213898,-0.013803037814795971,-0.0036330600269138813
1.7294926212231667e+18,-0.017016364261507988,-0.01071510836482048,-0.0047395178116858006
1.729492621232167e+18,-0.01788508892059326,-0.012647012248635292,-0.0070484597235918045
1.729492621238167e+18,-0.015432641841471195,-0.010663227178156376,-0.004043528810143471
1.7294926212471672e+18,-0.01823626644909382,-0.009157312102615833,-0.005872699897736311
1.7294926212561674e+18,-0.01696036569774151,-0.014098061248660088,-0.007085063029080629
1.7294926212621676e+18,-0.017923003062605858,-0.012014085426926613,-0.0053763859905302525
1.7294926212711677e+18,-0.020993750542402267,-0.017631597816944122,-0.00735198799520731
1.729492621280168e+18,-0.019276326522231102,-0.013699611648917198,-0.007435568142682314
1.729492621286168e+18,-0.01864851824939251,-0.015284555964171886,-0.0074807386845350266
1.7294926212951683e+18,-0.02059115283191204,-0.011067088693380356,-0.0029550977051258087
1.7294926213041684e+18,-0.020069420337677002,-0.014195965602993965,-0.004886083770543337
1.7294926213101686e+18,-0.020306913182139397,-0.015766054391860962,-0.005407899152487516
1.7294926213191688e+18,-0.01746874675154686,-0.0155574269592762,-0.008823156356811523
1.729492621325169e+18,-0.0183984637260437,-0.015945112332701683,-0.0027851557824760675
1.729492621331169e+18,-0.0184293445199728,-0.013571205548942089,-0.007098532281816006
1.7294926213401692e+18,-0.02081167697906494,-0.020298810675740242,-0.006622024811804295
1.7294926213491694e+18,-0.018803585320711136,-0.014459000900387764,-0.005436039995402098
1.7294926213581696e+18,-0.0234919972717762,-0.014119898900389671,-0.0062486762180924416
1.7294926213641697e+18,-0.021774783730506897,-0.014562398195266724,-0.0032908665016293526
1.72949262137317e+18,-0.021987253800034523,-0.013252400793135166,-0.004840720910578966
1.72949262138217e+18,-0.019177759066224098,-0.011772552505135536,-0.008974555879831314
1.7294926213911703e+18,-0.019018253311514854,-0.009436206892132759,-0.0038353707641363144
1.7294926214001705e+18,-0.01680370233952999,-0.012942157685756683,-0.005201383028179407
1.7294926214091707e+18,-0.020553220063447952,-0.012280265800654888,-0.006023083813488483
1.729492621418171e+18,-0.021959327161312103,-0.011480212211608887,-0.0036725325044244528
1.729492621427171e+18,-0.020530616864562035,-0.009846482425928116,-0.007041684351861477
1.7294926214361713e+18,-0.02288595214486122,-0.01186614390462637,-0.0025553007144480944
1.7294926214451715e+18,-0.022016454488039017,-0.01348160207271576,-0.005432494450360537
1.7294926214541716e+18,-0.01912815310060978,-0.012808564119040966,-0.005113979335874319
1.7294926214631718e+18,-0.021430689841508865,-0.012079538777470589,-0.006145368330180645
1.729492621472172e+18,-0.021640975028276443,-0.01683819480240345,-0.008310701698064804
1.7294926214781722e+18,-0.02178824134171009,-0.01649186946451664,-0.0033290903083980083
1.7294926214871724e+18,-0.023726651445031166,-0.01200634054839611,-0.007145291194319725
1.7294926214961725e+18,-0.02384847402572632,-0.014766985550522804,-0.006241505965590477
1.7294926215051727e+18,-0.023193910717964172,-0.011291436851024628,-0.004717377480119467
1.729492621514173e+18,-0.023696130141615868,-0.015216538682579994,-0.0053435759618878365
1.729492621520173e+18,-0.027289023622870445,-0.015598737634718418,-0.00397093128412962
1.7294926215291732e+18,-0.02559390291571617,-0.010986529290676117,-0.003905555931851268
1.7294926215381734e+18,-0.023424513638019562,-0.014287122525274754,-0.002913212403655052
1.7294926215471736e+18,-0.023946259170770645,-0.017013540491461754,-0.0017741830088198185
1.7294926215561738e+18,-0.02447054535150528,-0.019167954102158546,-0.004666980821639299
1.729492621562174e+18,-0.03001982346177101,-0.015292446129024029,-0.003124181181192398
1.7294926215711741e+18,-0.029514117166399956,-0.01740417443215847,-0.0027267877012491226
1.7294926215801743e+18,-0.027036814019083977,-0.014557523652911186,-0.0021737655624747276
1.7294926215861745e+18,-0.023567693307995796,-0.011473271995782852,-0.002858626190572977
1.7294926215951747e+18,-0.02314196527004242,-0.009861833415925503,-0.005054786801338196
1.7294926216011748e+18,-0.023913152515888214,-0.010520357638597488,-0.004421037621796131
1.729492621610175e+18,-0.02387678436934948,-0.01145101711153984,-0.0038313944824039936
1.729492621616175e+18,-0.020632481202483177,-0.01367067638784647,-0.0028458749875426292
1.7294926216251753e+18,-0.0210600346326828,-0.018292108550667763,-0.005589109845459461
1.7294926216311754e+18,-0.021715795621275902,-0.019375229254364967,-0.003740403102710843
1.7294926216401756e+18,-0.020312340930104256,-0.01609288901090622,-0.004601253662258387
1.7294926216461757e+18,-0.025479702278971672,-0.017125478014349937,-0.00552170118317008
1.729492621655176e+18,-0.022904064506292343,-0.013380788266658783,-0.0034210444428026676
1.729492621664176e+18,-0.027381962165236473,-0.0139409014955163,-0.001140151871368289
1.7294926216731763e+18,-0.026536159217357635,-0.013167541474103928,-0.0035791529808193445
1.7294926216821765e+18,-0.026700451970100403,-0.016407497227191925,-0.0014435781631618738
1.7294926216911767e+18,-0.02514309622347355,-0.01599263772368431,-0.0013401724863797426
1.7294926216971768e+18,-0.02624761499464512,-0.014733792282640934,0.00040082959458231926
1.729492621706177e+18,-0.024173852056264877,-0.014563310891389847,-0.00359629699960351
1.7294926217151772e+18,-0.030342793092131615,-0.014600714668631554,-0.0029657231643795967
1.7294926217211773e+18,-0.028431758284568787,-0.01865968108177185,-0.003925809171050787
1.7294926217301775e+18,-0.032331980764865875,-0.014945321716368198,-0.004716652911156416
1.7294926217421778e+18,-0.02845967747271061,-0.014822069555521011,-0.00338540505617857
1.729492621751178e+18,-0.02495112083852291,-0.016017014160752296,-0.00461580278351903
1.7294926217601782e+18,-0.024040192365646362,-0.019198046997189522,-0.0035325961653143167
1.7294926217691784e+18,-0.018330546095967293,-0.017476310953497887,-0.006237831898033619
1.7294926217811786e+18,-0.02393028512597084,-0.018684614449739456,-0.001892721513286233
1.7294926217871788e+18,-0.022992676123976707,-0.01725175231695175,-0.0031816321425139904
1.729492621796179e+18,-0.02538446895778179,-0.01527763344347477,-0.0036346642300486565
1.7294926218051791e+18,-0.026380356401205063,-0.01805407740175724,-0.002471846528351307
1.7294926218141793e+18,-0.02277456223964691,-0.017618298530578613,-0.007915427908301353
1.7294926218231795e+18,-0.02252236008644104,-0.015417199581861496,-0.0054515451192855835
1.7294926218321797e+18,-0.023267632350325584,-0.01797071285545826,-0.004087962210178375
1.72949262184118e+18,-0.02536648139357567,-0.020615287125110626,-0.004882665351033211
1.72949262185018e+18,-0.023775270208716393,-0.018402650952339172,-0.0030249999836087227
1.7294926218591803e+18,-0.025641320273280144,-0.015678025782108307,-0.006598878651857376
1.7294926218681805e+18,-0.024247195571660995,-0.014942718669772148,-0.004716323688626289
1.7294926218771807e+18,-0.02741251513361931,-0.01618955470621586,-0.0031446749344468117
1.7294926218861809e+18,-0.02046297863125801,-0.010542767122387886,-0.0019102577352896333
1.729492621895181e+18,-0.020371079444885254,-0.015716994181275368,-0.0023930284660309553
1.7294926219041812e+18,-0.021860841661691666,-0.018179163336753845,-0.003183201188221574
1.7294926219131814e+18,-0.022629212588071823,-0.0170625988394022,-0.003587566316127777
1.7294926219221816e+18,-0.023353086784482002,-0.01614922098815441,-0.0014779805205762386
1.7294926219281818e+18,-0.024248631671071053,-0.016162293031811714,-0.0026653087697923183
1.729492621937182e+18,-0.02524842508137226,-0.015492603182792664,-0.003905518911778927
1.7294926219461821e+18,-0.02256413921713829,-0.01672990247607231,-0.005337717942893505
1.7294926219551823e+18,-0.024357393383979797,-0.01843709871172905,-0.005434645805507898
1.7294926219641825e+18,-0.025183558464050293,-0.01667521335184574,-0.0031272273045033216
1.7294926219731827e+18,-0.028584985062479973,-0.014342479407787323,-0.002871540142223239
1.729492621982183e+18,-0.028482625260949135,-0.017359843477606773,-0.005990289617329836
1.729492621991183e+18,-0.029136260971426964,-0.015884671360254288,-0.004643049091100693
1.7294926220001833e+18,-0.02985408902168274,-0.01573481224477291,-0.002013077726587653
1.7294926220061834e+18,-0.02616499736905098,-0.013856730423867702,-0.0021390877664089203
1.7294926220151836e+18,-0.025241272523999214,-0.013335597701370716,-0.0031262985430657864
1.7294926220241838e+18,-0.02462596818804741,-0.012485459446907043,-0.0012266731355339289
1.729492622030184e+18,-0.024146821349859238,-0.013095173984766006,-0.0010578497312963009
1.7294926220391841e+18,-0.023583820089697838,-0.013230781070888042,-0.0010215605143457651
1.7294926220481843e+18,-0.025555012747645378,-0.012679556384682655,-0.0028500740882009268
1.7294926220541844e+18,-0.02620665542781353,-0.011963684111833572,-0.0006151401903480291
1.7294926220631846e+18,-0.029877299442887306,-0.016365254297852516,-0.002598517807200551
1.7294926220691848e+18,-0.027472075074911118,-0.012038913555443287,-0.0060373330488801
1.729492622078185e+18,-0.02697720378637314,-0.01559645589441061,-0.004185051657259464
1.7294926220871852e+18,-0.02504640445113182,-0.013494777493178844,-0.003834376111626625
1.7294926220961853e+18,-0.0220359954982996,-0.01454522181302309,-0.00405378732830286
1.7294926221021855e+18,-0.02078348584473133,-0.010982443578541279,-0.002500904956832528
1.7294926221111857e+18,-0.02374775893986225,-0.011163897812366486,-0.0018760974053293467
1.7294926221171858e+18,-0.01974327117204666,-0.01095496490597725,-0.00472247414290905
1.729492622126186e+18,-0.02559412457048893,-0.010809329338371754,-0.0036362779792398214
1.7294926221351862e+18,-0.025393499061465263,-0.01231709960848093,-0.0033009902108460665
1.7294926221441864e+18,-0.025998296216130257,-0.013275250792503357,-0.005937174893915653
1.7294926221501865e+18,-0.024944067001342773,-0.015499926172196865,0.000744515797123313
1.7294926221591867e+18,-0.017635857686400414,-0.014712761156260967,-0.0024326990824192762
1.729492622168187e+18,-0.019292017444968224,-0.015024003572762012,-0.0036196550354361534
1.729492622174187e+18,-0.019334422424435616,-0.014663230627775192,-0.002246046205982566
1.7294926221831872e+18,-0.017177626490592957,-0.011555459350347519,-0.0042797294445335865
1.7294926221921874e+18,-0.021665489301085472,-0.014218628406524658,-0.0033552921377122402
1.7294926221981875e+18,-0.026683876290917397,-0.009547674097120762,-0.000761071452870965
1.7294926222071877e+18,-0.023240745067596436,-0.012790210545063019,-0.002208950463682413
1.729492622216188e+18,-0.021756721660494804,-0.012915730476379395,-0.0004373167175799608
1.729492622225188e+18,-0.021404335275292397,-0.014028285630047321,-0.001256862306036055
1.7294926222341883e+18,-0.01786918006837368,-0.015926804393529892,-0.004090395290404558
1.7294926222401884e+18,-0.018581481650471687,-0.014415689744055271,-0.0027019751723855734
1.7294926222491886e+18,-0.024663064628839493,-0.014028511941432953,-0.0019176184432581067
1.7294926222581888e+18,-0.019822074100375175,-0.010917252860963345,-0.007620496675372124
1.729492622267189e+18,-0.02347329817712307,-0.010105694644153118,-0.0007012118585407734
1.7294926222761892e+18,-0.02282579056918621,-0.011977317743003368,-0.004103765357285738
1.7294926222851894e+18,-0.020849337801337242,-0.01389666274189949,-0.00038280896842479706
1.7294926222941896e+18,-0.018883949145674706,-0.012902839109301567,-0.003067013807594776
1.7294926223031898e+18,-0.02155039831995964,-0.01618138700723648,-0.004047257825732231
1.72949262231219e+18,-0.02088030055165291,-0.0120778176933527,-0.0049867285415530205
1.7294926223211901e+18,-0.02152806706726551,-0.010548757389187813,-0.0041327280923724174
1.7294926223301903e+18,-0.022611964493989944,-0.014495808631181717,-0.0008586510084569454
1.7294926223391905e+18,-0.020006529986858368,-0.01377558708190918,-0.0024776284117251635
1.7294926223481907e+18,-0.0203817430883646,-0.012339304201304913,-0.002691456815227866
1.729492622357191e+18,-0.016440976411104202,-0.014433544129133224,-0.004569292068481445
1.729492622366191e+18,-0.01912841945886612,-0.01418034266680479,0.0006294578779488802
1.7294926223751913e+18,-0.01695544272661209,-0.011213324032723904,-0.002437123330309987
1.7294926223841915e+18,-0.017055340111255646,-0.010429213754832745,-0.0007704301970079541
1.7294926223901916e+18,-0.019260726869106293,-0.01115993969142437,-0.0009496330749243498
1.7294926223991918e+18,-0.016043514013290405,-0.011283461935818195,-0.0028921575285494328
1.729492622408192e+18,-0.01226424053311348,-0.011817367747426033,-0.0028465951327234507
1.7294926224171922e+18,-0.014701408334076405,-0.012372151017189026,-0.002677878364920616
1.7294926224261924e+18,-0.014551319181919098,-0.010029667988419533,0.000808108365163207
1.7294926224351926e+18,-0.01531531848013401,-0.008142845705151558,-0.0018741597887128592
1.7294926224411927e+18,-0.015139121562242508,-0.007794204168021679,0.00101372878998518
1.729492622450193e+18,-0.014285510405898094,-0.008838766254484653,-0.004000246059149504
1.729492622459193e+18,-0.0162856075912714,-0.009235678240656853,-0.0025562422815710306
1.7294926224651932e+18,-0.01877652108669281,-0.009138300083577633,-0.001995314145460725
1.7294926224741934e+18,-0.015859127044677734,-0.011063925921916962,-0.0031899495515972376
1.7294926224831936e+18,-0.01607661135494709,-0.010548056103289127,-0.004170117434114218
1.7294926224891937e+18,-0.01511765643954277,-0.013910823501646519,-0.0006923649925738573
1.729492622498194e+18,-0.0135819585993886,-0.010296698659658432,-0.005677042528986931
1.729492622504194e+18,-0.015734191983938217,-0.010882730595767498,-0.002189718186855316
1.7294926225131942e+18,-0.014278684742748737,-0.006857960484921932,-0.0013161750975996256
1.7294926225221944e+18,-0.012973476201295853,-0.007653659209609032,-0.0008577904663980007
1.7294926225281946e+18,-0.01610904559493065,-0.00876675546169281,-0.0007823411142453551
1.7294926225371948e+18,-0.012051069177687168,-0.009750124998390675,-0.0024115212727338076
1.729492622546195e+18,-0.013020272366702557,-0.010072962380945683,-0.0035562687553465366
1.7294926225551951e+18,-0.013027241453528404,-0.008596537634730339,-0.0006705154664814472
1.7294926225641953e+18,-0.01230944599956274,-0.011606786400079727,-0.004103905521333218
1.7294926225761956e+18,-0.012340577319264412,-0.006926811300218105,-0.0007012494606897235
1.7294926225821957e+18,-0.013683287426829338,-0.010444551706314087,-0.0017517968080937862
1.729492622591196e+18,-0.015130564570426941,-0.006720792036503553,-0.0026234581600874662
1.729492622597196e+18,-0.01283559761941433,-0.007441231515258551,-0.002016797661781311
1.7294926226091963e+18,-0.012675849720835686,-0.008125252090394497,-0.0015956175047904253
1.7294926226151964e+18,-0.012171134352684021,-0.0041951402090489864,-0.003259919583797455
1.7294926226241966e+18,-0.01568937860429287,-0.007991866208612919,-0.00535457581281662
1.7294926226301967e+18,-0.013039055280387402,-0.007573210634291172,-0.000643076142296195
1.729492622639197e+18,-0.01631871610879898,-0.005660097114741802,-0.004288332536816597
1.729492622645197e+18,-0.013967632316052914,-0.007875139825046062,-0.002287048613652587
1.7294926226541972e+18,-0.013676926493644714,-0.006584744434803724,-0.0014644876355305314
1.7294926226631974e+18,-0.01148087065666914,-0.005710818339139223,-0.004458106122910976
1.7294926226721976e+18,-0.006712093949317932,-0.00542116304859519,-0.001792240422219038
1.7294926226781978e+18,-0.008153923787176609,-0.004949817433953285,-0.001743809087201953
1.729492622687198e+18,-0.01295100525021553,-0.001840559532865882,-0.002493284409865737
1.7294926226961981e+18,-0.010167011059820652,-0.006140129175037146,-0.0022079539485275745
1.7294926227021983e+18,-0.013668137602508068,-0.0025772915687412024,-0.0013496598694473505
1.7294926227111985e+18,-0.014712355099618435,-0.0015036719851195812,-0.0005817489000037313
1.7294926227201987e+18,-0.010428767651319504,-0.00036239135079085827,-0.002127614337950945
1.7294926227261988e+18,-0.01330992765724659,-0.004483229015022516,-0.002012683777138591
1.729492622735199e+18,-0.006316837389022112,-0.002223789459094405,-0.0031677447259426117
1.729492622741199e+18,-0.007534349802881479,-0.0033043748699128628,-0.003755506593734026
1.7294926227501993e+18,-0.003136732615530491,-0.002312286291271448,-0.0005551078356802464
1.7294926227591995e+18,-0.002238872228190303,-0.0016007423400878906,-0.0031046299263834953
1.7294926227681997e+18,-0.0054890247993171215,-0.0023454586043953896,-0.00436253659427166
1.7294926227741998e+18,-0.00445396127179265,-0.00038717250572517514,0.00017679063603281975
1.7294926227832e+18,-0.004417036660015583,0.00294230948202312,-0.0035366499796509743
1.7294926227922002e+18,-0.0034732790663838387,-0.0017328032990917563,-0.00463330652564764
1.7294926228012004e+18,-0.009079807437956333,-0.0007452137651853263,2.378830686211586e-05
1.7294926228072005e+18,-0.009997695684432983,-0.0006703863036818802,-0.001098028151318431
1.7294926228162007e+18,-0.004087214358150959,-0.0006965214270167053,-0.0036776307970285416
1.729492622825201e+18,-0.003516271710395813,-0.003763411892578006,0.0004918286576867104
1.729492622831201e+18,-0.004120338708162308,-0.0015170136466622353,-0.003843027399852872
1.7294926228402012e+18,-0.0017910718452185392,0.0017842001980170608,-0.0011872106697410345
1.7294926228462013e+18,-0.0019619320519268513,0.0011136520188301802,-0.002395516959950328
1.7294926228582016e+18,-0.004118911921977997,-0.0013074096059426665,-0.004301206208765507
1.7294926228642017e+18,-0.005350850056856871,-0.0017803034279495478,-0.0034176188055425882
1.729492622873202e+18,-0.005115130450576544,-0.005623068660497665,-0.0028629451990127563
1.729492622882202e+18,-0.006875240243971348,-0.0037485407665371895,0.0001776029821485281
1.7294926228912023e+18,-0.006591291166841984,-0.0051280427724123,-0.004987635649740696
1.7294926228972024e+18,-0.001099568558856845,-0.0007438613101840019,-0.0003191469004377723
1.7294926229062026e+18,-0.0018113040132448077,1.905602402985096e-05,-0.0013689871411770582
1.7294926229152028e+18,0.000728290353436023,-0.001392754027619958,-0.0003916447749361396
1.729492622921203e+18,0.00042245013173669577,-0.0023574880324304104,-0.0009138581808656454
1.7294926229302031e+18,-0.00020882929675281048,-0.0029438198544085026,-0.0037214169278740883
1.7294926229362033e+18,-0.003004584927111864,-0.002332185860723257,-0.0032889340072870255
1.7294926229452035e+18,-0.0002684849314391613,-0.002483837306499481,-0.0005693966522812843
1.7294926229512036e+18,-0.0052342042326927185,-0.0018641219940036535,-0.0005715657025575638
1.7294926229602038e+18,-0.0011532579082995653,-0.0018391995690762997,-0.003105573821812868
1.729492622966204e+18,-0.004057911224663258,-0.0054994914680719376,-0.0018674536840990186
1.729492622975204e+18,-0.004499057773500681,-0.004168356768786907,-0.004582718014717102
1.7294926229812042e+18,-0.006157711148262024,-0.0051620397716760635,-0.0015936663839966059
1.7294926229902044e+18,-0.0019254806684330106,-0.006338090170174837,-0.00011767959222197533
1.7294926229992046e+18,0.0008180379518307745,-0.0032098323572427034,-0.002844688016921282
1.7294926230052047e+18,0.002113290596753359,-0.001391012454405427,-0.003452082397416234
1.729492623017205e+18,0.00030881111160852015,-0.0016485565574839711,-0.003927973564714193
1.7294926230292052e+18,-0.00357351778075099,-0.002249776618555188,-0.0010341163724660873
1.7294926230352054e+18,-0.006642716471105814,0.002772255800664425,-0.0037600521463900805
1.7294926230442056e+18,-0.005572102032601833,-0.0033053262159228325,-0.002661193488165736
1.7294926230532058e+18,-0.00512317381799221,-0.00015744357369840145,-0.002979143289849162
1.729492623059206e+18,-0.0017415477195754647,-0.0002776727778837085,-0.002955908887088299
1.729492623068206e+18,0.0013578671496361494,-0.0001464332453906536,-0.0012139863101765513
1.7294926230742062e+18,0.0015202922513708472,0.001599152572453022,0.00027326366398483515
1.7294926230832064e+18,0.005589397624135017,0.0009501487948000431,0.0006056560669094324
1.7294926230892065e+18,0.003631620667874813,-0.0002847386640496552,-0.0014696856960654259
1.7294926230982067e+18,0.0023243839386850595,0.0021126526407897472,-0.002469766652211547
1.729492623107207e+18,0.00215093488804996,0.002553106751292944,-0.0017049586167559028
1.729492623116207e+18,0.0005628247163258493,0.001718054641969502,-0.00048245524521917105
1.7294926231222072e+18,0.0008285806979984045,0.0025875503197312355,-0.004602914210408926
1.7294926231312074e+18,0.0031633307226002216,0.004265017341822386,-0.0030682936776429415
1.7294926231402076e+18,0.004804392345249653,0.0023713039699941874,-0.0013422267511487007
1.7294926231462077e+18,0.003934399224817753,0.0033669781405478716,-0.000707064347807318
1.729492623155208e+18,0.006440969184041023,0.0037945155054330826,-0.0032763173803687096
1.729492623161208e+18,0.007684746291488409,0.0011575917014852166,-0.0025504762306809425
1.7294926231702083e+18,0.00889276247471571,0.002787546254694462,-3.0378811061382294e-05
1.7294926231792084e+18,0.0033512020017951727,0.006358638405799866,-0.002562508685514331
1.7294926231852086e+18,0.0045996177941560745,-0.001379727153107524,-0.0004712092923000455
1.7294926231942088e+18,0.0038650890346616507,0.006255757994949818,-0.0036938253324478865
1.729492623203209e+18,0.0021176461596041918,0.0017593272496014833,0.0002532481448724866
1.729492623209209e+18,0.0022296030074357986,0.005514332093298435,-0.0020485459826886654
1.7294926232182093e+18,0.005451826844364405,-0.001510364469140768,-0.004484465345740318
1.7294926232242094e+18,0.008133052848279476,0.0028335824608802795,-0.002681539161130786
1.7294926232332096e+18,0.009461801499128342,0.0016828489024192095,-0.0005507967434823513
1.7294926232392097e+18,0.00847980473190546,0.007877372205257416,-0.0033502508886158466
1.72949262324821e+18,0.009020211175084114,0.005099854432046413,-0.00232434319332242
1.72949262325421e+18,0.007726376876235008,0.005475287791341543,-0.0008317265892401338
1.7294926232632102e+18,0.007710010278970003,0.0030354231130331755,-0.002164248377084732
1.7294926232722104e+18,0.008899331092834473,0.005770358722656965,-0.0028434963896870613
1.7294926232812106e+18,0.008691001683473587,0.0037791598588228226,-0.0009628546540625393
1.7294926232902108e+18,0.010879797860980034,0.008735084906220436,-0.00421925587579608
1.729492623296211e+18,0.010500941425561905,0.004385059699416161,3.324460703879595e-05
1.7294926233052111e+18,0.010628768242895603,0.004226273391395807,0.0008735423907637596
1.7294926233112113e+18,0.010695859789848328,0.00533834844827652,-0.0002223108895123005
1.7294926233202115e+18,0.006171513348817825,0.004412099253386259,-0.0036376724019646645
1.7294926233292116e+18,0.009490818716585636,0.005701917689293623,0.0013691679341718554
1.7294926233352118e+18,0.011725852265954018,0.005631729494780302,-0.001187408808618784
1.729492623344212e+18,0.006152498535811901,0.004920404404401779,-0.001601484720595181
1.729492623350212e+18,0.010716649703681469,0.005216048564761877,-0.0005449971067719162
1.7294926233592123e+18,0.012747552245855331,0.01139559131115675,-0.0009839151753112674
1.7294926233682125e+18,0.012396090663969517,0.00937511958181858,-0.0011390289291739464
1.7294926233772127e+18,0.013331924565136433,0.0060851117596030235,0.00040988822001963854
1.7294926233862129e+18,0.011742142960429192,0.007141065783798695,-0.004143265541642904
1.729492623392213e+18,0.014796845614910126,0.006354721263051033,0.0019145298283547163
1.7294926234012132e+18,0.008738822303712368,0.006050104275345802,0.0010988784488290548
1.7294926234102134e+18,0.011468570679426193,0.003565746359527111,-0.0020791650749742985
1.7294926234192136e+18,0.010361707769334316,0.006726099178195,-0.002525713061913848
1.7294926234252137e+18,0.009434685111045837,0.007580171339213848,-0.0006521075847558677
1.729492623434214e+18,0.009841501712799072,0.009561784565448761,-0.004222029820084572
1.729492623440214e+18,0.010660379193723202,0.00804750807583332,-0.0020567472092807293
1.7294926234492142e+18,0.010133465752005577,0.00842192117124796,-0.0020105955190956593
1.7294926234582144e+18,0.008997837081551552,0.006176271941512823,-0.001106742420233786
1.7294926234642145e+18,0.0058667948469519615,0.007074240129441023,0.001688917982392013
1.7294926234732147e+18,0.009122856892645359,0.006043378263711929,-0.0004776549176312983
1.729492623482215e+18,0.0110587477684021,0.006132584065198898,0.0002650048118084669
1.729492623488215e+18,0.014027637429535389,0.004759857896715403,-0.004651057068258524
1.7294926234972152e+18,0.015832973644137383,0.004220389761030674,-0.0028071124106645584
1.7294926235062154e+18,0.015969030559062958,0.0013893635477870703,0.002330171409994364
1.7294926235122156e+18,0.014582304283976555,0.008688410744071007,-0.00031166605185717344
1.7294926235212157e+18,0.014689337462186813,0.005558018106967211,-0.0020663368050009012
1.729492623530216e+18,0.007818606682121754,0.007588301785290241,-0.0014567938633263111
1.729492623536216e+18,0.009466500021517277,0.005017770454287529,0.00010298390407115221
1.7294926235452163e+18,0.010101670399308205,0.004646908491849899,-0.001977530773729086
1.7294926235542164e+18,0.12335116416215897,0.23214301466941833,-0.0055200038477778435
1.7294926235602166e+18,0.34613361954689026,0.6898266077041626,-0.010341408662497997
1.7294926235692168e+18,0.7534357309341431,1.4891856908798218,-0.026196960359811783
1.729492623578217e+18,1.2644532918930054,2.2403342723846436,-0.043128326535224915
1.7294926235872172e+18,1.9142580032348633,2.689573287963867,-0.05954623594880104
1.7294926235932173e+18,2.30155086517334,2.7864553928375244,-0.07060574740171432
1.7294926236022175e+18,2.6944363117218018,2.678522825241089,-0.09295157343149185
1.7294926236112177e+18,2.82253360748291,2.431905746459961,-0.10832090675830841
1.7294926236172178e+18,2.770622491836548,2.303901195526123,-0.11981061100959778
1.729492623626218e+18,2.5915493965148926,2.243539571762085,-0.1371603012084961
1.7294926236352182e+18,2.429229974746704,2.3417208194732666,-0.15449383854866028
1.7294926236412183e+18,2.3876023292541504,2.445744037628174,-0.16728533804416656
1.7294926236502185e+18,2.449402332305908,2.5816421508789062,-0.18049198389053345
1.7294926236592187e+18,2.591280460357666,2.5974178314208984,-0.1985662579536438
1.729492623668219e+18,2.692674160003662,2.4591853618621826,-0.2157253623008728
1.729492623677219e+18,2.6488051414489746,2.2214834690093994,-0.22760583460330963
1.7294926236862193e+18,2.473970890045166,1.9797981977462769,-0.2410586178302765
1.7294926236952195e+18,2.1842386722564697,1.7898677587509155,-0.2575451731681824
1.7294926237042196e+18,1.9103078842163086,1.6793618202209473,-0.26847848296165466
1.7294926237102198e+18,1.775436520576477,1.6360846757888794,-0.2744936943054199
1.72949262371922e+18,1.6811901330947876,1.593282699584961,-0.2829582095146179
1.7294926237282202e+18,1.6630111932754517,1.5131051540374756,-0.29056209325790405
1.7294926237342203e+18,1.6581720113754272,1.428335428237915,-0.29818210005760193
1.7294926237432205e+18,1.6218141317367554,1.2620407342910767,-0.30713823437690735
1.7294926237552207e+18,1.4232661724090576,1.01462721824646,-0.31513339281082153
1.729492623764221e+18,1.191352128982544,0.853308379650116,-0.32372787594795227
1.729492623770221e+18,1.0359125137329102,0.7710677981376648,-0.32488617300987244
1.7294926237792212e+18,0.8463689684867859,0.6795400381088257,-0.3273700177669525
1.7294926237882214e+18,0.7258886098861694,0.6121084690093994,-0.3337175250053406
1.7294926237942216e+18,0.6924615502357483,0.5657640695571899,-0.3367559313774109
1.7294926238032218e+18,0.678703784942627,0.48459580540657043,-0.3419065773487091
1.729492623809222e+18,0.6729720234870911,0.4229593575000763,-0.3435405492782593
1.729492623818222e+18,0.6212000846862793,0.3139151632785797,-0.34826022386550903
1.7294926238272223e+18,0.5133252739906311,0.20879994332790375,-0.3456220030784607
1.7294926238332224e+18,0.4196127951145172,0.1511038839817047,-0.3459870517253876
1.7294926238422226e+18,0.27254506945610046,0.07868944853544235,-0.34803202748298645
1.7294926238512228e+18,0.14839178323745728,0.023877644911408424,-0.3522205948829651
1.729492623857223e+18,0.10309495031833649,-0.006164193153381348,-0.3538033366203308
1.729492623866223e+18,0.07639855891466141,-0.042689938098192215,-0.3522756099700928
1.7294926238722232e+18,0.08285968005657196,-0.07082218676805496,-0.3518717288970947
1.7294926238812234e+18,0.08248843997716904,-0.11720651388168335,-0.35431694984436035
1.7294926238902236e+18,0.06119787320494652,-0.16572365164756775,-0.35255953669548035
1.7294926238962237e+18,0.024533921852707863,-0.19607162475585938,-0.3522557020187378
1.729492623905224e+18,-0.05969161167740822,-0.23993532359600067,-0.3503357470035553
1.729492623914224e+18,-0.14383001625537872,-0.2716994285583496,-0.347690612077713
1.7294926239202243e+18,-0.18989357352256775,-0.2913680374622345,-0.3502116799354553
1.7294926239292244e+18,-0.22601239383220673,-0.31119614839553833,-0.34769338369369507
1.7294926239382246e+18,-0.23043957352638245,-0.32498636841773987,-0.34587812423706055
1.7294926239442248e+18,-0.21915844082832336,-0.33107927441596985,-0.34471258521080017
1.729492623953225e+18,-0.20153671503067017,-0.35318315029144287,-0.3425430357456207
1.7294926239622252e+18,-0.20835758745670319,-0.3684997260570526,-0.33839669823646545
1.7294926239682253e+18,-0.22446416318416595,-0.38187843561172485,-0.3371411859989166
1.7294926239772255e+18,-0.2633548676967621,-0.39355388283729553,-0.33582472801208496
1.7294926239832256e+18,-0.29072850942611694,-0.39727887511253357,-0.33018818497657776
1.7294926239922258e+18,-0.3227570056915283,-0.4017057418823242,-0.3293754458427429
1.729492623998226e+18,-0.3347199261188507,-0.40161681175231934,-0.32791855931282043
1.729492624007226e+18,-0.3255510628223419,-0.40042853355407715,-0.3259042799472809
1.7294926240192264e+18,-0.30147239565849304,-0.40235912799835205,-0.32146161794662476
1.7294926240252265e+18,-0.2900349199771881,-0.4054590165615082,-0.3151746988296509
1.7294926240342267e+18,-0.2861347198486328,-0.40867340564727783,-0.3102239966392517
1.729492624043227e+18,-0.298941433429718,-0.41318023204803467,-0.3050892651081085
1.729492624049227e+18,-0.3130575120449066,-0.41384151577949524,-0.30198362469673157
1.7294926240612273e+18,-0.33307376503944397,-0.40369758009910583,-0.2957480847835541
1.7294926240672274e+18,-0.3365689814090729,-0.4007408022880554,-0.29192307591438293
1.7294926240762276e+18,-0.3325712978839874,-0.39790913462638855,-0.288798451423645
1.7294926240852278e+18,-0.3162804841995239,-0.39552125334739685,-0.282675176858902
1.729492624091228e+18,-0.308840811252594,-0.3928492069244385,-0.2780683934688568
1.729492624100228e+18,-0.2938991189002991,-0.39382514357566833,-0.2748247981071472
1.7294926241092283e+18,-0.2926253080368042,-0.3918024003505707,-0.26550769805908203
1.7294926241182285e+18,-0.2987232208251953,-0.39233362674713135,-0.2624359726905823
1.7294926241242286e+18,-0.3063150644302368,-0.38982221484184265,-0.2572142481803894
1.7294926241332288e+18,-0.31715044379234314,-0.38556692004203796,-0.2503519058227539
