timestamp,gyro_x,gyro_y,gyro_z
1.7294975763388736e+18,0.0034612049348652363,-3.038704744540155e-05,-0.002502147341147065
1.7294975763478738e+18,-0.003264207858592272,-0.0006115977303124964,0.003876108443364501
1.729497576356874e+18,0.001276672468520701,0.0027616810984909534,-0.00015114662528503686
1.729497576362874e+18,-0.0018357852241024375,0.0004956087796017528,-0.0012663266388699412
1.7294975763718743e+18,0.0011101305717602372,-0.004225900862365961,0.0017085648141801357
1.7294975763808745e+18,-0.0025502461940050125,-0.0010332242818549275,-0.00028884701896458864
1.7294975763898747e+18,-0.0009399580303579569,-0.0004263762675691396,0.0008398108184337616
1.7294975763958748e+18,-0.0023804998490959406,0.001633849460631609,-0.0024360192473977804
1.729497576404875e+18,0.0015325734857469797,0.0011333394795656204,-0.0026958216913044453
1.7294975764138752e+18,0.0017906673019751906,0.0017165481112897396,0.00047142410767264664
1.7294975764228754e+18,-0.001621915609575808,-0.0018224292434751987,0.0015262305969372392
1.7294975764318756e+18,0.0026079616509377956,0.002772536827251315,-0.0009164167568087578
1.7294975764378757e+18,-1.7499431123724207e-05,0.003261948935687542,0.00033220366458408535
1.729497576446876e+18,-0.00198859884403646,0.001272193738259375,-0.001216974575072527
1.729497576455876e+18,0.0007058723131194711,0.0013858554884791374,0.002434608293697238
1.7294975764648763e+18,-0.00018340918177273124,-2.474674147379119e-05,0.001452470081858337
1.7294975764708764e+18,-0.0006017411360517144,-0.0016489062691107392,-0.001607202342711389
1.7294975764798766e+18,-0.0028501092456281185,-0.001377249718643725,0.0014682753244414926
1.7294975764888768e+18,-0.0016517743933945894,-0.0024647910613566637,-0.0005305460654199123
1.729497576494877e+18,6.917316204635426e-05,0.0010885171359404922,0.0023199862334877253
1.729497576503877e+18,0.0012308716541156173,0.0031617574859410524,0.0023208416532725096
1.7294975765098772e+18,-0.0001957434869837016,-0.0006832650396972895,-0.0006227251724340022
1.7294975765188774e+18,-3.432579978834838e-05,-0.00038214854430407286,0.003016783855855465
1.7294975765278776e+18,0.0008647759677842259,-0.0009978079469874501,-0.001376602565869689
1.7294975765338778e+18,0.0016542350640520453,-0.0017079104436561465,-0.0035749059170484543
1.729497576542878e+18,0.0003335349028930068,0.00081025087274611,-0.0008481147233396769
1.729497576548878e+18,-0.002210168167948723,-0.0031368867494165897,-0.0007451907149516046
1.7294975765578783e+18,-0.002156562404707074,-0.0008085445151664317,-0.00011640838056337088
1.7294975765638784e+18,-9.415464592166245e-05,-6.290739838732406e-05,-0.002703458070755005
1.7294975765728786e+18,-5.5587664974154904e-05,0.000292489945422858,-0.0002945238957181573
1.7294975765818788e+18,0.0016503202496096492,-0.00149591697845608,0.0021533917170017958
1.729497576590879e+18,0.0004662809078581631,0.0016419428866356611,0.0022805396001785994
1.729497576596879e+18,0.00019509874982759356,0.0009183111833408475,0.0003239483339712024
1.7294975766058793e+18,0.002987554296851158,0.0007241221028380096,0.0006653834134340286
1.7294975766118794e+18,0.001777071738615632,-0.002081434242427349,0.00019741403230000287
1.7294975766208796e+18,0.002140635857358575,-0.003425110364332795,0.00039317936170846224
1.7294975766298798e+18,0.0007370305829681456,-0.0016992668388411403,2.6679625079850666e-05
1.72949757663588e+18,0.002119016135111451,0.00016447293455712497,-0.0015142924385145307
1.7294975766448801e+18,-0.0003472919634077698,0.0009288420551456511,0.0009503387263976038
1.7294975766508803e+18,-0.00021225831005722284,0.0021563295740634203,-0.0004400082107167691
1.7294975766598804e+18,-0.00158691534306854,-0.0013960642972961068,0.0017960198456421494
1.7294975766658806e+18,0.0008095672237686813,-0.0016096958424896002,0.0023459980729967356
1.7294975766748808e+18,-0.002636595629155636,-0.0006737398798577487,0.0009951976826414466
1.729497576683881e+18,-0.0005877376534044743,0.002274131402373314,0.001987433061003685
1.729497576689881e+18,-0.00029754944262094796,-0.0002427648432785645,0.00042315496830269694
1.7294975766988813e+18,-0.0001227664906764403,-0.0016425583744421601,-0.0011712242849171162
1.7294975767048814e+18,-0.0016569442814216018,2.419407246634364e-05,0.0014742891071364284
1.7294975767138816e+18,-0.003358512418344617,0.0015325065469369292,-0.001007873215712607
1.7294975767228818e+18,0.000578039325773716,-0.001305516343563795,0.001725971233099699
1.729497576728882e+18,0.0021082141902297735,0.0008187764324247837,0.0012023295275866985
1.729497576737882e+18,-4.676709068007767e-05,-0.000128967672935687,-5.565026367548853e-05
1.7294975767498824e+18,0.0008322092471644282,0.0020522968843579292,0.0003547375672496855
1.7294975767588826e+18,-0.00015237041225191206,0.0035633149091154337,0.0011707217199727893
1.7294975767648827e+18,0.001186129986308515,0.0006356124067679048,-5.7806901168078184e-05
1.729497576773883e+18,-0.0008821127703413367,-0.0008619861910119653,-0.002535395324230194
1.729497576779883e+18,-0.0018852303037419915,-0.0015421337448060513,0.0018163917120546103
1.7294975767888832e+18,0.0024318851064890623,-0.002171022817492485,-0.0003791258204728365
1.7294975767978834e+18,0.0010377877624705434,-0.003495396813377738,-0.0017002973472699523
1.7294975768038835e+18,0.0015394544461742043,-0.0032733259722590446,0.00024225001106970012
1.7294975768128837e+18,0.0006852237856946886,-0.0011857454665005207,-0.0014809437561780214
1.729497576821884e+18,0.0009289741283282638,-0.003139867912977934,-0.00035135282087139785
1.729497576827884e+18,0.0002616613346617669,0.0013200611574575305,-0.000211266684345901
1.7294975768368842e+18,0.0003080922761000693,-0.001929011894389987,0.0008640539599582553
1.7294975768458844e+18,-0.003950546961277723,-0.001536480151116848,-0.0006058099097572267
1.7294975768518845e+18,0.0018658445915207267,-0.0021394696086645126,-0.002557333093136549
1.7294975768608847e+18,0.0038552165497094393,0.0003470307565294206,-0.0021485716570168734
1.7294975768668849e+18,0.002926001325249672,-0.0005807377165183425,0.0008915241342037916
1.729497576875885e+18,-0.0024386371951550245,0.000817734922748059,0.0009299917728640139
1.7294975768848852e+18,-0.0011772922007367015,0.000378159515094012,0.00017454529006499797
1.7294975768908854e+18,0.0005751913413405418,0.0006604230729863048,0.0003604077792260796
1.7294975768998856e+18,0.0006309592281468213,-0.0006325736758299172,0.00017838798521552235
1.7294975769058857e+18,0.0007575857453048229,-0.001964538125321269,0.00024858093820512295
1.729497576914886e+18,-0.002708821790292859,0.001646719640120864,0.0019467984093353152
1.729497576923886e+18,5.9412432165117934e-05,-0.001051114173606038,0.001203728374093771
1.7294975769328863e+18,0.0002988869382534176,0.001880243537016213,0.0006209816201590002
1.7294975769388864e+18,-0.002221608767285943,0.00039703864604234695,0.0026769847609102726
1.7294975769478866e+18,0.001596064306795597,0.0027126006316393614,-0.0011745208175852895
1.7294975769538867e+18,0.0008657535654492676,0.0001304592442465946,0.002625542227178812
1.729497576962887e+18,-0.0010312082013115287,-0.0012937234714627266,4.9818434490589425e-05
1.729497576968887e+18,-0.002143071498721838,0.0025919689796864986,0.0002531618229113519
1.7294975769778872e+18,0.0012295510387048125,0.00010833188571268693,0.0014658663421869278
1.7294975769868874e+18,-1.3436266272037756e-05,-0.0004251249192748219,0.001417391700670123
1.7294975769928876e+18,0.00018479643040336668,-0.00048367897397838533,0.0010671744821593165
1.7294975770018877e+18,-0.0019970417488366365,0.0010597859509289265,0.0009799801046028733
1.729497577007888e+18,-0.0026490273885428905,-0.0034911753609776497,-0.0003034080727957189
1.729497577016888e+18,0.0002348754060221836,-0.0012275035260245204,0.0002337712503504008
1.7294975770258883e+18,0.0015916641568765044,-0.0003810862544924021,0.0019200996030122042
1.7294975770318884e+18,-0.0011797471670433879,-0.0006277453503571451,0.001809499692171812
1.7294975770408886e+18,0.00013726596080232412,-0.00028014244162477553,-0.0004197566013317555
1.7294975770498888e+18,-0.001974875573068857,0.0021758973598480225,-0.0015991143882274628
1.729497577058889e+18,-0.001235716394148767,0.0011076020309701562,-0.0010339678265154362
1.729497577064889e+18,0.00019201259419787675,0.000734455999918282,-0.00021489594655577093
1.7294975770708892e+18,0.0019218327943235636,-0.0003623171360231936,-0.001626557088457048
1.7294975770798894e+18,0.0004922632942907512,-0.0013170830206945539,0.0029429632704705
1.7294975770888896e+18,0.0008604541653767228,0.0024494128301739693,0.0003540980978868902
1.7294975770948897e+18,-0.00037172838347032666,0.0007208975730463862,0.0002207404322689399
1.72949757710389e+18,0.0014802959049120545,-0.0025436372961848974,-0.0032215924002230167
1.72949757710989e+18,0.0008759005577303469,-0.0011249474482610822,-5.897027222090401e-05
1.7294975771158902e+18,-0.0011181923327967525,-0.003210014197975397,0.002310222713276744
1.7294975771248904e+18,0.0011669801315292716,0.0013084085658192635,8.286820229841396e-05
1.7294975771308905e+18,0.0011516783852130175,0.002755657536908984,0.0013840114697813988
1.7294975771398907e+18,-0.002262857975438237,0.0023690571542829275,-0.0009831329807639122
1.729497577148891e+18,-0.001776604913175106,0.004597857128828764,0.0011950660264119506
1.729497577154891e+18,-0.00043224432738497853,-0.002842349698767066,0.00033278181217610836
1.7294975771638912e+18,0.0012864329619333148,0.0005871562170796096,-0.0005216884892433882
1.7294975771698913e+18,-0.0008803806849755347,-0.00045202134060673416,0.0002906688896473497
1.7294975771788915e+18,0.002200549002736807,-0.0020786088425666094,-0.0013405041536316276
1.7294975771848916e+18,0.0025461348704993725,0.0012794367503374815,-0.00017392185691278428
1.7294975771938918e+18,0.00029199858545325696,-2.8978338377783075e-05,0.003678293898701668
1.729497577202892e+18,-0.00045026562293060124,0.0010132405441254377,-0.0008955341181717813
1.7294975772088922e+18,-0.0046579050831496716,-0.002396121621131897,-0.00011013680341420695
1.7294975772178924e+18,0.0011193414684385061,-0.0013389545492827892,-0.0009581088088452816
1.7294975772238925e+18,-0.00018594852008391172,-0.0004078887577634305,-0.0001885180245153606
1.7294975772328927e+18,0.0014684946509078145,0.00040806614561006427,0.00046579435002058744
1.7294975772388928e+18,-0.0009109353995881975,-0.0036634563002735376,0.0005600220174528658
1.729497577247893e+18,-0.0010796382557600737,0.001828700304031372,0.001602460746653378
1.7294975772568932e+18,-0.0029416473116725683,-0.00015086046187207103,0.0015146686928346753
1.7294975772658934e+18,0.00028603107784874737,0.0012588438112288713,0.0002451704640407115
1.7294975772718935e+18,0.001605157507583499,-0.0027722385711967945,0.0011964194709435105
1.7294975772808937e+18,8.5762920207344e-05,0.0007049484993331134,0.0014884864212945104
1.7294975772868938e+18,-0.0018606173107400537,0.0007680756389163435,-0.0035813641734421253
1.729497577295894e+18,0.0017458026995882392,0.0011256062425673008,0.0018939110450446606
1.7294975773018941e+18,-0.00016082644287962466,-0.0006423377199098468,-0.0001941157242981717
1.7294975773138944e+18,-0.003076526802033186,0.0019272391218692064,0.0007849712856113911
1.7294975773228946e+18,-0.0034881005994975567,-0.0009736975771375,0.0012826179154217243
1.7294975773288947e+18,-0.0019230021862313151,0.0023471356835216284,-0.0007529297145083547
1.729497577337895e+18,0.001335506560280919,0.0012575688306242228,-0.0007257753168232739
1.729497577343895e+18,0.0002908796595875174,-0.002985554514452815,-0.0009628550615161657
1.7294975773528952e+18,0.0012745599960908294,2.0826924810535274e-05,-0.0004747487255372107
1.7294975773618954e+18,0.0007533766911365092,-0.000992518849670887,-0.0020172116346657276
1.7294975773678956e+18,0.0018102037720382214,-0.0007453770376741886,2.9525401259888895e-05
1.7294975773768957e+18,0.0023722825571894646,-0.0013961916556581855,-0.001081327791325748
1.7294975773828959e+18,0.0007674649823457003,-0.0019838036969304085,0.0009375986410304904
1.729497577391896e+18,0.002123134909197688,-0.0009472245583310723,-0.0019599958322942257
1.7294975774008963e+18,0.004027766175568104,-0.003542456077411771,-0.0002028353774221614
1.7294975774098964e+18,-0.0012392556527629495,0.0004894642042927444,0.00038539781235158443
1.7294975774158966e+18,0.0005765300011262298,0.0012872255174443126,-0.00016926525859162211
1.7294975774248968e+18,-0.0017345353262498975,-0.0025530969724059105,-0.0030729828868061304
1.729497577433897e+18,-0.00019736247486434877,-0.002578023122623563,0.00019020159379579127
1.7294975774428972e+18,-0.0005050081526860595,-0.00023284152848646045,-0.0016073776641860604
1.7294975774488973e+18,-0.00155363988596946,0.00014380078937392682,-0.001836969400756061
1.7294975774578975e+18,-0.00038077679346315563,0.001965105766430497,0.0016731220530346036
1.7294975774668977e+18,0.001741784974001348,-0.001021488569676876,0.0013018869794905186
1.7294975774758979e+18,0.0021570157259702682,-0.0002120281133102253,-0.0005932511412538588
1.729497577484898e+18,-0.0006477765273302794,0.001990504562854767,0.000160409661475569
1.7294975774908982e+18,5.496706944541074e-05,-0.00167400564532727,0.002454417524859309
1.7294975774998984e+18,0.0027231539133936167,-0.002431112341582775,-0.0009097163565456867
1.7294975775088986e+18,0.0010812958935275674,-0.00032081143581308424,-0.00121809053234756
1.7294975775148987e+18,-0.0006702194223180413,0.0006209633429534733,-0.00266797817312181
1.729497577523899e+18,-0.0013615544885396957,-0.0012478684075176716,0.0006351672345772386
1.729497577532899e+18,0.0009674091124907136,-0.00031245729769580066,0.001204957254230976
1.7294975775388992e+18,-0.0010257130488753319,-0.0016602142713963985,0.0012626986717805266
1.7294975775478994e+18,-0.0014342836802825332,-0.0007061443175189197,0.0010746371699497104
1.7294975775568996e+18,-0.0005201023886911571,0.0010360456071794033,-0.000494013715069741
1.7294975775628997e+18,-0.002672394970431924,-0.0018231632420793176,-0.0014676940627396107
1.7294975775719e+18,0.0022019410971552134,-0.0012783128768205643,0.0013427530648186803
1.7294975775809e+18,-0.0012519503943622112,-0.0007797505240887403,0.0010807386133819818
1.7294975775869002e+18,0.002012020442634821,0.0026797917671501637,-0.003522873157635331
1.7294975775959004e+18,-0.0016493411967530847,0.0003731659962795675,-0.0002889523166231811
1.7294975776049006e+18,-0.00029181051650084555,-4.5003478589933366e-05,0.001711425487883389
1.7294975776109007e+18,-0.00048251778935082257,-0.0011909642489627004,-0.003562353318557143
1.729497577619901e+18,-0.0008481187978759408,-0.001691086683422327,-0.001209937036037445
1.729497577628901e+18,-3.554139402695e-05,-0.00010606088471831754,0.0005904535646550357
1.7294975776349012e+18,-0.000663240032736212,0.0028770931530743837,0.001071523642167449
1.7294975776439014e+18,2.36719806707697e-05,-0.0012183731887489557,0.0017922187689691782
1.7294975776529016e+18,-0.0021636171732097864,-0.0035701976157724857,0.00184584257658571
1.7294975776619018e+18,0.00022468101815320551,0.0018093682592734694,-0.00025896108127199113
1.729497577667902e+18,-0.0013847124064341187,4.5653359848074615e-05,-0.0006252833409234881
1.7294975776769021e+18,0.0008976535173133016,-0.0007615322829224169,-0.0016735539538785815
1.7294975776829023e+18,-0.00024055902031250298,-0.002804198069497943,-0.0012261549709364772
1.7294975776919025e+18,-0.0005520100821740925,0.0008918653475120664,0.0006967351655475795
1.7294975777009027e+18,-0.0012931223027408123,0.0022022579796612263,0.0024108393117785454
1.7294975777069028e+18,-0.0008248137310147285,-0.0022293133661150932,0.00048225087812170386
1.729497577715903e+18,-0.000736390647944063,-0.0007002413040027022,-0.0018178224563598633
1.7294975777249032e+18,0.0011827414855360985,-0.0009235300240106881,-0.0012454417301341891
1.7294975777309033e+18,0.00033048324985429645,0.0011747704120352864,0.0006056654965505004
1.7294975777399035e+18,-0.0029201675206422806,0.0008477921364828944,0.00030340434750542045
1.7294975777459036e+18,4.917955811833963e-05,0.0013768249191343784,-0.0008359770872630179
1.7294975777549038e+18,0.0006519294111058116,0.0010144460247829556,-0.0015023067826405168
1.729497577760904e+18,0.0009472763049416244,0.0013364996993914247,-0.0022613334003835917
1.729497577769904e+18,0.001251018838956952,0.0033294258173555136,-0.00037399958819150925
1.7294975777759043e+18,-0.0009645881946198642,0.0012511159293353558,0.0001631036284379661
1.7294975777849044e+18,0.003719359403476119,-0.0017912288894876838,0.0014126566238701344
1.7294975777909046e+18,-0.0010400810278952122,0.0005912452470511198,-0.0019704021979123354
1.7294975777999048e+18,0.0006604178925044835,0.00039703145739622414,-0.002451324136927724
1.729497577808905e+18,-0.0026857813354581594,0.0011145733296871185,0.0031811310909688473
1.729497577814905e+18,0.0013420721516013145,0.000984494574368,-0.0018853687215596437
1.7294975778239053e+18,0.001873037195764482,0.0009482974419370294,-0.0005157829727977514
1.7294975778329055e+18,-0.0007733491365797818,0.0035383219365030527,0.0038488914724439383
1.7294975778389056e+18,-0.0013747449265792966,0.0011333884904161096,1.6529387721675448e-05
1.7294975778479058e+18,-0.0015265047550201416,0.00240966584533453,0.001747717265971005
1.729497577856906e+18,0.0002746230165939778,-0.002120031975209713,0.0014117193641141057
1.7294975778659062e+18,-3.5339682654011995e-05,0.00034060279722325504,0.0032309037633240223
1.7294975778719063e+18,-0.00047782264300622046,-0.0055833421647548676,0.0003848925116471946
1.7294975778809065e+18,-0.0011209440417587757,-0.0012272462481632829,0.0020889099687337875
1.7294975778869066e+18,-0.003975215833634138,0.00025531291612423956,-0.002824559574946761
1.7294975778959068e+18,-0.000516350322868675,-0.00337087269872427,-0.0020619623828679323
1.729497577904907e+18,0.0019354760879650712,0.0010259568225592375,0.000353397277649492
1.7294975779109071e+18,0.0001263369485968724,-7.346579513978213e-05,-0.0007351696258410811
1.7294975779199073e+18,-0.001729702460579574,-0.0028001454193145037,0.00020361103815957904
1.7294975779259075e+18,-0.001141655957326293,0.0003154681471642107,0.002604168839752674
1.7294975779349076e+18,-0.00048612241516821086,-9.007858898257837e-05,0.002774340333417058
1.7294975779409078e+18,0.002685858402401209,-0.0006021282752044499,-0.0011611805530264974
1.729497577949908e+18,0.0031731182243674994,0.00360594829544425,0.0002777205081656575
1.729497577955908e+18,0.0009096201392821968,-0.0003877985291182995,9.404989214090165e-06
1.7294975779649083e+18,0.0023405347019433975,0.0018135335994884372,-0.0004851168196182698
1.7294975779739085e+18,0.00014659629960078746,0.0006579566397704184,-0.0016570979496464133
1.7294975779799086e+18,3.803738218266517e-05,-0.0011917316587641835,0.0013888080138713121
1.7294975779889088e+18,0.0003648048732429743,0.0011776097817346454,0.0018228166736662388
1.729497577994909e+18,-0.000847871124278754,-0.002366766333580017,-0.0015303613618016243
1.729497578003909e+18,0.00023446959676221013,0.0027193897403776646,-0.0014700506580993533
1.7294975780099092e+18,-0.0013931040884926915,-0.002473503351211548,-0.0001425592345185578
1.7294975780189094e+18,-0.0013855000725015998,0.0019584742840379477,-0.00036873575299978256
1.7294975780279096e+18,0.00029670409276150167,0.002250016899779439,0.0003513797128107399
1.7294975780339098e+18,-0.0018938720459118485,-0.00043688068399205804,4.644483396987198e-06
1.72949757804291e+18,0.0014434048207476735,0.0036876562517136335,0.00016629957826808095
1.72949757804891e+18,0.0002700178883969784,-0.0006501457537524402,-0.002356369746848941
1.7294975780579103e+18,-0.002735547022894025,-0.0011439465451985598,0.0011311388807371259
1.7294975780639104e+18,-0.0006614942685700953,0.0007117231725715101,0.0038937574718147516
1.7294975780729106e+18,0.0012021033326163888,-0.0007951671723276377,0.005157826468348503
1.7294975780819108e+18,0.0014994830125942826,-0.0018740266095846891,0.001104238093830645
1.729497578090911e+18,-0.0021248681005090475,0.0014401363441720605,0.003237518249079585
1.7294975780999112e+18,0.0005523458239622414,-0.00042225877405144274,-0.0022574742324650288
1.7294975781059113e+18,-0.0023405603133141994,7.796160207362846e-05,-0.0005269821267575026
1.7294975781149115e+18,0.0005963567527942359,0.0019559632055461407,0.0008999931160360575
1.7294975781209116e+18,0.001284835860133171,-0.0009154619765467942,0.0014109221519902349
1.7294975781299118e+18,0.001968187978491187,-0.0002772743464447558,0.0003313192864879966
1.729497578135912e+18,-0.0024367067962884903,0.003413896542042494,-0.0034144835080951452
1.7294975781449121e+18,-0.0015077412826940417,0.0010307051707059145,-0.0016409133095294237
1.7294975781539123e+18,0.002212673658505082,-0.003534231800585985,0.0028124067466706038
1.7294975781629125e+18,5.715252336813137e-05,0.0004888472030870616,0.0006522219046019018
1.7294975781689126e+18,-0.0009875998366624117,-0.0004420102632138878,-0.0012067091884091496
1.7294975781779128e+18,-0.0020125694572925568,0.001993370708078146,0.0010657666716724634
1.729497578183913e+18,0.0031660697422921658,-0.0011949134059250355,0.002714629052206874
1.7294975781929132e+18,-0.0009471358498558402,-0.003138590371236205,-0.001091875834390521
1.7294975782019133e+18,0.00018921667651738971,-0.00027643353678286076,-7.428190292557701e-05
1.7294975782079135e+18,6.422997830668464e-05,-0.0018793437629938126,0.00036615735734812915
1.7294975782169137e+18,0.05862298607826233,-0.019732873886823654,-0.0008108466863632202
1.7294975782259139e+18,0.17802360653877258,-0.060402534902095795,-0.0010374929988756776
1.729497578231914e+18,0.2545521855354309,-0.0933438315987587,-0.002949883695691824
1.7294975782409142e+18,0.3545854687690735,-0.1277952343225479,-0.0008536712848581374
1.7294975782469143e+18,0.38582345843315125,-0.1416642814874649,0.0013384821359068155
1.7294975782559145e+18,0.3683285713195801,-0.14163511991500854,1.8090358935296535e-05
1.7294975782619146e+18,0.3309532403945923,-0.13400958478450775,-0.0006547959637828171
1.7294975782709148e+18,0.2608991861343384,-0.1236942708492279,-0.0051958453841507435
1.729497578276915e+18,0.22390079498291016,-0.11025715619325638,-0.0031534992158412933
1.7294975782859151e+18,0.21751300990581512,-0.10504582524299622,-0.0038716429844498634
1.7294975782949153e+18,0.243373304605484,-0.10923077166080475,-0.002205904573202133
1.7294975783039155e+18,0.29299798607826233,-0.11965443193912506,-0.003619113704189658
1.7294975783129157e+18,0.32011643052101135,-0.12194386124610901,-0.0033598248846828938
1.729497578321916e+18,0.3064880669116974,-0.12004450708627701,-0.0019712639041244984
1.729497578327916e+18,0.2760641574859619,-0.11339842528104782,-0.0022397134453058243
1.7294975783369162e+18,0.20866243541240692,-0.09552039951086044,-0.004626939073204994
1.7294975783459164e+18,0.1485317498445511,-0.08131016790866852,-0.0024807872250676155
1.7294975783549166e+18,0.11353521049022675,-0.07014387100934982,-0.0019320431165397167
1.7294975783639168e+18,0.10900688171386719,-0.05822562426328659,-0.0063598486594855785
1.729497578369917e+18,0.1232035905122757,-0.05987505987286568,-0.005095942411571741
1.729497578378917e+18,0.14003244042396545,-0.05680616572499275,-0.0051070312038064
1.7294975783879173e+18,0.1405135691165924,-0.04896324500441551,-0.005827765911817551
1.7294975783969175e+18,0.11190165579319,-0.04219276085495949,-0.0041308351792395115
1.7294975784029176e+18,0.07980342209339142,-0.03361772373318672,-0.006353848148137331
1.7294975784119178e+18,0.028234140947461128,-0.022836849093437195,-0.004895511083304882
1.729497578420918e+18,-0.012774715200066566,-0.011856552213430405,-0.010191667824983597
1.7294975784299182e+18,-0.030153580009937286,-0.0065999990329146385,-0.004996011033654213
1.7294975784389184e+18,-0.023749135434627533,0.0014126291498541832,-0.002116098767146468
1.7294975784479186e+18,-0.009013618342578411,0.007371396292001009,-0.00489225797355175
1.7294975784569188e+18,-0.0073034740053117275,0.011425540782511234,-0.0055067334324121475
1.729497578462919e+18,-0.014766589738428593,0.013505281880497932,-0.007464244030416012
1.729497578471919e+18,-0.03644208982586861,0.01904321275651455,-0.006492162123322487
1.7294975784809193e+18,-0.07438213378190994,0.02218848280608654,-0.0032434489112347364
1.7294975784899195e+18,-0.09963908791542053,0.029510583728551865,-0.004892577417194843
1.7294975784989197e+18,-0.10991200804710388,0.03375021740794182,-0.008154621347784996
1.7294975785049198e+18,-0.1037115678191185,0.03550567850470543,-0.0034032559487968683
1.72949757851392e+18,-0.09547213464975357,0.038253817707300186,-0.00904158316552639
1.7294975785229202e+18,-0.08171490579843521,0.04142969474196434,-0.005266251042485237
1.7294975785289203e+18,-0.0815444365143776,0.04165517911314964,-0.005904017947614193
1.7294975785379205e+18,-0.0885864645242691,0.04677264019846916,-0.007185142952948809
1.7294975785439206e+18,-0.09941773116588593,0.046999767422676086,-0.006161296274513006
1.7294975785529208e+18,-0.11933092772960663,0.04716235026717186,-0.007620173040777445
1.729497578558921e+18,-0.13120557367801666,0.050944507122039795,-0.008750813081860542
1.7294975785679212e+18,-0.13566279411315918,0.052410054951906204,-0.005222550127655268
1.7294975785739213e+18,-0.1360030174255371,0.05315258353948593,-0.007396687287837267
1.7294975785829215e+18,-0.12015876173973083,0.05636654049158096,-0.010445819236338139
1.7294975785919217e+18,-0.11072202771902084,0.05521582067012787,-0.00915091298520565
1.7294975785979218e+18,-0.10415483266115189,0.0567774772644043,-0.005882903002202511
1.729497578606922e+18,-0.10135167837142944,0.05483780801296234,-0.007060329895466566
1.729497578612922e+18,-0.10736866295337677,0.05290268361568451,-0.007567528169602156
1.7294975786219223e+18,-0.1211068332195282,0.049687888473272324,-0.008999784477055073
1.7294975786309225e+18,-0.12677469849586487,0.04856174439191818,-0.00871717743575573
1.7294975786399227e+18,-0.13003592193126678,0.050602007657289505,-0.0072677419520914555
1.7294975786459228e+18,-0.12688562273979187,0.05156689137220383,-0.0083503108471632
1.729497578654923e+18,-0.10941094160079956,0.05109722539782524,-0.008178223855793476
1.7294975786609231e+18,-0.10229416936635971,0.05126352235674858,-0.010189106687903404
1.7294975786699233e+18,-0.09325632452964783,0.04847167059779167,-0.005995835177600384
1.7294975786789235e+18,-0.09180489927530289,0.05031922459602356,-0.008318268693983555
1.7294975786849236e+18,-0.09350594133138657,0.04453500360250473,-0.007235903758555651
1.7294975786939238e+18,-0.10375308245420456,0.043277475982904434,-0.0075800153426826
1.729497578702924e+18,-0.10689127445220947,0.04212779924273491,-0.006801839452236891
1.7294975787119242e+18,-0.10661765187978745,0.03875051438808441,-0.007669484242796898
1.7294975787209244e+18,-0.09827824681997299,0.042318396270275116,-0.007018478121608496
1.7294975787299246e+18,-0.08849627524614334,0.04057497903704643,-0.009126945398747921
1.7294975787389248e+18,-0.08015294373035431,0.03953685611486435,-0.0062377494759857655
1.729497578747925e+18,-0.07586315274238586,0.03819873556494713,-0.00657174177467823
1.7294975787569252e+18,-0.0790259838104248,0.03752553462982178,-0.009993419982492924
1.7294975787659254e+18,-0.07851885259151459,0.03655310347676277,-0.008752656169235706
1.7294975787749256e+18,-0.08392640948295593,0.03595330938696861,-0.007580373901873827
1.7294975787839258e+18,-0.08285517245531082,0.03359260410070419,-0.011426175013184547
1.729497578792926e+18,-0.07892134040594101,0.03281445428729057,-0.006943595129996538
1.7294975788019261e+18,-0.07171207666397095,0.033584292978048325,-0.006395544856786728
1.7294975788109263e+18,-0.06467802077531815,0.03449767082929611,-0.0066815633326768875
1.7294975788199265e+18,-0.06364870816469193,0.03200692683458328,-0.008415780030190945
1.7294975788289267e+18,-0.06002463772892952,0.03067714162170887,-0.006225727964192629
1.7294975788349268e+18,-0.061119236052036285,0.03193255886435509,-0.008440344594419003
1.729497578843927e+18,-0.0663982704281807,0.026089396327733994,-0.005607515573501587
1.7294975788529272e+18,-0.06519203633069992,0.03131242096424103,-0.009482428431510925
1.7294975788619274e+18,-0.06345384567975998,0.02675880864262581,-0.006284554023295641
1.7294975788679276e+18,-0.06360940635204315,0.028457878157496452,-0.0070581138134002686
1.7294975788769277e+18,-0.053085435181856155,0.02533644065260887,-0.007976769469678402
1.729497578885928e+18,-0.049014970660209656,0.024283891543745995,-0.0057654608972370625
1.7294975788949281e+18,-0.04970292001962662,0.020597513765096664,-0.0076893968507647514
1.7294975789039283e+18,-0.04982048273086548,0.021177100017666817,-0.006721522659063339
1.7294975789129285e+18,-0.048595622181892395,0.02028278075158596,-0.006523360498249531
1.7294975789219287e+18,-0.05235370248556137,0.020473213866353035,-0.007371122483164072
1.7294975789279288e+18,-0.05120013281702995,0.02577889710664749,-0.01005049142986536
1.729497578936929e+18,-0.052008599042892456,0.021257486194372177,-0.00875634141266346
1.7294975789459292e+18,-0.05062231048941612,0.02056708186864853,-0.00789167545735836
1.7294975789549294e+18,-0.047318533062934875,0.020969243720173836,-0.009400439448654652
1.7294975789639296e+18,-0.04406842216849327,0.016154352575540543,-0.00940856896340847
1.7294975789699297e+18,-0.043752070516347885,0.014228099025785923,-0.007167531177401543
1.72949757897893e+18,-0.044443774968385696,0.01678958535194397,-0.01048993319272995
1.72949757898793e+18,-0.04784964397549629,0.016353130340576172,-0.005375823006033897
1.7294975789939302e+18,-0.04477708041667938,0.01627727411687374,-0.007275896612554789
1.7294975790029304e+18,-0.050134070217609406,0.01840979792177677,-0.007234476041048765
1.7294975790119306e+18,-0.04989784583449364,0.01736069843173027,-0.005617684684693813
1.7294975790209308e+18,-0.046206578612327576,0.01847333461046219,-0.0062087466940283775
1.729497579026931e+18,-0.04460618644952774,0.01912004128098488,-0.005832841619849205
1.7294975790359311e+18,-0.04120880365371704,0.016152814030647278,-0.006844033021479845
1.7294975790449313e+18,-0.03850819915533066,0.017232874408364296,-0.006541752722114325
1.7294975790539315e+18,-0.04153576120734215,0.014518064446747303,-0.007858213037252426
1.7294975790599316e+18,-0.04401896893978119,0.01301609817892313,-0.0065358225256204605
1.7294975790689318e+18,-0.043648578226566315,0.014427665621042252,-0.005193379241973162
1.729497579077932e+18,-0.04103168100118637,0.014157501049339771,-0.006742436904460192
1.7294975790869322e+18,-0.04194122925400734,0.011810379102826118,-0.0049890512600541115
1.7294975790959324e+18,-0.033151134848594666,0.015592684037983418,-0.0037082720082253218
1.7294975791049326e+18,-0.034477610141038895,0.01584927923977375,-0.004721467383205891
1.7294975791109327e+18,-0.03136366233229637,0.0160356555134058,-0.004020222928375006
1.729497579119933e+18,-0.031127410009503365,0.016343872994184494,-0.004063664935529232
1.729497579128933e+18,-0.033818017691373825,0.013230261392891407,-0.006255440879613161
1.7294975791349332e+18,-0.031372398138046265,0.011092087253928185,-0.006945343688130379
1.7294975791439334e+18,-0.036090657114982605,0.011469457298517227,-0.005048646125942469
1.7294975791499336e+18,-0.03467254340648651,0.012968827970325947,-0.005003657657653093
1.7294975791589338e+18,-0.035839952528476715,0.013701452873647213,-0.002108425833284855
1.729497579167934e+18,-0.032837238162755966,0.014143814332783222,-0.008255982771515846
1.729497579173934e+18,-0.029408935457468033,0.008655479177832603,-0.0038333702832460403
1.7294975791829343e+18,-0.030745919793844223,0.012396291829645634,-0.004773847293108702
1.7294975791919345e+18,-0.029320884495973587,0.007435996551066637,-0.007165748160332441
1.7294975791979346e+18,-0.028735326603055,0.00895075686275959,-0.005140942987054586
1.7294975792069348e+18,-0.02971642091870308,0.007431591395288706,-0.002312056254595518
1.729497579215935e+18,-0.029634520411491394,0.008731317706406116,-0.00416157441213727
1.7294975792249352e+18,-0.0330115482211113,0.006034555844962597,-0.005369195714592934
1.7294975792309353e+18,-0.02902587503194809,0.007852066308259964,-0.005025052465498447
1.7294975792429356e+18,-0.026728030294179916,0.007697927765548229,-0.003409063210710883
1.7294975792489357e+18,-0.026529090479016304,0.00820579007267952,-0.003194931661710143
1.729497579257936e+18,-0.02390897274017334,0.005385459400713444,-0.0039155129343271255
1.729497579266936e+18,-0.02517157420516014,0.004233115818351507,-0.002947369357571006
1.7294975792759363e+18,-0.03082650527358055,0.0051538050174713135,-0.0018539456650614738
1.7294975792819364e+18,-0.03163210675120354,0.004168638028204441,-0.0019227105658501387
1.7294975792909366e+18,-0.027247115969657898,0.0047156922519207,-0.003219050355255604
1.7294975792999368e+18,-0.02958589233458042,0.00625638896599412,-0.006178142037242651
1.729497579305937e+18,-0.025413746014237404,0.007088199257850647,-0.004443296231329441
1.729497579314937e+18,-0.021300625056028366,0.00402141734957695,-0.005068532191216946
1.7294975793239373e+18,-0.023954857140779495,0.0049651251174509525,-0.00581419188529253
1.7294975793329375e+18,-0.018635757267475128,0.0025492776185274124,-0.0031859525479376316
1.7294975793419377e+18,-0.020040862262248993,0.0067581236362457275,-0.005153767764568329
1.7294975793479378e+18,-0.022393634542822838,0.0025614083278924227,-0.0020373878069221973
1.729497579356938e+18,-0.021259188652038574,0.005750047508627176,-0.0011488134041428566
1.7294975793659382e+18,-0.024866607040166855,0.007619489450007677,-0.001524123246781528
1.7294975793719383e+18,-0.02346324361860752,0.007432984188199043,-0.002625989029183984
1.7294975793809385e+18,-0.019358016550540924,0.009292230941355228,-0.002550082979723811
1.7294975793899387e+18,-0.02002774178981781,0.005078802816569805,-0.0033603557385504246
1.7294975793959388e+18,-0.018725743517279625,0.007632625289261341,-0.004746356979012489
1.729497579404939e+18,-0.01808737777173519,0.0070527601055800915,-0.0016017069574445486
1.7294975794139392e+18,-0.015887146815657616,0.008557732217013836,-0.002074912656098604
1.7294975794199393e+18,-0.02219698391854763,0.005182094871997833,-0.0007415458094328642
1.7294975794289395e+18,-0.023219339549541473,0.009811824187636375,-0.0008737597381696105
1.7294975794379397e+18,-0.020595567300915718,0.008526825346052647,-0.0035989414900541306
1.72949757944694e+18,-0.018544970080256462,0.006797068752348423,-0.0030542383901774883
1.72949757945294e+18,-0.017112813889980316,0.008094257675111294,-0.0024944739416241646
1.7294975794619402e+18,-0.011236744001507759,0.003839572425931692,-0.0019103232771158218
1.7294975794709404e+18,-0.010843992233276367,0.009405046701431274,-0.0009682220406830311
1.7294975794769405e+18,-0.010866105556488037,0.0036367271095514297,-0.0019295907113701105
1.7294975794859407e+18,-0.011326233856379986,0.006005500443279743,0.0009542030747979879
1.7294975794919409e+18,-0.01387428306043148,0.007799703627824783,-0.0015675346367061138
1.729497579500941e+18,-0.014222491532564163,0.006172057241201401,-0.003481379011645913
1.7294975795099412e+18,-0.013034744188189507,0.006104685366153717,-0.003847405780106783
1.7294975795189414e+18,-0.014424992725253105,0.008678736165165901,0.0007623953279107809
1.7294975795249416e+18,-0.010496571660041809,0.00997053924947977,-0.003091944381594658
1.7294975795339418e+18,-0.006628125440329313,0.007890764623880386,4.313071258366108e-05
1.729497579542942e+18,-0.0061901044100522995,0.005679803434759378,-0.0015796570805832744
1.729497579548942e+18,-0.006500231102108955,0.003105416428297758,-0.00021967844804748893
1.7294975795579423e+18,-0.00987075362354517,0.003660771995782852,0.0015605534426867962
1.7294975795669425e+18,-0.009256252087652683,0.004536678083240986,0.0034613318275660276
1.7294975795759427e+18,-0.010366987437009811,0.007844219915568829,0.00012050473014824092
1.729497579596943e+18,-0.008587567135691643,0.007848256267607212,0.0026709025260061026
1.7294975796089434e+18,-0.008334660902619362,0.004735502414405346,0.002031539101153612
1.7294975796149435e+18,-0.006442859768867493,0.005380505230277777,-7.395748980343342e-05
1.7294975796239437e+18,-0.0015408422332257032,0.004234736319631338,0.0016188030131161213
1.7294975796329439e+18,-0.007565776817500591,0.003862056415528059,0.004461927805095911
1.729497579641944e+18,-0.01071398239582777,0.008385078981518745,0.0013912421418353915
1.7294975796509443e+18,-0.008364113047719002,0.005395425017923117,0.0025041289627552032
1.7294975796569444e+18,-0.01137484610080719,0.002529430203139782,0.003969115205109119
1.7294975796659446e+18,-0.007251515984535217,0.006295977160334587,0.002577801700681448
1.7294975796749448e+18,-0.006926143541932106,0.003524787724018097,0.002402531448751688
1.729497579683945e+18,-0.005223041865974665,0.0020299225579947233,0.0007748785428702831
1.7294975796929452e+18,0.0009261453524231911,0.004832534585148096,0.0005583851598203182
1.7294975797019453e+18,-0.0033701458014547825,0.007188080810010433,0.0030389532912522554
1.7294975797109455e+18,-0.0022619967348873615,0.003155897371470928,0.0032026395201683044
1.7294975797199457e+18,-0.0077922288328409195,0.005023924168199301,0.0016586296260356903
1.7294975797259459e+18,-0.005574823822826147,0.002802531700581312,0.004798240959644318
1.729497579734946e+18,-0.0019611800089478493,0.006043611094355583,0.003783945692703128
1.7294975797559465e+18,0.0013088794657960534,0.0069266920909285545,0.003574975999072194
1.7294975797649467e+18,0.003334609093144536,0.003734976751729846,0.0028152961749583483
1.729497579773947e+18,-0.002585470676422119,0.0030937716364860535,0.004841972608119249
1.729497579782947e+18,-0.002794493455439806,0.0029069301672279835,0.0029733157716691494
1.7294975797919473e+18,-0.002946611726656556,0.0014595002867281437,0.0038208712358027697
1.7294975798009475e+18,-0.006361173465847969,-4.9762893468141556e-05,0.00608949875459075
1.7294975798099476e+18,-0.00033944827737286687,0.0040567717514932156,0.007925940677523613
1.7294975798189478e+18,-0.0025848797522485256,0.002929350361227989,0.006036095786839724
1.729497579827948e+18,0.00219069910235703,0.0027541709132492542,0.005484015680849552
1.7294975798369482e+18,0.0032107920851558447,0.00025372905656695366,0.005350365769118071
1.7294975798459484e+18,0.0046998970210552216,0.0008546300232410431,0.007648090366274118
1.7294975798549486e+18,0.0021100775338709354,-0.002057441510260105,0.005474986042827368
1.729497579875949e+18,0.0006671466398984194,5.518016405403614e-05,0.007945667952299118
1.7294975798849492e+18,-0.001080819871276617,-0.0005900167743675411,0.0063772122375667095
1.7294975799119498e+18,-0.00035422880318947136,-0.00018012122018262744,0.007164160721004009
1.72949757992095e+18,-0.002145857084542513,0.003007134422659874,0.00459081307053566
1.7294975799299502e+18,0.00293053244240582,0.0012420346029102802,0.005746371112763882
1.7294975799419505e+18,0.00517559377476573,-0.0002365419641137123,0.0052376920357346535
1.7294975799509507e+18,0.005460949614644051,-0.004048584029078484,0.00538483913987875
1.7294975799599508e+18,0.006358059123158455,-0.003629155922681093,0.006364369764924049
1.729497579968951e+18,0.003140376415103674,0.001128326402977109,0.005091046914458275
1.7294975799779512e+18,0.0027231546118855476,0.0005407799617387354,0.007245930843055248
1.7294975799869514e+18,-8.962815627455711e-05,0.002854499500244856,0.005651411600410938
1.7294975799959516e+18,0.0006452802335843444,0.0018211479764431715,0.006663336418569088
1.7294975800049518e+18,0.002835547784343362,-0.0007504854584112763,0.002209311118349433
1.729497580013952e+18,0.002102150581777096,0.000593060627579689,0.005729774013161659
1.7294975800229522e+18,0.005579403601586819,-0.003447005059570074,0.0061867088079452515
1.7294975800319524e+18,0.003218301571905613,-0.0016318210400640965,0.005936430301517248
1.7294975800409526e+18,0.006862261798232794,0.0011625707847997546,0.006160652730613947
1.7294975800499528e+18,0.007531451527029276,-0.004188610706478357,0.006408622954040766
1.729497580058953e+18,0.007401094306260347,0.0019320948049426079,0.0061317989602684975
1.7294975800679532e+18,0.007597516756504774,-0.0029994368087500334,0.007602182682603598
1.7294975800769533e+18,0.006003894377499819,-0.0024588543456047773,0.00538723124191165
1.7294975801219543e+18,0.007728027645498514,-0.002775636501610279,0.0041169049218297005
1.7294975801309545e+18,0.009091071784496307,0.0001856058370321989,0.0056840525940060616
1.7294975801399547e+18,0.0077536702156066895,-0.0034929229877889156,0.003861962351948023
1.729497580148955e+18,0.009925597347319126,-0.00095545151270926,0.005667454097419977
1.7294975801609551e+18,0.00734161539003253,-0.00399891659617424,0.0044631739147007465
1.7294975801699553e+18,0.006550158374011517,-0.004746191669255495,0.0072005875408649445
1.7294975801789555e+18,0.009607719257473946,-0.002891008509323001,0.0023608081974089146
1.7294975801849556e+18,0.009890123270452023,-0.004191063344478607,0.005489718168973923
1.7294975801939558e+18,0.013407820835709572,-0.0033100000582635403,0.006468761712312698
1.729497580205956e+18,0.013061185367405415,-0.004165930673480034,0.006588369607925415
1.7294975802149563e+18,0.008981602266430855,-0.004030753392726183,0.0035286368802189827
1.7294975802239565e+18,0.007841787301003933,-0.009257527068257332,0.005002291407436132
1.7294975802329567e+18,0.008104024454951286,-0.003985315561294556,0.0023831750731915236
1.7294975802419569e+18,0.010191366076469421,-0.005468031857162714,0.006195068359375
1.729497580250957e+18,0.01196235790848732,-0.004844707436859608,0.003015573136508465
1.7294975802599572e+18,0.01148154679685831,-0.002772531472146511,0.003419057000428438
1.7294975802689574e+18,0.01409200206398964,-0.007388693280518055,0.006614282261580229
1.7294975802779576e+18,0.01059413980692625,-0.005053260363638401,0.005125011317431927
1.7294975802869578e+18,0.010197523981332779,-0.006042184308171272,0.003343587275594473
1.729497580295958e+18,0.010036606341600418,-0.004094716161489487,0.0051186406053602695
1.7294975803049582e+18,0.007860546931624413,-0.006823164410889149,0.0029520762618631124
1.7294975803169585e+18,0.008925564587116241,-0.005464266519993544,0.005485851317644119
1.7294975803289587e+18,0.013479706831276417,-0.005319945048540831,0.0016042192000895739
1.729497580337959e+18,0.012564542703330517,-0.0075112758204340935,0.005335221532732248
1.729497580346959e+18,0.01455414667725563,-0.00565196480602026,0.004649943672120571
1.7294975803589594e+18,0.01068093441426754,-0.006953637581318617,0.005020160228013992
1.7294975803679596e+18,0.010422047227621078,-0.004013427998870611,0.004576115868985653
1.7294975803769597e+18,0.010330289602279663,-0.0045935926027596,0.004195423796772957
1.72949758038896e+18,0.01360130961984396,-0.005927438847720623,0.0025182946119457483
1.7294975803979602e+18,0.012985910288989544,-0.00700776232406497,0.00394730269908905
1.7294975804069604e+18,0.01581314578652382,-0.004337852820754051,0.002445976249873638
1.7294975804189606e+18,0.011336720548570156,-0.005579117685556412,0.0005291909910738468
1.7294975804279608e+18,0.009493616409599781,-0.005737738683819771,0.003561932360753417
1.729497580436961e+18,0.01135808601975441,-0.009989958256483078,0.0032403385266661644
1.7294975804489613e+18,0.014687355607748032,-0.008290618658065796,0.004352818708866835
1.7294975804579615e+18,0.011719205416738987,-0.0085227619856596,0.0017068095039576292
1.7294975804699617e+18,0.014196365140378475,-0.003018174087628722,0.001335127279162407
1.729497580478962e+18,0.012701347470283508,-0.002684775274246931,0.003908361773937941
1.729497580487962e+18,0.009925248101353645,-0.005859921686351299,0.0050695291720330715
1.7294975804999624e+18,0.007258489262312651,-0.0027692453004419804,0.0032730407547205687
1.7294975805089626e+18,0.009077247232198715,-0.003742712549865246,0.0035749413073062897
1.7294975805179628e+18,0.010036335326731205,-0.006051982752978802,0.0049972208216786385
1.729497580529963e+18,0.012689405120909214,-0.004473269917070866,0.0034806905314326286
1.7294975805389632e+18,0.01389352884143591,-0.00752690015360713,0.005350966472178698
1.7294975805479634e+18,0.012147773988544941,-0.004566913936287165,0.004552427679300308
1.7294975805569636e+18,0.010145054198801517,-0.0036462857387959957,0.003946568816900253
1.7294975805659638e+18,0.010656862519681454,-0.00625085923820734,0.0017965829465538263
1.729497580574964e+18,0.010827080346643925,0.0009172095451503992,-0.010617121122777462
1.7294975805839642e+18,0.017334168776869774,0.003592861583456397,-0.027851834893226624
1.7294975805929644e+18,0.020792271941900253,0.012400803156197071,-0.04398037865757942
1.7294975806019645e+18,0.020293883979320526,0.009802990593016148,-0.0439256988465786
1.7294975806109647e+18,0.02008310705423355,0.007934649474918842,-0.0485399104654789
1.729497580619965e+18,0.01756432093679905,0.0029477966018021107,-0.050738297402858734
1.729497580628965e+18,0.016463356092572212,-0.0031432786490768194,-0.051034457981586456
1.7294975806409654e+18,0.010852421633899212,-0.0069233449175953865,-0.04821811616420746
1.7294975806469655e+18,0.012082948349416256,-0.00636924896389246,-0.04918372258543968
1.7294975806589658e+18,0.011160103604197502,-0.0018233205191791058,-0.047575339674949646
1.729497580664966e+18,0.016207851469516754,0.0009808316826820374,-0.04915488511323929
1.729497580673966e+18,0.01614522561430931,0.0020973600912839174,-0.046745993196964264
1.7294975806829663e+18,0.015241841785609722,-0.002547081094235182,-0.04959443211555481
1.7294975806919665e+18,0.016937553882598877,-0.005136274732649326,-0.053488459438085556
1.7294975807039667e+18,0.015799274668097496,-0.0070814224891364574,-0.05209346115589142
1.729497580712967e+18,0.013598847202956676,-0.0063462406396865845,-0.04935313016176224
1.729497580721967e+18,0.014659402891993523,-0.0065697357058525085,-0.04915051534771919
1.7294975807309673e+18,0.013722491450607777,-0.003453390672802925,-0.051717933267354965
1.7294975807399675e+18,0.0168578140437603,-0.004302731715142727,-0.05000554397702217
1.7294975807489677e+18,0.021187489852309227,-0.006258098408579826,-0.049559276551008224
1.729497580757968e+18,0.019466502591967583,-0.005269492045044899,-0.04554041475057602
1.729497580769968e+18,0.020404066890478134,-0.007673521526157856,-0.04650320112705231
1.7294975807789683e+18,0.017151298001408577,-0.007511903997510672,-0.0467897392809391
1.7294975807879685e+18,0.013361217454075813,-0.0074225980788469315,-0.04855692759156227
1.7294975807969687e+18,0.009278850629925728,-0.0076287537813186646,-0.04761119559407234
1.729497580805969e+18,0.014093964360654354,-0.010077189654111862,-0.04793810471892357
1.7294975808179692e+18,0.020853107795119286,-0.0075617325492203236,-0.046557772904634476
1.7294975808269693e+18,0.015888459980487823,-0.008534431457519531,-0.044257283210754395
1.7294975808359695e+18,0.018390342593193054,-0.010233600623905659,-0.04643401503562927
1.7294975808479698e+18,0.01752423867583275,-0.00911132711917162,-0.04715985432267189
1.72949758085697e+18,0.015277874656021595,-0.006401292979717255,-0.04570113122463226
1.7294975808659702e+18,0.013949057087302208,-0.008829547092318535,-0.04165700450539589
1.7294975808749704e+18,0.01520992536097765,-0.007696242071688175,-0.043495748192071915
1.7294975808839706e+18,0.013238987885415554,-0.006989547051489353,-0.04346545785665512
1.7294975808929708e+18,0.015122559852898121,-0.006475764326751232,-0.045561667531728745
1.729497580901971e+18,0.015208190307021141,-0.00722598098218441,-0.04116401448845863
1.7294975809109711e+18,0.01900668814778328,-0.006964415777474642,-0.03764306753873825
1.7294975809199713e+18,0.015133063308894634,-0.001769367721863091,-0.039633169770240784
1.7294975809289715e+18,0.01418224349617958,-0.0030460054986178875,-0.03686003386974335
1.7294975809379717e+18,0.010669690556824207,-0.005378711968660355,-0.03546895459294319
1.729497580946972e+18,0.011686474084854126,-0.009762722998857498,-0.03467666730284691
1.729497580955972e+18,0.013659276068210602,-0.007746510673314333,-0.035280779004096985
1.7294975809649723e+18,0.014868520200252533,-0.00716813700273633,-0.03463754057884216
1.7294975809739725e+18,0.015527183189988136,-0.007036032620817423,-0.03365026041865349
1.7294975809829727e+18,0.018569935113191605,-0.007472210563719273,-0.03346781060099602
1.7294975809919729e+18,0.015242978930473328,-0.003289060201495886,-0.034566424787044525
1.729497581000973e+18,0.015132604166865349,-0.00754879554733634,-0.029969504103064537
1.7294975810099732e+18,0.015719229355454445,-0.007472584955394268,-0.026863044127821922
1.7294975810189734e+18,0.014596940949559212,-0.005433255340903997,-0.02663102000951767
1.7294975810309737e+18,0.018634313717484474,-0.005210756324231625,-0.026101723313331604
1.729497581039974e+18,0.016349302604794502,-0.004240998532623053,-0.024863412603735924
1.729497581048974e+18,0.011380583047866821,-0.005713481921702623,-0.0245331060141325
1.7294975810579743e+18,0.0150146484375,-0.003717159852385521,-0.019198715686798096
1.7294975810669745e+18,0.0211055725812912,-0.005960773676633835,-0.021215051412582397
1.7294975810759747e+18,0.017278525978326797,-0.006811595521867275,-0.02294025383889675
1.7294975810849748e+18,0.0190904401242733,-0.005969218444079161,-0.01879037544131279
1.729497581093975e+18,0.017826039344072342,-0.007176392711699009,-0.017163826152682304
1.7294975811029752e+18,0.01772991754114628,-0.005709955468773842,-0.018078673630952835
1.7294975811119754e+18,0.019016804173588753,-0.008087760768830776,-0.016776666045188904
1.7294975811209756e+18,0.015317228622734547,-0.0058697983622550964,-0.015973445028066635
1.7294975811299758e+18,0.01369272917509079,-0.007524376735091209,-0.016323359683156013
1.729497581138976e+18,0.015932191163301468,-0.006066270172595978,-0.013374690897762775
1.7294975811479762e+18,0.016557002440094948,-0.0060890065506100655,-0.012093259952962399
1.7294975811569764e+18,0.01974186860024929,-0.006372347939759493,-0.01015598513185978
1.7294975811629765e+18,0.013609896413981915,-0.008820517919957638,-0.011059500277042389
1.7294975811749768e+18,0.017428075894713402,-0.009381670504808426,-0.009380854666233063
1.729497581183977e+18,0.016712632030248642,-0.004361856263130903,-0.00822391640394926
1.7294975811929772e+18,0.015558801591396332,-0.006648756563663483,-0.00811608787626028
1.7294975812019773e+18,0.016552988439798355,-0.0066339438781142235,-0.005500818602740765
1.7294975812109775e+18,0.017144350335001945,-0.004155701957643032,-0.004549875855445862
1.7294975812199777e+18,0.01573704183101654,-0.010853724554181099,-0.0035409750416874886
1.7294975812259779e+18,0.016287483274936676,-0.0055140783078968525,-0.0001417973544448614
1.729497581234978e+18,0.01555747352540493,-0.005421689711511135,0.0015400102129206061
1.7294975812439782e+18,0.01692858338356018,-0.008056676015257835,0.000764325784984976
1.7294975812529784e+18,0.015380484983325005,-0.008599342778325081,-0.0011030847672373056
1.7294975812619786e+18,0.01820460706949234,-0.008229296654462814,0.004235290456563234
1.7294975812709788e+18,0.01689031720161438,-0.009793804958462715,0.006076108198612928
1.729497581279979e+18,0.012816479429602623,-0.011577405035495758,0.008642038330435753
1.7294975812889792e+18,0.013407239690423012,-0.009104828350245953,0.009214546531438828
1.7294975812979794e+18,0.012221535667777061,-0.008381787687540054,0.009982233867049217
1.7294975813039795e+18,0.009721558541059494,-0.01245577447116375,0.01068851724267006
1.7294975813129797e+18,0.011057472787797451,-0.011821646243333817,0.013842280954122543
1.72949758132198e+18,0.008737240917980671,-0.01110903825610876,0.012506511062383652
1.72949758133098e+18,0.01737247034907341,-0.00850777979940176,0.013136515393853188
1.7294975813369802e+18,0.013824507594108582,-0.0075613330118358135,0.01620284840464592
1.7294975813459804e+18,0.015072514303028584,-0.007471591234207153,0.01518992893397808
1.7294975813549806e+18,0.01324523240327835,-0.012024215422570705,0.020446106791496277
1.7294975813639808e+18,0.01026682835072279,-0.008960858918726444,0.02155000902712345
1.729497581372981e+18,0.010049864649772644,-0.009800137020647526,0.02481519989669323
1.729497581378981e+18,0.011513980105519295,-0.009332348592579365,0.024007128551602364
1.7294975813879813e+18,0.011720389127731323,-0.0088864266872406,0.02352263778448105
1.7294975813969815e+18,0.011622890830039978,-0.010931530967354774,0.027109580114483833
1.7294975814059817e+18,0.01603124476969242,-0.012863654643297195,0.02848852053284645
1.7294975814119818e+18,0.014752952381968498,-0.010168153792619705,0.02863769605755806
1.729497581420982e+18,0.018215935677289963,-0.01024496927857399,0.03189939260482788
1.7294975814299822e+18,0.018439913168549538,-0.01035565510392189,0.03350583463907242
1.7294975814359823e+18,0.014979450032114983,-0.010100445710122585,0.03007649816572666
1.7294975814449825e+18,0.01254077348858118,-0.008421726524829865,0.032069891691207886
1.7294975814539827e+18,0.008524784818291664,-0.013541175983846188,0.03741702437400818
1.7294975814599828e+18,0.009530222974717617,-0.008480248972773552,0.034867461770772934
1.729497581468983e+18,0.01174793392419815,-0.0074812788516283035,0.03813909739255905
1.7294975814779832e+18,0.01818753220140934,-0.007686513941735029,0.03763258829712868
1.7294975814869834e+18,0.017073914408683777,-0.008396019227802753,0.038904666900634766
1.7294975814929836e+18,0.017674677073955536,-0.008049868047237396,0.040040016174316406
1.7294975815019837e+18,0.015452017076313496,-0.009868435561656952,0.04070758447051048
1.729497581510984e+18,0.012113979086279869,-0.007415561005473137,0.039883218705654144
1.729497581516984e+18,0.011587591841816902,-0.006728393957018852,0.04443057253956795
1.7294975815259843e+18,0.012396622449159622,-0.007896466180682182,0.04407577961683273
1.7294975815319844e+18,0.014345555566251278,-0.005706567317247391,0.044049330055713654
1.7294975815409846e+18,0.013412348926067352,-0.006490790750831366,0.04236571863293648
1.7294975815499848e+18,0.018819887191057205,-0.005330783315002918,0.046489086002111435
1.729497581555985e+18,0.018206477165222168,-0.005826110485941172,0.043813854455947876
1.729497581564985e+18,0.01976390928030014,-0.00825674831867218,0.04598062485456467
1.7294975815739853e+18,0.014650769531726837,-0.008029388263821602,0.04709475114941597
1.7294975815799854e+18,0.014493167400360107,-0.008561981841921806,0.04643299803137779
1.7294975815889856e+18,0.01410559844225645,-0.008127110078930855,0.04727852717041969
1.7294975815979858e+18,0.015885772183537483,-0.005666285753250122,0.04758208245038986
1.729497581603986e+18,0.013711105100810528,-0.0031331598293036222,0.0457463301718235
1.729497581612986e+18,0.01625586301088333,-0.006086959037929773,0.049410536885261536
1.7294975816219863e+18,0.016188180074095726,-0.009019503369927406,0.046946875751018524
1.7294975816279864e+18,0.015900760889053345,-0.0055458941496908665,0.048225369304418564
1.7294975816369866e+18,0.013705398887395859,-0.0073545328341424465,0.047128286212682724
1.7294975816459868e+18,0.012977628968656063,-0.008318942040205002,0.04978937655687332
1.729497581651987e+18,0.01155211590230465,-0.0056160553358495235,0.04816960543394089
1.7294975816609871e+18,0.00895337387919426,-0.008219609968364239,0.04685413837432861
1.7294975816699873e+18,0.010011772625148296,-0.007041780278086662,0.04842172935605049
1.7294975816759875e+18,0.00815474335104227,-0.0024345633573830128,0.05175495147705078
1.7294975816849876e+18,0.013796962797641754,-0.0033690070267766714,0.04583698883652687
1.7294975816939878e+18,0.012589935213327408,-0.0028011612594127655,0.04647018760442734
1.729497581699988e+18,0.0086740143597126,-0.0015184336807578802,0.04936111345887184
1.7294975817089882e+18,0.006577550899237394,-0.001507249427959323,0.04556795954704285
1.7294975817179884e+18,0.005799263250082731,-0.0017973724752664566,0.05106458440423012
1.7294975817239885e+18,0.007933417335152626,-0.0020481692627072334,0.048239827156066895
1.7294975817329887e+18,0.005337791983038187,-0.0012454488314688206,0.05095716565847397
1.7294975817419889e+18,0.007360734976828098,-0.0035503420513123274,0.047793276607990265
1.729497581747989e+18,0.010881908237934113,-0.006910939700901508,0.04822702333331108
1.7294975817569892e+18,0.011271586641669273,-0.004649899899959564,0.04762965068221092
1.7294975817659894e+18,0.009579228237271309,-0.005229175090789795,0.046235449612140656
1.7294975817749896e+18,0.013966325670480728,-0.0015379555989056826,0.046023596078157425
1.7294975817809897e+18,0.012495734728872776,-0.005532196722924709,0.04522442817687988
1.72949758178999e+18,0.008804709650576115,-0.004024335648864508,0.04656745493412018
1.72949758179899e+18,0.008962529711425304,-0.0062283240258693695,0.04363614320755005
1.7294975818049902e+18,0.010958630591630936,-0.004053443670272827,0.044614844024181366
1.7294975818139904e+18,0.027407903224229813,-0.005919895134866238,0.04544312134385109
1.7294975818229906e+18,0.047836121171712875,-0.016042932868003845,0.041814278811216354
1.7294975818289907e+18,0.056666675955057144,-0.019600966945290565,0.04284781217575073
1.729497581837991e+18,0.06749330461025238,-0.020183807238936424,0.03859018534421921
1.729497581846991e+18,0.06440594047307968,-0.025350172072649002,0.04059578850865364
1.7294975818559913e+18,0.05964310094714165,-0.022547030821442604,0.041364431381225586
1.7294975818619914e+18,0.05222105234861374,-0.021727193146944046,0.037310875952243805
1.7294975818709916e+18,0.05133320391178131,-0.02509370446205139,0.036048103123903275
1.7294975818799918e+18,0.053741805255413055,-0.023531416431069374,0.03736566752195358
1.729497581888992e+18,0.06266511976718903,-0.02444356307387352,0.036139559000730515
1.7294975818949921e+18,0.0680224597454071,-0.024431884288787842,0.03688650205731392
1.7294975819039923e+18,0.07067195326089859,-0.024384019896388054,0.03358371928334236
1.7294975819129925e+18,0.06925082951784134,-0.026341179385781288,0.03444347903132439
1.7294975819189926e+18,0.06445156037807465,-0.023346077650785446,0.03435448557138443
1.7294975819279928e+18,0.054160043597221375,-0.025272255763411522,0.030548861250281334
1.729497581936993e+18,0.05043904855847359,-0.02343408577144146,0.03337244689464569
1.7294975819429932e+18,0.04608216881752014,-0.025933697819709778,0.0326085090637207
1.7294975819519933e+18,0.04610457271337509,-0.024998575448989868,0.0290572177618742
1.7294975819609935e+18,0.048610057681798935,-0.02224554680287838,0.033483460545539856
1.7294975819669937e+18,0.05029267445206642,-0.024412745609879494,0.031213071197271347
1.7294975819759939e+18,0.05095607787370682,-0.023287246003746986,0.029085274785757065
1.729497581981994e+18,0.04754394292831421,-0.020933911204338074,0.02970624342560768
1.7294975819909942e+18,0.04302413389086723,-0.02022634446620941,0.030004512518644333
1.7294975819969943e+18,0.03709561377763748,-0.018503723666071892,0.031239621341228485
1.7294975820059945e+18,0.03315938636660576,-0.01834079623222351,0.02811705321073532
1.7294975820119946e+18,0.027470482513308525,-0.014167118817567825,0.028620101511478424
1.7294975820209948e+18,0.028806151822209358,-0.017116917297244072,0.026439696550369263
1.729497582026995e+18,0.027503039687871933,-0.016398802399635315,0.026616431772708893
1.7294975820359951e+18,0.029014065861701965,-0.01758185587823391,0.028987951576709747
1.7294975820449953e+18,0.028152506798505783,-0.016190551221370697,0.024958916008472443
1.7294975820509955e+18,0.02648826315999031,-0.017594201490283012,0.02567482925951481
1.7294975820599956e+18,0.026471642777323723,-0.01591634377837181,0.026038415729999542
1.7294975820689958e+18,0.02125721611082554,-0.011901980265974998,0.025281038135290146
1.729497582077996e+18,0.013316268101334572,-0.01355117280036211,0.024709224700927734
1.7294975820869962e+18,0.011323569342494011,-0.007721874862909317,0.025214940309524536
1.7294975820929964e+18,0.009027417749166489,-0.010042030364274979,0.023688998073339462
1.7294975821019965e+18,0.010606510564684868,-0.00804960448294878,0.024524999782443047
1.7294975821109967e+18,0.016288017854094505,-0.003770042210817337,0.021046984940767288
1.729497582119997e+18,0.013599097728729248,-0.00939389131963253,0.02211816981434822
1.729497582125997e+18,0.010374855250120163,-0.006074187345802784,0.023173220455646515
1.7294975821349972e+18,0.0056487382389605045,-0.006328771356493235,0.022022569552063942
1.7294975821439974e+18,0.0024728449061512947,-0.008067796938121319,0.02378043904900551
1.7294975821529976e+18,-0.0025474217254668474,-0.005811091046780348,0.021451737731695175
1.7294975821619978e+18,0.00022569089196622372,0.0013249372132122517,0.01922498643398285
1.729497582170998e+18,-0.0006669743452221155,-0.0014669271185994148,0.019487135112285614
1.7294975821799982e+18,0.0010658970568329096,0.0005779558559879661,0.01852642372250557
1.7294975821889984e+18,0.0019513852894306183,-0.0016908858669921756,0.01821262761950493
1.7294975821949985e+18,-0.00036575249396264553,0.0008742427453398705,0.017669200897216797
1.7294975822039987e+18,-0.0041271839290857315,-0.0012104915222153068,0.01576036401093006
1.729497582212999e+18,-0.00923824030905962,-0.0012264399556443095,0.016088789328932762
1.729497582221999e+18,-0.009643207304179668,0.0005964063457213342,0.01993859000504017
1.7294975822309993e+18,-0.0063186571933329105,0.002884348388761282,0.014805417507886887
1.7294975822369994e+18,-0.0075940038077533245,0.0023232100065797567,0.017831165343523026
1.7294975822459996e+18,-0.005865244194865227,0.0028910324908792973,0.014982188120484352
1.7294975822549998e+18,0.0010742766316980124,0.0024789171293377876,0.01658245362341404
1.729497582261e+18,-0.004236913286149502,0.0010260860435664654,0.015308324247598648
1.72949758227e+18,-0.0059073870070278645,0.0048099178820848465,0.018547628074884415
1.7294975822790003e+18,-0.006645803339779377,0.004263735376298428,0.013786502182483673
1.7294975822850004e+18,-0.012173499912023544,0.0037214301992207766,0.011943871155381203
1.7294975822940006e+18,-0.009037595242261887,0.003974237013608217,0.014658965170383453
1.7294975823030008e+18,-0.00834727380424738,0.00412261625751853,0.013267266564071178
1.729497582312001e+18,-0.005330100655555725,0.0060777971521019936,0.010837742127478123
1.7294975823210012e+18,-0.0047112382017076015,0.0065217334777116776,0.013524791225790977
1.7294975823300014e+18,-0.008827496320009232,0.004443980287760496,0.014666066505014896
1.7294975823390016e+18,-0.008427683264017105,0.004870939534157515,0.009929514490067959
1.7294975823480018e+18,-0.01347439270466566,0.0035003600642085075,0.009572159498929977
1.729497582357002e+18,-0.012333672493696213,0.004202055279165506,0.009554462507367134
1.7294975823660022e+18,-0.014136005192995071,0.005551875103265047,0.012274173088371754
1.7294975823750024e+18,-0.01399378664791584,0.0027840621769428253,0.009118050336837769
1.7294975823840026e+18,-0.010638915002346039,0.0006350392941385508,0.010210545733571053
1.7294975823960028e+18,-0.009809396229684353,0.002885531634092331,0.008049016818404198
1.729497582405003e+18,-0.011266167275607586,0.004463061690330505,0.0075390515848994255
1.7294975824110031e+18,-0.014524705708026886,0.004074641037732363,0.007570871151983738
1.7294975824200033e+18,-0.01238888967782259,0.0011920630931854248,0.010026500560343266
1.7294975824290035e+18,-0.013555489480495453,0.001986198127269745,0.010092509910464287
1.7294975824380037e+18,-0.014443939551711082,-0.00026733800768852234,0.010203734040260315
1.729497582447004e+18,-0.01667940244078636,0.0022145239636301994,0.008671791292726994
1.729497582456004e+18,-0.015631886199116707,0.0011248558294028044,0.00698716938495636
1.7294975824650043e+18,-0.0164839718490839,0.002730142790824175,0.00924512930214405
1.7294975824710044e+18,-0.017081698402762413,0.0020090052857995033,0.009916276670992374
1.7294975824800046e+18,-0.021249473094940186,0.003074375446885824,0.010666495189070702
1.7294975824890048e+18,-0.01756041869521141,0.0019417372532188892,0.0113764563575387
1.729497582498005e+18,-0.01819085143506527,0.0023705956991761923,0.006087610498070717
1.7294975825070052e+18,-0.016589052975177765,0.0038648785557597876,0.006054009310901165
1.7294975825130053e+18,-0.015140634030103683,0.001975339138880372,0.005614943336695433
1.7294975825220055e+18,-0.014310687780380249,0.0039906310848891735,0.009003177285194397
1.7294975825310057e+18,-0.015584814362227917,0.002401080448180437,0.00698023522272706
1.729497582540006e+18,-0.015845749527215958,0.004812673665583134,0.0071398792788386345
1.729497582546006e+18,-0.01492083165794611,0.002442841650918126,0.0067386929877102375
1.7294975825550062e+18,-0.019676266238093376,0.0029804236255586147,0.007653358392417431
1.7294975825640064e+18,-0.021200552582740784,0.00010417099110782146,0.007025530561804771
1.7294975825700065e+18,-0.02134193293750286,0.0031457608565688133,0.006406765431165695
1.7294975825790067e+18,-0.02175760082900524,0.005425767973065376,0.005183003842830658
1.729497582588007e+18,-0.016703587025403976,0.005223514046519995,0.00947580486536026
1.729497582597007e+18,-0.012837345711886883,0.0069273910485208035,0.00451611028984189
1.7294975826030072e+18,-0.012908057309687138,0.005770730786025524,0.006365721579641104
1.7294975826120074e+18,-0.013206849806010723,0.007191852200776339,0.006726556457579136
1.7294975826210076e+18,-0.015174167230725288,0.006139619741588831,0.007669060956686735
1.7294975826270077e+18,-0.015616878867149353,0.005325209349393845,0.006480366922914982
1.729497582636008e+18,-0.02022785320878029,0.005374860018491745,0.007212372496724129
1.7294975826450081e+18,-0.015988968312740326,0.008486056700348854,0.00306558795273304
1.7294975826540083e+18,-0.018484141677618027,0.007625391706824303,0.007901635020971298
1.7294975826630085e+18,-0.014579478651285172,0.011339751072227955,0.006125025451183319
1.7294975826690086e+18,-0.015680212527513504,0.01293636392802,0.007345664314925671
1.7294975826780088e+18,-0.013846026733517647,0.011435151100158691,0.006977241486310959
1.729497582687009e+18,-0.015792766585946083,0.00899796187877655,0.004265571944415569
1.7294975826930092e+18,-0.013467596843838692,0.0071802446618676186,0.0017896390054374933
1.7294975827020093e+18,-0.016239434480667114,0.011105736717581749,0.0062746405601501465
1.7294975827110095e+18,-0.020141735672950745,0.009720070287585258,0.006259918212890625
1.7294975827170097e+18,-0.017799897119402885,0.010494927875697613,0.001917919609695673
1.7294975827260099e+18,-0.01845463179051876,0.01112139131873846,0.00451413681730628
1.72949758273501e+18,-0.01865631714463234,0.015572736971080303,0.004553555510938168
1.7294975827410102e+18,-0.015192896127700806,0.013979699462652206,0.005696792621165514
1.7294975827500104e+18,-0.01481105200946331,0.012289946898818016,0.004979880526661873
1.7294975827590106e+18,-0.01241070032119751,0.01275511085987091,0.004184475634247065
1.7294975827680108e+18,-0.012012401595711708,0.011266155168414116,0.005426756571978331
1.729497582774011e+18,-0.012614141218364239,0.009997626766562462,0.0032740430906414986
1.729497582783011e+18,-0.015797220170497894,0.012859324924647808,0.004375086631625891
1.7294975827920113e+18,-0.020977746695280075,0.011089019477367401,0.004104834981262684
1.7294975828010115e+18,-0.01930159144103527,0.008597729727625847,0.008260391652584076
1.7294975828100116e+18,-0.019552845507860184,0.013331834226846695,0.0018770743627101183
1.7294975828160118e+18,-0.01990414783358574,0.012846463359892368,0.00310532096773386
1.729497582825012e+18,-0.019535865634679794,0.0103732505813241,0.0034073609858751297
1.7294975828340122e+18,-0.01563430204987526,0.009637313894927502,0.0008869003504514694
1.7294975828400123e+18,-0.016836417838931084,0.009674555622041225,0.0036534988321363926
1.7294975828490125e+18,-0.01845449209213257,0.008176703937351704,0.003809836460277438
1.7294975828580127e+18,-0.017949536442756653,0.006465769838541746,0.001933282008394599
1.7294975828640128e+18,-0.02112782560288906,0.010622086003422737,0.0010928994743153453
1.729497582873013e+18,-0.0235451553016901,0.009579570963978767,0.0024563013575971127
1.7294975828820132e+18,-0.021058524027466774,0.011919288896024227,0.003734538797289133
1.7294975828880133e+18,-0.022355424240231514,0.011663409881293774,0.0017496434738859534
1.7294975828970135e+18,-0.016735954210162163,0.01027233898639679,0.0028218328952789307
1.7294975829030136e+18,-0.020932430401444435,0.008816747926175594,0.0027230787090957165
1.7294975829120138e+18,-0.01985916681587696,0.009176238439977169,0.004392835311591625
1.729497582921014e+18,-0.01789736934006214,0.008307626470923424,0.0004514741012826562
1.7294975829300142e+18,-0.019491709768772125,0.0023577576503157616,0.0012559848837554455
1.7294975829390144e+18,-0.020991889759898186,0.007227486930787563,-0.0011421982198953629
1.7294975829480146e+18,-0.021586520597338676,0.008050576783716679,0.0018033554079011083
1.7294975829540147e+18,-0.024297485128045082,0.010269739665091038,0.0013396312715485692
1.729497582963015e+18,-0.01756456308066845,0.01065145805478096,0.0018329551676288247
1.729497582972015e+18,-0.020078562200069427,0.011377205140888691,0.0017801637295633554
1.7294975829810153e+18,-0.02300519496202469,0.011042376048862934,-0.0014877907233312726
1.7294975829930156e+18,-0.024652531370520592,0.009360793977975845,0.001076323096640408
1.7294975829990157e+18,-0.025716640055179596,0.011270751245319843,0.0012556756846606731
1.729497583008016e+18,-0.025939662009477615,0.012488149106502533,0.0008993889205157757
1.729497583017016e+18,-0.023216428235173225,0.011456131003797054,0.0013012002455070615
1.7294975830230162e+18,-0.021842878311872482,0.011096034198999405,-7.958174683153629e-05
1.7294975830320164e+18,-0.022940929979085922,0.009744036942720413,0.0023725663777440786
1.7294975830380165e+18,-0.02237696573138237,0.01316336914896965,0.0014586817706003785
1.7294975830470167e+18,-0.02568972483277321,0.011676662601530552,0.003872767323628068
1.7294975830530168e+18,-0.021920645609498024,0.01197242084890604,0.001089582685381174
1.729497583062017e+18,-0.026214782148599625,0.010199146345257759,0.002840228844434023
1.7294975830710172e+18,-0.02844719961285591,0.014508054591715336,0.0033089215867221355
1.7294975830770173e+18,-0.02695397660136223,0.01137909758836031,0.001024206867441535
1.7294975830860175e+18,-0.024028591811656952,0.007625957950949669,0.0018941671587526798
1.7294975830950177e+18,-0.02077111229300499,0.012199915945529938,-0.0011998501140624285
1.7294975831010179e+18,-0.02103288657963276,0.011741979978978634,0.0021732228342443705
1.729497583110018e+18,-0.026297040283679962,0.008860543370246887,-0.00025904440553858876
1.7294975831190182e+18,-0.024445319548249245,0.011805236339569092,0.0014344524824991822
1.7294975831280184e+18,-0.027952449396252632,0.013594478368759155,0.001030057086609304
1.7294975831340186e+18,-0.02764628455042839,0.008833848871290684,-0.0011605871841311455
1.7294975831430188e+18,-0.027459269389510155,0.014465250074863434,0.0009535099379718304
1.729497583152019e+18,-0.02892320044338703,0.008496364578604698,8.645205525681376e-06
1.729497583158019e+18,-0.026669273152947426,0.01091647706925869,0.0004793055704794824
1.7294975831670193e+18,-0.022733177989721298,0.009173857979476452,-0.001070007449015975
1.7294975831760195e+18,-0.023924941197037697,0.010915780439972878,-0.00018313401960767806
1.7294975831850196e+18,-0.02429877035319805,0.010476724244654179,-0.0008256641449406743
1.7294975831940198e+18,-0.023256316781044006,0.012352686375379562,0.002274090191349387
1.72949758320302e+18,-0.027697088196873665,0.01427579578012228,-0.0006753342458978295
1.7294975832150203e+18,-0.029201839119195938,0.014915097504854202,0.001890587736852467
1.7294975832210204e+18,-0.0286125335842371,0.01402535755187273,0.0008498108945786953
1.7294975832300206e+18,-0.025984955951571465,0.01486014761030674,-0.0016775629483163357
1.7294975832390208e+18,-0.028354723006486893,0.01404581032693386,-0.0002365658147027716
1.729497583248021e+18,-0.02732333168387413,0.01280733197927475,0.00070057442644611
1.7294975832570212e+18,-0.024865079671144485,0.012857137247920036,-0.0006228346610441804
1.7294975832660214e+18,-0.027192289009690285,0.012754508294165134,-0.0004430828557815403
1.7294975832720215e+18,-0.025399990379810333,0.008654408156871796,-1.0531977750360966e-05
1.7294975832810217e+18,-0.029156910255551338,0.010880324058234692,0.001757154706865549
1.729497583290022e+18,-0.03076467104256153,0.010408114641904831,0.0011428222060203552
1.729497583299022e+18,-0.024138320237398148,0.01292453519999981,-0.0003289812011644244
1.7294975833080223e+18,-0.024355078116059303,0.010884996503591537,-0.000855684862472117
1.7294975833170225e+18,-0.020236235111951828,0.01056299265474081,0.0013969256542623043
1.7294975833230226e+18,-0.018061373382806778,0.01170114055275917,0.001006143749691546
1.7294975833320228e+18,-0.021427186205983162,0.008394607342779636,0.0011832412565127015
1.729497583341023e+18,-0.021915636956691742,0.009456455707550049,0.0005411778693087399
1.7294975833500232e+18,-0.02486111782491207,0.01264137588441372,-0.0010673525976017118
1.7294975833560233e+18,-0.024389998987317085,0.009862012229859829,0.001015486428514123
1.7294975833650235e+18,-0.022932568565011024,0.012260590679943562,-0.0015775954816490412
1.7294975833740237e+18,-0.022606922313570976,0.010033522732555866,-0.0012121056206524372
1.7294975833800238e+18,-0.020775659009814262,0.01034991443157196,-0.002885101828724146
1.729497583389024e+18,-0.023216594010591507,0.014982035383582115,-0.0026824309024959803
1.7294975833980242e+18,-0.02007596381008625,0.015150532126426697,0.0007780315936543047
1.7294975834070244e+18,-0.021533625200390816,0.015132990665733814,-0.0008292529382742941
1.7294975834160246e+18,-0.02459881640970707,0.013835820369422436,0.0012034147512167692
1.7294975834220247e+18,-0.022967875003814697,0.015651926398277283,0.001726394984871149
1.729497583431025e+18,-0.025321122258901596,0.014217620715498924,-0.0038850526325404644
1.729497583440025e+18,-0.021093271672725677,0.012818437069654465,-0.0015774364583194256
1.7294975834490253e+18,-0.022516842931509018,0.011291414499282837,0.0005527481553144753
1.7294975834580255e+18,-0.020997919142246246,0.015150017105042934,5.348445847630501e-05
1.7294975834670257e+18,-0.02116650715470314,0.015004522167146206,-0.0008339378400705755
1.7294975834760259e+18,-0.019658757373690605,0.012288860976696014,-0.0008401845116168261
1.729497583485026e+18,-0.01870739832520485,0.00947803258895874,-0.0001107982243411243
1.7294975834940262e+18,-0.02057127095758915,0.012034223414957523,0.0003019734285771847
1.7294975835030264e+18,-0.01838233880698681,0.010406089015305042,-0.0018910428043454885
1.7294975835090266e+18,-0.01656557433307171,0.013341854326426983,-0.0007699442212469876
1.7294975835180268e+18,-0.015476460568606853,0.014724445529282093,-0.00048050726763904095
1.729497583527027e+18,-0.01783045381307602,0.011014551855623722,-0.00018520792946219444
1.7294975835360271e+18,-0.016427164897322655,0.010868522338569164,-0.0013834796845912933
1.7294975835450273e+18,-0.021562037989497185,0.010505745187401772,-0.0015461337752640247
1.7294975835540275e+18,-0.019959747791290283,0.008331401273608208,0.0015408883336931467
1.7294975835630277e+18,-0.01956789754331112,0.00634783087298274,-0.000498948444146663
1.729497583572028e+18,-0.018568018451333046,0.007988180965185165,-0.0017432007007300854
1.729497583581028e+18,-0.013615263625979424,0.0074680522084236145,2.7729198336601257e-05
1.7294975835900283e+18,-0.016559366136789322,0.01184916589409113,0.0007227938622236252
1.7294975835990285e+18,-0.017787791788578033,0.013852011412382126,0.0009120117174461484
1.7294975836050286e+18,-0.0177068542689085,0.015750814229249954,-0.0021870816126465797
1.7294975836140288e+18,-0.017468983307480812,0.01390651986002922,-0.0020110830664634705
1.729497583623029e+18,-0.014664581045508385,0.011539950966835022,-0.0004747180500999093
1.7294975836320292e+18,-0.015365814790129662,0.01197134330868721,0.0007836260483600199
1.7294975836410294e+18,-0.01357659138739109,0.011337950825691223,-0.002776078414171934
1.7294975836500296e+18,-0.015418107621371746,0.010273798368871212,-0.0020449766889214516
1.7294975836560297e+18,-0.01174977794289589,0.011703797616064548,-7.143436232581735e-05
1.72949758366503e+18,-0.01625186949968338,0.010565482079982758,-0.0021093159448355436
1.72949758367403e+18,-0.014791685156524181,0.014721841551363468,-0.00033886951860040426
1.7294975836830303e+18,-0.011369234882295132,0.011200960725545883,-0.003951117396354675
1.7294975836920305e+18,-0.007518801838159561,0.008030572906136513,-0.002573649864643812
1.7294975837010307e+18,-0.011458136141300201,0.005040440242737532,0.0035690120421350002
1.7294975837100308e+18,-0.00951005332171917,0.003092191182076931,-0.0024646841920912266
1.729497583719031e+18,-0.009690219536423683,0.004733223933726549,-0.001759628765285015
1.7294975837250312e+18,-0.011839088052511215,0.0028221632819622755,-0.0036783660762012005
1.7294975837340314e+18,-0.012955031357705593,0.004763821139931679,2.135871909558773e-06
1.7294975837430316e+18,-0.011426083743572235,0.007349981460720301,-0.0010298376437276602
1.7294975837520317e+18,-0.01547629851847887,0.008024197071790695,-0.0018653474980965257
1.729497583761032e+18,-0.010681794956326485,0.00646586949005723,0.0008727273670956492
1.729497583770032e+18,-0.01240685023367405,0.00969750713557005,-0.0011160965077579021
1.7294975837760323e+18,-0.007042810320854187,0.009175501763820648,-0.0017470628954470158
1.7294975837850324e+18,-0.003958404064178467,0.007999792695045471,0.001225731917656958
1.7294975837940326e+18,-0.01017407514154911,0.0035733585245907307,-0.005433632060885429
1.7294975838030328e+18,-0.011159934103488922,0.008475987240672112,0.00026788481045514345
1.729497583812033e+18,-0.014081726782023907,0.004870056640356779,-0.0004994390183128417
1.7294975838180332e+18,-0.007445765193551779,0.00948182214051485,-0.004511702340096235
1.7294975838270333e+18,-0.01206282526254654,0.010688205249607563,-0.0019406771752983332
1.7294975838360335e+18,-0.011661534197628498,0.010480483062565327,-0.001506790635176003
1.7294975838420337e+18,-0.009346382692456245,0.0087857935577631,-0.002028385177254677
1.7294975838510339e+18,-0.00701122684404254,0.007277751341462135,-0.001603969605639577
1.729497583860034e+18,-0.007871526293456554,0.009058620780706406,-0.00013434002175927162
1.7294975838660342e+18,-0.010653562843799591,0.0076240189373493195,-0.0034945185761898756
1.7294975838750344e+18,-0.007743363734334707,0.006035409402102232,-0.0003718663938343525
1.7294975838840346e+18,-0.005846470594406128,0.008947024121880531,-0.0038260449655354023
1.7294975838930348e+18,-0.010331759229302406,0.007791303563863039,-0.002943451050668955
1.729497583902035e+18,-0.006436910014599562,0.007525337859988213,-0.0018113129772245884
1.7294975839110351e+18,-0.006942064967006445,0.009092677384614944,-0.0032780980691313744
1.7294975839170353e+18,-0.004322648048400879,0.007242661900818348,-0.00038498773938044906
1.7294975839260355e+18,-0.004418298602104187,0.011383491568267345,-0.0012538209557533264
1.7294975839320356e+18,-0.009891738183796406,0.010734478943049908,-0.0012353069614619017
1.7294975839410358e+18,-0.007314974907785654,0.010224300436675549,-0.000767734250985086
1.729497583947036e+18,-0.007308164611458778,0.007511213421821594,-0.0021391636691987514
1.729497583956036e+18,-0.0032956725917756557,0.006560536101460457,-0.0009580308105796576
1.7294975839620362e+18,-0.0038876482285559177,0.005451016593724489,-0.00301620876416564
1.7294975839710364e+18,-0.0040116808377206326,0.004056372679769993,-0.0001168383751064539
1.7294975839770365e+18,-0.005077787674963474,0.009633060544729233,0.001864073215983808
1.7294975839860367e+18,-0.005175646394491196,0.005406282842159271,-0.00284253410063684
1.729497583995037e+18,-0.003944587893784046,0.007987532764673233,-0.00103562546428293
1.729497584001037e+18,-0.0028119715861976147,0.007865052670240402,-0.00028449564706534147
1.7294975840100372e+18,-0.002835384337231517,0.0033287156838923693,0.0007481848588213325
1.7294975840160374e+18,-0.0005309745902195573,0.0029276120476424694,-0.002215652260929346
1.7294975840250376e+18,-0.0013993894681334496,0.0021702004596590996,-0.0022621832322329283
1.7294975840310377e+18,-0.003724474925547838,0.0034296754747629166,-4.4851447455585e-05
1.729497584040038e+18,-0.005026728846132755,0.0009154287399724126,-0.003140771761536598
1.729497584049038e+18,-0.005586603190749884,-3.969529643654823e-05,-0.002805650234222412
1.7294975840550382e+18,-0.004780246876180172,0.00266164424829185,-0.002343654166907072
1.7294975840640384e+18,-0.005297135561704636,0.0031096814200282097,0.0004126105923205614
1.7294975840730386e+18,-0.0011928454041481018,-2.9414601158350706e-05,0.00020398839842528105
1.7294975840820388e+18,-0.0024581754114478827,0.0020999149419367313,-0.0012984360801056027
1.729497584088039e+18,0.0016652016201987863,-0.0019977763295173645,2.352055162191391e-06
1.729497584097039e+18,-0.0029458398930728436,-0.002845232142135501,3.4153927117586136e-05
1.7294975841030392e+18,-0.001868716673925519,-0.0015670375432819128,-0.0012817862443625927
1.7294975841120394e+18,-0.003526348853483796,-0.0038824775256216526,-0.0023107570596039295
1.7294975841210396e+18,0.00016219797544181347,-0.0009709291625767946,-0.0030594104900956154
1.7294975841300398e+18,0.0010342278983443975,-0.0030068159103393555,-0.0014350891578942537
1.72949758413604e+18,0.0014607651391997933,-0.004795835819095373,-0.001226460444740951
1.7294975841450401e+18,0.00047287880443036556,-0.0010855747386813164,-0.001121491426602006
1.7294975841510403e+18,0.003729637246578932,-0.002880147425457835,-0.00011692591942846775
1.7294975841600404e+18,-4.058238118886948e-06,-0.0027670226991176605,-0.0012101291213184595
1.7294975841690406e+18,-0.0005677686422131956,-0.0022367872297763824,0.0006892692763358355
1.7294975841750408e+18,-0.0010481993667781353,-0.001412594923749566,0.000776349101215601
1.729497584181041e+18,-0.0031775350216776133,-0.00408509373664856,-0.002826536074280739
1.729497584190041e+18,9.372568456456065e-05,-0.004881573840975761,-0.002941612619906664
1.7294975841990413e+18,0.0035401354543864727,-0.00357952993363142,0.003132091835141182
1.7294975842080415e+18,0.0027522332966327667,-0.0019035151926800609,-0.0023003309033811092
1.7294975842170417e+18,-0.0002599055878818035,-0.003802821971476078,0.0019122777739539742
1.7294975842230418e+18,0.0019186747958883643,-0.001230550929903984,-0.0024801096878945827
1.729497584232042e+18,0.003675354178994894,2.1461746655404568e-06,-0.0021967138163745403
1.7294975842410422e+18,0.002223513089120388,-0.0025359466671943665,-0.0017523621208965778
1.7294975842500424e+18,0.00032407522667199373,-0.002798226894810796,-0.0022766748443245888
1.7294975842560425e+18,0.0018178143072873354,-0.00232435273937881,-0.0005690131220035255
1.7294975842650427e+18,-0.001082514994777739,-0.0039026441518217325,-0.00030685652745887637
1.7294975842710428e+18,0.0031857038848102093,-0.002636271994560957,-0.0002580903237685561
1.729497584280043e+18,0.004979487042874098,-0.002661299891769886,-0.0007063942612148821
1.7294975842890432e+18,0.004856584593653679,-0.0059473090805113316,-0.0014868825674057007
1.7294975842950433e+18,0.0038971605245023966,-0.005584220867604017,-0.0017340050544589758
1.7294975843040435e+18,0.0038677591364830732,-0.0021724761463701725,-0.0037942344788461924
1.7294975843130437e+18,0.0029910937882959843,-0.002956624608486891,-0.0006282866233959794
1.729497584322044e+18,0.0032280455343425274,0.0010584696428850293,0.0009218970080837607
1.729497584331044e+18,0.003589377738535404,0.00015848921611905098,-0.0005776334437541664
1.7294975843400443e+18,0.00597074069082737,-0.0029074950143694878,-0.0016172286123037338
1.7294975843490445e+18,0.003667589742690325,-0.005197388119995594,-0.001057396992109716
1.7294975843550446e+18,0.008551258593797684,-0.005776509642601013,-0.0006916506681591272
1.7294975843640448e+18,0.0056130047887563705,-0.005440843757241964,-0.0026055299676954746
1.729497584373045e+18,0.002315883059054613,-0.004714741371572018,0.001378510263748467
1.7294975843820452e+18,0.007518002763390541,-0.003892514854669571,-0.00299045629799366
1.7294975843880453e+18,0.002348726149648428,-0.0014800558565184474,6.82855024933815e-05
1.7294975843970455e+18,0.004905074834823608,-0.0006606255192309618,0.00037515396252274513
1.7294975844060457e+18,0.00607452355325222,-0.0033734089229255915,-7.973215542733669e-05
1.729497584415046e+18,0.007121470291167498,-0.0046041542664170265,-0.0008730413392186165
1.729497584421046e+18,0.010336806997656822,-0.007542496547102928,0.0024761860258877277
1.7294975844300462e+18,0.012110778130590916,-0.009569287300109863,-0.003979549277573824
1.7294975844390464e+18,0.008866856805980206,-0.0041634999215602875,-0.0020641384180635214
1.7294975844480466e+18,0.008989714086055756,-0.005244070664048195,-0.0032893409952521324
1.7294975844570468e+18,0.008061090484261513,-0.004435507580637932,-0.0013751405058428645
1.729497584463047e+18,0.004035294055938721,-0.003813454881310463,-0.0015923832543194294
1.729497584472047e+18,0.009824497625231743,-0.005003619007766247,-0.0009584917570464313
1.7294975844810473e+18,0.007208839058876038,-0.004172696266323328,0.00037804676685482264
1.7294975844900475e+18,0.010966716334223747,-0.005362494848668575,-0.001016269437968731
1.7294975844960476e+18,0.009519267827272415,-0.004270949400961399,-0.001353134517557919
1.7294975845050478e+18,0.013409774750471115,-0.0035789201501756907,-0.0035997896920889616
1.729497584511048e+18,0.012797572650015354,0.0004482294898480177,-0.0017410044092684984
1.729497584520048e+18,0.008375372737646103,-0.0013324267929419875,-0.0023746939841657877
1.7294975845290483e+18,0.008237744681537151,-0.00385647127404809,-0.002105375286191702
1.7294975845350484e+18,0.008103614673018456,-0.0005959304980933666,0.00015479640569537878
1.7294975845440486e+18,0.008696709759533405,-0.0012034598039463162,-0.00019900168990716338
1.7294975845500488e+18,0.011883280239999294,-0.00345828989520669,-0.002580856904387474
1.729497584559049e+18,0.014674252830445766,-0.00517277792096138,-0.0032914874609559774
1.7294975845680492e+18,0.013997318223118782,-0.004748641513288021,-0.0008187243947759271
1.7294975845770493e+18,0.014561550691723824,-0.0024169820826500654,-0.001453150762245059
1.7294975845830495e+18,0.016083069145679474,-2.12531303986907e-05,-0.0018493540119379759
1.7294975845920497e+18,0.011996385641396046,0.0019989702850580215,-0.0035368534736335278
1.7294975845980498e+18,0.009445424191653728,-0.0035426346585154533,-0.0023076168727129698
1.72949758460705e+18,0.007904480211436749,-0.003412306774407625,-0.0023803196381777525
1.7294975846160502e+18,0.011855673044919968,-0.003512557130306959,-0.002269740216434002
1.7294975846250504e+18,0.012075272388756275,-0.004724207799881697,-0.0002031989279203117
1.7294975846310505e+18,0.014189030975103378,-0.004740325268357992,-0.002284943126142025
1.7294975846400507e+18,0.012901660054922104,-0.003882588353008032,-0.0015663010999560356
1.729497584649051e+18,0.01116880588233471,-0.0011942321434617043,-0.0016484649386256933
1.729497584658051e+18,0.009363129734992981,-0.0034516823943704367,-0.00049495481653139
1.7294975846640512e+18,0.013352643698453903,-0.004938611760735512,-0.0015991299878805876
1.7294975846730514e+18,0.013203166425228119,-0.006286747753620148,-0.0013707089237868786
1.7294975846820516e+18,0.010067068971693516,-0.010406101122498512,-0.0012173597933724523
1.7294975846910518e+18,0.010391014628112316,-0.007435278035700321,-0.0011671861866489053
1.729497584697052e+18,0.01199934259057045,-0.008584796451032162,-0.0039284429512917995
1.729497584706052e+18,0.011679698713123798,-0.004760334733873606,-0.0005126128671690822
1.7294975847150523e+18,0.012236954644322395,-0.00207686610519886,0.00024639652110636234
1.7294975847210524e+18,0.013511259108781815,-0.0065318020060658455,-8.626130875200033e-05
1.7294975847300526e+18,0.01075892522931099,-0.00618614349514246,-0.0024632499553263187
1.7294975847390528e+18,0.013761410489678383,-0.0059415907599031925,-0.0012324738781899214
1.729497584748053e+18,0.009057659655809402,-0.007074335124343634,-0.00030906108440831304
1.7294975847570532e+18,0.012329011224210262,-0.006217400077730417,-0.002882234286516905
1.7294975847630533e+18,0.009400706738233566,-0.00789199210703373,0.001661861315369606
1.7294975847750536e+18,0.010501803830265999,-0.006777056958526373,-0.0022656372748315334
1.7294975847840538e+18,0.012063232250511646,-0.007784002926200628,-8.7289372459054e-06
1.729497584793054e+18,0.012064897455275059,-0.008288949728012085,-0.00266480166465044
1.729497584799054e+18,0.01279531791806221,-0.006452073808759451,-0.0013892871793359518
1.7294975848080543e+18,0.01192866824567318,-0.0032811560668051243,0.0003411700017750263
1.7294975848170545e+18,0.007876066491007805,-0.005914782173931599,-0.0033162091858685017
1.7294975848230546e+18,0.00992047693580389,-0.004964291118085384,-0.0009265889530070126
1.7294975848320548e+18,0.010675587691366673,-0.009423883631825447,-0.0026189659256488085
1.729497584841055e+18,0.01206448208540678,-0.00965573638677597,-0.002711615990847349
1.7294975848500552e+18,0.01409055944532156,-0.007521122694015503,0.004107986576855183
1.7294975848560553e+18,0.014195115305483341,-0.0048185898922383785,8.662755135446787e-06
1.7294975848650555e+18,0.01453390158712864,-0.007460827473551035,-0.002353051444515586
1.7294975848710556e+18,0.014117853716015816,-0.006870727986097336,-0.000892210693564266
1.7294975848800558e+18,0.01318155974149704,-0.009867195039987564,-0.00012333359336480498
1.729497584889056e+18,0.013154955580830574,-0.006107141263782978,-0.002699375618249178
1.7294975848950561e+18,0.011277039535343647,-0.007807501591742039,0.0007179196691140532
1.7294975849040563e+18,0.013721492141485214,-0.006777096539735794,-0.002602440072223544
1.7294975849130565e+18,0.01307248417288065,-0.003402561182156205,-0.00039319018833339214
1.7294975849220567e+18,0.014271603897213936,-0.0014598497655242682,-0.003585629630833864
1.7294975849280568e+18,0.013947001658380032,-0.0012087260838598013,-0.0010492311557754874
1.729497584937057e+18,0.014985157176852226,-0.002469743834808469,-0.0012255182955414057
1.7294975849460572e+18,0.012588350102305412,-0.009805139154195786,-0.0006576066953130066
1.7294975849550574e+18,0.010255735367536545,-0.008221135474741459,0.00033585558412596583
1.7294975849610575e+18,0.01465580239892006,-0.007362546399235725,0.0027012100908905268
1.7294975849730578e+18,0.013411428779363632,-0.008430168963968754,-0.003510192036628723
1.729497584982058e+18,0.01373481098562479,-0.006875642575323582,0.0011687029618769884
1.7294975849910582e+18,0.014338781125843525,-0.0047682649455964565,0.002719341078773141
1.7294975849970583e+18,0.01223439909517765,-0.005143521819263697,-0.0012234050082042813
1.7294975850090586e+18,0.009990929625928402,-0.0028323205187916756,-0.004618298262357712
1.7294975850180588e+18,0.013732055202126503,-0.00758862029761076,-9.919475996866822e-05
1.729497585027059e+18,0.012462574988603592,-0.0068053738214075565,0.001544036203995347
1.7294975850360591e+18,0.013401379808783531,-0.00466869305819273,-0.0033803307451307774
1.7294975850450593e+18,0.014274255372583866,-0.004168657585978508,-0.0019459626637399197
1.7294975850510595e+18,0.01433657482266426,-0.007053036242723465,1.468166010454297e-05
1.7294975850600596e+18,0.012602578848600388,-0.005596626084297895,-0.001640942646190524
1.7294975850690598e+18,0.010656814090907574,-0.0068177394568920135,-0.0019420490134507418
1.72949758507806e+18,0.011708077043294907,-0.008332425728440285,0.0029483705293387175
1.7294975850870602e+18,0.009392846375703812,-0.00578618748113513,-0.0007309853099286556
1.7294975850960604e+18,0.009061736054718494,-0.008501404896378517,-0.001830897992476821
1.7294975851020605e+18,0.01210903748869896,-0.006842939183115959,-0.0007774342084303498
1.7294975851110607e+18,0.01351024117320776,-0.0071016717702150345,-0.0013762105954810977
1.729497585120061e+18,0.015128176659345627,-0.006067135836929083,0.00032890663715079427
1.729497585126061e+18,0.01837443932890892,-0.009580200538039207,-0.0002625203342176974
1.7294975851350612e+18,0.017618579789996147,-0.0036268839612603188,-0.0005714576691389084
1.7294975851440614e+18,0.018909279257059097,-0.0051723141223192215,-0.00042880926048383117
1.7294975851500616e+18,0.017757229506969452,-0.008320258930325508,0.0003919315058737993
1.7294975851590618e+18,0.013971122913062572,-0.006735931150615215,-0.0030848169699311256
1.729497585168062e+18,0.017681114375591278,-0.011433112435042858,-0.0010864672949537635
1.7294975851770621e+18,0.01670202612876892,-0.011167490854859352,-0.0020250403322279453
1.7294975851860623e+18,0.01886064000427723,-0.009744907729327679,0.0004816231084987521
1.7294975851920625e+18,0.020013058558106422,-0.0046944087371230125,-0.004178216680884361
1.7294975852010627e+18,0.020292721688747406,-0.006145718973129988,-0.0025961874052882195
1.7294975852100628e+18,0.018801994621753693,-0.0059597366489470005,-0.004751035012304783
1.729497585216063e+18,0.019140973687171936,-0.002060895785689354,0.0012653828598558903
1.7294975852250632e+18,0.019017696380615234,-0.007101238705217838,-0.001666557276621461
1.7294975852340634e+18,0.018779750913381577,-0.010772707872092724,-0.000747793703339994
1.7294975852430636e+18,0.01142581645399332,-0.0076914941892027855,-0.0017233650432899594
1.7294975852490637e+18,0.013947123661637306,-0.009717115201056004,-0.0010797735303640366
1.729497585258064e+18,0.01590794324874878,-0.008203009143471718,-0.0017643501050770283
1.729497585267064e+18,0.014193732291460037,-0.007590609136968851,0.0004370114183984697
1.7294975852760643e+18,0.013540336862206459,-0.005403368268162012,0.0003216741606593132
1.7294975852850644e+18,0.016218772158026695,-0.007668653503060341,0.0002615310368128121
1.7294975852940646e+18,0.01899036392569542,-0.0052549950778484344,-1.0637682862579823e-05
1.7294975853030648e+18,0.015686867758631706,-0.007475179620087147,-0.0015615707961842418
1.729497585309065e+18,0.01314820908010006,-0.007854164578020573,0.0011979872360825539
1.7294975853180652e+18,0.01146168913692236,-0.008317464031279087,-0.0005730834091082215
1.7294975853270653e+18,0.01315731555223465,-0.009401204064488411,-0.0011839979561045766
1.7294975853330655e+18,0.00864413008093834,-0.00815605465322733,-0.001715926919132471
1.7294975853420657e+18,0.013151354156434536,-0.004353026859462261,-0.0020121694542467594
1.7294975853480658e+18,0.01212542038410902,-0.006755654700100422,-0.0019817582797259092
1.729497585357066e+18,0.014665612950921059,-0.008650722913444042,-0.0010719058336690068
1.7294975853660662e+18,0.012389658950269222,-0.006714843213558197,-0.0035732416436076164
1.7294975853720663e+18,0.012067479081451893,-0.009444423019886017,0.0008771725697442889
1.7294975853810665e+18,0.012871707789599895,-0.007166549097746611,0.00017065019346773624
1.7294975853900667e+18,0.010739991441369057,-0.006947942078113556,-0.00047894768067635596
1.7294975853960668e+18,0.012013152241706848,-0.006600451655685902,-4.554935730993748e-05
1.729497585405067e+18,0.008596810512244701,-0.008738800883293152,0.0016573832836002111
1.7294975854110671e+18,0.011908583343029022,-0.0068700965493917465,-0.002906137378886342
1.7294975854200673e+18,0.009182880632579327,-0.00888170674443245,-0.0013439829926937819
1.7294975854260675e+18,0.008412383496761322,-0.00949491560459137,-0.0009927659993991256
1.7294975854350676e+18,0.008500240743160248,-0.009639354422688484,0.0006143207428976893
1.7294975854440678e+18,0.007757566869258881,-0.010448151268064976,-0.002171554369851947
1.729497585453068e+18,0.009620346128940582,-0.00884721614420414,-3.6567915230989456e-05
1.7294975854620682e+18,0.0091716218739748,-0.007934730499982834,-0.0016343786846846342
1.7294975854680684e+18,0.017245303839445114,-0.009301042184233665,0.0012260000221431255
1.7294975854770685e+18,0.014897827990353107,-0.01039508730173111,-0.002355745993554592
1.7294975854860687e+18,0.01195993460714817,-0.008152177557349205,-0.0021812207996845245
1.729497585498069e+18,0.00957377627491951,-0.006163580808788538,-0.00042498274706304073
1.729497585504069e+18,0.01069243997335434,-0.010778907686471939,-0.0032134915236383677
1.7294975855130693e+18,0.00799668487161398,-0.008400846272706985,-0.004128568340092897
1.7294975855220695e+18,0.01313556358218193,-0.011087691411376,-0.0022463181521743536
1.7294975855280696e+18,0.01598501391708851,-0.012948304414749146,-0.0026205405592918396
1.7294975855370698e+18,0.018202122300863266,-0.008580348454415798,9.213539306074381e-05
1.72949758554607e+18,0.014654570259153843,-0.008660834282636642,-0.0020043333061039448
1.7294975855520701e+18,0.014778210781514645,-0.006166717037558556,-0.0005972976796329021
1.7294975855610703e+18,0.013509641401469707,-0.011600646190345287,0.0003393731894902885
1.7294975855670705e+18,0.00991182029247284,-0.011405311524868011,-0.0024474149104207754
1.7294975855760707e+18,0.01086804922670126,-0.009978687390685081,-0.0033043117728084326
1.7294975855820708e+18,0.0072572119534015656,-0.009959176182746887,-0.0038693337701261044
1.729497585591071e+18,0.012162732891738415,-0.008538570255041122,0.0002855750499293208
1.7294975856000712e+18,0.014713344164192677,-0.009466251358389854,-0.0002287033130414784
1.7294975856090714e+18,0.01418879721313715,-0.004492611158639193,-0.0018371852347627282
1.7294975856150715e+18,0.01410898007452488,-0.006101126782596111,-0.004125119186937809
1.7294975856240717e+18,0.015049709007143974,-0.009316775016486645,-0.0028656560461968184
1.7294975856330719e+18,0.011915547773241997,-0.010645601898431778,0.0009552715346217155
1.729497585639072e+18,0.011869714595377445,-0.008627919480204582,0.00014163751620799303
1.7294975856480722e+18,0.005361494608223438,-0.007386412005871534,-0.0012628106633201241
1.7294975856540723e+18,0.008080939762294292,-0.010173751041293144,-0.0006390028866007924
1.7294975856630725e+18,0.006913783028721809,-0.003760972060263157,0.0005583329475484788
1.7294975856720727e+18,0.006676545832306147,-0.008342438377439976,-0.00151488755363971
1.7294975856780728e+18,0.009322828613221645,-0.00784933753311634,-0.0033454024232923985
1.729497585687073e+18,0.010760667733848095,-0.00921504758298397,-0.0013647672021761537
1.7294975856960732e+18,0.01015328150242567,-0.008699189871549606,-0.002371789189055562
1.7294975857020733e+18,0.010397498495876789,-0.008123154751956463,0.0018420929554849863
1.7294975857110735e+18,0.00928029976785183,-0.007429196033626795,-0.0008932097698561847
1.7294975857200737e+18,0.011378924362361431,-0.006587560288608074,0.001045727520249784
1.7294975857260739e+18,0.009776695631444454,-0.005385969299823046,0.0006854541134089231
1.729497585735074e+18,0.009128374047577381,-0.004366814158856869,-0.0032646539621055126
1.7294975857410742e+18,0.005732471123337746,-0.005318513605743647,-0.00026214629178866744
1.7294975857500744e+18,0.003130479948595166,-0.004100625403225422,0.0012195624876767397
1.7294975857560745e+18,0.008188249543309212,-0.0064698150381445885,-0.001958112698048353
1.7294975857650747e+18,0.007657826412469149,-0.007254575379192829,-0.0021564015187323093
1.729497585774075e+18,0.009386550635099411,-0.008260361850261688,-0.002553275553509593
1.729497585780075e+18,0.007023564539849758,-0.0042387037537992,-0.002496593166142702
1.7294975857890752e+18,0.010999609716236591,-0.006793038919568062,0.00163106934633106
1.7294975857980754e+18,0.007680119946599007,-0.0058369627222418785,-0.00034870742820203304
1.7294975858040755e+18,0.007680882234126329,-0.0049186814576387405,-0.0009809790644794703
1.7294975858130757e+18,0.006354446057230234,-0.0028220240492373705,-0.002623596927151084
1.7294975858190758e+18,0.00793602503836155,-0.0011905429419130087,-0.0028398337308317423
1.729497585828076e+18,0.004456976428627968,-0.004948457237333059,0.0012442159932106733
1.7294975858370762e+18,0.007418061140924692,-0.004397160839289427,-0.003010325599461794
1.7294975858430764e+18,0.009079033508896828,-0.004964534193277359,-0.001414323691278696
1.7294975858520765e+18,0.007326497230678797,-0.008168380707502365,-0.0016248179599642754
1.7294975858610767e+18,0.008327455259859562,-0.01026526652276516,-0.001400000648573041
1.7294975858670769e+18,0.006852650549262762,-0.005319713614881039,-0.0002482698764652014
1.729497585876077e+18,0.0039606885984539986,-0.006595340557396412,-0.0002948572800960392
1.7294975858820772e+18,0.00422496534883976,-0.008042627945542336,-0.00014408561401069164
1.7294975858910774e+18,0.0031075652223080397,-0.00822440069168806,-0.0023664941545575857
1.7294975859000776e+18,0.0018619069596752524,-0.009672850370407104,-0.00030832679476588964
1.7294975859060777e+18,0.002260369947180152,-0.005278514698147774,-0.002338601741939783
1.729497585915078e+18,0.004523394629359245,-0.00642729876562953,-0.0022187712602317333
1.729497585924078e+18,0.0017344511579722166,-0.003975370898842812,0.00026352598797529936
1.7294975859330783e+18,0.004920529201626778,-0.003780712839215994,-0.00047635292867198586
1.7294975859420785e+18,0.0024470691569149494,-0.005756983999162912,-0.0028777264524251223
1.7294975859480786e+18,0.0019411012763157487,-0.0026217105332762003,-0.0010626498842611909
1.7294975859570788e+18,0.004714197013527155,-0.007563930004835129,0.0006836403044871986
1.729497585963079e+18,0.0038316715508699417,-0.00577056547626853,-0.0032096479553729296
1.729497585972079e+18,0.0037612607702612877,-0.006666812114417553,-0.00023702133330516517
1.7294975859810793e+18,0.0037164511159062386,-0.009104045107960701,-0.00012934679398313165
1.7294975859900795e+18,0.0033980703447014093,-0.009809279814362526,-0.0004571785684674978
1.7294975859960796e+18,0.0062731970101594925,-0.006617528852075338,0.00098076940048486
1.7294975860050798e+18,0.007895704358816147,-0.00480297626927495,-0.0012931288219988346
1.72949758601408e+18,0.007340904325246811,-0.0035950099118053913,-0.0003012755187228322
1.7294975860230802e+18,0.0064579397439956665,-0.00565076619386673,7.626443402841687e-05
1.7294975860320804e+18,0.005454614758491516,-0.003049649763852358,-0.002289116382598877
1.7294975860380805e+18,0.0012806951999664307,-0.003317018039524555,-2.191605744883418e-05
1.7294975860470807e+18,0.005550934933125973,-0.0029423439409583807,0.0008056678343564272
1.729497586056081e+18,0.004620959050953388,-0.002914323238655925,-0.0010405826615169644
1.729497586062081e+18,0.007808507885783911,-0.0021352041512727737,0.0019373863469809294
1.7294975860710812e+18,0.00770002044737339,-0.0011125609744340181,-0.0005140022840350866
1.7294975860800814e+18,0.008793803863227367,-0.0029896185733377934,-0.0014443623367697
1.7294975860860815e+18,0.009377216920256615,0.0020335784647613764,0.0002462334814481437
1.7294975860950817e+18,0.007291936781257391,-0.00010403338819742203,0.0013904309598729014
1.729497586104082e+18,0.008126012980937958,-0.004944345913827419,-0.0005898079834878445
1.729497586113082e+18,0.00685987900942564,-0.0027725680265575647,-0.00042133842362090945
1.7294975861190822e+18,0.00591367157176137,-0.005726532079279423,0.0011927029117941856
1.7294975861280824e+18,0.003806300926953554,-0.0020654762629419565,-0.00023245622287504375
1.7294975861370826e+18,0.005864468403160572,0.0010417232988402247,-0.002323962515220046
1.7294975861460828e+18,0.005857263691723347,0.0010856935987249017,-0.0012014274252578616
1.729497586155083e+18,0.002631661482155323,0.00038828549440950155,-0.0014706196961924434
1.7294975861610831e+18,0.00197262829169631,-0.0007976257475093007,0.00024100375594571233
1.7294975861700833e+18,-1.657940447330475e-05,-0.0014003259129822254,-0.00432248180732131
1.7294975861790835e+18,0.001987030729651451,-0.0009300353704020381,-0.0020650289952754974
1.7294975861850836e+18,0.004076591692864895,-0.002879188861697912,0.000738637987524271
1.7294975861940838e+18,0.005176210775971413,-0.003942180424928665,-0.0007098249043338001
1.729497586203084e+18,0.00334341824054718,-0.004090598784387112,0.000368521548807621
1.7294975862120842e+18,0.004143182188272476,-0.002356261480599642,0.0012521948665380478
1.7294975862210844e+18,0.0026644833851605654,0.0012991447001695633,-0.00044685957254841924
1.7294975862300846e+18,3.452191594988108e-05,-0.00116273935418576,-0.0017491268226876855
1.7294975862360847e+18,0.003783708903938532,0.0007181934779509902,0.0010036808671429753
1.729497586245085e+18,0.0017474518390372396,-0.0013372059911489487,0.00029671814991161227
1.729497586254085e+18,0.0015533106634393334,0.0002456179354339838,-0.0007670087506994605
1.7294975862630853e+18,0.004088921472430229,-0.007493828423321247,-0.00041441069333814085
1.7294975862690854e+18,0.0030390762258321047,-0.0056391432881355286,-0.0022591513115912676
1.7294975862780856e+18,0.004271437879651785,-0.006312330719083548,0.0021843707654625177
1.7294975862870858e+18,0.0030656931921839714,-0.0033657276071608067,-0.0026467752177268267
1.729497586293086e+18,0.0008704827632755041,-0.002550435485318303,0.0006569807883352041
1.7294975863020861e+18,0.002047728281468153,-0.0019452862907201052,-0.00149204907938838
1.7294975863110863e+18,-6.717606447637081e-05,7.702899165451527e-05,-0.0006400164566002786
1.7294975863170865e+18,0.004790922626852989,8.696236182004213e-05,-0.0004482398508116603
1.7294975863260867e+18,0.007610030472278595,-0.0008592302910983562,0.0006035989499650896
1.7294975863320868e+18,0.002559519838541746,-0.0030754022300243378,0.0038895278703421354
1.729497586341087e+18,0.0036932621151208878,-0.004840252920985222,-0.00038730743108317256
1.7294975863500872e+18,0.0024232047144323587,-0.002576495287939906,0.0023182714357972145
1.7294975863560873e+18,0.004002086818218231,-0.0023172879591584206,-0.001292604603804648
1.7294975863650875e+18,0.002992970170453191,0.0031511737033724785,-0.002779691945761442
1.7294975863740877e+18,8.372357115149498e-06,0.0007361011812463403,0.0006610062555409968
1.7294975863800878e+18,0.0034121631179004908,0.0046943495981395245,0.0007879824261181056
1.729497586389088e+18,-0.0004035180900245905,0.0037845128681510687,-0.0003038890426978469
1.7294975863980882e+18,0.0029645529575645924,0.001966603798791766,0.0011053471826016903
1.7294975864040883e+18,0.005674275569617748,0.005815595388412476,-0.006217187736183405
1.7294975864130885e+18,0.004591834731400013,0.003529848763719201,-0.0020581327844411135
1.7294975864220887e+18,0.003964373841881752,0.0006860579596832395,0.0002198542933911085
1.7294975864280888e+18,0.0034739142283797264,0.002541820053011179,-0.0016787487547844648
1.729497586437089e+18,0.002356399782001972,0.0029516778886318207,0.0015071454690769315
1.7294975864460892e+18,0.00010058458428829908,0.005769411567598581,-0.0008792574517428875
1.7294975864550894e+18,-0.003550576511770487,0.0017386125400662422,-0.0001210005721077323
1.7294975864610895e+18,0.0007123007089830935,0.0030861401464790106,-0.0002699095639400184
1.7294975864700897e+18,0.00035153265343979,0.004570198245346546,-0.0011595255928114057
1.72949758647909e+18,0.0007083774544298649,-0.00026942556723952293,-0.0001549957669340074
1.72949758648509e+18,0.0025384665932506323,0.0032396495807915926,-0.002137619536370039
1.7294975864940902e+18,0.00262110261246562,0.003965293988585472,0.00034488062374293804
1.7294975865000904e+18,0.001851939712651074,0.003480446059256792,-0.0023411354050040245
1.7294975865090906e+18,0.0028244906570762396,0.004136033356189728,-0.00218870653770864
1.7294975865150907e+18,-0.002951631788164377,0.00431195879355073,0.0011052052723243833
1.729497586524091e+18,-0.003142501460388303,0.00219976925291121,-0.0019587241113185883
1.729497586533091e+18,-0.005650652572512627,-0.0008391945157200098,-0.0013968057464808226
1.7294975865390912e+18,-0.0028659156523644924,-0.0024898091796785593,-0.003427117597311735
1.7294975865480914e+18,-0.004700538236647844,0.0031059919856488705,-4.841299960389733e-05
1.7294975865570916e+18,-0.003179552499204874,0.002466753125190735,-0.0013519893400371075
1.7294975865660918e+18,-0.004032940603792667,0.0015139561146497726,-0.0035654911771416664
1.729497586572092e+18,7.961294613778591e-05,-0.0010825744830071926,0.0009513834957033396
1.729497586581092e+18,-0.0028209909796714783,0.0005324113299138844,-0.0020088963210582733
1.7294975865870922e+18,-0.003204801818355918,0.0016964696114882827,-0.0017947000451385975
1.7294975865960924e+18,-0.004407068714499474,0.0005734480218961835,-0.00017513713100925088
1.7294975866020925e+18,-0.007624148391187191,0.001211637631058693,0.0005104710580781102
1.7294975866110927e+18,-0.006691336631774902,-0.00014972517965361476,-0.0040067448280751705
1.729497586620093e+18,-0.007928147912025452,0.0004510605940595269,0.0008200722513720393
1.729497586629093e+18,-0.009580525569617748,0.00039786644629202783,0.000657164491713047
1.7294975866350932e+18,-0.007276106625795364,-0.0008626117487438023,-1.0970397852361202e-05
1.7294975866440934e+18,-0.008380944840610027,-0.0008007124997675419,-0.003945626318454742
1.7294975866530936e+18,-0.007822052575647831,-0.0005108804907649755,-0.00021287411800585687
1.7294975866590938e+18,-0.008990253321826458,0.001684496644884348,0.0003774726646952331
1.729497586668094e+18,-0.008617877028882504,0.00151961506344378,-0.001877575763501227
1.7294975866770941e+18,-0.009162113070487976,0.004908250644803047,-0.0010492770234122872
1.7294975866860943e+18,-0.010572358034551144,0.004455399699509144,-0.002516872715204954
1.7294975866920945e+18,-0.010075428523123264,0.0031469266396015882,0.001201321603730321
1.7294975867010947e+18,-0.006245327647775412,0.004020729102194309,-5.634676199406385e-06
1.7294975867070948e+18,-0.006998838856816292,0.0023394934833049774,-0.00015122591867111623
1.729497586716095e+18,-0.007450141478329897,0.002907967660576105,-0.001661592861637473
1.7294975867250952e+18,-0.007873629219830036,0.004219969734549522,-0.0008780267089605331
1.7294975867310953e+18,-0.007478499785065651,0.0016988501884043217,0.0003084532218053937
1.7294975867400955e+18,-0.008667808957397938,0.0035666925832629204,0.00059069151757285
1.7294975867490957e+18,-0.00868337880820036,0.0023534868378192186,-0.0026747705414891243
1.7294975867550958e+18,-0.006413416936993599,0.0054008071310818195,0.0006286297575570643
1.729497586764096e+18,-0.008217351511120796,0.005090918857604265,-0.00024809472961351275
1.7294975867730962e+18,-0.0071355123072862625,0.006402181461453438,-0.001527219545096159
1.7294975867790963e+18,-0.0072824726812541485,0.007031339220702648,-0.0001919396745506674
1.7294975867970967e+18,-0.005184692796319723,0.005671236664056778,0.0007573061157017946
1.729497586812097e+18,-0.005080254748463631,0.0034200972877442837,-0.0029131900519132614
1.7294975868180972e+18,-0.005356344860047102,0.0051827579736709595,-0.002332886913791299
1.7294975868270973e+18,-0.004905936308205128,0.004641624167561531,-0.004343018867075443
1.7294975868330975e+18,-0.005178010556846857,0.0025356218684464693,-0.0010187665466219187
1.7294975868420977e+18,-0.005012502893805504,0.005668316036462784,0.0007596444920636714
1.7294975868480978e+18,-0.006981274578720331,0.005426822695881128,-0.0032487749122083187
1.729497586857098e+18,-0.006901850923895836,0.007313843350857496,4.7102803364396095e-06
1.7294975868660982e+18,-0.007586744613945484,0.003247586777433753,-0.002545062219724059
1.7294975868720983e+18,-0.0055912211537361145,0.007409591227769852,0.00042149354703724384
1.7294975868810985e+18,-0.004985727835446596,0.006010168232023716,-0.00032423753873445094
1.7294975868900987e+18,-0.0032038716599345207,0.007367346435785294,-0.0002652159600984305
1.7294975868960988e+18,-0.002632348332554102,0.005610997788608074,-0.0008266371442005038
1.729497586905099e+18,-0.004798277281224728,0.004415955860167742,0.0008170796209014952
1.7294975869140992e+18,-0.0019634750206023455,0.0035232158843427896,-0.0003574722504708916
1.7294975869230994e+18,-0.0033599433954805136,0.005350311752408743,-0.0006974078132770956
1.7294975869320996e+18,-0.003686369163915515,0.0056451973505318165,-0.0003320198447909206
1.7294975869380997e+18,-0.0015347178559750319,0.006203709170222282,-0.0022838879376649857
1.7294975869471e+18,-0.6126732230186462,0.09358933568000793,0.0029663906898349524
1.7294975869561e+18,-1.6841121912002563,0.24594314396381378,0.004748374689370394
1.7294975869621002e+18,-2.4298412799835205,0.3531185984611511,0.005454487632960081
1.7294975869711004e+18,-3.335860013961792,0.4895173907279968,0.009034506045281887
1.7294975869801006e+18,-3.709587574005127,0.5572246313095093,0.01721980981528759
1.7294975869891008e+18,-3.5123229026794434,0.5652463436126709,0.018433408811688423
1.729497586995101e+18,-3.2267544269561768,0.5366151332855225,0.021365823224186897
1.729497587004101e+18,-2.826737403869629,0.49379217624664307,0.027646023780107498
1.7294975870131013e+18,-2.7682061195373535,0.47254031896591187,0.030924253165721893
1.7294975870221015e+18,-3.034355401992798,0.4741523265838623,0.034666288644075394
1.7294975870311017e+18,-3.5413923263549805,0.5037052035331726,0.03816579282283783
1.7294975870371018e+18,-3.855876922607422,0.5226479172706604,0.04258531332015991
1.729497587046102e+18,-4.033792018890381,0.5374853610992432,0.04685305431485176
1.7294975870551022e+18,-3.826312780380249,0.5237616300582886,0.05040488392114639
1.7294975870611023e+18,-3.5062718391418457,0.49883511662483215,0.05616271495819092
1.7294975870701025e+18,-2.947486639022827,0.4539174735546112,0.05461360514163971
1.7294975870791027e+18,-2.4809844493865967,0.4039129912853241,0.06197496876120567
1.729497587088103e+18,-2.30073881149292,0.3655903935432434,0.06271502375602722
1.729497587097103e+18,-2.3788318634033203,0.344626784324646,0.06692967563867569
1.7294975871031032e+18,-2.4868433475494385,0.3348611295223236,0.06713809818029404
1.7294975871121034e+18,-2.579740047454834,0.318759560585022,0.06807544082403183
1.7294975871211036e+18,-2.458204984664917,0.3005220293998718,0.07262439280748367
1.7294975871271037e+18,-2.245985984802246,0.2819632589817047,0.07093097269535065
1.729497587136104e+18,-1.7878185510635376,0.24344667792320251,0.07439961284399033
1.7294975871451041e+18,-1.3337081670761108,0.2070106565952301,0.07417623698711395
1.7294975871511043e+18,-1.1168274879455566,0.1772875189781189,0.07690113037824631
1.7294975871601044e+18,-0.9535245895385742,0.14716045558452606,0.07589717209339142
1.7294975871691046e+18,-0.9736363291740417,0.12148282676935196,0.07562227547168732
1.729497587181105e+18,-1.0551648139953613,0.09950444102287292,0.07898885011672974
1.729497587187105e+18,-1.033861517906189,0.08594396710395813,0.07725568115711212
1.7294975871961052e+18,-0.8604668378829956,0.06719052791595459,0.07965077459812164
1.7294975872051054e+18,-0.5694698691368103,0.04316173866391182,0.07740326970815659
1.7294975872111055e+18,-0.35362109541893005,0.026773130521178246,0.07942423224449158
1.7294975872201057e+18,-0.0731244757771492,0.0071071297861635685,0.07640016824007034
1.729497587229106e+18,0.07132630795240402,-0.014703960157930851,0.075239397585392
1.729497587235106e+18,0.08072567731142044,-0.023990629240870476,0.07271920889616013
1.7294975872441062e+18,0.016662973910570145,-0.03850475326180458,0.07740365713834763
1.7294975872531064e+18,-0.05387138947844505,-0.04905718192458153,0.07521896064281464
1.7294975872591066e+18,-0.06171008199453354,-0.054577745497226715,0.07799746096134186
1.7294975872681068e+18,0.021664494648575783,-0.06290747970342636,0.07487212866544724
1.729497587277107e+18,0.19404128193855286,-0.07257173955440521,0.0739731416106224
1.729497587283107e+18,0.3207240104675293,-0.07925760000944138,0.07607906311750412
1.7294975872921073e+18,0.4841480851173401,-0.08703532069921494,0.07010671496391296
1.7294975873011075e+18,0.5465952157974243,-0.09767727553844452,0.07203737646341324
1.7294975873071076e+18,0.5338882803916931,-0.09545407444238663,0.07258711755275726
1.7294975873161078e+18,0.46091434359550476,-0.10649152845144272,0.06911978870630264
1.729497587325108e+18,0.3910210132598877,-0.11001162230968475,0.06836075335741043
1.729497587331108e+18,0.3725249767303467,-0.11078634113073349,0.06761270761489868
1.7294975873401083e+18,0.41452518105506897,-0.11138734221458435,0.06975855678319931
1.7294975873461084e+18,0.47533223032951355,-0.11351463198661804,0.06402371823787689
1.7294975873551086e+18,0.5800296664237976,-0.11731070280075073,0.06310033053159714
1.7294975873641088e+18,0.6673473119735718,-0.12207741290330887,0.0655648410320282
1.729497587370109e+18,0.6849196553230286,-0.12281835079193115,0.0640963464975357
1.729497587379109e+18,0.6574456095695496,-0.12005957961082458,0.06314443796873093
1.7294975873851092e+18,0.6167568564414978,-0.1220804899930954,0.06224633380770683
1.7294975873941094e+18,0.5464423298835754,-0.12547819316387177,0.06114106625318527
1.7294975874031096e+18,0.5055714845657349,-0.12088647484779358,0.05924326553940773
1.7294975874121098e+18,0.5253044962882996,-0.12327130138874054,0.057418204843997955
1.72949758741811e+18,0.5577155947685242,-0.1238408088684082,0.05641951784491539
1.7294975874271101e+18,0.6228734850883484,-0.12131361663341522,0.05784233659505844
1.7294975874361103e+18,0.6618741750717163,-0.12084552645683289,0.05688285827636719
1.7294975874421105e+18,0.6649547815322876,-0.12140096724033356,0.053348690271377563
1.7294975874511107e+18,0.6367507576942444,-0.11897589266300201,0.05367531627416611
1.7294975874601108e+18,0.5793716311454773,-0.11932912468910217,0.05255834758281708
1.729497587472111e+18,0.5152068138122559,-0.11938408762216568,0.0497099794447422
1.7294975874871114e+18,0.5260729193687439,-0.11518692225217819,0.04642808064818382
1.7294975874961116e+18,0.5657332539558411,-0.11598417907953262,0.044511761516332626
1.7294975875051118e+18,0.5970675945281982,-0.11206640303134918,0.04291592165827751
1.729497587517112e+18,0.5955790281295776,-0.1098959743976593,0.04154248535633087
1.7294975875231122e+18,0.5711129903793335,-0.10755425691604614,0.04073485732078552
1.7294975875321124e+18,0.5299434065818787,-0.1089370921254158,0.03874150291085243
1.7294975875381125e+18,0.5015073418617249,-0.10474473237991333,0.037087030708789825
1.7294975875471127e+18,0.4814549386501312,-0.10513441264629364,0.031610436737537384
1.729497587556113e+18,0.4820532500743866,-0.0991319790482521,0.03318598121404648
1.729497587565113e+18,0.5043746829032898,-0.09875334799289703,0.02996448427438736
1.7294975875741133e+18,0.525988757610321,-0.09506574273109436,0.030203748494386673
1.7294975875801134e+18,0.5295814275741577,-0.09922405332326889,0.02864350751042366
1.7294975875891136e+18,0.5226377844810486,-0.09621689468622208,0.02913781814277172
1.7294975875981138e+18,0.4983678460121155,-0.10073745995759964,0.025768304243683815
1.729497587604114e+18,0.4740651845932007,-0.0960833802819252,0.02360263094305992
1.729497587613114e+18,0.4465577304363251,-0.09259355068206787,0.02436685562133789
1.7294975876191142e+18,0.43750399351119995,-0.09297221899032593,0.01975208707153797
1.7294975876281144e+18,0.4379659593105316,-0.08998411893844604,0.01936725713312626
1.7294975876371146e+18,0.45005080103874207,-0.08832303434610367,0.016604440286755562
1.7294975876461148e+18,0.46061763167381287,-0.0921701192855835,0.0137827442958951
1.729497587652115e+18,0.4625251889228821,-0.08776859939098358,0.015292329713702202
1.7294975876611151e+18,0.4588930308818817,-0.08889849483966827,0.014436633326113224
1.7294975876701153e+18,0.44264402985572815,-0.08860209584236145,0.01002528890967369
1.7294975876761155e+18,0.4294341504573822,-0.08717109262943268,0.011582424864172935
1.7294975876851156e+18,0.41604986786842346,-0.08936119824647903,0.006200453732162714
1.7294975876941158e+18,0.4082169234752655,-0.08858920633792877,0.008234036155045033
1.729497587700116e+18,0.40882638096809387,-0.08700092136859894,0.005549715366214514
1.7294975877091162e+18,0.4092532992362976,-0.08245500922203064,0.0047785257920622826
1.7294975877181164e+18,0.4164083003997803,-0.08899328857660294,0.0012742113322019577
1.7294975877241165e+18,0.4219444692134857,-0.08797085285186768,0.001057285233400762
1.7294975877331167e+18,0.41963884234428406,-0.08877624571323395,-0.00014427310088649392
1.7294975877421169e+18,0.4129052460193634,-0.08726618438959122,-0.002858233405277133
1.729497587751117e+18,0.39631205797195435,-0.0875830426812172,-0.001701823901385069
1.7294975877571172e+18,0.38534820079803467,-0.0810476541519165,-0.006027129478752613
1.7294975877661174e+18,0.377145379781723,-0.08582917600870132,-0.007149208802729845
1.7294975877751176e+18,0.3773438334465027,-0.08500532805919647,-0.008027348667383194
1.7294975877841178e+18,0.3901710510253906,-0.08507151901721954,-0.009808054193854332
1.729497587790118e+18,0.39448732137680054,-0.08974825590848923,-0.011845909990370274
