timestamp,accel_x,accel_y,accel_z
1.7294982952592102e+18,-0.007188997697085142,-0.023713117465376854,-9.73235034942627
1.7294982952682104e+18,0.011374041438102722,0.03926471620798111,-9.852269172668457
1.7294982952772106e+18,0.0032296471763402224,0.019161716103553772,-9.768436431884766
1.7294982952862108e+18,0.017301013693213463,-0.07650776207447052,-9.79335880279541
1.729498295292211e+18,-0.05475916340947151,-0.013045372441411018,-9.76611042022705
1.7294982953012111e+18,0.001527068205177784,0.06555301696062088,-9.7966947555542
1.7294982953102113e+18,0.0054324474185705185,-0.028923146426677704,-9.84013843536377
1.7294982953162115e+18,-0.008088155649602413,0.08107966184616089,-9.716181755065918
1.7294982953252116e+18,0.0015761734684929252,-0.10844133794307709,-9.870984077453613
1.7294982953342118e+18,-0.06052113324403763,-0.031465016305446625,-9.837368965148926
1.729498295340212e+18,-0.04293615370988846,0.03791072592139244,-9.843393325805664
1.7294982953492122e+18,0.010469854809343815,-0.00145624706055969,-9.801919937133789
1.7294982953552123e+18,-0.019597738981246948,-0.11630148440599442,-9.817532539367676
1.7294982953642125e+18,0.028409436345100403,-0.10286451876163483,-9.77509593963623
1.7294982953732127e+18,-0.014217092655599117,-0.0006389591726474464,-9.810833930969238
1.7294982953792128e+18,-0.02722145803272724,0.0031347651965916157,-9.740279197692871
1.729498295388213e+18,0.03780722990632057,-0.07004939019680023,-9.795251846313477
1.7294982953972132e+18,0.012892828322947025,-0.05280477926135063,-9.885384559631348
1.7294982954032133e+18,-0.024279063567519188,-0.00369666563346982,-9.825809478759766
1.7294982954122135e+18,0.030437767505645752,0.08805026859045029,-9.735809326171875
1.7294982954182136e+18,-0.011003292165696621,0.010764580219984055,-9.782902717590332
1.7294982954272138e+18,-0.03165072575211525,-0.00983182992786169,-9.884635925292969
1.729498295433214e+18,-0.05182844400405884,-0.02169313095510006,-9.805974960327148
1.7294982954422141e+18,-0.13050086796283722,-0.028814109042286873,-9.922945976257324
1.7294982954512143e+18,0.006951936054974794,-0.008130868896842003,-9.829334259033203
1.7294982954572145e+18,-0.06001647561788559,-0.0413929782807827,-9.779658317565918
1.7294982954662147e+18,0.030722064897418022,0.08718499541282654,-9.843334197998047
1.7294982954752148e+18,0.04036681354045868,-0.013790677301585674,-9.840052604675293
1.729498295481215e+18,0.01760300062596798,-0.02983803302049637,-9.763028144836426
1.7294982954902152e+18,-0.0016204287530854344,0.04940604045987129,-9.797712326049805
1.7294982954992154e+18,-0.03219781816005707,0.024770990014076233,-9.849679946899414
1.7294982955052155e+18,0.0462116077542305,-0.00845683179795742,-9.81332015991211
1.7294982955142157e+18,-0.04764953628182411,0.002652002964168787,-9.76784610748291
1.7294982955202158e+18,-0.014259414747357368,-0.09601566195487976,-9.867180824279785
1.729498295529216e+18,-0.008779349736869335,0.03682326152920723,-9.804600715637207
1.729498295535216e+18,-0.025618739426136017,-0.06604519486427307,-9.78860092163086
1.7294982955442163e+18,-0.04591118171811104,-0.02596411667764187,-9.779374122619629
1.7294982955502164e+18,0.030867494642734528,-0.02711622416973114,-9.771858215332031
1.7294982955592166e+18,0.0634559839963913,0.042645163834095,-9.81336498260498
1.7294982955682168e+18,0.002921181498095393,-0.030903728678822517,-9.805213928222656
1.729498295574217e+18,0.021180642768740654,0.036098457872867584,-9.805460929870605
1.7294982955832172e+18,-0.10175006836652756,2.3277460059034638e-05,-9.776498794555664
1.7294982955922173e+18,0.021647188812494278,-0.04409245774149895,-9.776749610900879
1.7294982956042176e+18,-0.0021659377962350845,-0.0960836261510849,-9.800169944763184
1.7294982956132178e+18,-0.02874178998172283,-0.004883803892880678,-9.756492614746094
1.729498295625218e+18,0.0030362640973180532,0.014573088847100735,-9.770832061767578
1.7294982956342182e+18,-0.023053353652358055,0.020165786147117615,-9.916769981384277
1.7294982956402184e+18,-0.021181389689445496,0.002821338828653097,-9.800896644592285
1.7294982956492186e+18,0.055837247520685196,-0.02474406361579895,-9.720548629760742
1.7294982956552187e+18,0.050167862325906754,-0.025336138904094696,-9.815241813659668
1.729498295664219e+18,0.0024426369927823544,0.004843270406126976,-9.740951538085938
1.729498295673219e+18,-0.028834374621510506,0.03270368278026581,-9.836030006408691
1.7294982956792192e+18,-0.05750866234302521,0.06869746744632721,-9.774127006530762
1.7294982956882194e+18,0.04738389700651169,0.019212881103157997,-9.78006649017334
1.7294982956972196e+18,-0.011380601674318314,-0.020565491169691086,-9.806500434875488
1.7294982957032197e+18,0.049230773001909256,-0.06867961585521698,-9.793701171875
1.72949829572122e+18,-0.027687743306159973,-0.016026267781853676,-9.754121780395508
1.7294982957302203e+18,0.010045421309769154,0.036424003541469574,-9.820710182189941
1.7294982957392205e+18,0.04706038534641266,-0.02658715657889843,-9.83056926727295
1.7294982957452206e+18,-0.0021784096024930477,0.03329075500369072,-9.83019733428955
1.7294982957542208e+18,0.0011107423342764378,0.06258303672075272,-9.819425582885742
1.729498295763221e+18,0.010180101729929447,-0.029575271531939507,-9.771005630493164
1.729498295769221e+18,0.051029618829488754,0.052279647439718246,-9.838808059692383
1.7294982957782213e+18,-0.0226246677339077,-0.040030770003795624,-9.842049598693848
1.7294982957872215e+18,-0.024712247774004936,-0.039267104119062424,-9.836238861083984
1.7294982957932216e+18,-0.10059425979852676,0.018246736377477646,-9.848294258117676
1.729498295805222e+18,-0.03962717577815056,-0.01465796772390604,-9.852664947509766
1.729498295811222e+18,0.030822860077023506,0.1255555897951126,-9.771832466125488
1.7294982958202222e+18,-0.005989395081996918,0.0906946063041687,-9.855364799499512
1.7294982958292224e+18,0.01599549874663353,-0.04218083247542381,-9.775490760803223
1.7294982958382226e+18,0.10921524465084076,0.01368680689483881,-9.761465072631836
1.7294982958442227e+18,-0.04380960762500763,0.011607171036303043,-9.811025619506836
1.729498295853223e+18,-0.058485113084316254,0.013201081193983555,-9.826741218566895
1.729498295859223e+18,-0.06843845546245575,-0.024458207190036774,-9.813501358032227
1.7294982958682232e+18,-0.0734553188085556,-0.03205198422074318,-9.856345176696777
1.7294982958772234e+18,0.044763293117284775,0.05808521434664726,-9.824881553649902
1.7294982958832236e+18,0.016552351415157318,0.009800169616937637,-9.860276222229004
1.7294982958922237e+18,-0.03705162927508354,0.057205040007829666,-9.822603225708008
1.729498295901224e+18,-0.060656704008579254,0.03768638148903847,-9.771187782287598
1.729498295907224e+18,-0.06074867397546768,-0.011087696999311447,-9.773951530456543
1.7294982959162243e+18,-0.008685125969350338,0.03471237048506737,-9.723270416259766
1.7294982959312246e+18,0.016289498656988144,-0.04678942635655403,-9.787642478942871
1.7294982959372247e+18,0.01901753805577755,0.03496616333723068,-9.789643287658691
1.729498295946225e+18,0.01319362223148346,-0.051794182509183884,-9.800538063049316
1.729498295952225e+18,0.056300919502973557,-0.0348924919962883,-9.800822257995605
1.7294982959612252e+18,0.051103875041007996,-0.019984303042292595,-9.786999702453613
1.7294982959672253e+18,0.04944123700261116,0.02682306058704853,-9.79539966583252
1.7294982959762255e+18,-0.050735313445329666,0.018689662218093872,-9.878625869750977
1.7294982959822257e+18,0.026865797117352486,0.0315941721200943,-9.842337608337402
1.7294982959912259e+18,0.05246486887335777,0.05017050728201866,-9.83411979675293
1.729498295997226e+18,-0.04610937833786011,0.007394196931272745,-9.835593223571777
1.7294982960062262e+18,0.04738456383347511,0.020062819123268127,-9.899417877197266
1.7294982960152264e+18,0.0306396447122097,0.034525252878665924,-9.787100791931152
1.7294982960212265e+18,-0.01574428752064705,0.1092408075928688,-9.782485008239746
1.7294982960302267e+18,0.014034410938620567,-0.007566692773252726,-9.74908447265625
1.7294982960362268e+18,0.06797684729099274,0.0010551721788942814,-9.799491882324219
1.729498296045227e+18,0.04654475301504135,-0.005369933322072029,-9.824386596679688
1.7294982960542272e+18,0.037112317979335785,-0.03683578222990036,-9.759580612182617
1.7294982960602273e+18,0.05425730347633362,0.014886640012264252,-9.75983715057373
1.7294982960662275e+18,-0.0040862648747861385,0.009548000060021877,-9.755539894104004
1.7294982960752276e+18,0.03311736136674881,-0.004098156467080116,-9.818221092224121
1.7294982960812278e+18,0.014726720750331879,0.028017694130539894,-9.864956855773926
1.729498296090228e+18,0.000163991455337964,0.01713518612086773,-9.803027153015137
1.7294982960992282e+18,0.041368018835783005,0.02216383069753647,-9.818456649780273
1.7294982961082284e+18,0.00010417641897220165,0.020956866443157196,-9.84963321685791
1.7294982961142285e+18,-0.07252510637044907,-0.02733047492802143,-9.783689498901367
1.7294982961232287e+18,-0.014562685042619705,0.018109161406755447,-9.837943077087402
1.7294982961292288e+18,-0.006392693147063255,0.011672611348330975,-9.852182388305664
1.729498296138229e+18,0.05133039131760597,-0.005949865095317364,-9.822931289672852
1.7294982961472292e+18,0.010450226254761219,-0.01948217861354351,-9.878174781799316
1.7294982961532293e+18,-0.06551563739776611,-0.007614541798830032,-9.839385032653809
1.7294982961622295e+18,-0.04487228766083717,-0.018463119864463806,-9.851275444030762
1.7294982961712297e+18,0.011386662721633911,-0.009829067625105381,-9.830257415771484
1.7294982961772298e+18,-0.029790624976158142,-0.03389648348093033,-9.811230659484863
1.72949829618623e+18,0.033447977155447006,-0.012704015709459782,-9.761517524719238
1.7294982961952302e+18,0.005355207249522209,-0.04282066226005554,-9.799565315246582
1.7294982962042304e+18,-0.0013732168590649962,0.05298175290226936,-9.78636646270752
1.7294982962132306e+18,-0.05108862370252609,-0.0033306318800896406,-9.849926948547363
1.7294982962222308e+18,-0.06663774698972702,0.041357651352882385,-9.763667106628418
1.729498296228231e+18,-0.017577731981873512,0.041034914553165436,-9.90889835357666
1.729498296237231e+18,-0.07469058036804199,0.025634756311774254,-9.775015830993652
1.7294982962462313e+18,0.004250387195497751,-0.08434851467609406,-9.863200187683105
1.7294982962522314e+18,-0.012459538877010345,-0.016966432332992554,-9.747590065002441
1.7294982962612316e+18,-0.045696016401052475,0.002563251182436943,-9.79556941986084
1.7294982962702318e+18,0.023517996072769165,-0.044205937534570694,-9.761056900024414
1.729498296279232e+18,0.04499717429280281,0.009887784719467163,-9.821538925170898
1.729498296285232e+18,0.03382444009184837,-0.11363682895898819,-9.787618637084961
1.7294982962942323e+18,-0.024142149835824966,-0.033827368170022964,-9.790935516357422
1.7294982963002324e+18,-0.06539443880319595,0.0778079703450203,-9.842577934265137
1.7294982963092326e+18,-0.06636200100183487,-0.059311192482709885,-9.786115646362305
1.7294982963182328e+18,0.014562519267201424,0.036780305206775665,-9.832959175109863
1.729498296324233e+18,0.10827737301588058,-0.021784937009215355,-9.743432998657227
1.7294982963332332e+18,-0.03957979381084442,-0.0033043480943888426,-9.786104202270508
1.7294982963392333e+18,-0.015983067452907562,0.03183916211128235,-9.78325366973877
1.7294982963482335e+18,0.0330359973013401,-0.09494205564260483,-9.77152156829834
1.7294982963572337e+18,-0.010976330377161503,-0.01976807788014412,-9.801349639892578
1.7294982963632338e+18,0.03251517936587334,-0.020064309239387512,-9.756339073181152
1.729498296372234e+18,-0.021425511687994003,-0.00031020556343719363,-9.755903244018555
1.729498296378234e+18,0.04083462059497833,0.03331006318330765,-9.811607360839844
1.7294982963872343e+18,0.013356836512684822,-0.06743830442428589,-9.75941276550293
1.7294982963932344e+18,0.03238002210855484,-0.05595679581165314,-9.828150749206543
1.7294982964022346e+18,0.0010421430924907327,-0.04793573170900345,-9.820748329162598
1.7294982964112348e+18,-0.004300710279494524,-0.051051244139671326,-9.856465339660645
1.729498296417235e+18,0.0246636513620615,0.03342112526297569,-9.803017616271973
1.7294982964262351e+18,-0.04613219201564789,0.11296185851097107,-9.799616813659668
1.7294982964322353e+18,-0.020009592175483704,0.05400920659303665,-9.782934188842773
1.7294982964412355e+18,-0.020876141265034676,-0.06486992537975311,-9.800058364868164
1.7294982964502356e+18,-0.02219346910715103,0.04718175157904625,-9.783167839050293
1.7294982964562358e+18,0.03438378870487213,0.0790344700217247,-9.835321426391602
1.729498296465236e+18,0.02445664070546627,-0.056878712028265,-9.793033599853516
1.729498296471236e+18,0.031960710883140564,0.08888806402683258,-9.80099868774414
1.7294982964802363e+18,-0.025347843766212463,-0.029477812349796295,-9.822232246398926
1.7294982964892365e+18,0.04479636996984482,0.0980009064078331,-9.75576114654541
1.7294982964982367e+18,0.0612240694463253,0.05529673397541046,-9.793004989624023
1.7294982965072369e+18,-0.011994227766990662,-0.009227887727320194,-9.740531921386719
1.729498296516237e+18,-0.05943378433585167,-0.05580581724643707,-9.783488273620605
1.7294982965222372e+18,-0.04492614418268204,-0.026370244100689888,-9.824494361877441
1.7294982965312374e+18,-0.07114711403846741,-0.012948469258844852,-9.864498138427734
1.7294982965372375e+18,-0.006178115960210562,0.01621074415743351,-9.797924041748047
1.7294982965462377e+18,0.02226126939058304,-0.03765520080924034,-9.712508201599121
1.729498296555238e+18,0.009602426551282406,-0.018194856122136116,-9.81728458404541
1.729498296564238e+18,0.005176547449082136,0.09490273147821426,-9.886590003967285
1.7294982965732383e+18,-0.08939845114946365,-0.0192700382322073,-9.856386184692383
1.7294982965822385e+18,0.030309781432151794,-0.051659561693668365,-9.800254821777344
1.7294982965882386e+18,-0.02492556720972061,-0.0048865340650081635,-9.845003128051758
1.7294982965972388e+18,-0.03525485470890999,-0.003446703078225255,-9.801383018493652
1.729498296606239e+18,-0.026352856308221817,-0.011628299951553345,-9.799975395202637
1.7294982966152392e+18,-0.0362594798207283,-0.022691858932375908,-9.783981323242188
1.7294982966242394e+18,0.07225153595209122,0.0473429374396801,-9.776496887207031
1.7294982966362396e+18,-0.014030005782842636,0.012607205659151077,-9.779404640197754
1.7294982966482399e+18,-0.04725636541843414,0.048054423183202744,-9.813294410705566
1.72949829665724e+18,0.04272135719656944,0.010780373588204384,-9.824774742126465
1.7294982966662403e+18,0.024710945785045624,0.0023665435146540403,-9.839212417602539
1.7294982966722404e+18,-0.025174861773848534,0.013235009275376797,-9.806075096130371
1.7294982966812406e+18,0.01235461700707674,0.0015276569174602628,-9.771960258483887
1.7294982966932408e+18,-0.05201773717999458,-0.015116341412067413,-9.849906921386719
1.729498296699241e+18,0.017378300428390503,0.006131275091320276,-9.80283260345459
1.7294982967082412e+18,-0.018223091959953308,-0.046917833387851715,-9.810389518737793
1.7294982967142413e+18,0.034904371947050095,0.011149842292070389,-9.808279991149902
1.7294982967232415e+18,-0.0250693466514349,-0.049611855298280716,-9.802094459533691
1.7294982967322417e+18,0.10372179746627808,0.02868860401213169,-9.908456802368164
1.7294982967382418e+18,-0.04300934448838234,0.0005403173272497952,-9.825963020324707
1.729498296747242e+18,-0.008720282465219498,-0.03204325959086418,-9.799192428588867
1.7294982967562422e+18,0.07767042517662048,0.05445903167128563,-9.857321739196777
1.7294982967622423e+18,0.07083968073129654,0.058196160942316055,-9.751766204833984
1.7294982967712425e+18,-0.02484445460140705,-0.012716623954474926,-9.855600357055664
1.7294982967802427e+18,-0.02677682787179947,-0.05680462718009949,-9.832528114318848
1.729498296789243e+18,-0.07032709568738937,0.00453781196847558,-9.852987289428711
1.729498296795243e+18,0.0404851995408535,0.030790559947490692,-9.789588928222656
1.7294982968042432e+18,0.008409782312810421,0.007378504611551762,-9.862044334411621
1.7294982968132434e+18,0.012268192134797573,0.029942603781819344,-9.776748657226562
1.7294982968192435e+18,0.04052316024899483,0.03177215903997421,-9.77088451385498
1.7294982968282437e+18,-0.06608637422323227,0.002608964219689369,-9.82169246673584
1.7294982968342438e+18,0.0071073551662266254,-0.000852353812661022,-9.791004180908203
1.729498296843244e+18,-0.03484242036938667,0.009325794875621796,-9.761510848999023
1.7294982968522442e+18,-0.038011182099580765,0.07239501923322678,-9.816349983215332
1.7294982968582444e+18,0.0006347454036585987,-0.050896599888801575,-9.788220405578613
1.7294982968672445e+18,-0.008031493984162807,-0.0018934834515675902,-9.809135437011719
1.7294982968762447e+18,-0.035579048097133636,0.04441268742084503,-9.726726531982422
1.7294982968822449e+18,0.07757851481437683,-0.03619297966361046,-9.882343292236328
1.729498296891245e+18,0.02274029329419136,0.010435428470373154,-9.820906639099121
1.7294982969002452e+18,0.03826224058866501,-0.024126818403601646,-9.814594268798828
1.7294982969062454e+18,0.001983028370887041,0.019008584320545197,-9.783967018127441
1.7294982969152456e+18,0.06449420005083084,-0.03746004402637482,-9.859407424926758
1.7294982969212457e+18,-0.03370903432369232,-0.03987015038728714,-9.789876937866211
1.729498296930246e+18,-0.07970678061246872,-0.012497853487730026,-9.815067291259766
1.729498296939246e+18,-0.028115112334489822,0.07147432118654251,-9.830805778503418
1.7294982969452462e+18,-0.04125085845589638,0.016639137640595436,-9.808682441711426
1.7294982969542464e+18,0.04978087171912193,-0.029500607401132584,-9.81391716003418
1.7294982969602465e+18,-0.013669133186340332,-0.08434128761291504,-9.786866188049316
1.7294982969692467e+18,0.12871462106704712,-0.06625533849000931,-9.801068305969238
1.729498296978247e+18,0.0030902058351784945,0.019747339189052582,-9.79035758972168
1.729498296984247e+18,0.057333916425704956,0.0023416096810251474,-9.817933082580566
1.7294982969932472e+18,0.04575067758560181,-0.0036043233703821898,-9.804400444030762
1.7294982969992474e+18,0.03079124167561531,-0.012696411460638046,-9.771685600280762
1.7294982970082476e+18,-0.009263069368898869,0.01707386039197445,-9.805384635925293
1.7294982970172477e+18,-0.022496825084090233,-0.10669079422950745,-9.769387245178223
1.729498297023248e+18,0.0493786446750164,0.01291640754789114,-9.769866943359375
1.729498297032248e+18,-0.016925476491451263,-0.009052102454006672,-9.800447463989258
1.7294982970382482e+18,-0.01083217840641737,-0.005586555693298578,-9.762205123901367
1.7294982970472484e+18,0.06536611914634705,0.017895108088850975,-9.895726203918457
1.7294982970532485e+18,0.04645194485783577,0.00046400839346461,-9.778495788574219
1.7294982970622487e+18,-0.02174185961484909,-0.0024251651484519243,-9.846120834350586
1.729498297077249e+18,-0.01290722843259573,-0.09230770170688629,-9.805337905883789
1.7294982970862492e+18,-0.018130945041775703,-0.06089042127132416,-9.760236740112305
1.7294982971012495e+18,-0.005185502115637064,-0.04635351896286011,-9.797929763793945
1.7294982971162499e+18,-0.035296350717544556,-0.011576035991311073,-9.808374404907227
1.72949829712825e+18,-0.024813339114189148,0.04153015837073326,-9.884856224060059
1.7294982971372503e+18,0.01124592311680317,0.00862799771130085,-9.752187728881836
1.7294982971462505e+18,0.024338236078619957,-0.05745192617177963,-9.756500244140625
1.7294982971522506e+18,-0.033048637211322784,-0.024267349392175674,-9.776327133178711
1.7294982971612508e+18,-0.0817120298743248,-0.12355059385299683,-9.769878387451172
1.729498297167251e+18,0.00835867878049612,0.021202800795435905,-9.751629829406738
1.7294982971762511e+18,0.06766346842050552,0.024198640137910843,-9.785710334777832
1.7294982971852513e+18,-0.04444374889135361,-0.02446843683719635,-9.843966484069824
1.7294982971912515e+18,0.04362962022423744,-0.0845072790980339,-9.866888046264648
1.7294982972002516e+18,0.032388702034950256,-0.00014714617282152176,-9.854524612426758
1.7294982972062518e+18,-0.05758538097143173,-0.007226143032312393,-9.835966110229492
1.729498297215252e+18,-0.025418918579816818,0.041924238204956055,-9.963922500610352
1.7294982972242522e+18,-0.033055104315280914,0.04657793417572975,-9.932547569274902
1.7294982972302523e+18,0.02739400416612625,-0.052798107266426086,-10.009486198425293
1.7294982972392525e+18,-0.016528306528925896,-0.01784016564488411,-9.910344123840332
1.7294982972482527e+18,-0.06820567697286606,0.005228365771472454,-9.998274803161621
1.7294982972542528e+18,0.0731683298945427,0.06786869466304779,-10.06042766571045
1.729498297263253e+18,0.03055988810956478,-0.055910173803567886,-9.988511085510254
1.7294982972722532e+18,0.06901215016841888,0.01138254627585411,-10.037341117858887
1.7294982972782533e+18,0.026416990906000137,0.002745702862739563,-10.064068794250488
1.7294982972872535e+18,0.0010187006555497646,0.05043317377567291,-10.055754661560059
1.7294982972932536e+18,-0.06260780245065689,-0.039145562797784805,-10.096872329711914
1.729498297305254e+18,0.004795456305146217,0.01041976734995842,-10.052312850952148
1.729498297311254e+18,0.07469604164361954,-0.011147532612085342,-10.381254196166992
1.7294982973202542e+18,0.06075729429721832,-0.03937791287899017,-10.50762939453125
1.7294982973262543e+18,-0.04543297737836838,-0.029863229021430016,-10.420512199401855
1.7294982973352545e+18,-0.05445372313261032,-0.04983031749725342,-10.501519203186035
1.7294982973442547e+18,0.06615041196346283,-0.020164094865322113,-10.3864107131958
1.7294982973502548e+18,0.0019934489391744137,0.034070879220962524,-10.442749977111816
1.729498297359255e+18,-0.02096797153353691,0.05822926387190819,-10.435195922851562
1.7294982973682552e+18,0.04952776059508324,0.050963129848241806,-10.442896842956543
1.7294982973742554e+18,-0.010333098471164703,0.08260642737150192,-10.533453941345215
1.7294982973832556e+18,0.04639121890068054,-0.023352522403001785,-10.552228927612305
1.7294982973922557e+18,-0.004152615554630756,-0.02651071362197399,-10.52785587310791
1.7294982973982559e+18,0.022504406049847603,0.058727946132421494,-10.560400009155273
1.729498297407256e+18,-0.017857033759355545,0.03204567730426788,-10.466851234436035
1.7294982974192563e+18,-0.028141943737864494,-0.013805089518427849,-10.532780647277832
1.7294982974282565e+18,0.06325896829366684,0.010877037420868874,-10.48477840423584
1.7294982974342566e+18,0.02006244845688343,-0.003414641600102186,-10.552135467529297
1.7294982974432568e+18,0.018309541046619415,-0.029874416068196297,-10.50117015838623
1.729498297449257e+18,0.06432146579027176,-0.009773273020982742,-10.572898864746094
1.7294982974582572e+18,0.037285443395376205,-0.07464997470378876,-10.421049118041992
1.7294982974672573e+18,0.02658296748995781,0.04575272649526596,-10.457274436950684
1.7294982974762575e+18,-0.037331804633140564,0.004942318424582481,-10.545255661010742
1.7294982974852577e+18,-0.03487861528992653,0.04852224513888359,-10.57492733001709
1.7294982974912579e+18,0.0037634968757629395,0.01322381105273962,-10.55577564239502
1.729498297500258e+18,-0.031843677163124084,0.0076903775334358215,-10.496566772460938
1.7294982975092582e+18,-0.05802614614367485,0.04889167845249176,-10.539836883544922
1.7294982975152584e+18,0.02849658392369747,0.0007662374991923571,-10.605463981628418
1.7294982975242586e+18,0.020251955837011337,0.06365867704153061,-10.488326072692871
1.7294982975332588e+18,-0.034959711134433746,0.02231275476515293,-10.577670097351074
1.729498297539259e+18,-0.004531604237854481,-0.014317339286208153,-10.587204933166504
1.729498297548259e+18,-0.009747011587023735,-0.038360852748155594,-10.691816329956055
1.7294982975572593e+18,0.040781550109386444,0.045067545026540756,-10.636460304260254
1.7294982975662595e+18,0.020451871678233147,-0.02729702927172184,-10.588481903076172
1.7294982975722596e+18,0.03206967934966087,0.027402155101299286,-10.55837345123291
1.7294982975812598e+18,0.016726072877645493,0.009753056801855564,-10.55732536315918
1.72949829759026e+18,0.011101897805929184,0.003127607051283121,-10.59731674194336
1.7294982975992602e+18,0.03965294361114502,0.08346618711948395,-10.544747352600098
1.7294982976052603e+18,0.07658053189516068,0.010013191029429436,-10.58259391784668
1.7294982976142605e+18,-0.036709751933813095,-0.011223617941141129,-10.61886215209961
1.7294982976232607e+18,0.07357005029916763,0.004920300096273422,-10.538800239562988
1.7294982976292608e+18,-0.01189248077571392,-0.0015250765718519688,-10.635444641113281
1.729498297638261e+18,0.029688619077205658,0.03781052306294441,-10.628488540649414
1.729498297644261e+18,-0.01628079079091549,0.0021168857347220182,-10.606317520141602
1.7294982976532613e+18,0.09240436553955078,0.00716400146484375,-10.630908966064453
1.7294982976622615e+18,0.03897180035710335,-0.0133249806240201,-10.58852767944336
1.7294982976682616e+18,0.05565064400434494,-0.01101062260568142,-10.607526779174805
1.7294982976772618e+18,-0.02153865247964859,-0.01085728406906128,-10.538437843322754
1.729498297683262e+18,0.02170206606388092,-0.006065584719181061,-10.568872451782227
1.7294982976922621e+18,0.007605884224176407,-0.0210983008146286,-10.557489395141602
1.7294982977012623e+18,-0.04986412823200226,-0.019731611013412476,-10.580888748168945
1.7294982977072625e+18,0.022960398346185684,-0.012670643627643585,-10.536072731018066
1.7294982977162627e+18,0.0009805370355024934,-0.052325960248708725,-10.536999702453613
1.7294982977252628e+18,-0.016362471505999565,0.049405939877033234,-10.596097946166992
1.729498297734263e+18,-0.02051170915365219,0.07818157225847244,-10.689330101013184
1.7294982977402632e+18,0.0901566818356514,-0.04055215045809746,-10.604375839233398
1.7294982977492634e+18,0.04427013918757439,-0.007402442395687103,-10.606398582458496
1.7294982977582636e+18,-0.08348482847213745,-0.03069121018052101,-10.565998077392578
1.7294982977672637e+18,0.012535838410258293,0.04396144673228264,-10.631752967834473
1.729498297773264e+18,-0.02119014412164688,0.07883764803409576,-10.577938079833984
1.729498297782264e+18,0.020051315426826477,-0.02112407237291336,-10.721834182739258
1.7294982977882642e+18,0.09801855683326721,-0.04413886368274689,-10.573354721069336
1.7294982977972644e+18,0.03449438884854317,0.09813401103019714,-10.52696418762207
1.7294982978062646e+18,0.09524968266487122,0.007741489447653294,-10.666015625
1.7294982978152648e+18,-0.002666861517354846,0.0628809779882431,-10.64198112487793
1.729498297821265e+18,0.08371693640947342,0.030218541622161865,-10.588526725769043
1.729498297830265e+18,-0.10767067223787308,-0.011498221196234226,-10.720436096191406
1.7294982978392653e+18,-0.02294633537530899,0.06657108664512634,-10.554261207580566
1.7294982978452654e+18,0.01744009740650654,0.05010521411895752,-10.638595581054688
1.7294982978542656e+18,-0.019068647176027298,0.0799233540892601,-10.554024696350098
1.7294982978632658e+18,0.04308383911848068,0.08581981807947159,-10.559412002563477
1.729498297869266e+18,-0.029228031635284424,0.042206112295389175,-10.6412992477417
1.729498297878266e+18,0.047146987169981,-0.02165704406797886,-10.642474174499512
1.7294982978872663e+18,-0.04309177026152611,-0.08591371774673462,-10.616687774658203
1.7294982978932664e+18,-0.02709006890654564,0.02979459799826145,-10.595675468444824
1.7294982979022666e+18,-0.009586683474481106,-0.022746574133634567,-10.65150260925293
1.7294982979112668e+18,-0.009020901285111904,-0.014397591352462769,-10.659767150878906
1.729498297920267e+18,-0.00649949349462986,-0.1130121573805809,-10.580510139465332
1.7294982979292672e+18,0.015143427066504955,0.013901932165026665,-10.55605411529541
1.7294982979352673e+18,0.015886303037405014,-0.15289829671382904,-10.680702209472656
1.7294982979442675e+18,0.038583602756261826,-0.05045139789581299,-10.590649604797363
1.7294982979502676e+18,-0.0674002468585968,-0.043793391436338425,-10.613513946533203
1.7294982979592678e+18,0.05862948298454285,-0.017669567838311195,-10.612896919250488
1.729498297968268e+18,-0.053810302168130875,-0.0447457917034626,-10.62186050415039
1.7294982979742682e+18,-0.0005332420114427805,0.0350630059838295,-10.601560592651367
1.7294982979832684e+18,-0.08603867888450623,-0.002375087235122919,-10.656686782836914
1.7294982979892685e+18,-0.06651792675256729,0.034235209226608276,-10.599122047424316
1.7294982979982687e+18,-0.03495527803897858,-0.04866381362080574,-10.634203910827637
1.7294982980042688e+18,-0.0014072899939492345,-0.025483857840299606,-10.541674613952637
1.729498298013269e+18,0.044385019689798355,0.03822736069560051,-10.664480209350586
1.7294982980222692e+18,0.05377677083015442,0.04412555322051048,-10.663636207580566
1.7294982980282693e+18,-0.048270389437675476,-0.012151753529906273,-10.583281517028809
1.7294982980372695e+18,0.01014561764895916,0.034981001168489456,-10.57638168334961
1.7294982980432696e+18,0.019402746111154556,-0.018368979915976524,-10.590944290161133
1.7294982980522698e+18,-0.021242883056402206,-0.015145814046263695,-10.556229591369629
1.72949829805827e+18,-0.02618982642889023,0.007576073985546827,-10.634357452392578
1.7294982980672701e+18,0.027673427015542984,-0.08072538673877716,-10.581186294555664
1.7294982980732703e+18,0.06006995588541031,0.024613525718450546,-10.660988807678223
1.7294982980822705e+18,-0.058700818568468094,-0.00016251165652647614,-10.568646430969238
1.7294982980882706e+18,-0.11186660826206207,0.026347612962126732,-10.664639472961426
1.7294982980972708e+18,-0.016674522310495377,0.0242199394851923,-10.5672607421875
1.729498298106271e+18,-0.03463728725910187,-0.05535830557346344,-10.65415096282959
1.729498298112271e+18,-0.02608250081539154,0.05252841114997864,-10.698005676269531
1.7294982981212713e+18,0.1010209247469902,-0.00704964529722929,-10.592363357543945
1.7294982981302715e+18,0.03558873012661934,-0.0053582084365189075,-10.607023239135742
1.7294982981392717e+18,0.04120846837759018,-0.030034715309739113,-10.630404472351074
1.7294982981482719e+18,-0.07046650350093842,0.029623720794916153,-10.54371452331543
1.729498298154272e+18,-0.09470143914222717,-0.001549978624098003,-10.4769287109375
1.7294982981632722e+18,-0.054575201123952866,0.019432274624705315,-10.507437705993652
1.7294982981692723e+18,0.01087209302932024,-0.038652513176202774,-10.642486572265625
1.7294982981782725e+18,-0.0021760035306215286,0.013697132468223572,-10.524168014526367
1.7294982981872727e+18,0.07312900573015213,-0.07600315660238266,-10.636131286621094
1.7294982981932728e+18,0.010678086429834366,-0.006380713544785976,-10.657635688781738
1.729498298202273e+18,0.024374982342123985,0.044033415615558624,-10.546089172363281
1.7294982982112732e+18,-0.03765656054019928,-0.06839980185031891,-10.627007484436035
1.7294982982202734e+18,-0.02062743529677391,-0.02460075542330742,-10.61540412902832
1.7294982982262735e+18,0.018596014007925987,-0.00764437997713685,-10.573488235473633
1.7294982982352737e+18,-0.005398971028625965,0.04194153472781181,-10.614418029785156
1.729498298244274e+18,0.01115927193313837,-0.007287661544978619,-10.541801452636719
1.729498298250274e+18,-0.01241279486566782,0.02171628177165985,-10.498027801513672
1.7294982982592742e+18,0.014774647541344166,-0.025578394532203674,-10.565531730651855
1.7294982982682744e+18,0.011807465925812721,0.01509112399071455,-10.559202194213867
1.7294982982772746e+18,-0.0342220775783062,-0.001966354437172413,-10.558700561523438
1.7294982982862748e+18,-0.015165301039814949,-0.010807407088577747,-10.589964866638184
1.729498298292275e+18,0.02755185216665268,0.03774944692850113,-10.579951286315918
1.7294982983012751e+18,-0.0058029768988490105,0.1392010599374771,-10.613905906677246
1.7294982983102753e+18,0.0161898210644722,-0.014258068054914474,-10.650336265563965
1.7294982983162755e+18,-0.03316931426525116,-0.05151790753006935,-10.577295303344727
1.7294982983252756e+18,0.012256985530257225,-0.0686175748705864,-10.575264930725098
1.7294982983342758e+18,-0.04496709629893303,-0.0002515522064641118,-10.515271186828613
1.729498298343276e+18,-0.007860882207751274,0.004205598030239344,-10.561707496643066
1.7294982983492762e+18,0.01119409129023552,-0.04966803267598152,-10.5401611328125
1.7294982983582764e+18,0.07928436994552612,-0.10638966411352158,-10.627751350402832
1.7294982983672765e+18,-0.07306883484125137,0.05490772798657417,-10.634286880493164
1.7294982983732767e+18,0.033658746629953384,0.02217310294508934,-10.549087524414062
1.7294982983822769e+18,0.01992296427488327,0.07607575505971909,-10.58460521697998
1.729498298391277e+18,0.029377194121479988,0.007236809469759464,-10.63511848449707
1.7294982983972772e+18,-0.016423063352704048,-0.038289397954940796,-10.471123695373535
1.7294982984062774e+18,0.050848543643951416,0.07846039533615112,-10.605927467346191
1.7294982984152776e+18,0.02595691755414009,-0.04775315150618553,-10.54250431060791
1.7294982984242778e+18,-0.02293970249593258,0.0553843230009079,-10.446624755859375
1.729498298436278e+18,0.0334390364587307,0.00983710028231144,-10.591423034667969
1.7294982984422781e+18,0.033721212297677994,0.012601526454091072,-10.591415405273438
1.7294982984512783e+18,0.028262626379728317,-0.06266037374734879,-10.606059074401855
1.7294982984602785e+18,0.05681132152676582,-0.03504864126443863,-10.588990211486816
1.7294982984692787e+18,0.015644842758774757,-0.006169441156089306,-10.502241134643555
1.7294982984752788e+18,0.004447049926966429,-0.0054447464644908905,-10.5584716796875
1.729498298484279e+18,-0.06570979952812195,0.015990693122148514,-10.580682754516602
1.7294982984932792e+18,-0.02747868373990059,0.04866195470094681,-10.56053352355957
1.7294982984992794e+18,-0.025982212275266647,0.06857313215732574,-10.563225746154785
1.7294982985082796e+18,-0.03318683058023453,-0.029940765351057053,-10.537747383117676
1.7294982985172797e+18,-0.010282141156494617,-0.03773660957813263,-10.496996879577637
1.72949829852328e+18,-0.032594822347164154,0.03207608684897423,-10.534708023071289
1.72949829853228e+18,-0.02436242066323757,0.04350164905190468,-10.496967315673828
1.7294982985412803e+18,-0.013361876830458641,-0.00029305386124178767,-10.57011890411377
1.7294982985502804e+18,-0.001071836450137198,-0.018226440995931625,-10.512432098388672
1.7294982985592806e+18,-0.042288653552532196,0.014280637726187706,-10.616920471191406
1.7294982985682808e+18,-0.052980270236730576,0.012462474405765533,-10.542876243591309
1.729498298574281e+18,0.027409018948674202,-0.08934798836708069,-10.447224617004395
1.7294982985832812e+18,0.05011538788676262,-0.007014075294137001,-10.473411560058594
1.7294982985892813e+18,-0.030748790130019188,-0.018697189167141914,-10.573820114135742
1.7294982985982815e+18,0.0076321945525705814,-0.0322599895298481,-10.511646270751953
1.7294982986072817e+18,0.008339429274201393,0.010691092349588871,-10.526062965393066
1.7294982986132818e+18,0.031313106417655945,-0.023820633068680763,-10.520243644714355
1.729498298622282e+18,-0.010036084800958633,-0.02766178920865059,-10.552328109741211
1.7294982986312822e+18,0.00850372388958931,0.025613166391849518,-10.430855751037598
1.7294982986402824e+18,0.07246392220258713,0.03754274174571037,-10.427913665771484
1.7294982986462825e+18,-0.005583253689110279,0.019834715873003006,-10.49294376373291
1.7294982986552827e+18,0.018268907442688942,0.00503606628626585,-10.358732223510742
1.7294982986612828e+18,-0.027355261147022247,0.03790096193552017,-10.416396141052246
1.729498298670283e+18,-0.007176404818892479,-0.015943078324198723,-10.355759620666504
1.7294982986792832e+18,-0.02416561171412468,0.006649302318692207,-10.247097969055176
1.7294982986882834e+18,0.05480026453733444,0.05881365388631821,-10.263591766357422
1.7294982986942835e+18,-0.10777710378170013,0.010300506837666035,-10.251057624816895
1.7294982987032837e+18,0.004571169149130583,0.021222980692982674,-10.230330467224121
1.729498298712284e+18,0.03868553787469864,0.07702533900737762,-10.154481887817383
1.729498298721284e+18,0.05134281888604164,-0.01597956009209156,-10.206759452819824
1.7294982987272842e+18,-0.001151766860857606,-0.06565684825181961,-10.168035507202148
1.7294982987362844e+18,-0.028841214254498482,0.0840226411819458,-10.141115188598633
1.7294982987452846e+18,0.07700872421264648,0.012420076876878738,-10.094612121582031
1.7294982987512847e+18,-0.025815807282924652,-0.005504895001649857,-10.1212797164917
1.729498298760285e+18,-0.021677866578102112,-0.06463441997766495,-10.033201217651367
1.729498298769285e+18,0.024240225553512573,0.014454696327447891,-10.031659126281738
1.7294982987752852e+18,0.06366880238056183,0.006087523885071278,-10.041001319885254
1.7294982987842854e+18,-0.07476689666509628,-0.05176679044961929,-10.024577140808105
1.7294982987902856e+18,0.08210575580596924,0.004609986674040556,-10.049182891845703
1.7294982987992858e+18,0.02238989807665348,-0.024995913729071617,-9.920727729797363
1.729498298808286e+18,0.04204488918185234,-0.03247726336121559,-9.924711227416992
1.7294982988202862e+18,-0.09536370635032654,0.01693548448383808,-9.902534484863281
1.7294982988262863e+18,0.05024731159210205,-0.021453000605106354,-9.794496536254883
1.7294982988352865e+18,-0.02971895970404148,0.0393066368997097,-9.85162353515625
1.7294982988442867e+18,0.06305072456598282,0.001672662328928709,-9.79043197631836
1.7294982988502868e+18,0.0013934742892161012,0.019008757546544075,-9.772382736206055
1.729498298859287e+18,-0.013217927888035774,0.008865708485245705,-9.760661125183105
1.7294982988682872e+18,-0.02845531515777111,-0.029383767396211624,-9.692809104919434
1.7294982988742874e+18,-0.045034363865852356,-0.036859624087810516,-9.733848571777344
1.7294982988892877e+18,0.009830737486481667,-0.05639338493347168,-9.710673332214355
1.7294982988982879e+18,-0.03391185775399208,-0.01887100748717785,-9.755401611328125
1.729498298907288e+18,-0.07693270593881607,-0.053640108555555344,-9.753766059875488
1.7294982989162883e+18,0.002359203062951565,0.056100405752658844,-9.62705135345459
1.7294982989222884e+18,-0.056738369166851044,-0.010546636767685413,-9.666241645812988
1.7294982989312886e+18,0.01855766773223877,-0.04259185492992401,-9.650522232055664
1.729498298946289e+18,-0.024630006402730942,-0.03934856876730919,-9.774614334106445
1.729498298952289e+18,-0.10639379173517227,-0.009331241250038147,-9.654885292053223
1.7294982989612892e+18,-0.047458797693252563,0.015925675630569458,-9.67230224609375
1.7294982989672893e+18,0.05574427917599678,-0.0043830955401062965,-9.69193172454834
1.7294982989762895e+18,0.054261643439531326,0.0055170184932649136,-9.616817474365234
1.7294982989852897e+18,-0.06524259597063065,0.009003320708870888,-9.673227310180664
1.72949829899429e+18,-0.008049990981817245,-0.004751607775688171,-9.661012649536133
1.72949829900029e+18,-0.04312730208039284,0.05275494605302811,-9.641962051391602
1.7294982990092902e+18,-0.025022562593221664,-0.020964616909623146,-9.674967765808105
1.7294982990182904e+18,-0.003728737821802497,0.015276148915290833,-9.614015579223633
1.7294982990242906e+18,-0.056272298097610474,0.0677095502614975,-9.649402618408203
1.7294982990332908e+18,0.010391905903816223,0.036081790924072266,-9.725341796875
1.729498299042291e+18,-0.019461574032902718,0.0207813773304224,-9.697504997253418
1.729498299048291e+18,0.03803315386176109,0.006562218070030212,-9.64594841003418
1.7294982990572913e+18,-0.09272436797618866,0.03442217409610748,-9.698132514953613
1.7294982990632914e+18,0.023603616282343864,-0.0698329359292984,-9.734490394592285
1.7294982990722916e+18,0.022535914555191994,-0.0651015192270279,-9.68034839630127
1.7294982990812918e+18,-0.0501927025616169,-0.07648260146379471,-9.716904640197754
1.729498299087292e+18,-0.04862922430038452,-0.02035156823694706,-9.683382987976074
1.729498299096292e+18,-0.05554230883717537,-0.023977624252438545,-9.653326034545898
1.7294982991052923e+18,0.023300668224692345,0.014815892092883587,-9.714930534362793
1.7294982991112924e+18,0.09002641588449478,0.014836834743618965,-9.654806137084961
1.7294982991202926e+18,-0.005805882625281811,0.03614846244454384,-9.639058113098145
1.7294982991262927e+18,-0.03275494650006294,-0.025695519521832466,-9.661149024963379
1.729498299135293e+18,0.05218559876084328,0.026115376502275467,-9.657698631286621
1.729498299141293e+18,-0.0484689362347126,-0.04318934306502342,-9.6538724899292
1.7294982991502932e+18,0.07182072848081589,0.0010285426396876574,-9.721400260925293
1.7294982991592934e+18,-0.02673790603876114,-0.01121407002210617,-9.69404411315918
1.7294982991652936e+18,0.03859463334083557,0.01644236594438553,-9.656539916992188
1.7294982991742938e+18,-0.04476410150527954,-0.01920805126428604,-9.745616912841797
1.729498299183294e+18,-0.06756184250116348,0.033146027475595474,-9.629725456237793
1.729498299189294e+18,0.008203580975532532,-0.015888383612036705,-9.70209789276123
1.7294982991982943e+18,0.034311190247535706,0.011059672571718693,-9.612277030944824
1.7294982992072945e+18,-0.0343407541513443,0.0006702533573843539,-9.668816566467285
1.7294982992132946e+18,-0.02846376597881317,0.003626060439273715,-9.685306549072266
1.7294982992222948e+18,-0.00339940725825727,0.015886027365922928,-9.660375595092773
1.729498299231295e+18,-0.025389011949300766,0.08616715669631958,-9.700931549072266
1.729498299237295e+18,-0.014320941641926765,-0.017776183784008026,-9.683427810668945
1.7294982992462953e+18,0.04817769303917885,-0.030850699171423912,-9.643102645874023
1.7294982992522954e+18,-0.01739128865301609,0.01693243533372879,-9.563460350036621
1.7294982992612956e+18,-0.04513929411768913,0.04802929237484932,-9.621742248535156
1.7294982992702958e+18,-0.027113012969493866,-0.04380332678556442,-9.635505676269531
1.729498299276296e+18,-0.010965414345264435,-0.03805696219205856,-9.674277305603027
1.729498299285296e+18,-0.012387823313474655,0.028089720755815506,-9.598718643188477
1.7294982992912963e+18,-0.12391309440135956,-0.0016029514372348785,-9.583426475524902
1.7294982993002964e+18,0.05952034890651703,-0.02204403281211853,-9.64944076538086
1.7294982993062966e+18,-0.006969159469008446,0.06337762624025345,-9.580681800842285
1.7294982993152968e+18,0.03595118597149849,0.034830398857593536,-9.605406761169434
1.729498299324297e+18,-0.03403657302260399,0.027801210060715675,-9.573744773864746
1.729498299330297e+18,0.02267829328775406,-0.02073094993829727,-9.69616413116455
1.7294982993392973e+18,0.0945751816034317,0.018092676997184753,-9.655179023742676
1.7294982993482975e+18,0.07343752682209015,0.013308978639543056,-9.65272331237793
1.7294982993542976e+18,-0.00851268321275711,0.03413053974509239,-9.585922241210938
1.7294982993632978e+18,0.0023230009246617556,-0.03567464277148247,-9.554802894592285
1.729498299369298e+18,0.010508127510547638,0.007667426951229572,-9.667441368103027
1.729498299378298e+18,0.005545227788388729,0.012388795614242554,-9.58112907409668
1.7294982993842982e+18,0.00989572610706091,0.06536587327718735,-9.602782249450684
1.7294982993932984e+18,-0.027456248179078102,0.025247102603316307,-9.597756385803223
1.7294982994022986e+18,0.011278284713625908,-0.01591235026717186,-9.663880348205566
1.7294982994082988e+18,0.03569341450929642,0.06783828884363174,-9.594614028930664
1.729498299417299e+18,0.02319604530930519,0.0768829956650734,-9.520859718322754
1.7294982994262991e+18,-0.08048233389854431,0.013874934986233711,-9.566247940063477
1.7294982994322993e+18,0.04080846905708313,-0.006139889359474182,-9.563188552856445
1.7294982994412995e+18,-0.013612241484224796,-0.0070992279797792435,-9.540128707885742
1.7294982994472996e+18,-0.04438960552215576,-0.010870612226426601,-9.523506164550781
1.7294982994562998e+18,0.035477809607982635,-0.0131884990260005,-9.541460037231445
1.7294982994653e+18,-0.03024301677942276,0.009093262255191803,-9.5971097946167
1.7294982994713e+18,0.04054756090044975,0.13026294112205505,-9.590612411499023
1.7294982994803003e+18,-0.054112572222948074,0.006130887195467949,-9.535751342773438
1.7294982994863004e+18,-0.03055458515882492,0.03214102238416672,-9.546868324279785
1.7294982994953006e+18,0.01258704625070095,0.042928341776132584,-9.586771965026855
1.7294982995043008e+18,0.004353799857199192,-0.04462847113609314,-9.59859848022461
1.729498299510301e+18,-0.050523094832897186,-0.034767527133226395,-9.652802467346191
1.729498299519301e+18,0.01672978885471821,0.06814305484294891,-9.647236824035645
1.7294982995283013e+18,-0.004370774608105421,-0.04069359973073006,-9.540401458740234
1.7294982995343014e+18,-0.04615441709756851,-0.029525725170969963,-9.568968772888184
1.7294982995433016e+18,0.03260326758027077,-0.04995205998420715,-9.519084930419922
1.7294982995493018e+18,-0.03285544365644455,-9.926198981702328e-05,-9.507908821105957
1.729498299558302e+18,0.06559629738330841,-0.008926124311983585,-9.53268051147461
1.729498299564302e+18,-0.06904702633619308,0.021477961912751198,-9.528061866760254
1.7294982995733023e+18,-0.03702731430530548,0.02773474156856537,-9.67441463470459
1.7294982995793024e+18,-0.0650673508644104,0.04655303806066513,-9.542998313903809
1.7294982995883026e+18,0.05818169191479683,-0.04685896262526512,-9.559532165527344
1.7294982995973028e+18,0.022289110347628593,-0.05414370819926262,-9.53317642211914
1.729498299606303e+18,0.015183602459728718,-0.012432530522346497,-9.47887134552002
1.729498299612303e+18,0.00906300451606512,0.07837825268507004,-9.576869010925293
1.7294982996213033e+18,0.019877001643180847,-0.057314664125442505,-9.511634826660156
1.7294982996273034e+18,0.015121867880225182,0.04608151316642761,-9.576804161071777
1.7294982996363036e+18,-0.0537743903696537,0.08585794270038605,-9.636154174804688
1.7294982996423037e+18,0.023118771612644196,-0.004957991186529398,-9.542332649230957
1.729498299651304e+18,-0.03523452579975128,0.058530546724796295,-9.509160995483398
1.7294982996603041e+18,-0.015163153409957886,-0.01738109067082405,-9.457759857177734
1.7294982996693043e+18,0.07076389342546463,-0.000404385500587523,-9.490294456481934
1.7294982996783045e+18,-0.06078726798295975,0.03936539962887764,-9.597153663635254
1.7294982996873047e+18,0.018081193789839745,-0.03494115546345711,-9.564974784851074
1.729498299696305e+18,-0.044323187321424484,-0.005708611570298672,-9.49322509765625
1.729498299702305e+18,-0.0015235536266118288,-0.033881932497024536,-9.463423728942871
1.7294982997113052e+18,0.028712883591651917,-0.03403656929731369,-9.55106258392334
1.7294982997203054e+18,-0.04112920165061951,-0.017194028943777084,-9.494139671325684
1.7294982997293056e+18,0.0455358661711216,-0.020045414566993713,-9.50993537902832
1.7294982997383058e+18,-0.004215761087834835,-0.044808123260736465,-9.466885566711426
1.729498299747306e+18,0.006692263763397932,0.012955821119248867,-9.55285358428955
1.7294982997563062e+18,-0.05236193537712097,-0.013627960346639156,-9.49717903137207
1.7294982997623063e+18,0.04796707257628441,0.05607594549655914,-9.527835845947266
1.7294982997713065e+18,0.04001190513372421,0.007678417023271322,-9.548707962036133
1.7294982997773066e+18,-0.07439106702804565,-0.0461941622197628,-9.498988151550293
1.7294982997863068e+18,-0.018749084323644638,-0.012421563267707825,-9.460970878601074
1.729498299795307e+18,-0.01539243571460247,-0.005043798126280308,-9.520716667175293
1.7294982998013071e+18,0.012984704226255417,-0.03915504366159439,-9.497209548950195
1.7294982998103073e+18,0.03424032777547836,-0.03472815826535225,-9.490245819091797
1.7294982998163075e+18,-0.05250249803066254,-0.0341000072658062,-9.514192581176758
1.7294982998253076e+18,0.0054961079731583595,-0.05264833942055702,-9.538633346557617
1.7294982998343078e+18,-0.031439729034900665,0.07247405499219894,-9.432731628417969
1.729498299843308e+18,-0.0550268217921257,0.03847234696149826,-9.449846267700195
1.7294982998493082e+18,0.05340946465730667,-0.03882833197712898,-9.483684539794922
1.7294982998583084e+18,0.02120213583111763,-0.029858645051717758,-9.468372344970703
1.7294982998673085e+18,0.021119961515069008,-0.013328103348612785,-9.480894088745117
1.7294982998763087e+18,-0.019313110038638115,-0.05585572496056557,-9.504678726196289
1.729498299885309e+18,-0.06276122480630875,-0.030788421630859375,-9.483471870422363
1.729498299891309e+18,0.054673999547958374,-0.06686347723007202,-9.480064392089844
1.7294982999003092e+18,-0.06964704394340515,-0.03127589821815491,-9.492725372314453
1.7294982999093094e+18,0.014205807819962502,0.05152405798435211,-9.45574951171875
1.7294982999153096e+18,0.10362811386585236,0.006486262194812298,-9.508620262145996
1.7294982999243098e+18,0.048444963991642,-0.025841068476438522,-9.53962230682373
1.72949829993331e+18,0.031254783272743225,0.021996254101395607,-9.472071647644043
1.72949829993931e+18,0.012287403456866741,-0.05009757727384567,-9.494499206542969
1.7294982999483103e+18,-0.0003219348145648837,0.009449739009141922,-9.42577838897705
1.7294982999573105e+18,0.01760040782392025,0.010111933574080467,-9.464775085449219
1.7294982999663107e+18,-0.11132480949163437,0.022977057844400406,-9.513052940368652
1.7294982999723108e+18,0.014939265325665474,0.05259905382990837,-9.569133758544922
1.729498299981311e+18,0.013331594876945019,-0.023914450779557228,-9.47329330444336
1.7294982999903112e+18,0.03193555399775505,0.029681527987122536,-9.527580261230469
1.7294982999993114e+18,-0.0030028000473976135,0.01371361780911684,-9.492225646972656
1.7294983000053115e+18,0.0018147920491173863,-0.014692937955260277,-9.524234771728516
1.7294983000143117e+18,0.059694357216358185,-0.0125584052875638,-9.424545288085938
1.729498300023312e+18,0.01658688299357891,-0.11057168245315552,-9.455915451049805
1.729498300029312e+18,-0.014732352457940578,0.09545260667800903,-9.434706687927246
1.7294983000383122e+18,-0.09961767494678497,0.011780556291341782,-9.436930656433105
1.7294983000473124e+18,0.05007614567875862,-0.03646542876958847,-9.396018981933594
1.7294983000563126e+18,-0.06460507959127426,0.05669187381863594,-9.52730941772461
1.7294983000623127e+18,0.02462043985724449,0.010225670412182808,-9.477149963378906
1.729498300071313e+18,0.058572784066200256,-0.05699465796351433,-9.467494010925293
1.729498300077313e+18,0.010949512012302876,-0.053788572549819946,-9.474159240722656
1.7294983000863132e+18,-0.05561968684196472,-0.0064513832330703735,-9.406418800354004
1.7294983000953134e+18,0.07425349205732346,0.05320432409644127,-9.519351959228516
1.7294983001013135e+18,-0.08080466836690903,-0.004891534335911274,-9.426661491394043
1.7294983001103137e+18,-0.03706881031394005,-0.02561870776116848,-9.496538162231445
1.7294983001163139e+18,0.05353990197181702,0.04634876921772957,-9.424135208129883
1.729498300125314e+18,0.023112427443265915,-0.03939346596598625,-9.463460922241211
1.7294983001343142e+18,0.009102643467485905,-0.07346754521131516,-9.46125602722168
1.7294983001433144e+18,-0.04001980274915695,-0.008767766878008842,-9.418965339660645
1.7294983001523146e+18,-0.078450508415699,-0.038535118103027344,-9.385303497314453
1.7294983001583148e+18,0.00030075598624534905,0.008888447657227516,-9.459875106811523
1.729498300167315e+18,-0.010615714825689793,-0.04728752374649048,-9.41524887084961
1.7294983001763151e+18,0.062017686665058136,0.024066803976893425,-9.447434425354004
1.7294983001853153e+18,0.003684660419821739,-0.07092398405075073,-9.457645416259766
1.7294983001913155e+18,-0.07916242629289627,-0.022505564615130424,-9.40329647064209
1.7294983002003156e+18,0.03942394629120827,-0.0491812489926815,-9.41372013092041
1.7294983002093158e+18,0.009451325982809067,-0.03362515941262245,-9.436615943908691
1.729498300215316e+18,0.008102146908640862,-0.03759334981441498,-9.414445877075195
1.7294983002243162e+18,0.05202992260456085,0.006932185962796211,-9.334189414978027
1.7294983002333164e+18,0.04035813361406326,0.0695590227842331,-9.455449104309082
1.7294983002423165e+18,0.04037332907319069,-0.002494734711945057,-9.439584732055664
1.7294983002483167e+18,0.05338399112224579,-0.06541410088539124,-9.488838195800781
1.7294983002573169e+18,0.019374379888176918,-0.0046562254428863525,-9.429208755493164
1.729498300266317e+18,-0.05025502294301987,0.01868797279894352,-9.465250015258789
1.7294983002753172e+18,0.016784850507974625,-0.07022270560264587,-9.372824668884277
1.7294983002813174e+18,-0.07883286476135254,-0.05068567395210266,-9.47006893157959
1.7294983002903176e+18,-0.049890052527189255,-0.06746955215930939,-9.478453636169434
1.7294983002993178e+18,0.015604750253260136,-0.022001022472977638,-9.540221214294434
1.729498300308318e+18,-0.04734961688518524,0.07407432794570923,-9.463957786560059
1.7294983003173181e+18,-0.004818171728402376,0.060156334191560745,-9.405511856079102
1.7294983003263183e+18,0.019590264186263084,-0.08310452103614807,-9.461002349853516
1.7294983003353185e+18,0.04723513871431351,-0.03586115315556526,-9.370095252990723
1.7294983003443187e+18,-0.027721885591745377,0.042958665639162064,-9.33603572845459
1.729498300356319e+18,-0.01694745570421219,0.020641466602683067,-9.258256912231445
1.7294983003653192e+18,0.07318472862243652,0.06431709229946136,-9.291487693786621
1.7294983003743194e+18,-0.001127653638832271,0.029910743236541748,-9.249056816101074
1.7294983003833196e+18,-0.013954155147075653,0.022037837654352188,-9.210519790649414
1.7294983003923197e+18,-0.08838656544685364,0.07625553011894226,-9.193358421325684
1.72949830040132e+18,0.05991693213582039,-0.01807001791894436,-9.147171974182129
1.7294983004103201e+18,-0.0023821969516575336,0.038035523146390915,-9.145971298217773
1.7294983004193203e+18,0.07360515743494034,0.04069461673498154,-9.105062484741211
1.7294983004283205e+18,-0.008509140461683273,-0.002139827236533165,-9.109642028808594
1.7294983004403208e+18,-0.036938585340976715,0.0531480498611927,-8.991535186767578
1.729498300449321e+18,0.10434937477111816,0.0199322160333395,-9.033790588378906
1.7294983004583212e+18,-0.025482608005404472,0.019560422748327255,-9.008341789245605
1.7294983004673213e+18,0.046214714646339417,0.08055461943149567,-8.90103530883789
1.7294983004763215e+18,0.06504517048597336,0.0008811905281618237,-8.896960258483887
1.7294983004853217e+18,-0.04769233986735344,-0.0031626250129193068,-8.845341682434082
1.729498300497322e+18,0.029489994049072266,-0.02446156181395054,-8.88724422454834
1.7294983005063222e+18,0.06973997503519058,-0.061032891273498535,-8.894916534423828
1.7294983005153224e+18,-0.06212254613637924,-0.0422564335167408,-8.728572845458984
1.7294983005243226e+18,0.0035255278926342726,-0.05927809327840805,-8.71300983428955
1.7294983005333228e+18,-0.05277632176876068,-0.010813629254698753,-8.7050199508667
1.729498300542323e+18,0.05474143847823143,-0.06462904065847397,-8.587879180908203
1.7294983005513231e+18,0.03828251361846924,-0.017641616985201836,-8.659760475158691
1.7294983005633234e+18,-0.0091294776648283,0.018700776621699333,-8.668950080871582
1.7294983005723236e+18,0.045869000256061554,-0.022016456350684166,-8.718031883239746
1.7294983005813238e+18,-0.0093819135800004,0.02438517101109028,-8.6138277053833
1.729498300590324e+18,-0.04158632457256317,0.004116630181670189,-8.733981132507324
1.7294983005993242e+18,0.056155975908041,0.0011345390230417252,-8.678091049194336
1.7294983006083244e+18,0.0028398819267749786,0.020222732797265053,-8.644030570983887
1.7294983006173245e+18,0.02236359380185604,0.10367989540100098,-8.603702545166016
1.7294983006263247e+18,-0.0014851579908281565,-0.014547598548233509,-8.668912887573242
1.729498300635325e+18,0.015589968301355839,0.036119382828474045,-8.750632286071777
1.729498300644325e+18,0.012040486559271812,0.04898589104413986,-8.721125602722168
1.7294983006563254e+18,-0.029557669535279274,0.05154232680797577,-8.762309074401855
1.7294983006653256e+18,0.05430109053850174,0.002747131744399667,-8.786039352416992
1.7294983006743258e+18,-0.0014476882060989738,-0.047127582132816315,-8.744964599609375
1.729498300683326e+18,-0.038753293454647064,-0.0030036375392228365,-8.782962799072266
1.7294983006923261e+18,-0.03720034286379814,0.028132595121860504,-8.745390892028809
1.7294983007013263e+18,-0.045685965567827225,0.037972357124090195,-8.770676612854004
1.7294983007103265e+18,0.044089242815971375,-0.06978905946016312,-8.845797538757324
1.7294983007193267e+18,-0.01196831464767456,0.02208077162504196,-8.899436950683594
1.729498300728327e+18,-0.02920404076576233,-0.037043653428554535,-8.968982696533203
1.729498300737327e+18,-0.027224386110901833,0.053896576166152954,-12.197003364562988
1.7294983007463273e+18,0.015523687936365604,0.055130522698163986,-15.64223575592041
1.7294983007523274e+18,0.006244341842830181,-0.006279436405748129,-16.154136657714844
1.7294983007613276e+18,-0.038878049701452255,-0.021055052056908607,-16.309785842895508
1.7294983007703278e+18,0.04564737156033516,0.004937176592648029,-16.38718605041504
1.729498300779328e+18,-0.1089983582496643,0.02997604012489319,-16.37503433227539
1.7294983007883282e+18,-0.019419634714722633,0.038626741617918015,-16.245830535888672
1.7294983007973284e+18,0.03992590680718422,0.04810742288827896,-16.160320281982422
1.7294983008063286e+18,-0.008346235379576683,0.027186326682567596,-15.977897644042969
1.7294983008153288e+18,0.021757857874035835,0.07064670324325562,-15.786601066589355
1.729498300824329e+18,0.08026216179132462,-0.021850429475307465,-15.667003631591797
1.729498300830329e+18,-0.03105553798377514,0.08011021465063095,-15.610965728759766
1.7294983008393293e+18,0.012322097085416317,-0.003235900541767478,-15.503398895263672
1.7294983008483295e+18,0.11318691819906235,-0.012872922234237194,-15.386984825134277
1.7294983008573297e+18,-0.04569714888930321,0.0019607259891927242,-15.185081481933594
1.7294983008663299e+18,-0.0673418790102005,0.048513710498809814,-15.07135009765625
1.72949830087533e+18,0.019715318456292152,0.020975682884454727,-15.067021369934082
1.7294983008843302e+18,0.05548502504825592,0.07668009400367737,-14.817687034606934
1.7294983008933304e+18,0.028729494661092758,-0.023840639740228653,-14.704590797424316
1.7294983009023306e+18,-0.049731362611055374,-0.020662646740674973,-14.598748207092285
1.7294983009113308e+18,0.05624827370047569,-0.046639591455459595,-14.516690254211426
1.729498300920331e+18,-0.0033520797733217478,0.030183125287294388,-14.360736846923828
1.7294983009263311e+18,-0.010819554328918457,-0.10305118560791016,-14.2888765335083
1.7294983009353313e+18,0.04179803282022476,-0.02500792220234871,-14.193587303161621
1.7294983009443315e+18,0.009829525835812092,-0.09148885309696198,-14.153271675109863
1.7294983009533317e+18,-0.005865772254765034,0.04899768903851509,-14.034533500671387
1.729498300962332e+18,-0.04760391265153885,-0.040714915841817856,-13.842984199523926
1.729498300968332e+18,0.043420277535915375,0.0028961021453142166,-13.839934349060059
1.7294983009773322e+18,0.04705522581934929,0.01249686162918806,-13.664352416992188
1.7294983009863324e+18,-0.05229282006621361,-0.02692030556499958,-13.673869132995605
1.7294983009923325e+18,-0.00787555892020464,-0.0099979592487216,-13.654827117919922
1.7294983010013327e+18,0.05925123766064644,-0.07216911017894745,-13.398834228515625
1.729498301010333e+18,0.009535384364426136,-0.007894778624176979,-13.374954223632812
1.729498301019333e+18,-0.049572620540857315,0.007181279826909304,-13.31287670135498
1.7294983010283333e+18,0.05793051794171333,-0.05755084753036499,-13.26389217376709
1.7294983010343334e+18,0.009843162260949612,0.0717211365699768,-13.204978942871094
1.7294983010433336e+18,0.0287177637219429,-0.06314028799533844,-13.089225769042969
1.7294983010523338e+18,-0.05434371531009674,0.0034136991016566753,-12.973512649536133
1.729498301061334e+18,-0.03200846537947655,0.007904787547886372,-12.94599723815918
1.7294983010673341e+18,0.03390353173017502,-0.007512472569942474,-12.941192626953125
1.7294983010763343e+18,-0.02169434167444706,-0.02361719124019146,-12.790185928344727
1.7294983010853345e+18,0.023177508264780045,-0.02527923695743084,-12.729846000671387
1.7294983010913347e+18,-0.0017940463731065392,-0.034894660115242004,-12.629647254943848
1.7294983011003348e+18,-0.011909674853086472,0.06538241356611252,-12.580301284790039
1.729498301109335e+18,0.045647550374269485,-0.047360293567180634,-12.520177841186523
1.7294983011153352e+18,-0.047295961529016495,0.0030139973387122154,-12.525195121765137
1.7294983011243354e+18,-0.13947772979736328,-0.017616698518395424,-12.455638885498047
1.7294983011303355e+18,-0.06848148256540298,-0.02485494129359722,-12.527344703674316
1.7294983011393357e+18,-0.14196082949638367,0.020505284890532494,-12.408291816711426
1.7294983011483359e+18,-0.01571330428123474,0.0023836276959627867,-12.293235778808594
1.729498301154336e+18,-0.022394051775336266,0.01657956838607788,-12.247172355651855
1.7294983011633362e+18,0.005127207841724157,0.0737389326095581,-12.168722152709961
1.7294983011723364e+18,0.010149992071092129,-0.030197834596037865,-12.063787460327148
1.7294983011813366e+18,-0.031959403306245804,0.04476786404848099,-12.089983940124512
1.7294983011903368e+18,-0.09477227181196213,0.026430463418364525,-12.099950790405273
1.729498301196337e+18,0.006838038098067045,0.09989160299301147,-12.022114753723145
1.729498301205337e+18,0.012908833101391792,-0.040719661861658096,-12.013189315795898
1.7294983012143373e+18,-0.0393093004822731,-0.004901034291833639,-12.014718055725098
1.7294983012203374e+18,0.010852556675672531,-0.06850045174360275,-11.930822372436523
1.7294983012293376e+18,0.04081235080957413,-0.033547915518283844,-11.885499954223633
1.7294983012383378e+18,-0.01604709029197693,-0.009064524434506893,-11.821355819702148
1.729498301244338e+18,-0.05089529603719711,-0.06191951408982277,-11.790177345275879
1.729498301253338e+18,-0.061404287815093994,-0.013201368041336536,-11.704774856567383
1.7294983012623383e+18,0.00016983893874567002,0.05591386556625366,-11.75493049621582
1.7294983012713385e+18,0.04080312326550484,0.07500863820314407,-11.621872901916504
1.7294983012773386e+18,0.009190832264721394,-0.042796600610017776,-11.60776424407959
1.7294983012863388e+18,-0.0003759032697416842,-0.05739416927099228,-11.56969928741455
1.729498301295339e+18,-0.014478296972811222,0.08831571042537689,-11.612321853637695
1.7294983013043392e+18,0.0653764009475708,-0.05938045307993889,-11.521313667297363
1.7294983013103393e+18,0.003912512678653002,-0.028270579874515533,-11.485373497009277
1.7294983013193395e+18,-0.037468936294317245,-0.07224370539188385,-11.521194458007812
1.7294983013283397e+18,0.07801836729049683,0.014408147893846035,-11.340738296508789
1.7294983013343398e+18,-0.019747478887438774,0.05038674920797348,-11.33694839477539
1.72949830134334e+18,-0.06263145059347153,0.009137277491390705,-11.35787582397461
1.7294983013523402e+18,0.044950440526008606,-0.00015692126180510968,-11.360347747802734
1.7294983013583404e+18,0.003461016109213233,-0.07685655355453491,-11.280712127685547
1.7294983013673405e+18,0.03438054397702217,0.02266380749642849,-11.236184120178223
1.7294983013763407e+18,-0.018641358241438866,-0.04170115664601326,-11.2697172164917
1.7294983013823409e+18,0.03226488083600998,-0.01640700362622738,-11.176557540893555
1.729498301391341e+18,0.03795580193400383,-0.002689929213374853,-11.321305274963379
1.7294983014003412e+18,-0.03315654769539833,0.00689301872625947,-11.143787384033203
1.7294983014063414e+18,-0.0632631927728653,-0.06576871871948242,-11.16621208190918
1.7294983014153416e+18,-0.0033245442900806665,-0.032925285398960114,-11.168695449829102
1.7294983014243418e+18,-0.03040560893714428,-0.035017672926187515,-11.042109489440918
1.729498301433342e+18,0.05097158998250961,-0.041112128645181656,-11.010284423828125
1.7294983014423421e+18,0.03199097514152527,-0.07047945261001587,-11.06242847442627
1.7294983014513423e+18,-0.026487598195672035,0.00034896345459856093,-11.013528823852539
1.7294983014603425e+18,0.03537575900554657,-0.0076070064678788185,-11.041397094726562
1.7294983014663427e+18,0.007026738487184048,-0.027271244674921036,-10.925702095031738
1.7294983014753428e+18,-0.038319170475006104,-0.07416535913944244,-10.952461242675781
1.729498301484343e+18,-0.03330763429403305,-0.09603036940097809,-10.916858673095703
1.7294983014903432e+18,-0.0050235409289598465,-0.05043119937181473,-10.908663749694824
1.7294983014993434e+18,-0.08168681710958481,-0.006200677249580622,-10.773199081420898
1.7294983015083436e+18,0.062023550271987915,0.015867268666625023,-10.858489036560059
1.7294983015143437e+18,0.05246058478951454,-0.011883175931870937,-10.79457950592041
1.729498301523344e+18,-0.0075174663215875626,0.05474915727972984,-10.851441383361816
1.729498301532344e+18,0.030890511348843575,-0.025916846469044685,-10.788915634155273
1.7294983015413443e+18,-0.044596292078495026,0.059242844581604004,-10.744916915893555
1.7294983015473444e+18,0.03770466893911362,-0.059193212538957596,-10.699393272399902
1.7294983015563446e+18,-0.035059258341789246,0.009967787191271782,-10.700181007385254
1.7294983015623447e+18,-0.06005284562706947,-0.015042505227029324,-10.819928169250488
1.729498301571345e+18,0.03522980585694313,0.03097117878496647,-10.726713180541992
1.729498301580345e+18,0.014836158603429794,-0.047476548701524734,-10.770785331726074
1.7294983015893453e+18,0.003821962745860219,-0.011164406314492226,-10.617707252502441
1.7294983015953454e+18,0.005584940314292908,-0.044196292757987976,-10.628954887390137
1.7294983016043456e+18,0.03207021951675415,0.05680963024497032,-10.618010520935059
1.7294983016133458e+18,-0.0019659872632473707,-0.08253687620162964,-10.736918449401855
1.729498301619346e+18,-0.007070301566272974,0.006734021939337254,-10.604239463806152
1.7294983016313462e+18,0.006272627040743828,-0.038855936378240585,-10.640459060668945
1.7294983016373463e+18,0.013543176464736462,-0.028690865263342857,-10.588922500610352
1.7294983016463465e+18,0.04193847253918648,-0.01969124935567379,-10.528573989868164
1.7294983016553467e+18,-0.051536496728658676,-0.01925133541226387,-10.554157257080078
1.7294983016613468e+18,0.06567798554897308,-0.06595874577760696,-10.469728469848633
1.729498301670347e+18,0.01860983297228813,0.02120448462665081,-10.461244583129883
1.7294983016793472e+18,0.03417327627539635,0.06592142581939697,-10.417582511901855
1.7294983016883474e+18,0.022434040904045105,0.002305725123733282,-10.40872859954834
1.7294983016943475e+18,0.07647063583135605,-0.02232169732451439,-10.429896354675293
1.7294983017033477e+18,0.052679821848869324,0.04870080575346947,-10.416685104370117
1.729498301712348e+18,0.07448754459619522,-0.027492472901940346,-10.460041999816895
1.729498301718348e+18,-0.055491384118795395,-0.03883703052997589,-10.418445587158203
1.7294983017273482e+18,0.019368795678019524,0.0509549118578434,-10.398382186889648
1.7294983017363484e+18,-0.029770758002996445,-0.0028234291821718216,-10.401439666748047
1.7294983017423485e+18,0.03509918972849846,-0.0025486445520073175,-10.356728553771973
1.7294983017513487e+18,-0.014494374394416809,0.07246606051921844,-10.403617858886719
1.729498301760349e+18,0.007816609926521778,-0.013206464238464832,-10.305381774902344
1.729498301766349e+18,-0.02688479796051979,-0.0597783625125885,-10.33460521697998
1.7294983017753492e+18,-0.05791141837835312,-0.0453561395406723,-10.260295867919922
1.7294983017843494e+18,0.010348525829613209,-0.02049942873418331,-10.361798286437988
1.7294983017933496e+18,-0.016549458727240562,0.04475458711385727,-10.275185585021973
1.7294983018023498e+18,0.030965613201260567,-0.09386087954044342,-10.338876724243164
1.72949830180835e+18,-0.052676647901535034,-0.04575773701071739,-10.356263160705566
1.7294983018173501e+18,0.007769192103296518,0.025510545819997787,-10.279189109802246
1.7294983018263503e+18,0.05093015357851982,0.0031178041826933622,-10.21274471282959
1.7294983018353505e+18,-0.04873991385102272,0.042970046401023865,-10.227209091186523
1.7294983018413507e+18,-0.07218638062477112,0.08448000252246857,-10.190666198730469
1.7294983018503508e+18,-0.03364577144384384,-0.05112028494477272,-10.258341789245605
1.729498301859351e+18,0.019883353263139725,0.08564184606075287,-10.22346305847168
1.7294983018653512e+18,-0.0763121247291565,0.032486140727996826,-10.195904731750488
1.7294983018743514e+18,0.02087659016251564,0.13095255196094513,-10.189529418945312
1.7294983018833516e+18,-0.023314546793699265,-0.0011053509078919888,-10.151213645935059
1.7294983018893517e+18,-0.04582740738987923,0.03176643326878548,-10.17943000793457
1.7294983018983519e+18,0.06355635821819305,-0.010571455582976341,-10.150134086608887
1.729498301907352e+18,0.052802674472332,-0.0457984060049057,-10.154948234558105
1.7294983019163523e+18,0.0401657335460186,-0.002410236280411482,-10.162938117980957
1.7294983019253524e+18,0.04149910807609558,-0.047118816524744034,-10.14939022064209
1.7294983019313526e+18,-0.0073318867944180965,-0.019679447636008263,-10.16176700592041
1.7294983019433528e+18,-0.0024163404013961554,0.09767310321331024,-10.155673027038574
1.729498301949353e+18,-0.05735963582992554,0.013306187465786934,-10.08956527709961
1.7294983019583532e+18,-0.0013990250881761312,-0.013346382416784763,-10.08232307434082
1.7294983019643533e+18,0.058299288153648376,-0.008544938638806343,-10.08678150177002
1.7294983019733535e+18,0.07572219520807266,0.03993615508079529,-9.997095108032227
1.7294983019823537e+18,0.044001080095767975,-0.044663205742836,-10.114791870117188
1.7294983019883538e+18,0.012633133679628372,-0.004330021794885397,-9.995387077331543
1.729498301997354e+18,-0.0382331945002079,0.024366222321987152,-10.00907039642334
1.7294983020063542e+18,0.019462238997220993,0.017197512090206146,-10.060290336608887
1.7294983020153544e+18,0.0309170950204134,0.02760905958712101,-10.032220840454102
1.7294983020243546e+18,-0.030634118244051933,-0.0360906682908535,-10.072790145874023
1.7294983020303547e+18,-0.016142472624778748,0.006844137329608202,-10.015825271606445
1.729498302039355e+18,0.031951215118169785,0.05796485021710396,-10.039012908935547
1.729498302048355e+18,0.07120094448328018,-0.07552078366279602,-10.024964332580566
1.7294983020573553e+18,-0.06739547848701477,0.10464727878570557,-9.99334716796875
1.7294983020633554e+18,0.03869933634996414,-0.016320744529366493,-10.004338264465332
1.7294983020723556e+18,0.05996314063668251,0.08231242001056671,-9.955984115600586
1.7294983020813558e+18,0.03486962243914604,-0.009013749659061432,-9.920235633850098
1.729498302090356e+18,-0.055296096950769424,0.04869762808084488,-9.955339431762695
1.729498302096356e+18,0.003947568126022816,0.01708453707396984,-10.04478931427002
1.7294983021053563e+18,-0.06371638923883438,0.05192856118083,-9.996206283569336
1.7294983021143565e+18,-0.012677831575274467,-0.01793132908642292,-9.937493324279785
1.7294983021233567e+18,0.03318137302994728,-0.04659736528992653,-9.87856674194336
1.7294983021323569e+18,0.019290849566459656,0.01864013262093067,-9.923017501831055
1.729498302138357e+18,-0.03114274889230728,0.004171079955995083,-9.979433059692383
1.7294983021473572e+18,-0.012235564179718494,-0.05313393846154213,-9.931659698486328
1.7294983021563574e+18,-0.019077671691775322,0.03287266194820404,-9.923995018005371
1.7294983021653576e+18,0.0485643595457077,0.08801092207431793,-9.982954978942871
1.7294983021743578e+18,-0.05322538688778877,-0.002042496344074607,-9.957940101623535
1.729498302180358e+18,-0.008905181661248207,0.011418233625590801,-9.939942359924316
1.729498302189358e+18,0.08908483386039734,0.05794714763760567,-9.912264823913574
1.7294983021983583e+18,0.02384950779378414,0.04454587399959564,-9.91675853729248
1.7294983022073585e+18,0.05136963352560997,-0.06309423595666885,-9.871971130371094
1.7294983022163587e+18,-0.03287461772561073,-0.018107304349541664,-9.885987281799316
1.7294983022253588e+18,-0.0341791994869709,0.014543783850967884,-9.84228229522705
1.729498302234359e+18,-0.0015639433404430747,0.028891758993268013,-9.880167007446289
1.7294983022433592e+18,-0.04073791950941086,0.09032405912876129,-9.857367515563965
1.7294983022493594e+18,-0.003249621717259288,-0.06847862899303436,-9.855472564697266
1.7294983022583596e+18,0.0029628511983901262,0.025861725211143494,-9.902456283569336
1.7294983022673597e+18,0.008192293345928192,-0.037314821034669876,-9.83372688293457
1.72949830227336e+18,-0.011415651068091393,-0.13578307628631592,-9.865612983703613
1.72949830228236e+18,-0.030712777748703957,0.011817015707492828,-9.767333984375
1.7294983022913603e+18,-0.02623492293059826,-0.017479369416832924,-9.944640159606934
1.7294983022973604e+18,0.06354077160358429,-0.0008243138436228037,-9.88585090637207
1.7294983023063606e+18,0.02986804023385048,-0.004696637857705355,-9.929495811462402
1.7294983023153608e+18,0.0007346814963966608,-0.10177964717149734,-9.820079803466797
1.729498302321361e+18,0.09580831974744797,0.05615200474858284,-9.87802505493164
1.729498302330361e+18,0.009820174425840378,-0.027536723762750626,-9.792915344238281
1.7294983023393613e+18,-0.05585804581642151,0.017478976398706436,-9.816434860229492
1.7294983023483615e+18,0.03855223208665848,-0.057575587183237076,-9.801368713378906
1.7294983023573617e+18,0.003587741870433092,0.050305113196372986,-9.817688941955566
1.7294983023663619e+18,-0.011030188761651516,-0.004307949915528297,-9.82211971282959
1.729498302375362e+18,0.028572294861078262,-0.05541172996163368,-9.896367073059082
1.7294983023813622e+18,-0.0031028941739350557,0.054267365485429764,-9.868023872375488
1.7294983023903624e+18,-0.030208176001906395,0.04082908853888512,-9.82109260559082
1.7294983023993626e+18,0.024016862735152245,0.03975922614336014,-9.859332084655762
1.7294983024083628e+18,-0.03207102045416832,0.006795132532715797,-9.79572868347168
1.729498302414363e+18,0.02084866166114807,0.025362659245729446,-9.745725631713867
1.729498302423363e+18,0.025396473705768585,0.010783039033412933,-9.82833194732666
1.7294983024323633e+18,0.004506601020693779,-0.04836134985089302,-9.77519702911377
1.7294983024413635e+18,0.011176987551152706,0.01283974014222622,-9.84461784362793
1.7294983024473636e+18,-0.05008821561932564,-0.022767873480916023,-9.800819396972656
1.7294983024563638e+18,-0.05392204225063324,0.007219604216516018,-9.844879150390625
1.729498302465364e+18,-0.03765495494008064,0.11874957382678986,-9.772943496704102
1.7294983024743642e+18,0.03653571382164955,0.0035190714988857508,-9.848883628845215
1.7294983024803643e+18,-0.019700227305293083,0.09437932074069977,-9.78802490234375
1.7294983024893645e+18,-0.04875577986240387,-0.03913005813956261,-9.77768325805664
1.7294983024983647e+18,0.002904167864471674,-0.015352312475442886,-9.76941204071045
1.7294983025073649e+18,0.08018268644809723,0.007157785352319479,-9.85104751586914
1.729498302516365e+18,0.05359511449933052,0.01596832275390625,-9.857720375061035
1.7294983025223652e+18,0.04071168228983879,-0.0010008546523749828,-9.778385162353516
1.7294983025313654e+18,0.03446570038795471,0.05052231624722481,-9.856374740600586
1.7294983025403656e+18,0.02455470710992813,-0.047876521944999695,-9.7827730178833
1.7294983025463657e+18,0.015497882850468159,-0.06893134862184525,-9.809511184692383
1.729498302555366e+18,-0.0038086092099547386,-0.07595908641815186,-9.747654914855957
1.729498302564366e+18,-0.09883802384138107,-0.05496677756309509,-9.735642433166504
1.7294983025733663e+18,0.012763711623847485,0.029866961762309074,-9.784700393676758
1.7294983025823665e+18,0.0641946941614151,0.022671982645988464,-9.80772590637207
1.7294983025913667e+18,-0.02945742756128311,-0.02179127186536789,-9.794428825378418
1.7294983026003668e+18,0.04632926732301712,-0.03733091428875923,-9.778533935546875
1.729498302606367e+18,0.03906145691871643,0.027263665571808815,-9.768655776977539
1.7294983026153672e+18,0.010115188546478748,-0.04691864550113678,-9.747115135192871
1.7294983026243674e+18,-0.008155823685228825,-0.10131172090768814,-9.752715110778809
1.7294983026333676e+18,0.053490493446588516,0.00685196602717042,-9.791028022766113
1.7294983026393677e+18,0.006195623427629471,0.09920693188905716,-9.742082595825195
1.7294983026483679e+18,0.00857673492282629,0.030372876673936844,-9.690109252929688
1.729498302657368e+18,0.031019365414977074,-0.041655343025922775,-9.792107582092285
1.7294983026663683e+18,0.007705771364271641,0.015376883558928967,-9.776144981384277
1.7294983026723684e+18,0.07091361284255981,0.0005537604447454214,-9.711540222167969
1.7294983026813686e+18,-0.034882720559835434,-0.025102917104959488,-9.775644302368164
1.7294983026903688e+18,0.005023924633860588,0.04100635647773743,-9.700507164001465
1.729498302696369e+18,-0.022373907268047333,-0.010926574468612671,-9.690088272094727
1.729498302705369e+18,0.023474305868148804,0.009248834103345871,-9.710575103759766
1.7294983027143693e+18,-0.021925590932369232,-0.02957051992416382,-9.714643478393555
1.7294983027203694e+18,0.021004697307944298,0.005046267993748188,-9.71692943572998
1.7294983027293696e+18,-0.06821661442518234,0.0470966212451458,-9.757492065429688
1.7294983027383698e+18,-0.03645574301481247,0.07674067467451096,-9.744749069213867
1.72949830274737e+18,0.08893369883298874,0.051151394844055176,-9.717574119567871
1.7294983027593702e+18,-0.04194730147719383,0.04903491958975792,-9.694920539855957
1.7294983027653704e+18,-0.022397024556994438,0.0034479000605642796,-9.749034881591797
1.7294983027743706e+18,-0.014971883036196232,0.009356330148875713,-9.773893356323242
1.7294983027833708e+18,0.013212649151682854,-0.03953021764755249,-9.779760360717773
1.729498302792371e+18,0.015651829540729523,0.00872631836682558,-9.86051082611084
1.7294983028013711e+18,0.011490496806800365,0.016778914257884026,-9.813199996948242
1.7294983028073713e+18,-0.024375103414058685,0.0032514247577637434,-9.837581634521484
1.7294983028163715e+18,-0.024488750845193863,-0.08314426988363266,-9.836748123168945
1.7294983028253716e+18,-0.013997646048665047,0.0009432254591956735,-9.781068801879883
1.7294983028313718e+18,0.003291600150987506,-0.07125570625066757,-9.811546325683594
1.729498302840372e+18,0.06425045430660248,0.03000826947391033,-9.793218612670898
1.729498302846372e+18,0.042271874845027924,0.08145225793123245,-9.839537620544434
1.7294983028553723e+18,0.023757433518767357,-0.039172861725091934,-9.89675521850586
1.7294983028643725e+18,-0.025386126711964607,0.003569261636584997,-9.763204574584961
1.7294983028703726e+18,-0.04122873395681381,-0.017637675628066063,-9.807568550109863
1.7294983028793728e+18,-0.023389000445604324,-0.036671631038188934,-9.86528491973877
1.729498302888373e+18,-0.017709044739603996,-0.005350630264729261,-9.794949531555176
1.7294983028973732e+18,0.010085777379572392,-0.019007695838809013,-9.80859375
1.7294983029033733e+18,0.020724540576338768,-0.04495333135128021,-9.778048515319824
1.7294983029123735e+18,-0.03332061693072319,-0.017164893448352814,-9.800605773925781
1.7294983029213737e+18,-0.027439959347248077,0.02472570911049843,-9.800650596618652
1.7294983029273738e+18,-0.03773779794573784,-0.03041093796491623,-9.779614448547363
1.729498302936374e+18,-0.034655582159757614,-0.030529115349054337,-9.846294403076172
1.7294983029453742e+18,0.019938163459300995,0.06267771124839783,-9.783914566040039
1.7294983029543744e+18,0.09058266133069992,-0.006710459943860769,-9.790224075317383
1.7294983029603745e+18,-0.04250572621822357,-0.02650943212211132,-9.794137001037598
1.7294983029693747e+18,0.04185495525598526,-0.02899486944079399,-9.79772663116455
1.729498302978375e+18,0.04201575368642807,-0.05824471265077591,-9.75940990447998
1.729498302984375e+18,-0.04295644909143448,-0.0025479383766651154,-9.748030662536621
1.7294983029933752e+18,0.026088742539286613,-0.053534332662820816,-9.791486740112305
1.7294983030023754e+18,0.014775291085243225,0.09179575741291046,-9.691824913024902
1.7294983030083756e+18,-0.029103562235832214,0.005402755457907915,-9.702366828918457
1.7294983030173757e+18,-0.007560490630567074,-0.04042243957519531,-9.76134967803955
1.729498303026376e+18,0.030818011611700058,-0.04287194833159447,-9.861393928527832
1.729498303035376e+18,0.030243895947933197,-0.023546846583485603,-9.724985122680664
1.7294983030413763e+18,-0.07211338728666306,-0.00475667230784893,-9.711797714233398
1.7294983030503764e+18,0.006425925530493259,-0.05713013559579849,-9.749616622924805
1.7294983030593766e+18,0.0035715692210942507,0.026837019249796867,-9.771178245544434
1.7294983030683768e+18,0.008507117629051208,0.047736313194036484,-9.768260955810547
1.729498303074377e+18,-0.01897410675883293,-0.013070764020085335,-9.779966354370117
1.7294983030833772e+18,-0.05449288338422775,0.04972916468977928,-9.75529670715332
1.7294983030923773e+18,-0.06355483829975128,-0.007790008559823036,-9.684881210327148
1.7294983030983775e+18,-0.047395478934049606,0.018165891990065575,-9.792643547058105
1.7294983031073777e+18,-0.03953882306814194,-0.0034475564025342464,-9.802811622619629
1.7294983031133778e+18,-0.04106692224740982,-0.003332654247060418,-9.822120666503906
1.729498303122378e+18,-0.08113337308168411,-0.035225603729486465,-9.718439102172852
1.7294983031313782e+18,-0.06130759418010712,0.048445697873830795,-9.657501220703125
1.7294983031373783e+18,0.03190630301833153,0.013708528131246567,-9.734587669372559
1.7294983031463785e+18,0.09401778131723404,0.037919722497463226,-9.764689445495605
1.7294983031553787e+18,-0.015781793743371964,0.049364566802978516,-9.80708122253418
1.7294983031613788e+18,0.06740541756153107,-0.03600122407078743,-9.745977401733398
1.729498303170379e+18,-0.027938738465309143,-0.040612176060676575,-9.70710563659668
1.7294983031793792e+18,-0.00468443101271987,-0.022185174748301506,-9.718413352966309
1.7294983031883794e+18,-0.06872358918190002,-0.01220725942403078,-9.754779815673828
1.7294983031943795e+18,-0.04893813654780388,-0.06735441833734512,-9.749430656433105
1.7294983032033797e+18,-0.02534009888768196,0.01304520945996046,-9.703689575195312
1.72949830321238e+18,0.02752864919602871,-0.04187071695923805,-9.783562660217285
1.72949830321838e+18,0.0197061225771904,0.043424662202596664,-9.793730735778809
1.7294983032273802e+18,-0.033769723027944565,-0.09479907900094986,-9.717008590698242
1.7294983032363804e+18,-0.01383066363632679,0.03165280073881149,-9.638113975524902
1.7294983032423805e+18,-0.023609260097146034,-0.03264213725924492,-9.703373908996582
1.7294983032513807e+18,0.012196017429232597,0.041810292750597,-9.757246017456055
1.729498303260381e+18,-0.019148070365190506,-0.03856930136680603,-9.77794361114502
1.729498303266381e+18,-0.10706561803817749,-0.005480810068547726,-9.690935134887695
1.7294983032753812e+18,0.05958659574389458,-0.08223306387662888,-9.775142669677734
1.7294983032843814e+18,0.03304644301533699,-0.003984347451478243,-9.708243370056152
1.7294983032933816e+18,0.019352274015545845,-0.0015206661773845553,-9.69602108001709
1.7294983032993818e+18,0.02730395831167698,0.061310045421123505,-9.735441207885742
1.729498303311382e+18,0.039860233664512634,-0.08649643510580063,-9.767247200012207
1.7294983033203822e+18,0.05238677188754082,-0.020045513287186623,-9.747223854064941
1.7294983033263823e+18,-0.0294452253729105,0.06296662986278534,-9.696575164794922
1.7294983033353825e+18,0.04211847484111786,-0.005522627383470535,-9.77983283996582
1.7294983033443827e+18,-0.047987841069698334,-0.00015853281365707517,-9.762613296508789
1.7294983033503828e+18,0.02266901172697544,0.021908266469836235,-9.713421821594238
1.729498303362383e+18,-0.00867888517677784,0.05110595375299454,-9.74644660949707
1.7294983033743834e+18,-0.06722227483987808,0.034860219806432724,-9.725635528564453
1.7294983033833836e+18,0.0024408989120274782,0.026882024481892586,-9.765569686889648
1.7294983033923837e+18,0.03508903086185455,0.022555764764547348,-9.781837463378906
1.729498303401384e+18,0.009334471076726913,0.02423778735101223,-9.723459243774414
1.7294983034103841e+18,-0.029300721362233162,0.00969348568469286,-9.790556907653809
1.7294983034193843e+18,-0.008322066627442837,-0.04971795529127121,-9.769258499145508
1.7294983034283845e+18,-0.04932749271392822,-0.01702170819044113,-9.72019100189209
1.7294983034343846e+18,-0.053321149200201035,-0.008419506251811981,-9.728805541992188
1.7294983034433848e+18,-0.05591045692563057,-0.05786927044391632,-9.731139183044434
1.729498303452385e+18,0.04185749217867851,0.055059365928173065,-9.69901180267334
1.7294983034583852e+18,-0.009366795420646667,-0.0056089372374117374,-9.772353172302246
1.7294983034673853e+18,0.011751514859497547,0.04280679300427437,-9.692590713500977
1.7294983034763855e+18,0.0389140248298645,-0.04050155356526375,-9.781452178955078
1.7294983034823857e+18,0.03245221823453903,0.019931204617023468,-9.761037826538086
1.7294983034913859e+18,0.014281381852924824,-0.013168418779969215,-9.690206527709961
1.729498303500386e+18,-0.03447796404361725,-0.029092445969581604,-9.716267585754395
1.7294983035093862e+18,-0.04297555610537529,-0.001648340723477304,-9.753657341003418
1.7294983035153864e+18,-0.004423313308507204,0.01677589677274227,-9.777310371398926
1.7294983035243866e+18,-0.008921626023948193,-0.05020612105727196,-9.697952270507812
1.7294983035333868e+18,-0.038142986595630646,-0.08472033590078354,-9.754977226257324
1.729498303539387e+18,0.023058930411934853,0.06687682867050171,-9.716259956359863
1.729498303548387e+18,-0.07345845550298691,-0.005948209669440985,-9.746091842651367
1.7294983035573873e+18,0.007916031405329704,-0.0023277271538972855,-9.817353248596191
1.7294983035663875e+18,-0.0020875600166618824,0.015172995626926422,-9.764052391052246
1.7294983035723876e+18,0.030340801924467087,0.02939792163670063,-9.767450332641602
1.7294983035813878e+18,-0.06904952973127365,-0.013198643922805786,-9.673689842224121
1.729498303590388e+18,0.024980440735816956,-0.026412149891257286,-9.732601165771484
1.7294983035993882e+18,0.025900572538375854,-0.04688432067632675,-9.715310096740723
1.7294983036053883e+18,0.06473701447248459,-0.025727760046720505,-9.69278335571289
1.7294983036143885e+18,-0.011230915784835815,0.06614767760038376,-9.763407707214355
1.7294983036233887e+18,0.06675885617733002,0.05735595524311066,-9.7055082321167
1.7294983036293888e+18,-0.030768003314733505,-0.03455815836787224,-9.767863273620605
1.729498303638389e+18,-0.02497192472219467,-0.0564904548227787,-9.77971076965332
1.7294983036473892e+18,-0.02454114519059658,-0.030318209901452065,-9.692526817321777
1.7294983036533893e+18,-0.0468120276927948,-0.03429652750492096,-9.788649559020996
1.7294983036623895e+18,-0.048016928136348724,-0.03149215504527092,-9.668023109436035
1.7294983036743898e+18,0.032470863312482834,-0.006817181594669819,-9.734468460083008
1.72949830368339e+18,-0.04864785820245743,0.000666419044137001,-9.729527473449707
1.72949830368939e+18,0.0268186517059803,0.06729523092508316,-9.717405319213867
1.7294983036983903e+18,0.012770514003932476,0.04834650084376335,-9.736008644104004
1.7294983037073905e+18,-0.006344889290630817,-0.026496024802327156,-9.667409896850586
1.7294983037133906e+18,-0.03614838048815727,-0.00047972449101507664,-9.706637382507324
1.7294983037223908e+18,-0.1027831882238388,-0.044494207948446274,-9.749377250671387
1.729498303728391e+18,0.12200348824262619,-0.03854190930724144,-9.723384857177734
1.729498303737391e+18,0.013480720110237598,-0.018966451287269592,-9.746349334716797
1.7294983037463913e+18,-0.01042553223669529,-0.04412342980504036,-9.822656631469727
1.7294983037523914e+18,-0.02494441345334053,-0.006580458953976631,-9.662786483764648
1.7294983037613916e+18,-0.06376591324806213,-0.034689318388700485,-9.73842716217041
1.7294983037673917e+18,0.08220602571964264,-0.00497814267873764,-9.660848617553711
1.729498303776392e+18,-0.08197778463363647,0.046165239065885544,-9.74103832244873
1.729498303785392e+18,0.0269366092979908,0.0280136838555336,-9.658279418945312
1.7294983037943923e+18,0.01917852647602558,-0.017489466816186905,-9.731788635253906
1.7294983038003924e+18,0.004366482608020306,0.023473214358091354,-9.758235931396484
1.7294983038093926e+18,0.024905210360884666,-0.030682656913995743,-9.737751007080078
1.7294983038183928e+18,-0.04670069366693497,-0.01940196380019188,-9.671149253845215
1.729498303827393e+18,-0.026044214144349098,-0.06954532861709595,-9.710237503051758
1.7294983038333932e+18,0.058964431285858154,0.04793770983815193,-9.804024696350098
1.7294983038423933e+18,-0.03872546926140785,0.09225129336118698,-9.735493659973145
1.7294983038513935e+18,0.08741293847560883,-0.06810715794563293,-9.73604965209961
1.7294983038633938e+18,-0.0029113295022398233,-0.007594019174575806,-9.808951377868652
1.729498303878394e+18,0.08302746713161469,-0.04168548434972763,-9.74087142944336
1.7294983038873943e+18,0.042689885944128036,0.05164356157183647,-9.76862621307373
1.7294983038933944e+18,0.009333763271570206,0.005205148831009865,-9.793476104736328
1.7294983039023946e+18,-0.031050726771354675,-0.0017485127318650484,-9.763836860656738
1.7294983039113948e+18,-0.03312455490231514,0.04027548432350159,-9.759026527404785
1.729498303920395e+18,0.015248138457536697,0.043383870273828506,-9.733741760253906
1.7294983039263951e+18,0.00975845754146576,0.06806652992963791,-9.705628395080566
1.7294983039353953e+18,0.00031201730598695576,0.00406391266733408,-9.744332313537598
1.7294983039413955e+18,-0.05955379083752632,0.007583692204207182,-9.692276954650879
1.7294983039503956e+18,0.04960823804140091,0.01295109186321497,-9.68503189086914
1.7294983039593958e+18,-0.022922564297914505,0.035756513476371765,-9.806146621704102
1.729498303965396e+18,0.0323408879339695,-0.013094278052449226,-9.808167457580566
1.7294983039743962e+18,0.0781489834189415,-0.008802023716270924,-9.754541397094727
1.7294983039833964e+18,-0.03905444219708443,0.06803756207227707,-9.764817237854004
1.7294983039923965e+18,-0.0016012543346732855,0.055551428347826004,-9.779253959655762
1.7294983040013967e+18,-0.03241099417209625,-0.02353055030107498,-9.78628158569336
1.7294983040073969e+18,-0.019894948229193687,0.03916572406888008,-9.786154747009277
1.729498304016397e+18,-0.03157889097929001,0.008599190041422844,-9.781563758850098
1.7294983040253972e+18,0.015963315963745117,-0.02574036456644535,-9.777021408081055
1.7294983040313974e+18,-0.018217260017991066,0.020063433796167374,-9.721746444702148
1.7294983040403976e+18,-0.059224989265203476,0.02375582978129387,-9.770617485046387
1.7294983040493978e+18,0.06796013563871384,0.03739451989531517,-9.759576797485352
1.729498304055398e+18,0.005838834680616856,0.06144820898771286,-9.743313789367676
1.729498304064398e+18,0.015637962147593498,-0.05390515923500061,-9.753840446472168
1.7294983040733983e+18,-0.0078303636983037,0.014311419799923897,-9.707216262817383
1.7294983040793984e+18,-0.07441908866167068,-0.051353100687265396,-9.724308013916016
1.7294983040883986e+18,-0.0026659686118364334,0.09864147752523422,-9.696881294250488
1.7294983040973988e+18,-0.028979584574699402,-0.003973963670432568,-9.755094528198242
1.729498304106399e+18,0.057660941034555435,-0.039219874888658524,-9.760540962219238
1.729498304112399e+18,0.00013121558004058897,0.004425223916769028,-9.69986629486084
1.7294983041213993e+18,-0.042154461145401,-0.035752445459365845,-9.719985008239746
1.7294983041303995e+18,-0.07679363340139389,-0.02620648592710495,-9.73099422454834
1.7294983041393997e+18,0.0016840945463627577,-0.06769266724586487,-9.62514877319336
1.7294983041453998e+18,0.03126117214560509,-0.0272963959723711,-9.737442016601562
1.7294983041544e+18,0.011670549400150776,0.010848114266991615,-9.778663635253906
1.7294983041634002e+18,0.09064488857984543,0.06358427554368973,-9.754790306091309
1.7294983041694003e+18,0.011820318177342415,-0.07203827798366547,-9.773066520690918
1.7294983041784005e+18,0.011613452807068825,0.02317499741911888,-9.744507789611816
1.7294983041874007e+18,0.07003375142812729,-0.0414680615067482,-9.746064186096191
1.7294983041934008e+18,0.04477144032716751,0.06538350135087967,-9.75840950012207
1.729498304202401e+18,-0.002370326779782772,-0.07130593061447144,-9.813314437866211
1.7294983042114012e+18,0.03548240289092064,-0.06719661504030228,-9.851526260375977
1.7294983042174013e+18,-0.03011888824403286,0.008783350698649883,-9.777628898620605
1.7294983042264015e+18,0.05900566279888153,0.04643910750746727,-9.762394905090332
1.7294983042354017e+18,0.007753209210932255,0.010409216396510601,-9.73477554321289
1.7294983042414019e+18,0.08250138908624649,0.028038378804922104,-9.762808799743652
1.729498304250402e+18,0.04311172291636467,0.009754907339811325,-9.756441116333008
1.7294983042594022e+18,0.0487854890525341,-0.06624019145965576,-9.780181884765625
1.7294983042684024e+18,0.0012907623313367367,0.04304884374141693,-9.750815391540527
1.7294983042744026e+18,0.018102869391441345,0.06522486358880997,-9.774992942810059
1.7294983042834028e+18,0.010964756831526756,0.009030649438500404,-9.847898483276367
1.729498304292403e+18,0.03803640976548195,-0.07472309470176697,-9.743985176086426
1.7294983043014031e+18,0.08119267970323563,-0.008823909796774387,-9.785043716430664
1.7294983043074033e+18,-0.05627896264195442,0.04577449709177017,-9.790534973144531
1.7294983043164035e+18,0.03145929053425789,0.01429731398820877,-9.744791984558105
1.7294983043254036e+18,-0.011385481804609299,-0.011620716191828251,-9.848840713500977
1.7294983043344038e+18,0.07610464096069336,-0.036066196858882904,-9.702486038208008
1.729498304340404e+18,0.04834738373756409,-0.002011160831898451,-9.759679794311523
1.7294983043494042e+18,0.04080061614513397,-0.08670536428689957,-9.749406814575195
1.7294983043584044e+18,0.0073561049066483974,-0.007074535358697176,-9.844149589538574
1.7294983043674045e+18,0.012127778492867947,-0.03451291099190712,-9.776745796203613
1.7294983043734047e+18,-0.03005722351372242,0.00678575923666358,-9.785005569458008
1.7294983043824049e+18,-0.004116433672606945,0.05276478826999664,-9.75353717803955
1.729498304391405e+18,0.005183700937777758,-0.0014131098287180066,-9.85774040222168
1.7294983043974052e+18,-0.02049405127763748,0.07664572447538376,-9.744268417358398
1.7294983044064054e+18,0.021863684058189392,-0.03193458542227745,-9.705694198608398
1.7294983044154056e+18,-0.010202579200267792,-0.07731171697378159,-9.706732749938965
1.7294983044244058e+18,0.05533338338136673,0.003006076207384467,-9.810771942138672
1.729498304430406e+18,-0.002064251806586981,-0.057282280176877975,-9.831634521484375
1.729498304439406e+18,-0.04221411794424057,-0.032238226383924484,-9.770734786987305
1.7294983044514063e+18,0.030201058834791183,0.050525207072496414,-9.745365142822266
1.7294983044604065e+18,-0.04459796100854874,-0.020504286512732506,-9.864922523498535
1.7294983044664067e+18,-0.09913389384746552,0.043244924396276474,-9.728055000305176
1.7294983044754068e+18,0.04428763687610626,0.07998877763748169,-9.7669095993042
1.729498304481407e+18,0.062121957540512085,0.0012276777997612953,-9.793573379516602
1.7294983044904072e+18,-0.011390496045351028,0.03988185524940491,-9.763023376464844
1.7294983044994074e+18,-0.0375443771481514,-0.019981171935796738,-9.787330627441406
1.7294983045084076e+18,0.016834059730172157,0.03091939352452755,-9.776198387145996
1.7294983045144077e+18,0.033658165484666824,-0.03302187845110893,-9.77123737335205
1.729498304523408e+18,0.018158096820116043,0.007155850529670715,-9.761082649230957
1.729498304532408e+18,-0.023922329768538475,-0.05411353334784508,-9.829985618591309
1.7294983045384082e+18,0.05308754742145538,0.0014020417584106326,-9.745038986206055
1.7294983045474084e+18,-0.00958420429378748,0.05021606758236885,-9.777734756469727
1.7294983045534085e+18,0.05123923346400261,-0.014613534323871136,-9.773436546325684
1.7294983045624087e+18,0.030767137184739113,-0.018449895083904266,-9.836833000183105
1.729498304571409e+18,-0.07936744391918182,-0.029561879113316536,-9.746325492858887
1.729498304577409e+18,-0.012157718650996685,-0.01052070688456297,-9.686662673950195
1.7294983045864092e+18,0.048721011728048325,-0.009502987377345562,-9.830613136291504
1.7294983045954094e+18,0.09627427160739899,-0.04994757100939751,-9.820728302001953
1.7294983046044096e+18,0.05307755246758461,0.015213689766824245,-9.802141189575195
1.7294983046134098e+18,6.203641532920301e-05,0.02289327047765255,-9.818309783935547
1.72949830461941e+18,0.06605884432792664,0.03459739312529564,-9.76074504852295
1.72949830462841e+18,-0.026980165392160416,-0.026942290365695953,-9.85569953918457
1.7294983046344102e+18,0.046859487891197205,-0.00379219651222229,-9.831193923950195
1.7294983046434104e+18,0.0714004635810852,-0.02500002086162567,-9.797972679138184
1.7294983046524106e+18,0.0038539553061127663,0.049765780568122864,-9.76975154876709
1.7294983046584108e+18,0.07896880805492401,-0.004051612690091133,-9.798966407775879
1.729498304667411e+18,-0.0647527351975441,0.027763329446315765,-9.758792877197266
1.7294983046764111e+18,0.07027719169855118,0.038246039301157,-9.801074028015137
1.7294983046824113e+18,0.04906199872493744,0.0031440856400877237,-9.73641586303711
1.7294983046914115e+18,0.06345036625862122,0.0969751626253128,-9.812399864196777
1.7294983047004116e+18,0.06074482202529907,-0.007111636456102133,-9.728594779968262
1.7294983047064118e+18,0.07083285599946976,0.03826290741562843,-9.800976753234863
1.729498304715412e+18,0.04330712556838989,-0.02263905294239521,-9.719245910644531
1.7294983047244122e+18,-0.012920734472572803,-0.002744506811723113,-9.803954124450684
1.7294983047334124e+18,-0.01124407909810543,-0.028246231377124786,-9.723246574401855
1.7294983047424125e+18,0.0405890978872776,-0.06189475953578949,-9.850058555603027
1.7294983047514127e+18,0.017576981335878372,-0.028111139312386513,-9.820186614990234
1.729498304760413e+18,-0.0034951933193951845,-0.05215932056307793,-9.80008602142334
1.729498304766413e+18,-0.055755600333213806,0.038949158042669296,-9.749738693237305
1.7294983047754132e+18,0.022662147879600525,0.015626275911927223,-9.840669631958008
1.7294983047814134e+18,0.017258236184716225,-0.00987263210117817,-9.854792594909668
1.7294983047904136e+18,0.05601601302623749,-0.06500663608312607,-9.765400886535645
1.7294983047994138e+18,-0.013983480632305145,0.03435290604829788,-9.751368522644043
1.729498304808414e+18,-0.035360898822546005,0.027868149802088737,-9.737959861755371
1.7294983048174141e+18,-0.025588836520910263,-0.03915204480290413,-9.822343826293945
1.7294983048234143e+18,-0.018463455140590668,-0.0036242285277694464,-9.801694869995117
1.7294983048324145e+18,-0.03178434446454048,0.021037127822637558,-9.832627296447754
1.7294983048414147e+18,0.050800345838069916,0.0530075803399086,-9.744280815124512
1.7294983048474148e+18,-0.03729676082730293,0.050108280032873154,-9.783093452453613
1.729498304856415e+18,0.03685518354177475,-0.03617991879582405,-9.810678482055664
1.7294983048654152e+18,-0.055061861872673035,-0.04114581272006035,-9.761889457702637
1.7294983048744154e+18,0.07397035509347916,-0.02692309208214283,-9.760576248168945
1.7294983048804155e+18,0.026749946177005768,0.07643400132656097,-9.791619300842285
1.7294983048894157e+18,0.07395331561565399,0.018252773210406303,-9.753396034240723
1.7294983048984159e+18,0.05131399258971214,0.047904036939144135,-9.75586223602295
1.729498304907416e+18,0.042744528502225876,-0.02388015389442444,-9.775298118591309
1.7294983049164163e+18,0.05957102030515671,0.018880102783441544,-9.794986724853516
1.7294983049254164e+18,0.011282806284725666,-0.08337688446044922,-9.776379585266113
1.7294983049344166e+18,0.02358441799879074,-0.012955760583281517,-9.847555160522461
1.7294983049404168e+18,-0.014833195134997368,-0.030272532254457474,-9.721095085144043
1.729498304949417e+18,-0.01735849305987358,-0.05835894122719765,-9.681780815124512
1.7294983049584172e+18,0.023983370512723923,-0.01543663814663887,-9.8028564453125
1.7294983049644173e+18,-0.0865711122751236,-0.036755211651325226,-9.852954864501953
1.7294983049734175e+18,0.046633582562208176,-0.003201874904334545,-9.798356056213379
1.7294983049824177e+18,0.011814133264124393,-0.012503622099757195,-9.781878471374512
1.7294983049914179e+18,-0.012036955915391445,-0.036019716411828995,-9.799993515014648
1.729498304997418e+18,-0.04622713476419449,-0.06424202769994736,-9.782866477966309
1.7294983050064182e+18,0.05248409882187843,0.04087035730481148,-9.746720314025879
1.7294983050154184e+18,-0.08053848147392273,-0.02436378411948681,-9.784570693969727
1.7294983050214185e+18,-0.03617466613650322,0.0010061871726065874,-9.739670753479004
1.7294983050304187e+18,0.0674525797367096,-0.07400313764810562,-9.737768173217773
1.729498305039419e+18,0.09205957502126694,-0.014999203383922577,-9.79773235321045
1.729498305045419e+18,0.0206021536141634,-0.04369489476084709,-9.790637016296387
1.7294983050544192e+18,-0.0077646467834711075,0.02972494624555111,-9.807183265686035
1.7294983050634194e+18,-0.029583973810076714,-0.0024504063185304403,-9.886719703674316
1.7294983050724196e+18,0.0011310678673908114,0.032827526330947876,-9.790021896362305
1.7294983050784197e+18,0.011833257973194122,-0.027698446065187454,-9.87630844116211
1.72949830508742e+18,-0.06846969574689865,-0.009958756156265736,-9.780671119689941
1.72949830509642e+18,-0.009645886719226837,0.05347869545221329,-9.774055480957031
1.7294983051024202e+18,0.021105477586388588,0.03413140028715134,-9.788851737976074
1.7294983051114204e+18,0.06439525634050369,-0.010807574726641178,-9.722344398498535
1.7294983051204206e+18,0.02077339217066765,0.0767052099108696,-9.811725616455078
1.7294983051264207e+18,-0.07359703630208969,-0.05635703727602959,-9.846320152282715
1.729498305135421e+18,0.0008485145517624915,0.07731153815984726,-9.877792358398438
1.729498305144421e+18,0.023730220273137093,-0.01573469303548336,-9.860223770141602
1.7294983051534213e+18,-0.06227514520287514,0.06537999957799911,-9.768417358398438
1.7294983051594214e+18,-0.01601237989962101,-0.031490884721279144,-9.82757568359375
1.7294983051684216e+18,-0.0522313229739666,-0.048451583832502365,-9.842611312866211
1.7294983051774218e+18,-0.021961607038974762,-0.036493971943855286,-9.797109603881836
1.729498305183422e+18,0.0005245680804364383,-0.013128979131579399,-9.747840881347656
1.7294983051924221e+18,0.026920143514871597,-0.053502123802900314,-9.805720329284668
1.7294983052014223e+18,0.04879879578948021,0.004549670498818159,-9.84091854095459
1.7294983052104225e+18,-0.09957417100667953,0.01077258214354515,-9.731203079223633
1.7294983052194227e+18,0.04500050097703934,0.03366677463054657,-9.752250671386719
1.729498305234423e+18,-0.07844612002372742,-0.01607280597090721,-9.796923637390137
1.7294983052434232e+18,-0.005391364451497793,-0.03906910493969917,-9.895927429199219
1.7294983052494234e+18,0.11781188100576401,0.10481278598308563,-9.737653732299805
1.7294983052584236e+18,-0.03946054354310036,-0.008585280738770962,-9.759869575500488
1.7294983052644237e+18,-0.05316547304391861,-0.01966550387442112,-9.781881332397461
1.729498305273424e+18,0.05400652438402176,0.008958580903708935,-9.842757225036621
1.729498305282424e+18,0.004542095120996237,0.03885059431195259,-9.778687477111816
1.7294983052884242e+18,-0.03240092098712921,0.008533568121492863,-9.823873519897461
1.7294983052974244e+18,-0.03929171711206436,-0.10088109970092773,-9.839731216430664
1.7294983053034245e+18,0.0057885670103132725,-0.07474194467067719,-9.766460418701172
1.7294983053124247e+18,-0.06346400827169418,-0.06556670367717743,-9.853242874145508
1.729498305321425e+18,0.04471290856599808,-0.010116872377693653,-9.78050708770752
1.729498305327425e+18,-0.02701428160071373,-0.047089360654354095,-9.796475410461426
1.7294983053364252e+18,-0.012509254738688469,-0.05314856767654419,-9.780963897705078
1.7294983053454254e+18,0.055198848247528076,-0.04983089491724968,-9.741129875183105
1.7294983053514255e+18,0.06416340172290802,-0.05288275331258774,-9.748311996459961
1.7294983053604257e+18,0.03351094201207161,-0.014488275162875652,-9.805828094482422
1.729498305369426e+18,-0.018732959404587746,0.07576864212751389,-9.825581550598145
1.729498305375426e+18,-0.02349194511771202,-0.13535448908805847,-9.796242713928223
1.7294983053844262e+18,0.05006438493728638,-0.06697726994752884,-9.688474655151367
1.7294983053934264e+18,0.06864789873361588,-0.03475697711110115,-9.775910377502441
1.7294983054024266e+18,-0.0768691897392273,-0.024576887488365173,-9.790672302246094
1.7294983054084268e+18,0.07694301754236221,-0.07035132497549057,-9.809961318969727
1.729498305417427e+18,-0.011848019436001778,0.046556729823350906,-9.891214370727539
1.7294983054264271e+18,-0.0014271549880504608,-0.026341957971453667,-9.916431427001953
1.7294983054324273e+18,-0.05205279961228371,0.06344921141862869,-9.869064331054688
1.7294983054414275e+18,0.06631111353635788,-0.02008441649377346,-9.753084182739258
1.7294983054474276e+18,0.02320462465286255,-0.0021153020206838846,-9.819443702697754
1.7294983054564278e+18,-0.03803539276123047,-0.07449538260698318,-9.732937812805176
1.729498305465428e+18,-0.017236635088920593,0.047123998403549194,-9.861406326293945
1.7294983054744282e+18,0.03514999523758888,-0.00966213084757328,-9.891241073608398
1.7294983054804283e+18,-0.024269280955195427,0.01207655854523182,-9.779369354248047
1.7294983054894285e+18,-0.0021309389267116785,0.07672438770532608,-9.725719451904297
1.7294983054984287e+18,-0.007307777181267738,-0.012475748546421528,-9.817806243896484
1.7294983055044288e+18,0.07977046817541122,0.013829675503075123,-9.866313934326172
1.729498305513429e+18,0.0009105425560846925,-0.05932759493589401,-9.803841590881348
1.729498305519429e+18,-0.0509122796356678,0.02851863205432892,-9.83482551574707
1.7294983055284293e+18,0.04156883805990219,-0.05086280032992363,-9.751700401306152
1.7294983055374295e+18,0.016940250992774963,-0.005107509903609753,-9.821493148803711
1.7294983055434296e+18,-0.0018793215276673436,-0.05841973051428795,-9.726947784423828
1.7294983055524298e+18,0.011464184150099754,0.06189119815826416,-9.763224601745605
1.72949830556143e+18,-0.007215543650090694,0.020914027467370033,-9.855623245239258
1.7294983055674301e+18,-0.034264761954545975,0.0630837082862854,-9.805276870727539
1.7294983055764303e+18,-0.05371789634227753,0.0007639089599251747,-9.730575561523438
1.7294983055854305e+18,-0.10069873183965683,-0.08248957991600037,-9.774907112121582
1.7294983055914307e+18,0.011198376305401325,-0.012920496985316277,-9.791572570800781
1.7294983056004308e+18,0.047606319189071655,-0.003966270014643669,-9.834160804748535
1.729498305609431e+18,0.003973683342337608,-0.0074662878178060055,-9.722527503967285
1.7294983056184312e+18,-0.016557006165385246,0.030243679881095886,-9.793512344360352
1.7294983056244314e+18,0.019646648317575455,0.0515064038336277,-9.74292278289795
1.7294983056364316e+18,0.0045933290384709835,-0.04162217676639557,-9.870530128479004
1.7294983056454318e+18,0.07823407649993896,-0.04333573952317238,-9.77414321899414
1.729498305654432e+18,-0.013265113346278667,-0.025475194677710533,-9.774872779846191
1.7294983056604321e+18,-0.05071107670664787,0.03733193129301071,-9.756855010986328
1.7294983056694323e+18,0.08545713871717453,-0.008865985088050365,-9.836230278015137
1.7294983056754324e+18,0.006856216583400965,0.0031757247634232044,-9.776712417602539
1.7294983056844326e+18,0.04540927708148956,0.051623109728097916,-9.83370304107666
1.7294983056934328e+18,0.01782512106001377,-0.03837689384818077,-9.758489608764648
1.729498305699433e+18,-0.046129923313856125,-0.028392253443598747,-9.782766342163086
1.7294983057084332e+18,-0.012959667481482029,-0.04831252247095108,-9.769098281860352
1.7294983057174333e+18,0.035062070935964584,-0.029753677546977997,-9.776163101196289
1.7294983057234335e+18,0.06329412758350372,-0.08988609910011292,-9.763612747192383
1.7294983057324337e+18,-0.06169984117150307,-0.0356922447681427,-9.847360610961914
1.7294983057414339e+18,-0.0011729821562767029,-0.039417773485183716,-9.724845886230469
1.729498305747434e+18,0.031466010957956314,0.05032521113753319,-9.86179256439209
1.7294983057564342e+18,-0.02223093993961811,0.014596174471080303,-9.798158645629883
1.7294983057654344e+18,-0.08687752485275269,-0.05575381964445114,-9.841075897216797
1.7294983057714345e+18,0.009635993279516697,-0.0038069903384894133,-9.757287979125977
1.7294983057804347e+18,-0.05613279715180397,0.026360562071204185,-9.848906517028809
1.729498305789435e+18,0.032086487859487534,0.05269918963313103,-9.785279273986816
1.729498305798435e+18,-0.042753539979457855,0.0947180986404419,-9.820069313049316
1.7294983058044352e+18,0.06458114832639694,0.03046906366944313,-9.788228988647461
1.7294983058134354e+18,-0.05401700735092163,-0.05988500639796257,-9.852875709533691
1.7294983058194355e+18,-0.0023262486793100834,0.009663634933531284,-9.842530250549316
1.7294983058284357e+18,0.055050551891326904,0.04977281764149666,-9.85709285736084
1.729498305837436e+18,0.038080036640167236,0.06286457926034927,-9.799546241760254
1.729498305846436e+18,-0.02907070331275463,-0.011800352483987808,-9.858250617980957
1.7294983058524362e+18,0.04597105830907822,0.06562706083059311,-8.76813793182373
1.7294983058614364e+18,0.04882604628801346,0.0031331342179328203,-8.350885391235352
1.7294983058704366e+18,0.06032506376504898,-0.0009103631600737572,-8.294702529907227
1.7294983058794368e+18,0.08890979737043381,0.027088092640042305,-9.543051719665527
1.729498305885437e+18,0.07108470797538757,0.0203856248408556,-11.279573440551758
1.729498305894437e+18,0.1568780541419983,0.02949637733399868,-12.551036834716797
1.7294983059034373e+18,0.12824690341949463,0.17081914842128754,-12.755048751831055
1.7294983059124375e+18,0.16434141993522644,0.07157154381275177,-12.912870407104492
1.7294983059184376e+18,0.10420513898134232,0.1109754890203476,-12.90212345123291
1.7294983059274378e+18,0.09213878959417343,0.10653211176395416,-12.826085090637207
1.729498305936438e+18,0.1004614531993866,0.011389076709747314,-12.702559471130371
1.7294983059424381e+18,0.10738831758499146,0.049978338181972504,-12.622437477111816
1.7294983059514383e+18,0.10295727849006653,-0.01367739588022232,-12.47482967376709
1.7294983059604385e+18,0.14673519134521484,0.03742949292063713,-12.271660804748535
1.7294983059664387e+18,0.10600070655345917,0.05681057646870613,-12.190381050109863
1.7294983059754388e+18,0.09021715819835663,0.08719810843467712,-12.04411506652832
1.729498305984439e+18,0.09477817267179489,0.06627681851387024,-11.965228080749512
1.7294983059904392e+18,0.058779142796993256,0.006742976605892181,-11.841813087463379
1.7294983059994394e+18,0.13652870059013367,0.02076908014714718,-11.610958099365234
1.7294983060054395e+18,0.03511599451303482,0.14482077956199646,-11.483858108520508
1.7294983060144397e+18,-0.011454194784164429,0.07062634825706482,-11.46192455291748
1.72949830602344e+18,0.042055293917655945,-0.015374325215816498,-11.33493709564209
1.72949830602944e+18,0.02224688231945038,0.02223454974591732,-11.189114570617676
1.7294983060384402e+18,0.025448383763432503,0.03132818266749382,-11.16696548461914
1.7294983060474404e+18,0.012080222368240356,0.08122436702251434,-10.821409225463867
1.7294983060564406e+18,0.007411712780594826,0.012626772746443748,-10.60562515258789
1.7294983060624407e+18,-0.059076808393001556,0.056859832257032394,-10.512093544006348
1.729498306074441e+18,-0.022418245673179626,0.0013886913657188416,-10.434162139892578
1.729498306080441e+18,0.028272483497858047,-0.0013551441952586174,-10.437891960144043
1.7294983060894413e+18,0.05540098994970322,0.03491727262735367,-10.213231086730957
1.7294983060984415e+18,0.010293322615325451,0.02959589660167694,-10.091909408569336
1.7294983061044416e+18,0.028953002765774727,0.011832231655716896,-9.984375953674316
1.7294983061134418e+18,0.031167970970273018,0.049656011164188385,-9.807265281677246
1.729498306122442e+18,-0.012143716216087341,0.009716288186609745,-9.794574737548828
1.7294983061314422e+18,0.0273677296936512,0.05282937362790108,-9.709388732910156
1.7294983061374423e+18,0.049432698637247086,0.018895773217082024,-9.773737907409668
1.7294983061464425e+18,-0.03999313712120056,0.04292451962828636,-9.805455207824707
1.7294983061554427e+18,-0.04827475920319557,0.0021087713539600372,-9.516792297363281
1.7294983061614428e+18,-0.038722794502973557,-0.08822181075811386,-9.572358131408691
1.729498306170443e+18,0.014838043600320816,-0.009981883689761162,-9.497210502624512
1.7294983061794432e+18,-0.042952265590429306,0.019722359254956245,-9.227585792541504
1.7294983061854433e+18,-0.029291700571775436,-0.017999351024627686,-9.314020156860352
1.7294983061944435e+18,-0.03885379061102867,-0.0050844051875174046,-9.29287338256836
1.7294983062034437e+18,-0.08986706286668777,-0.04710596054792404,-9.38658618927002
1.729498306212444e+18,-0.03583284467458725,-0.0015613860450685024,-9.25108814239502
1.729498306218444e+18,-0.008791306056082249,-0.0910586416721344,-9.253931045532227
1.7294983062274442e+18,-0.03332185000181198,0.025817550718784332,-9.14041519165039
1.7294983062364444e+18,-0.01372766774147749,-0.0315738245844841,-9.121734619140625
1.7294983062454446e+18,-0.00039309170097112656,0.00501617044210434,-9.155335426330566
1.7294983062544448e+18,-0.019039198756217957,-0.017340686172246933,-9.115601539611816
1.729498306260445e+18,-0.023355133831501007,-0.016337383538484573,-9.022361755371094
1.729498306269445e+18,-0.014699608087539673,-0.10107311606407166,-9.040826797485352
1.7294983062784453e+18,-0.0007436387240886688,-0.022289540618658066,-9.007501602172852
1.7294983062844454e+18,0.030854929238557816,-0.009420601651072502,-9.064664840698242
1.7294983062934456e+18,-0.04800677299499512,0.05203121528029442,-9.063568115234375
1.7294983063024458e+18,0.006133459508419037,-0.024742472916841507,-9.122127532958984
1.729498306311446e+18,0.04274183511734009,-0.07033580541610718,-9.092754364013672
1.7294983063204462e+18,-0.014656046405434608,0.0010104607790708542,-9.036592483520508
1.7294983063264463e+18,0.046750616282224655,-0.1038782000541687,-9.096697807312012
1.7294983063354465e+18,0.014251042157411575,-0.04699069261550903,-8.912398338317871
1.7294983063444467e+18,0.010349543765187263,0.05020277947187424,-8.940667152404785
1.729498306353447e+18,-0.004756816662847996,-0.028625033795833588,-8.909865379333496
1.729498306359447e+18,-0.06560100615024567,-0.05511768162250519,-8.92886734008789
1.7294983063684472e+18,-0.007643556222319603,-0.007028638385236263,-8.997166633605957
1.7294983063774474e+18,-0.04267102852463722,-0.0018073110841214657,-9.03135871887207
1.7294983063864476e+18,0.03642784059047699,-0.06305547058582306,-9.058004379272461
1.7294983063954478e+18,-0.04206472262740135,-0.052838414907455444,-9.062771797180176
1.729498306401448e+18,-0.05260845273733139,-0.051058825105428696,-8.929786682128906
1.7294983064104481e+18,-0.02387002669274807,0.021557636559009552,-8.965087890625
1.7294983064164483e+18,0.04617559537291527,0.02632482349872589,-8.975325584411621
1.7294983064254484e+18,-0.045342907309532166,-0.04223422333598137,-8.999128341674805
1.7294983064344486e+18,-0.0149617251008749,-0.0017520086839795113,-9.042734146118164
1.7294983064434488e+18,-0.050595372915267944,-0.0013264310546219349,-9.12125301361084
1.729498306452449e+18,-0.06313508749008179,-0.0034123174846172333,-9.117973327636719
1.7294983064584492e+18,-0.0523703470826149,-0.022895732894539833,-9.143328666687012
1.7294983064674493e+18,0.062201134860515594,0.025794466957449913,-9.132243156433105
1.7294983064764495e+18,-0.010650195181369781,-0.036641642451286316,-9.147748947143555
1.7294983064854497e+18,0.022962799295783043,-0.01615576073527336,-9.044384956359863
1.7294983064914499e+18,-0.006232940126210451,-0.02102443389594555,-8.975101470947266
1.72949830650045e+18,-0.0014977918472141027,0.03731413930654526,-8.923565864562988
1.7294983065094502e+18,0.007193319965153933,0.008055763319134712,-8.771018981933594
1.7294983065184504e+18,0.042359475046396255,0.03776589781045914,-8.738099098205566
1.7294983065244506e+18,-0.013012124225497246,0.04818814620375633,-7.916819095611572
1.7294983065334508e+18,-0.032141778618097305,-0.08188425004482269,-7.57423734664917
1.729498306542451e+18,0.00440298393368721,0.028306681662797928,-7.600569248199463
1.729498306548451e+18,-0.007707199081778526,0.0030296416953206062,-7.378215312957764
1.7294983065574513e+18,0.03141831234097481,0.03561452776193619,-7.43701696395874
1.7294983065664515e+18,-0.02115163952112198,-0.06692232936620712,-7.428610324859619
1.7294983065724516e+18,0.023611336946487427,0.0643434077501297,-7.272734642028809
1.7294983065814518e+18,-0.013136202469468117,0.01805965043604374,-7.139547824859619
1.729498306587452e+18,0.03322574496269226,-0.008768605068325996,-7.223996162414551
1.729498306596452e+18,0.07917444407939911,-0.03301705792546272,-7.288243770599365
1.7294983066054523e+18,0.0017607249319553375,-0.03789687901735306,-7.385578155517578
1.7294983066114524e+18,0.0739273875951767,0.026023391634225845,-7.448197841644287
1.7294983066204526e+18,-0.03832840919494629,0.01871120184659958,-7.427447319030762
1.7294983066294528e+18,-0.004891667515039444,0.0652661994099617,-7.286447525024414
1.729498306635453e+18,0.006477329879999161,0.08542569726705551,-7.154654502868652
1.729498306644453e+18,-0.04447587579488754,0.05828831344842911,-7.2042951583862305
1.7294983066534533e+18,0.1187451034784317,0.0006138706812635064,-7.23451042175293
1.7294983066594534e+18,0.014866444282233715,0.0031416488345712423,-7.245857238769531
1.7294983066684536e+18,-0.05590812861919403,0.033065713942050934,-7.2224650382995605
1.7294983066774538e+18,0.04679001122713089,0.06048419326543808,-7.1459856033325195
1.729498306683454e+18,0.11384982615709305,0.026619385927915573,-7.3005051612854
1.7294983066924541e+18,0.025565017014741898,0.015573699958622456,-7.408714771270752
1.7294983066984543e+18,0.02658245526254177,0.07769978046417236,-7.385045528411865
1.7294983067074545e+18,0.1114710122346878,0.01055983081459999,-7.465916156768799
1.7294983067194547e+18,0.14247927069664001,0.03645062446594238,-7.367247581481934
1.729498306728455e+18,-0.0027392469346523285,0.0019787298515439034,-7.421971797943115
1.729498306737455e+18,0.09001830220222473,0.06914214789867401,-7.369616985321045
1.7294983067434552e+18,-0.004297338426113129,0.0516173429787159,-7.34075927734375
1.7294983067524554e+18,0.0665336400270462,-0.006493027321994305,-7.469113826751709
1.7294983067614556e+18,0.05031983181834221,-0.009719034656882286,-7.514074802398682
1.7294983067704558e+18,0.0969444140791893,-0.06322125345468521,-7.582076072692871
1.729498306779456e+18,0.0813467800617218,0.12702980637550354,-7.505472183227539
1.729498306785456e+18,0.0526912622153759,-0.020462868735194206,-7.653254508972168
1.7294983067944563e+18,-0.006759662181138992,0.010561672039330006,-7.562768459320068
1.7294983068034565e+18,0.016054002568125725,0.05542353540658951,-7.493584632873535
1.7294983068124567e+18,0.064962238073349,0.07255460321903229,-7.658257961273193
1.729498306821457e+18,-0.020361095666885376,0.0400429293513298,-7.663702011108398
1.729498306830457e+18,0.0014254823327064514,0.036323271691799164,-7.61113977432251
1.7294983068364572e+18,0.03629528731107712,-0.006844338029623032,-6.712123870849609
1.7294983068454574e+18,0.07500240951776505,0.031850725412368774,-5.83597469329834
1.7294983068544576e+18,0.08147744089365005,0.08288940042257309,-5.645659923553467
1.7294983068634578e+18,0.05368511751294136,-0.0049194153398275375,-5.781549453735352
1.729498306869458e+18,-0.044650547206401825,-0.03430001437664032,-5.803091526031494
1.729498306878458e+18,0.09780395030975342,-0.03190409764647484,-5.885814189910889
1.7294983068874583e+18,0.1000000461935997,-0.04617584869265556,-5.996811866760254
1.7294983068964585e+18,0.10153806209564209,-0.04067416861653328,-6.177441120147705
1.7294983069054587e+18,0.04184422641992569,-0.04359465092420578,-6.294753551483154
1.729498306914459e+18,0.09175597131252289,0.02222016267478466,-6.380892276763916
1.729498306920459e+18,0.13609394431114197,0.017114723101258278,-6.406798839569092
1.7294983069294592e+18,0.04709016531705856,-0.005611240863800049,-6.527593612670898
1.7294983069384594e+18,0.11003527045249939,-0.02712973952293396,-6.5721821784973145
1.7294983069474596e+18,0.07190835475921631,0.05779562145471573,-6.687777519226074
1.7294983069564598e+18,0.03766357898712158,0.029913682490587234,-6.859433650970459
1.72949830696246e+18,0.042799584567546844,-0.06578203290700912,-6.86776876449585
1.72949830697146e+18,0.05530628561973572,-0.0019157063215970993,-7.050104141235352
1.7294983069804603e+18,-0.00018380582332611084,0.0028685573488473892,-7.034157752990723
1.7294983069894605e+18,0.03230525553226471,0.030486220493912697,-7.145602703094482
1.7294983069954606e+18,0.10330206155776978,0.08179894834756851,-7.266628742218018
1.7294983070044608e+18,0.02005760371685028,0.039198748767375946,-7.278514385223389
1.729498307013461e+18,0.1219029575586319,-0.03558808192610741,-7.294131755828857
1.729498307019461e+18,0.04489918798208237,-0.02860664576292038,-7.329925060272217
1.7294983070284613e+18,0.029466256499290466,0.06576797366142273,-7.412822246551514
