timestamp,accel_x,accel_y,accel_z
1.7294935583741588e+18,0.02865939773619175,-0.048268381506204605,-9.816276550292969
1.729493558386159e+18,-0.029750555753707886,0.009417681023478508,-9.807825088500977
1.7294935583921592e+18,-0.027833960950374603,-0.0433771014213562,-9.875473976135254
1.7294935584011594e+18,0.050607480108737946,0.05607760697603226,-9.85495376586914
1.7294935584101596e+18,0.06500574201345444,-0.019164996221661568,-9.81650161743164
1.7294935584191598e+18,-0.016942808404564857,-0.0284937284886837,-9.76651382446289
1.72949355842516e+18,0.01743152365088463,-0.018351351842284203,-9.871970176696777
1.72949355843416e+18,0.027959702536463737,0.08964928984642029,-9.810469627380371
1.7294935584401603e+18,-0.0027850617188960314,0.09266293048858643,-9.852104187011719
1.7294935584491604e+18,-0.05466516315937042,0.08643584698438644,-9.765419960021973
1.7294935584581606e+18,-0.008337652310729027,0.007000417914241552,-9.83250617980957
1.7294935584641608e+18,-0.054160915315151215,-0.03717421740293503,-9.794208526611328
1.729493558473161e+18,-0.04211260378360748,0.024815134704113007,-9.839808464050293
1.7294935584821612e+18,0.07295902073383331,-0.09458906948566437,-9.755497932434082
1.7294935584881613e+18,-0.054486557841300964,0.03834095969796181,-9.795587539672852
1.7294935584941614e+18,0.07942231744527817,-0.042259328067302704,-9.84592056274414
1.7294935585031616e+18,0.09781593084335327,0.023199809715151787,-9.76081371307373
1.7294935585121618e+18,-0.009678520262241364,-0.021484900265932083,-9.826431274414062
1.729493558518162e+18,0.03137902170419693,-0.028328105807304382,-9.811039924621582
1.729493558527162e+18,0.03330390155315399,-0.065695621073246,-9.816107749938965
1.7294935585361623e+18,0.005334361456334591,0.022309444844722748,-9.826553344726562
1.7294935585421624e+18,0.07104369252920151,0.04154736548662186,-9.784158706665039
1.7294935585511626e+18,0.0027618836611509323,0.09008307754993439,-9.792939186096191
1.7294935585571628e+18,0.008599006570875645,-0.039812952280044556,-9.745330810546875
1.729493558566163e+18,-0.07192704826593399,-0.00466700317338109,-9.811966896057129
1.729493558572163e+18,0.011912216432392597,-0.025381291285157204,-9.816959381103516
1.7294935585811633e+18,0.03323373943567276,-0.0019637125078588724,-9.897322654724121
1.7294935585901635e+18,-0.025393765419721603,-0.013225673697888851,-9.805621147155762
1.7294935585961636e+18,0.003983610775321722,0.05346478894352913,-9.789941787719727
1.7294935586051638e+18,0.071329765021801,0.03131181374192238,-9.850436210632324
1.729493558611164e+18,-0.050937850028276443,0.011027207598090172,-9.773396492004395
1.729493558620164e+18,-0.06431403756141663,-0.023447172716259956,-9.85639476776123
1.7294935586291643e+18,0.037636078894138336,0.03578709065914154,-9.826035499572754
1.7294935586351644e+18,-0.005731275305151939,0.009220950305461884,-9.779245376586914
1.7294935586441646e+18,0.04120703041553497,-0.04478074982762337,-9.804251670837402
1.7294935586501647e+18,-0.021783048287034035,0.01877351477742195,-9.81533145904541
1.729493558659165e+18,-0.02253001742064953,0.06630458682775497,-9.860501289367676
1.729493558668165e+18,0.005290983244776726,-0.08237955719232559,-9.738334655761719
1.7294935586741652e+18,0.044203247874975204,0.06327062100172043,-9.798323631286621
1.7294935586831654e+18,0.026936493813991547,-0.008910251781344414,-9.846369743347168
1.7294935586891656e+18,0.004444903694093227,-0.029311664402484894,-9.796244621276855
1.7294935586981658e+18,-0.03911646828055382,-0.06216645985841751,-9.838727951049805
1.729493558707166e+18,-0.07820092886686325,-0.01727684773504734,-9.764565467834473
1.7294935587161661e+18,0.02922099456191063,0.05875640735030174,-9.771858215332031
1.7294935587251663e+18,-0.03608943521976471,0.040569476783275604,-9.75154972076416
1.7294935587341665e+18,0.0428377129137516,-0.011638833209872246,-9.822787284851074
1.7294935587431667e+18,-0.02001103386282921,-0.003638635855168104,-9.822821617126465
1.7294935587491668e+18,0.016729610040783882,0.04807520657777786,-9.766219139099121
1.729493558758167e+18,-0.013902022503316402,-0.07141945511102676,-9.768207550048828
1.7294935587671672e+18,0.043366361409425735,-0.05938904359936714,-9.821075439453125
1.7294935587761674e+18,-0.012600054033100605,-0.050505612045526505,-9.857827186584473
1.7294935587821676e+18,-0.013794944621622562,-0.023436740040779114,-9.825956344604492
1.7294935587911677e+18,-0.050322480499744415,-0.08518216013908386,-9.800549507141113
1.7294935587971679e+18,-0.0020447715651243925,0.037525080144405365,-9.688668251037598
1.729493558806168e+18,-0.0204468946903944,0.017614303156733513,-9.790239334106445
1.7294935588151683e+18,0.017380904406309128,-0.029914477840065956,-9.770211219787598
1.7294935588211684e+18,0.055437929928302765,-0.004927890840917826,-9.741562843322754
1.7294935588301686e+18,-0.026459412649273872,0.03382514789700508,-9.773521423339844
1.7294935588361687e+18,0.019606655463576317,-0.028536027297377586,-9.797457695007324
1.729493558845169e+18,0.025053059682250023,0.01497218944132328,-9.898993492126465
1.729493558854169e+18,-0.04692378267645836,-0.032673001289367676,-9.87680435180664
1.7294935588601692e+18,0.026166709139943123,-0.07771123200654984,-9.840628623962402
1.7294935588691694e+18,-0.011241443455219269,0.06950417160987854,-9.785127639770508
1.7294935588781696e+18,0.009702139534056187,-0.003925287630409002,-9.811131477355957
1.7294935588841697e+18,0.003534178715199232,-0.01785404235124588,-9.817952156066895
1.72949355889317e+18,0.05106426775455475,0.050442107021808624,-9.807100296020508
1.72949355890217e+18,0.059950828552246094,-0.004865136928856373,-9.811726570129395
1.7294935589081702e+18,-0.03945714980363846,-0.009045698679983616,-9.91357135772705
1.7294935589171704e+18,-0.025319203734397888,0.05912656709551811,-9.820893287658691
1.7294935589261706e+18,0.048106443136930466,-0.021993177011609077,-9.791358947753906
1.7294935589321708e+18,-0.01524965651333332,0.033743150532245636,-9.773985862731934
1.729493558941171e+18,-0.016011247411370277,-0.047232698649168015,-9.829345703125
1.729493558947171e+18,-0.012599802576005459,0.008750779554247856,-9.769972801208496
1.7294935589561713e+18,0.0883391946554184,-0.037998054176568985,-9.782965660095215
1.7294935589651715e+18,0.023259222507476807,-0.007832508534193039,-9.780089378356934
1.7294935589711716e+18,-0.01753498800098896,-0.0037660948000848293,-9.746081352233887
1.7294935589801718e+18,-0.0022554274182766676,0.08175680786371231,-9.835421562194824
1.729493558989172e+18,0.0007555850897915661,-0.011789114214479923,-9.845989227294922
1.729493558995172e+18,0.001949815428815782,-0.002601680578663945,-9.841371536254883
1.7294935590041723e+18,0.0047076097689569,0.04924815893173218,-9.77556037902832
1.7294935590131725e+18,0.02953081764280796,0.05992431938648224,-9.835546493530273
1.7294935590191726e+18,-0.090491384267807,-0.014914928935468197,-9.884978294372559
1.7294935590281728e+18,0.009139089845120907,0.0019531722646206617,-9.75860595703125
1.729493559037173e+18,-0.019465668126940727,0.022949371486902237,-9.833728790283203
1.729493559043173e+18,0.02780221402645111,-0.013752300292253494,-9.811586380004883
1.7294935590521733e+18,-0.01699233241379261,-0.000584233202971518,-9.878833770751953
1.7294935590581734e+18,-0.038141511380672455,0.01782171241939068,-9.821136474609375
1.7294935590671736e+18,-0.009712516330182552,0.039814479649066925,-9.777158737182617
1.7294935590761738e+18,-0.03396369144320488,-0.008002067916095257,-9.803561210632324
1.729493559082174e+18,-0.029766159132122993,-0.00990449357777834,-9.816038131713867
1.7294935590911741e+18,0.037073422223329544,-0.05139191448688507,-9.744288444519043
1.7294935591001743e+18,-0.0022819959558546543,-0.05846152454614639,-9.850597381591797
1.7294935591061745e+18,-0.09147141128778458,0.013730187900364399,-9.8556489944458
1.7294935591151747e+18,-0.026346761733293533,-0.04266806319355965,-9.817258834838867
1.7294935591241748e+18,-0.04941999539732933,0.05359978601336479,-9.751455307006836
1.729493559130175e+18,0.03408651798963547,0.004711454268544912,-9.768647193908691
1.7294935591391752e+18,-0.004873857833445072,0.0031144258100539446,-9.897602081298828
1.7294935591481754e+18,-0.023606153205037117,0.03511025756597519,-9.778221130371094
1.7294935591541755e+18,0.03372301906347275,0.017073284834623337,-9.805973052978516
1.7294935591661757e+18,0.040739331394433975,0.05296604335308075,-9.830655097961426
1.729493559172176e+18,0.02597987838089466,-0.0285574309527874,-9.816984176635742
1.729493559181176e+18,0.01998331770300865,-0.006959749385714531,-9.758987426757812
1.7294935591871762e+18,0.016157710924744606,-0.045428067445755005,-9.761378288269043
1.7294935591961764e+18,-0.011683891527354717,-0.03986387327313423,-9.83906364440918
1.7294935592021765e+18,-0.034385789185762405,0.05939115583896637,-9.829313278198242
1.7294935592111767e+18,0.04293082281947136,-0.0483846515417099,-9.739950180053711
1.729493559220177e+18,-0.023792119696736336,0.05152646452188492,-9.788626670837402
1.729493559226177e+18,-0.07458938658237457,-0.006970576010644436,-9.787572860717773
1.7294935592351772e+18,0.0763302743434906,-0.07004974782466888,-9.76011848449707
1.7294935592411773e+18,0.016467776149511337,0.003172734286636114,-9.754621505737305
1.7294935592501775e+18,-0.016261212527751923,-0.004473025910556316,-9.761248588562012
1.7294935592591777e+18,-0.026762329041957855,-0.04457853361964226,-9.859489440917969
1.7294935592651779e+18,-0.03743191808462143,-0.03726714104413986,-9.850072860717773
1.729493559274178e+18,-0.05337965488433838,-0.03260862082242966,-9.805728912353516
1.7294935592801782e+18,0.02016489766538143,-0.07860586047172546,-9.803454399108887
1.7294935592921784e+18,-0.053215399384498596,0.050973158329725266,-9.874101638793945
1.7294935593011786e+18,0.014733404852449894,-0.01924297958612442,-9.787528991699219
1.7294935593101788e+18,0.0004508045967668295,-0.003072085091844201,-9.823430061340332
1.729493559319179e+18,0.05913282558321953,-0.03175325691699982,-9.796534538269043
1.7294935593281792e+18,-0.027896396815776825,0.030112436041235924,-9.845585823059082
1.7294935593341793e+18,-0.03863782808184624,0.03541829064488411,-9.803350448608398
1.7294935593431795e+18,0.036954909563064575,-0.028706887736916542,-9.86146354675293
1.7294935593521797e+18,-0.03539199009537697,0.06597016751766205,-9.803717613220215
1.7294935593581798e+18,-0.08002134412527084,0.02819473296403885,-9.810188293457031
1.72949355936718e+18,-0.02671125903725624,-0.007607665844261646,-9.843402862548828
1.7294935593761802e+18,-0.028255749493837357,-0.023437678813934326,-9.81859302520752
1.7294935593821804e+18,-0.020256519317626953,0.0052056629210710526,-9.75932788848877
1.7294935593911805e+18,0.055767208337783813,-0.007067896891385317,-9.785200119018555
1.7294935594001807e+18,-0.025593513622879982,0.059583697468042374,-9.874669075012207
1.729493559409181e+18,-0.0324065163731575,0.07475879788398743,-9.870683670043945
1.729493559418181e+18,0.0174108874052763,0.040404949337244034,-9.847550392150879
1.7294935594241812e+18,-0.03766605257987976,0.005382675677537918,-9.788320541381836
1.7294935594331814e+18,0.021115299314260483,0.011823001317679882,-9.77151870727539
1.7294935594421816e+18,-0.06456726789474487,-0.003542657010257244,-9.833671569824219
1.7294935594481818e+18,-0.07419563084840775,-0.11080954223871231,-9.777610778808594
1.729493559457182e+18,-0.047891899943351746,-0.03388462960720062,-9.829068183898926
1.729493559463182e+18,0.03239322453737259,0.03660956025123596,-9.811577796936035
1.7294935594721823e+18,0.054807938635349274,-0.06033387407660484,-9.841922760009766
1.7294935594811825e+18,-0.006123296916484833,0.007067730650305748,-9.771711349487305
1.7294935594901827e+18,-0.05530285835266113,0.06808674335479736,-9.842846870422363
1.7294935594961828e+18,0.03125783056020737,0.050834741443395615,-9.814935684204102
1.729493559505183e+18,-0.02220975235104561,-0.04515254124999046,-9.780701637268066
1.7294935595141832e+18,-0.10273299366235733,-0.0014575987588614225,-9.817025184631348
1.7294935595201833e+18,-0.0817512646317482,-0.01653849519789219,-9.823042869567871
1.7294935595291835e+18,0.01425249595195055,0.030264656990766525,-9.765008926391602
1.7294935595351836e+18,0.06652748584747314,-0.02042156644165516,-9.768267631530762
1.7294935595441838e+18,-0.03333153948187828,0.027543971315026283,-9.784978866577148
1.729493559553184e+18,-0.0035782945342361927,0.019295815378427505,-9.82050609588623
1.7294935595591841e+18,-0.07061481475830078,0.03042788989841938,-9.815058708190918
1.7294935595681843e+18,-0.010642126202583313,0.044259943068027496,-9.897712707519531
1.7294935595741844e+18,0.02708328515291214,0.0009675935725681484,-9.822028160095215
1.7294935595831846e+18,-0.016483725979924202,-0.028433633968234062,-9.814826011657715
1.7294935595891848e+18,0.021994151175022125,0.006171838846057653,-9.819575309753418
1.729493559598185e+18,-0.0438549630343914,0.010861126706004143,-9.807027816772461
1.7294935596071852e+18,-0.07873951643705368,-0.03424268960952759,-9.818306922912598
1.7294935596131853e+18,0.02831835299730301,0.020409919321537018,-9.790384292602539
1.7294935596221855e+18,0.03038821369409561,-0.006943839136511087,-9.84572696685791
1.7294935596311857e+18,0.0240442156791687,0.03276318684220314,-9.841388702392578
1.7294935596371858e+18,-0.013728588819503784,0.006840540561825037,-9.852852821350098
1.729493559646186e+18,0.0778922438621521,-0.036590825766325,-9.864747047424316
1.7294935596551862e+18,0.049212027341127396,0.04646345600485802,-9.794178009033203
1.7294935596611863e+18,0.05109991505742073,0.03202083334326744,-9.77127456665039
1.7294935596701865e+18,-0.03316443786025047,-0.013709926046431065,-9.81336784362793
1.7294935596791867e+18,-0.02796892076730728,-0.01782108098268509,-9.78567123413086
1.729493559688187e+18,-0.010643614456057549,0.047764647752046585,-9.740508079528809
1.729493559694187e+18,0.05730901658535004,-0.012247704900801182,-9.811593055725098
1.7294935597031872e+18,0.024296728894114494,-0.0115857208147645,-9.827197074890137
1.7294935597091873e+18,0.03553849831223488,0.009923547506332397,-9.822609901428223
1.7294935597241876e+18,0.00387892359867692,-0.04690726846456528,-9.813163757324219
1.7294935597331878e+18,-0.0039941114373505116,-0.042551152408123016,-9.82344913482666
1.729493559742188e+18,-0.0010164770064875484,-0.007210252806544304,-9.747888565063477
1.7294935597511882e+18,-0.03499136120080948,-0.03457750380039215,-9.79688549041748
1.7294935597601884e+18,0.04792506620287895,-0.009404194541275501,-9.804519653320312
1.7294935597691886e+18,-0.00026026004343293607,-0.048951078206300735,-9.808194160461426
1.7294935597781888e+18,0.030372198671102524,0.014311766251921654,-9.825644493103027
1.729493559787189e+18,0.03104923665523529,0.019018476828932762,-9.805705070495605
1.7294935597961892e+18,0.010881667025387287,-0.060446541756391525,-9.80257511138916
1.7294935598021893e+18,0.0003830327186733484,0.03825771063566208,-9.816515922546387
1.7294935598111895e+18,0.05601983144879341,0.08166422694921494,-9.810270309448242
1.7294935598201897e+18,-0.04527786374092102,-0.06393496692180634,-9.746014595031738
1.7294935598261898e+18,0.04802302271127701,-0.054189734160900116,-9.839850425720215
1.72949355983519e+18,0.07537101954221725,0.06402720510959625,-9.776806831359863
1.7294935598411901e+18,0.06328032165765762,-0.007709935307502747,-9.878533363342285
1.7294935598501903e+18,0.01580185629427433,0.035746511071920395,-9.828666687011719
1.7294935598591905e+18,-0.04844941571354866,0.049865949898958206,-9.764469146728516
1.7294935598651907e+18,0.04120596498250961,0.06168900057673454,-9.798165321350098
1.7294935598741908e+18,-0.0466962493956089,0.04141700640320778,-9.768777847290039
1.729493559883191e+18,-0.008700347505509853,-0.01505382638424635,-9.801095008850098
1.7294935598891912e+18,-0.006849515717476606,0.003050216706469655,-9.725614547729492
1.7294935598981914e+18,-0.00026868979330174625,0.03641524538397789,-9.810567855834961
1.7294935599071916e+18,-0.026371220126748085,0.030526943504810333,-9.80029010772705
1.7294935599131917e+18,0.019740333780646324,0.015607621520757675,-9.798978805541992
1.729493559922192e+18,0.0036158256698399782,0.01817511022090912,-9.837322235107422
1.729493559931192e+18,-0.01564689539372921,0.031025756150484085,-9.876094818115234
1.7294935599371922e+18,0.03791513666510582,0.05432259291410446,-9.856513977050781
1.7294935599461924e+18,-0.0028813849203288555,-0.06896865367889404,-9.834489822387695
1.7294935599521925e+18,-0.03774918615818024,-0.03861657530069351,-9.79651927947998
1.7294935599611927e+18,0.09316107630729675,0.004969020374119282,-9.706319808959961
1.729493559970193e+18,0.05613360553979874,-0.051121797412633896,-9.808392524719238
1.729493559979193e+18,0.0028615896590054035,0.022888993844389915,-9.740056037902832
1.7294935599881933e+18,-0.08258779346942902,0.0024513122625648975,-9.820893287658691
1.7294935599941934e+18,0.1349208950996399,-0.005536025855690241,-9.889348030090332
1.7294935600031936e+18,0.08109699189662933,-0.06958217918872833,-9.827384948730469
1.7294935600091937e+18,0.04991231858730316,0.002926770132035017,-9.7978515625
1.729493560018194e+18,-0.05005141720175743,-0.01018662191927433,-9.751151084899902
1.729493560024194e+18,-0.03304631635546684,0.05672440305352211,-9.793368339538574
1.7294935600331942e+18,-6.56945921946317e-05,0.05864342674612999,-9.795133590698242
1.7294935600391944e+18,-0.04249441996216774,-0.015480047091841698,-9.801865577697754
1.7294935600481946e+18,0.03222925588488579,-0.017836090177297592,-9.794265747070312
1.7294935600571948e+18,0.062067557126283646,-0.04312881827354431,-9.791646957397461
1.729493560063195e+18,-0.017054155468940735,0.045707348734140396,-9.78085708618164
1.729493560072195e+18,-0.00272948294878006,0.042122989892959595,-9.775064468383789
1.7294935600781952e+18,-0.07473185658454895,-0.10580536723136902,-9.791658401489258
1.7294935600871954e+18,0.027786007151007652,-0.07172155380249023,-9.807785034179688
1.7294935600961956e+18,-0.03951621428132057,-0.008269951678812504,-9.781805038452148
1.7294935601021957e+18,-0.027408994734287262,0.02118851989507675,-9.846063613891602
1.729493560111196e+18,0.08868330717086792,0.02399330586194992,-9.827892303466797
1.729493560120196e+18,-0.014619812369346619,0.03410369157791138,-9.793704986572266
1.7294935601291963e+18,0.03382812440395355,0.03653375804424286,-9.813115119934082
1.7294935601381965e+18,0.0570669062435627,-0.03224913030862808,-9.804482460021973
1.7294935601441966e+18,-0.0865912139415741,0.013644924387335777,-9.757659912109375
1.7294935601531968e+18,0.035042162984609604,0.018484845757484436,-9.838522911071777
1.729493560162197e+18,0.013854535296559334,-0.04849562048912048,-9.772174835205078
1.7294935601711972e+18,0.020583931356668472,-0.007016624789685011,-9.789260864257812
1.7294935601771973e+18,-0.05295103043317795,0.035625677555799484,-9.765396118164062
1.7294935601861975e+18,-0.06440470367670059,0.015190125443041325,-9.73879337310791
1.7294935601951977e+18,-0.04966002702713013,0.041494641453027725,-9.835225105285645
1.729493560204198e+18,0.053094495087862015,0.045104868710041046,-9.846800804138184
1.729493560210198e+18,0.03123544156551361,0.02431669645011425,-9.85835075378418
1.7294935602191982e+18,-0.00926708709448576,0.07414255291223526,-9.81224250793457
1.7294935602281984e+18,0.01853509247303009,-0.07880648225545883,-9.880358695983887
1.7294935602371986e+18,0.0636897087097168,0.02910136617720127,-9.823684692382812
1.7294935602431987e+18,-0.03543395549058914,0.07929114997386932,-9.848607063293457
1.729493560252199e+18,-0.07418667525053024,0.05456501245498657,-9.719738960266113
1.729493560261199e+18,0.026986006647348404,-0.04261492192745209,-9.810065269470215
1.7294935602671992e+18,-0.06485647708177567,0.01623411476612091,-9.856399536132812
1.7294935602761994e+18,-0.02242942526936531,0.003846200183033943,-9.846161842346191
1.7294935602851996e+18,-0.07000595331192017,0.021464280784130096,-9.923261642456055
1.7294935602911997e+18,-0.06779828667640686,-0.02847708761692047,-9.806955337524414
1.7294935603002e+18,-0.019134312868118286,0.002588491188362241,-9.835091590881348
1.7294935603092001e+18,0.08867469429969788,-0.0065913512371480465,-9.738986015319824
1.7294935603152003e+18,-0.012952354736626148,-0.04275183752179146,-9.784534454345703
1.7294935603242004e+18,-0.010011750273406506,0.036686334758996964,-9.815568923950195
1.7294935603332006e+18,-0.008854798972606659,-0.006654671858996153,-9.796403884887695
1.7294935603392008e+18,-0.0029489819426089525,0.028947677463293076,-9.77601146697998
1.729493560348201e+18,0.02613542415201664,-0.02336432971060276,-9.770298957824707
1.7294935603572012e+18,0.008069194853305817,0.06393609195947647,-9.721773147583008
1.7294935603632013e+18,0.03528214991092682,0.022857269272208214,-9.787996292114258
1.7294935603722015e+18,-0.04323531687259674,-0.017215952277183533,-9.748291969299316
1.7294935603812017e+18,0.03362179547548294,-0.018968667834997177,-9.821535110473633
1.7294935603872018e+18,0.01491869892925024,0.0422845184803009,-9.848211288452148
1.729493560396202e+18,-0.06495548784732819,0.0046844384633004665,-9.75281047821045
1.729493560402202e+18,0.04229273274540901,0.10406792908906937,-9.810591697692871
1.7294935604112023e+18,0.002150515792891383,0.024781834334135056,-9.737924575805664
1.7294935604172024e+18,0.06433321535587311,0.02548038586974144,-9.779491424560547
1.7294935604262026e+18,0.03461069241166115,0.060931496322155,-9.81296443939209
1.7294935604322028e+18,0.010263367556035519,0.048617713153362274,-9.817011833190918
1.729493560441203e+18,0.053422048687934875,-0.02516634203493595,-9.903939247131348
1.7294935604502031e+18,-0.010339302010834217,-0.027980508282780647,-9.681522369384766
1.7294935604592033e+18,-0.03871205821633339,-0.03732528164982796,-9.77039623260498
1.7294935604652035e+18,0.02030578814446926,-0.09728039801120758,-9.791333198547363
1.7294935604742036e+18,-0.005691787227988243,0.03652383014559746,-9.804356575012207
1.7294935604832038e+18,0.02894269861280918,-0.0101451575756073,-9.793245315551758
1.729493560492204e+18,0.02116416022181511,0.022638777270913124,-9.817923545837402
1.7294935604982042e+18,0.019335893914103508,-0.06080450862646103,-9.829347610473633
1.7294935605072044e+18,0.044896047562360764,-0.04192664101719856,-9.874465942382812
1.7294935605132045e+18,0.013809042982757092,-0.035358358174562454,-9.837559700012207
1.7294935605222047e+18,-0.027517003938555717,-0.03698605298995972,-9.838894844055176
1.7294935605282048e+18,0.07068807631731033,0.04311816394329071,-9.76569652557373
1.729493560537205e+18,0.07210585474967957,-0.03872765600681305,-9.766229629516602
1.729493560543205e+18,0.015385015867650509,-0.015280058607459068,-9.815855979919434
1.7294935605522053e+18,0.009323406964540482,-0.1099993884563446,-9.730403900146484
1.7294935605612055e+18,-0.03943730518221855,-0.04905976355075836,-9.81942081451416
1.7294935605702057e+18,0.011227105744183064,-0.057159461081027985,-9.8825101852417
1.7294935605762058e+18,0.024125611409544945,-0.0038581592962145805,-9.834299087524414
1.729493560585206e+18,-0.06309573352336884,0.032660454511642456,-9.865055084228516
1.7294935605912061e+18,0.03440912812948227,0.055784922093153,-9.762106895446777
1.7294935606002063e+18,0.08506187051534653,-0.019490443170070648,-9.878250122070312
1.7294935606092065e+18,0.03176527097821236,-0.051008205860853195,-9.854008674621582
1.7294935606182067e+18,0.028413817286491394,-0.046860210597515106,-9.7841157913208
1.729493560627207e+18,0.017500875517725945,-0.025390442460775375,-9.804461479187012
1.729493560633207e+18,0.017920492216944695,0.0030675565358251333,-9.862857818603516
1.7294935606422072e+18,-0.024704141542315483,-0.06326554715633392,-9.826826095581055
1.7294935606512074e+18,0.026173245161771774,-0.0038921746890991926,-9.813591003417969
1.7294935606602076e+18,0.02873244881629944,0.0045249792747199535,-9.805182456970215
1.7294935606692078e+18,-0.04893125593662262,0.011402983218431473,-9.821457862854004
1.729493560675208e+18,-0.029337499290704727,-0.10923542827367783,-9.851089477539062
1.729493560684208e+18,0.015962740406394005,-0.030064228922128677,-9.89071273803711
1.7294935606932083e+18,-0.0008828385034576058,-0.05146445706486702,-9.747034072875977
1.7294935606992084e+18,0.005020701326429844,0.04951956495642662,-9.775789260864258
1.7294935607082086e+18,0.02798100933432579,0.05156634747982025,-9.863014221191406
1.7294935607172088e+18,0.11711899191141129,0.0036617289297282696,-9.720946311950684
1.729493560726209e+18,0.042394377291202545,-0.06143210455775261,-9.813448905944824
1.7294935607352092e+18,0.06246902793645859,0.006538358051329851,-9.80752182006836
1.7294935607412093e+18,-0.010919786989688873,-0.09581691771745682,-9.84642505645752
1.7294935607502095e+18,-0.03572529926896095,-0.04133317619562149,-9.896560668945312
1.7294935607592097e+18,0.005620012059807777,0.03628213331103325,-9.814287185668945
1.72949356076821e+18,-0.025773290544748306,-0.015877215191721916,-9.880217552185059
1.72949356077421e+18,-0.013703287579119205,-0.07471717894077301,-9.804829597473145
1.7294935607832102e+18,0.04993462935090065,-0.0251765176653862,-9.799107551574707
1.7294935607892104e+18,0.033930834382772446,-0.055905893445014954,-9.748456001281738
1.7294935607982106e+18,0.0034847231581807137,0.024593817070126534,-9.849227905273438
1.7294935608042107e+18,0.003435008227825165,-0.011142399162054062,-9.923277854919434
1.729493560813211e+18,-0.06968653202056885,0.005497292149811983,-9.839667320251465
1.729493560822211e+18,0.08408735692501068,0.03740842267870903,-9.948128700256348
1.7294935608312113e+18,0.05377165228128433,-0.002272305078804493,-9.918631553649902
1.7294935608372114e+18,0.020638922229409218,-0.09351339936256409,-9.95790958404541
1.7294935608462116e+18,-0.05724884569644928,0.005020430777221918,-10.010050773620605
1.7294935608522117e+18,-0.05803604796528816,0.0753893181681633,-9.963207244873047
1.729493560861212e+18,-0.038802146911621094,0.02200455218553543,-9.976471900939941
1.729493560870212e+18,0.05128762125968933,-0.037372298538684845,-9.96488094329834
1.7294935608762122e+18,-0.03132929652929306,-0.03977324068546295,-10.002788543701172
1.7294935608852124e+18,0.03216932713985443,0.046701692044734955,-9.936470985412598
1.7294935608942126e+18,0.028246555477380753,-0.023370224982500076,-10.004598617553711
1.7294935609002127e+18,-0.040559686720371246,0.05434330552816391,-10.085289001464844
1.729493560909213e+18,0.10521065443754196,-0.057019852101802826,-10.067939758300781
1.729493560918213e+18,-0.028405066579580307,-0.047194309532642365,-10.10307788848877
1.7294935609272133e+18,-0.05278286710381508,-0.07658334821462631,-10.048945426940918
1.7294935609362135e+18,0.031704459339380264,-0.0215892493724823,-10.115123748779297
1.7294935609422136e+18,-0.03387412056326866,0.011131196282804012,-10.267318725585938
1.7294935609512138e+18,0.04760728031396866,0.1103731021285057,-10.503459930419922
1.729493560960214e+18,-0.03003758192062378,-0.058117300271987915,-10.493617057800293
1.7294935609662141e+18,-0.022324562072753906,-0.013991384766995907,-10.480578422546387
1.7294935609752143e+18,-0.04344191029667854,-0.02700059488415718,-10.607442855834961
1.7294935609842145e+18,-0.05158732086420059,0.038149673491716385,-10.526330947875977
1.7294935609902147e+18,0.04148218035697937,0.06130988150835037,-10.637700080871582
1.7294935609992148e+18,0.04445618391036987,0.034234218299388885,-10.491762161254883
1.729493561008215e+18,0.06814852356910706,0.0840090662240982,-10.488913536071777
1.7294935610172152e+18,-0.011785859242081642,0.009461233392357826,-10.553817749023438
1.7294935610322156e+18,0.007945279590785503,0.04180539399385452,-10.581066131591797
1.7294935610382157e+18,-0.07491414994001389,-0.041631750762462616,-10.495468139648438
1.7294935610472159e+18,0.031423717737197876,-0.055464982986450195,-10.513324737548828
1.729493561056216e+18,-0.04287590831518173,0.04096575081348419,-10.576056480407715
1.7294935610622162e+18,0.036216940730810165,-0.006692126858979464,-10.537034034729004
1.7294935610712164e+18,0.007301110774278641,0.007697032764554024,-10.46417236328125
1.7294935610772165e+18,-0.024210959672927856,-0.02301987260580063,-10.587764739990234
1.7294935610862167e+18,-0.015947431325912476,-0.005795546807348728,-10.593356132507324
1.7294935610922168e+18,0.004994427785277367,0.012846671044826508,-10.608444213867188
1.729493561101217e+18,-0.04084372520446777,-0.04126026853919029,-10.51030158996582
1.7294935611102172e+18,-0.07175803929567337,0.020595021545886993,-10.50540542602539
1.7294935611162173e+18,0.05929400026798248,-0.006963540334254503,-10.623844146728516
1.7294935611252175e+18,0.024993423372507095,0.1003686785697937,-10.607455253601074
1.7294935611402179e+18,-0.0449669249355793,-0.09010437875986099,-10.615996360778809
1.729493561149218e+18,-0.019024383276700974,-0.014419716782867908,-10.646248817443848
1.7294935611582182e+18,0.048562947660684586,-0.03302367031574249,-10.672478675842285
1.7294935611672184e+18,0.05851784348487854,0.0843934416770935,-10.639201164245605
1.7294935611762186e+18,0.02890259213745594,-0.033661484718322754,-10.675045013427734
1.7294935611822188e+18,0.08065295219421387,-0.03282533586025238,-10.6316499710083
1.729493561191219e+18,0.020334385335445404,0.0209607295691967,-10.62903118133545
1.729493561197219e+18,0.004626418463885784,0.007372933439910412,-10.643292427062988
1.7294935612062193e+18,0.012294845655560493,0.0478411540389061,-10.605669021606445
1.7294935612152195e+18,-0.049410127103328705,-0.020596593618392944,-10.59581470489502
1.7294935612212196e+18,0.012915479019284248,0.01809828169643879,-10.685763359069824
1.7294935612302198e+18,-0.002537775319069624,-0.023667525500059128,-10.605046272277832
1.72949356123922e+18,-0.012477133423089981,0.020039672031998634,-10.611300468444824
1.7294935612482202e+18,0.02346562221646309,0.018088562414050102,-10.569378852844238
1.7294935612572204e+18,0.013497325591742992,0.02016444131731987,-10.628521919250488
1.7294935612632205e+18,0.09984748065471649,-0.014267107471823692,-10.64151668548584
1.7294935612722207e+18,-0.06709489226341248,0.012089982628822327,-10.624920845031738
1.7294935612782208e+18,0.008008964359760284,-0.0032141762785613537,-10.606307029724121
1.729493561287221e+18,-0.08262769132852554,0.056579917669296265,-10.68095588684082
1.729493561293221e+18,-0.02108745649456978,-0.016693832352757454,-10.58740520477295
1.7294935613022213e+18,-0.05818045511841774,-0.03289937600493431,-10.632477760314941
1.7294935613112215e+18,0.07745835185050964,-0.03481505811214447,-10.54996109008789
1.7294935613172216e+18,0.12564799189567566,-0.05735945329070091,-10.655609130859375
1.7294935613262218e+18,0.061352796852588654,-0.018110157921910286,-10.617177963256836
1.729493561335222e+18,-0.03418491408228874,-0.06465025991201401,-10.634334564208984
1.7294935613472223e+18,0.0026501126121729612,-0.08659878373146057,-10.73739242553711
1.7294935613562225e+18,-0.0512513667345047,0.021852297708392143,-10.508306503295898
1.7294935613622226e+18,0.06836234033107758,-0.019685901701450348,-10.596512794494629
1.7294935613712228e+18,-0.001623848220333457,0.045432042330503464,-10.612881660461426
1.729493561380223e+18,-0.011741654016077518,-0.0263669490814209,-10.615152359008789
1.729493561386223e+18,-0.027507780119776726,-0.041234638541936874,-10.636397361755371
1.7294935613952233e+18,0.04243709146976471,-0.0032977969385683537,-10.616854667663574
1.7294935614042235e+18,-0.06167956069111824,-0.000533678918145597,-10.55837631225586
1.7294935614102236e+18,-0.05722237378358841,-0.024553101509809494,-10.620315551757812
1.7294935614192238e+18,-0.08063412457704544,0.041383132338523865,-10.625725746154785
1.729493561425224e+18,0.060483068227767944,-0.07140549272298813,-10.691888809204102
1.729493561434224e+18,-0.015581781044602394,-0.04883432760834694,-10.652984619140625
1.7294935614402243e+18,0.01862548477947712,-0.013055495917797089,-10.614300727844238
1.7294935614492244e+18,0.035610854625701904,-0.0300295427441597,-10.576045036315918
1.7294935614582246e+18,-0.05965295061469078,-0.03803972527384758,-10.660002708435059
1.7294935614672248e+18,0.004405082203447819,0.033328767865896225,-10.562097549438477
1.729493561473225e+18,0.02891896851360798,0.009703433141112328,-10.623224258422852
1.7294935614822252e+18,-0.06618870794773102,0.014294154942035675,-10.58801555633545
1.7294935614912253e+18,-0.004490952007472515,0.11170505732297897,-10.613327026367188
1.7294935615002255e+18,-0.0633334070444107,0.0014926554867997766,-10.527581214904785
1.7294935615092257e+18,-0.011791452765464783,0.01270449161529541,-10.608688354492188
1.729493561518226e+18,-0.0200347937643528,-0.0998072624206543,-10.666182518005371
1.729493561524226e+18,-0.022598106414079666,0.031349536031484604,-10.641273498535156
1.7294935615332262e+18,-0.04913906380534172,-0.036100465804338455,-10.530008316040039
1.7294935615392264e+18,-0.031059350818395615,0.04181599244475365,-10.599042892456055
1.7294935615482266e+18,0.03616541624069214,-0.02222815528512001,-10.636510848999023
1.7294935615572268e+18,-0.073245570063591,0.023393770679831505,-10.575385093688965
1.729493561563227e+18,0.00182326918002218,-0.017437104135751724,-10.606724739074707
1.729493561572227e+18,0.0603783018887043,0.022360770031809807,-10.666573524475098
1.7294935615812273e+18,0.011797252111136913,0.035832103341817856,-10.572713851928711
1.7294935615872274e+18,-0.012525507248938084,-0.004786940291523933,-10.5476713180542
1.7294935615962276e+18,0.09133020043373108,0.05320354923605919,-10.59399127960205
1.7294935616052278e+18,0.009250590577721596,0.050866976380348206,-10.587013244628906
1.729493561614228e+18,0.09190438687801361,0.037730537354946136,-10.627496719360352
1.729493561620228e+18,-0.027942562475800514,-0.019698170945048332,-10.600761413574219
1.7294935616292283e+18,-0.02093251794576645,-0.018034065142273903,-10.606067657470703
1.7294935616352284e+18,-0.01989922486245632,-0.006826301105320454,-10.608492851257324
1.7294935616442286e+18,-0.060821302235126495,-0.015230633318424225,-10.595528602600098
1.7294935616532288e+18,-0.06362907588481903,-0.021181805059313774,-10.638456344604492
1.729493561659229e+18,-0.0014480361714959145,0.02767479605972767,-10.619495391845703
1.729493561668229e+18,-0.03948431834578514,-0.017987295985221863,-10.563745498657227
1.7294935616772293e+18,0.03351418301463127,0.011641417630016804,-10.574556350708008
1.7294935616832294e+18,0.016899382695555687,-0.007193618919700384,-10.632774353027344
1.7294935616922296e+18,-0.029985379427671432,-0.07621315866708755,-10.653696060180664
1.7294935617012298e+18,-0.014264102093875408,0.01969606801867485,-10.582873344421387
1.72949356170723e+18,0.01664089784026146,0.10426929593086243,-10.655057907104492
1.7294935617162301e+18,-0.03680428862571716,-0.05450418218970299,-10.556062698364258
1.7294935617252303e+18,0.020503045991063118,-0.03596760705113411,-10.580625534057617
1.7294935617342305e+18,-0.06616311520338058,0.020616216585040092,-10.533445358276367
1.7294935617402307e+18,0.009547572582960129,-0.012755999341607094,-10.619583129882812
1.7294935617492308e+18,0.058015696704387665,0.04870956018567085,-10.623600006103516
1.729493561758231e+18,0.04094510152935982,-0.01662503369152546,-10.657485008239746
1.7294935617642312e+18,0.005921720527112484,0.0012748073786497116,-10.590606689453125
1.7294935617702313e+18,0.07286445051431656,0.046420034021139145,-10.608563423156738
1.7294935617792315e+18,0.0179622583091259,0.04532436281442642,-10.559965133666992
1.7294935617882317e+18,0.05459531769156456,-0.028702538460493088,-10.645483016967773
1.7294935617942318e+18,-0.041116952896118164,-0.025067009031772614,-10.608991622924805
1.729493561803232e+18,0.07984769344329834,0.029827062040567398,-10.490062713623047
1.7294935618092321e+18,0.03452038764953613,0.0427626334130764,-10.60252857208252
1.7294935618182323e+18,-0.05738399922847748,-0.004706556908786297,-10.557536125183105
1.7294935618272325e+18,0.014533141627907753,0.04173586145043373,-10.539961814880371
1.7294935618332326e+18,-0.03414102643728256,0.02068166807293892,-10.635890007019043
1.7294935618422328e+18,0.04896184429526329,-0.012853048741817474,-10.606009483337402
1.729493561848233e+18,-0.015069777145981789,0.011449946090579033,-10.62824821472168
1.7294935618572332e+18,0.07715929299592972,-0.03860507905483246,-10.59737777709961
1.7294935618662333e+18,0.06281527131795883,-0.004015405662357807,-10.583247184753418
1.7294935618722335e+18,0.008002248592674732,0.0068474276922643185,-10.487223625183105
1.7294935618812337e+18,-0.02664763666689396,0.019093703478574753,-10.548611640930176
1.7294935618902339e+18,-0.010077161714434624,-0.04133914038538933,-10.503755569458008
1.729493561896234e+18,-0.0716649740934372,-0.057828646153211594,-10.596027374267578
1.7294935619052342e+18,0.057269979268312454,0.011421692557632923,-10.592406272888184
1.7294935619142344e+18,-0.004901577718555927,0.021043933928012848,-10.580910682678223
1.7294935619202345e+18,-0.0618818998336792,0.01942296512424946,-10.653030395507812
1.7294935619292347e+18,0.058977559208869934,0.06725559383630753,-10.584348678588867
1.729493561938235e+18,-0.02407785877585411,0.013606492429971695,-10.587444305419922
1.729493561944235e+18,-0.011471233330667019,0.02808435633778572,-10.63634204864502
1.7294935619532352e+18,0.0744326040148735,-0.10133255273103714,-10.54700756072998
1.7294935619622354e+18,-0.02305733598768711,0.07491368055343628,-10.57267951965332
1.7294935619682355e+18,0.03557227924466133,0.04232407361268997,-10.498284339904785
1.7294935619772357e+18,-0.06605903804302216,0.012955228798091412,-10.610576629638672
1.729493561986236e+18,0.01126890815794468,0.005227399989962578,-10.579753875732422
1.729493561992236e+18,0.026761770248413086,0.03001275844871998,-10.59221363067627
1.7294935620012362e+18,-0.00781307928264141,0.08756063878536224,-10.625740051269531
1.7294935620102364e+18,0.013253570534288883,0.015827080234885216,-10.527264595031738
1.7294935620162365e+18,-0.054845090955495834,0.03798395395278931,-10.5044584274292
1.7294935620252367e+18,0.08970440924167633,-0.016476506367325783,-10.522400856018066
1.729493562034237e+18,2.0492589101195335e-05,0.0014792344300076365,-10.56181526184082
1.729493562043237e+18,-0.09046191722154617,-0.053277090191841125,-10.539718627929688
1.7294935620492372e+18,0.031917694956064224,0.03153859078884125,-10.576778411865234
1.7294935620582374e+18,0.012062488123774529,0.06508466601371765,-10.538347244262695
1.7294935620672376e+18,0.011672783643007278,0.06891237199306488,-10.504152297973633
1.7294935620762378e+18,0.0474657341837883,-0.002465955214574933,-10.710272789001465
1.729493562085238e+18,0.005014215130358934,0.015192633494734764,-10.515315055847168
1.7294935620942382e+18,-0.014972398988902569,-0.05164646729826927,-10.552536964416504
1.7294935621032384e+18,0.04627932235598564,0.05245447903871536,-10.574569702148438
1.7294935621152387e+18,-0.023397676646709442,0.01879601925611496,-10.566401481628418
1.7294935621242388e+18,0.057887718081474304,0.04503590986132622,-10.565634727478027
1.729493562133239e+18,-0.02965417690575123,-0.024899613112211227,-10.518917083740234
1.7294935621422392e+18,0.020601708441972733,0.020745305344462395,-10.514179229736328
1.7294935621512394e+18,-0.01466127298772335,0.06407077610492706,-10.518680572509766
1.7294935621602396e+18,-0.005477192811667919,0.0728611946105957,-10.616085052490234
1.7294935621692398e+18,0.028513161465525627,0.024301808327436447,-10.491891860961914
1.72949356217824e+18,-0.052482135593891144,0.016458723694086075,-10.492040634155273
1.7294935621872402e+18,-0.025410061702132225,-0.031833991408348083,-10.523479461669922
1.7294935621962404e+18,-0.0323447547852993,-0.059872571378946304,-10.565457344055176
1.7294935622082406e+18,0.01670054718852043,-0.0692257508635521,-10.551457405090332
1.7294935622172408e+18,-0.05138004571199417,0.015064965933561325,-10.488414764404297
1.729493562223241e+18,0.006036615464836359,0.011435616761446,-10.42142391204834
1.7294935622322412e+18,-0.03112967312335968,-0.07895099371671677,-10.528033256530762
1.7294935622412413e+18,0.10629437863826752,0.042170047760009766,-10.45252799987793
1.7294935622502415e+18,0.0032060511875897646,0.022582581266760826,-10.428763389587402
1.7294935622592417e+18,2.281076740473509e-05,-0.032789021730422974,-10.35002326965332
1.729493562268242e+18,0.12511961162090302,0.06831642240285873,-10.402222633361816
1.729493562277242e+18,0.04606029391288757,-0.06076899915933609,-10.370899200439453
1.7294935622862423e+18,-0.06684190034866333,0.03586335480213165,-10.388248443603516
1.7294935622952425e+18,0.03899211809039116,0.04060066491365433,-10.215978622436523
1.7294935623042427e+18,0.008513495326042175,0.033759549260139465,-10.333582878112793
1.7294935623102428e+18,-0.0034969537518918514,-0.034008752554655075,-10.2795991897583
1.729493562319243e+18,0.014075662940740585,0.07796978205442429,-10.226043701171875
1.7294935623282432e+18,0.015449069440364838,0.006717533804476261,-10.208527565002441
1.7294935623372434e+18,-0.023511307314038277,0.08143259584903717,-10.238704681396484
1.7294935623462436e+18,-0.019525917246937752,0.06073353812098503,-10.187356948852539
1.7294935623552438e+18,0.015695733949542046,0.03162260726094246,-10.127031326293945
1.729493562364244e+18,0.05951486900448799,0.0034623746760189533,-10.0910062789917
1.7294935623732442e+18,-0.0201833825558424,-0.005823388230055571,-10.05311393737793
1.7294935623822444e+18,0.0033975394908338785,0.07685630768537521,-9.974719047546387
1.7294935623912445e+18,0.041399870067834854,0.009464854374527931,-10.026942253112793
1.7294935624002447e+18,0.029378067702054977,0.0019903783686459064,-9.989127159118652
1.729493562409245e+18,-0.05191069468855858,-0.032432522624731064,-9.968283653259277
1.729493562418245e+18,-0.0655168816447258,0.027316562831401825,-9.93706226348877
1.7294935624272453e+18,0.030749276280403137,0.07808992266654968,-9.888956069946289
1.7294935624362455e+18,0.0006871180958114564,-0.022630395367741585,-9.860308647155762
1.7294935624452457e+18,-0.10003978759050369,-0.008065377362072468,-9.769377708435059
1.729493562454246e+18,-0.040431927889585495,0.03427046537399292,-9.790140151977539
1.729493562463246e+18,-0.05451314523816109,-0.01708991639316082,-9.679498672485352
1.7294935624722463e+18,-0.03290721774101257,-0.007807500660419464,-9.714737892150879
1.7294935624812465e+18,-0.02142271213233471,-0.06958234310150146,-9.719076156616211
1.7294935624902467e+18,0.0368746854364872,0.06680043041706085,-9.656532287597656
1.7294935624992468e+18,-0.014563414268195629,-0.06159556657075882,-9.644856452941895
1.729493562508247e+18,0.0032463909592479467,-0.08072484284639359,-9.696560859680176
1.7294935625202473e+18,-0.060350000858306885,-0.03006657212972641,-9.671662330627441
1.7294935625292475e+18,0.013362836092710495,-0.0494791604578495,-9.719429016113281
1.7294935625382477e+18,0.008992577902972698,0.01689813658595085,-9.71668529510498
1.7294935625442478e+18,0.017302649095654488,0.026434117928147316,-9.623605728149414
1.729493562553248e+18,0.02461114525794983,-0.03504878282546997,-9.543622016906738
1.7294935625622482e+18,-0.017051292583346367,0.006457969080656767,-9.630924224853516
1.7294935625712484e+18,0.0024892117362469435,0.022108914330601692,-9.659978866577148
1.7294935625802486e+18,0.012056038714945316,-0.02388213947415352,-9.724535942077637
1.7294935625862487e+18,0.035173140466213226,-0.023498058319091797,-9.686180114746094
1.729493562595249e+18,-0.050351668149232864,-0.02106032893061638,-9.627740859985352
1.729493562604249e+18,-0.013223186135292053,-0.06926845014095306,-9.649585723876953
1.7294935626132493e+18,0.03719708323478699,-0.09163539856672287,-9.641324043273926
1.7294935626222495e+18,-0.0156407430768013,-0.02730453573167324,-9.68238353729248
1.7294935626312497e+18,-0.01200549304485321,-0.09083300083875656,-9.65810775756836
1.7294935626402499e+18,0.04814309626817703,0.04396452754735947,-9.68966293334961
1.72949356264925e+18,0.0446619987487793,0.049125295132398605,-9.647064208984375
1.7294935626552502e+18,-0.04157230630517006,-0.06140492111444473,-9.610929489135742
1.7294935626642504e+18,-0.03974078595638275,0.014938409440219402,-9.6434965133667
1.7294935626732506e+18,0.03900914266705513,-0.004174908623099327,-9.63068675994873
1.7294935626822508e+18,0.04427817836403847,-0.06887166947126389,-9.735469818115234
1.729493562691251e+18,0.04896501451730728,0.05255943164229393,-9.74010944366455
1.729493562697251e+18,0.06337852030992508,0.0752141922712326,-9.611608505249023
1.7294935627062513e+18,-0.06104022637009621,-0.07175037264823914,-9.618378639221191
1.7294935627152515e+18,-0.03610476106405258,-0.0052404506132006645,-9.672560691833496
1.7294935627212516e+18,0.053628504276275635,0.07097061723470688,-9.617183685302734
1.7294935627302518e+18,0.029364384710788727,0.0027420497499406338,-9.721173286437988
1.729493562736252e+18,-0.009099327027797699,-0.07537359744310379,-9.659564971923828
1.729493562745252e+18,0.030379964038729668,0.05494290217757225,-9.677481651306152
1.7294935627512522e+18,-0.03321598470211029,0.026331694796681404,-9.704986572265625
1.7294935627602524e+18,0.01758180558681488,0.000821187742985785,-9.619999885559082
1.7294935627662525e+18,0.055062804371118546,-0.0029026316478848457,-9.674994468688965
1.7294935627752527e+18,-0.0022575464099645615,0.05673753470182419,-9.719385147094727
1.729493562784253e+18,0.007896790280938148,-0.05671659857034683,-9.580352783203125
1.729493562793253e+18,-0.0361042246222496,-0.0711708813905716,-9.599544525146484
1.7294935627992532e+18,0.05463123321533203,-0.026825325563549995,-9.563460350036621
1.7294935628052534e+18,-0.0946020632982254,0.036938127130270004,-9.6126070022583
1.7294935628142536e+18,-0.023648465052247047,0.014305684715509415,-9.637682914733887
1.7294935628232538e+18,0.03180189058184624,-0.03194677084684372,-9.691052436828613
1.729493562832254e+18,-0.04738297313451767,0.05728136748075485,-9.606173515319824
1.729493562838254e+18,-0.012327415868639946,-0.023120876401662827,-9.6343994140625
1.7294935628472543e+18,-0.05269714072346687,0.01960727944970131,-9.60134506225586
1.7294935628562545e+18,-0.00304012862034142,-0.04824769124388695,-9.595619201660156
1.7294935628622546e+18,-0.03414422646164894,-0.07120929658412933,-9.59119987487793
1.7294935628712548e+18,-0.03952062502503395,0.08697813749313354,-9.62580394744873
1.729493562880255e+18,0.0028437417931854725,-0.004328252747654915,-9.602824211120605
1.7294935628892552e+18,0.0098525770008564,0.16649100184440613,-9.746424674987793
1.7294935628952553e+18,0.028111586347222328,0.010220319032669067,-9.751384735107422
1.7294935629042555e+18,-0.03221796452999115,0.04258207231760025,-9.589247703552246
1.7294935629132557e+18,-0.03866955265402794,0.0017309808172285557,-9.653925895690918
1.7294935629192558e+18,-0.03318166360259056,-0.028544941917061806,-9.58538818359375
1.729493562928256e+18,-0.018147602677345276,-0.052499834448099136,-9.583148956298828
1.729493562934256e+18,-0.023536544293165207,0.03314581140875816,-9.638947486877441
1.7294935629432563e+18,-0.03973962739109993,-0.008809411898255348,-9.55270004272461
1.7294935629522565e+18,-0.05889701843261719,0.00648168008774519,-9.707884788513184
1.7294935629612567e+18,0.036529187113046646,-0.045720458030700684,-9.650123596191406
1.7294935629672568e+18,-0.026724059134721756,-0.05485949292778969,-9.6283597946167
1.729493562976257e+18,-0.0546625554561615,-0.0017907836008816957,-9.608641624450684
1.7294935629852572e+18,-0.007896017283201218,-0.048824526369571686,-9.483419418334961
1.7294935629942574e+18,-0.01942390389740467,-0.010112769901752472,-9.597705841064453
1.7294935630032576e+18,-0.1171087697148323,-0.008620228618383408,-9.555028915405273
1.7294935630122578e+18,0.008993396535515785,0.022318730130791664,-9.53172779083252
1.729493563018258e+18,0.02011522278189659,0.010395968332886696,-9.602227210998535
1.729493563027258e+18,0.006639472208917141,-0.07465965300798416,-9.47916316986084
1.7294935630362583e+18,0.039096713066101074,0.06029633805155754,-9.54259204864502
1.7294935630452585e+18,-0.03755977004766464,-0.09647885710000992,-9.569786071777344
1.7294935630542587e+18,-0.0007122732931748033,0.05690450966358185,-9.584792137145996
1.7294935630602588e+18,-0.07691016793251038,-0.06901763379573822,-9.5601167678833
1.729493563069259e+18,-0.010768422856926918,0.08527075499296188,-9.545909881591797
1.7294935630782592e+18,-0.06519778072834015,-0.045662522315979004,-9.552517890930176
1.7294935630872594e+18,-0.03329075872898102,0.006316966377198696,-9.598701477050781
1.7294935630962596e+18,0.02847818285226822,0.040781620889902115,-9.525603294372559
1.7294935631052598e+18,-0.027097025886178017,-0.006415704730898142,-9.44697093963623
1.72949356311426e+18,0.08140826225280762,-0.011013229377567768,-9.645477294921875
1.7294935631232602e+18,0.033862680196762085,-0.020423825830221176,-9.544694900512695
1.7294935631292603e+18,-0.02637387625873089,-0.01911286823451519,-9.53381061553955
1.7294935631382605e+18,0.011453237384557724,0.029121318832039833,-9.564412117004395
1.7294935631472607e+18,0.02410847134888172,-0.08687719702720642,-9.503390312194824
1.7294935631562609e+18,-0.05931584909558296,0.0010119860526174307,-9.4909029006958
1.729493563165261e+18,0.059676073491573334,0.021738121286034584,-9.574811935424805
1.7294935631712612e+18,-0.050785526633262634,-0.030505532398819923,-9.526427268981934
1.7294935631802614e+18,0.048786647617816925,0.06035898998379707,-9.550990104675293
1.7294935631892616e+18,0.016177309677004814,0.03836910426616669,-9.57647705078125
1.7294935631982618e+18,-0.017425738275051117,0.11094219982624054,-9.53692626953125
1.729493563207262e+18,0.058180660009384155,-0.017971793189644814,-9.563750267028809
1.729493563213262e+18,-0.03320442885160446,0.008440539240837097,-9.63525390625
1.7294935632222623e+18,-0.01737917587161064,0.04757320508360863,-9.565115928649902
1.7294935632312625e+18,-0.009669537656009197,0.028078211471438408,-9.488390922546387
1.7294935632402627e+18,0.04309568926692009,0.057260170578956604,-9.571433067321777
1.7294935632492628e+18,0.05306205898523331,-0.11798596382141113,-9.4500732421875
1.729493563258263e+18,0.034148555248975754,-0.03682916238903999,-9.528592109680176
1.7294935632642632e+18,0.006542062386870384,-0.0336102657020092,-9.452498435974121
1.7294935632732634e+18,0.029816031455993652,0.012121366336941719,-9.561332702636719
1.7294935632792635e+18,-0.05671517550945282,-0.0035567458253353834,-9.482477188110352
1.7294935632882637e+18,0.06453759968280792,0.04166630282998085,-9.473875999450684
1.7294935632972639e+18,0.11192911118268967,-0.03423159569501877,-9.495813369750977
1.729493563306264e+18,0.00030117109417915344,0.053875092417001724,-9.57766342163086
1.7294935633122642e+18,0.0169777013361454,-0.014596409164369106,-9.504114151000977
1.7294935633212644e+18,0.012472381815314293,0.009270692244172096,-9.538888931274414
1.7294935633302646e+18,0.025061264634132385,0.025580812245607376,-9.463818550109863
1.7294935633362647e+18,-0.0075646620243787766,0.07250959426164627,-9.426212310791016
1.729493563345265e+18,0.07747392356395721,0.05166659876704216,-9.486788749694824
1.729493563354265e+18,-0.048810411244630814,-0.019971059635281563,-9.563394546508789
1.7294935633632653e+18,-0.04071082919836044,-0.015457984060049057,-9.422800064086914
1.7294935633692654e+18,0.04258367046713829,-0.02674466371536255,-9.460883140563965
1.7294935633812657e+18,-0.005282208789139986,-0.01768254116177559,-9.55856704711914
1.7294935633902659e+18,0.020424356684088707,-0.030285535380244255,-9.501358985900879
1.729493563399266e+18,0.094241663813591,0.0014537277165800333,-9.575970649719238
1.7294935634112663e+18,0.05248357728123665,-0.033875636756420135,-9.476153373718262
1.7294935634172664e+18,-0.03477782756090164,-0.08754026889801025,-9.417941093444824
1.7294935634322668e+18,-0.059512991458177567,0.0225981418043375,-9.567636489868164
1.729493563441267e+18,-0.007111808285117149,-0.01215394213795662,-9.549138069152832
1.7294935634502671e+18,0.022416165098547935,0.014827263541519642,-9.391730308532715
1.7294935634592673e+18,0.013543794862926006,-0.09428902715444565,-9.47667121887207
1.7294935634682675e+18,0.027699196711182594,-0.041351594030857086,-9.508216857910156
1.7294935634772677e+18,0.023322969675064087,-0.0006221843068487942,-9.47036361694336
1.729493563486268e+18,-0.05237420275807381,0.03323804587125778,-9.456783294677734
1.729493563492268e+18,-0.02215666137635708,-0.012890295125544071,-9.471407890319824
1.7294935635012682e+18,-0.00807003304362297,0.01999671384692192,-9.480196952819824
1.7294935635072684e+18,-0.06719226390123367,-0.020910091698169708,-9.464520454406738
1.7294935635162685e+18,0.02903025411069393,0.07697705924510956,-9.547014236450195
1.7294935635252687e+18,-0.02755502238869667,-0.003013537498190999,-9.42556381225586
1.729493563534269e+18,-0.01616506464779377,-0.04161855950951576,-9.494159698486328
1.729493563540269e+18,-0.015140906907618046,-0.05066025257110596,-9.431925773620605
1.7294935635492692e+18,-0.04696331545710564,-0.034447863698005676,-9.48556900024414
1.7294935635552694e+18,0.1416967362165451,0.009937870316207409,-9.474674224853516
1.7294935635672696e+18,-0.0010866074590012431,0.0017551807686686516,-9.492658615112305
1.7294935635732698e+18,0.014276621863245964,0.00578541262075305,-9.456465721130371
1.72949356358227e+18,0.0740419253706932,-0.007848354987800121,-9.40930461883545
1.72949356358827e+18,0.003388894023373723,0.015142684802412987,-9.448644638061523
1.7294935635972703e+18,-0.0591621994972229,0.016135016456246376,-9.367400169372559
1.7294935636062705e+18,0.008833037689328194,0.062280554324388504,-9.38935375213623
1.7294935636122706e+18,0.024447351694107056,0.03799320384860039,-9.411497116088867
1.7294935636212708e+18,0.0699273943901062,-0.02278102934360504,-9.405138969421387
1.729493563627271e+18,-0.022990744560956955,0.01621987670660019,-9.422199249267578
1.729493563636271e+18,0.02807978354394436,-0.060493435710668564,-9.388742446899414
1.7294935636422712e+18,0.01460072211921215,-0.04661647602915764,-9.44980525970459
1.7294935636512714e+18,0.02952505089342594,0.030488599091768265,-9.513215065002441
1.7294935636602716e+18,0.05147579684853554,0.043565914034843445,-9.527105331420898
1.7294935636662717e+18,-0.06326211243867874,-0.01141100563108921,-9.495331764221191
1.729493563675272e+18,0.04698774963617325,-0.07935450226068497,-9.464028358459473
1.729493563684272e+18,0.0898539125919342,-0.008760861121118069,-9.507829666137695
1.7294935636932723e+18,-0.08205267786979675,0.033535897731781006,-9.48674201965332
1.7294935637022725e+18,0.006716905161738396,-0.02210703119635582,-9.517868995666504
1.7294935637112727e+18,0.042763251811265945,0.014705889858305454,-9.457372665405273
1.729493563720273e+18,-0.027338091284036636,-0.005601631011813879,-9.45105266571045
1.729493563729273e+18,-0.03238720819354057,0.011522294022142887,-9.436321258544922
1.7294935637382733e+18,-0.01699075661599636,-0.06313853710889816,-9.371233940124512
1.7294935637472735e+18,0.0065722051076591015,0.027211135253310204,-9.358626365661621
1.7294935637562737e+18,0.03416772559285164,0.06260701268911362,-9.391883850097656
1.7294935637652739e+18,0.07622113078832626,-0.044894739985466,-9.417330741882324
1.729493563774274e+18,-0.02416161075234413,0.027491280809044838,-9.461334228515625
1.7294935637802742e+18,-0.005291138309985399,0.01829058863222599,-9.466373443603516
1.7294935637892744e+18,-0.06433657556772232,-0.048431407660245895,-9.417085647583008
1.7294935637952745e+18,-0.04826170951128006,-0.03139863163232803,-9.47677230834961
1.7294935638042747e+18,0.054330624639987946,-0.07396060973405838,-9.46379280090332
1.729493563813275e+18,-0.03285334259271622,-0.053937699645757675,-9.379127502441406
1.7294935638252751e+18,0.0164963286370039,-0.022166782990098,-9.348345756530762
1.7294935638342753e+18,0.05772272124886513,-0.006904202979058027,-9.471762657165527
1.7294935638432755e+18,-0.004871310666203499,0.0322607196867466,-9.334997177124023
1.7294935638522757e+18,0.008800017647445202,-0.014101821929216385,-9.407631874084473
1.7294935638582758e+18,-0.030868520960211754,-0.03223228454589844,-9.464669227600098
1.729493563867276e+18,0.013049034401774406,0.042398955672979355,-9.389141082763672
1.7294935638762762e+18,0.022721534594893456,-0.06568080931901932,-9.342628479003906
1.7294935638852764e+18,0.031462568789720535,-0.04804155230522156,-9.341554641723633
1.7294935638942766e+18,-0.038732659071683884,-0.06874655187129974,-9.38882827758789
1.7294935639032768e+18,-0.044737737625837326,-0.029219048097729683,-9.376440048217773
1.729493563912277e+18,-0.01927630603313446,-0.0269433856010437,-9.418303489685059
1.729493563918277e+18,-0.007695394568145275,0.09643333405256271,-9.40158462524414
1.7294935639272773e+18,0.026070544496178627,-0.02749902755022049,-9.35350513458252
1.7294935639362775e+18,-0.03557216003537178,0.04589288681745529,-9.391921997070312
1.7294935639452777e+18,-0.03663729131221771,0.08166191726922989,-9.466984748840332
1.7294935639512778e+18,0.013170610181987286,0.00970911793410778,-9.465014457702637
1.729493563960278e+18,-0.059063635766506195,0.007900220341980457,-9.421932220458984
1.7294935639692782e+18,-0.007147063966840506,-0.1396966278553009,-9.394311904907227
1.7294935639782784e+18,-0.026416178792715073,0.011561473831534386,-9.347359657287598
1.7294935639842785e+18,-0.040381088852882385,0.04876769334077835,-9.441282272338867
1.7294935639932787e+18,-0.03607796132564545,-0.060264114290475845,-9.384432792663574
1.729493564002279e+18,0.030306728556752205,0.05306252837181091,-9.400388717651367
1.729493564011279e+18,0.07164283841848373,0.0857807993888855,-9.445623397827148
1.7294935640202793e+18,0.010534007102251053,0.014574946835637093,-9.388221740722656
1.7294935640262794e+18,-0.04030336067080498,0.029650632292032242,-9.4496431350708
1.7294935640352796e+18,-0.0021551214158535004,0.0004190900071989745,-9.398943901062012
1.7294935640442798e+18,-0.021478936076164246,-0.03934704139828682,-9.357229232788086
1.72949356405028e+18,-0.072197325527668,-0.03564034029841423,-9.299056053161621
1.7294935640592801e+18,0.04202139750123024,0.06802628189325333,-9.254303932189941
1.7294935640682803e+18,-0.011129630729556084,0.07881485670804977,-9.28478717803955
1.7294935640772805e+18,-0.02659999579191208,0.0348348505795002,-9.287917137145996
1.7294935640832806e+18,0.03485754132270813,-0.04418731480836868,-9.186383247375488
1.7294935640922808e+18,0.0687885507941246,0.03568810224533081,-9.2081298828125
1.729493564101281e+18,-0.03904052451252937,0.012396179139614105,-9.182964324951172
1.7294935641102812e+18,-0.029641635715961456,0.008498674258589745,-9.109374046325684
1.7294935641162813e+18,0.05390805006027222,0.04202291741967201,-9.08627700805664
1.7294935641252815e+18,-0.04616841301321983,-0.010559005662798882,-9.140586853027344
1.7294935641342817e+18,0.03581845760345459,0.012549425475299358,-9.113276481628418
1.729493564143282e+18,-0.04489368200302124,0.01744988188147545,-9.042799949645996
1.729493564149282e+18,0.011045526713132858,-0.025679007172584534,-8.98041820526123
1.7294935641582822e+18,-0.03719726949930191,-0.10313910245895386,-8.966593742370605
1.7294935641672824e+18,0.05253693088889122,-0.07266882807016373,-8.962400436401367
1.7294935641762826e+18,-0.004880297929048538,0.035313572734594345,-8.95499324798584
1.7294935641852828e+18,0.011111262254416943,0.001071201404556632,-8.94332504272461
1.729493564191283e+18,-0.015835780650377274,0.04439989849925041,-8.82363224029541
1.729493564197283e+18,0.05189317837357521,-0.010334562510251999,-8.920516967773438
1.7294935642062833e+18,-0.04860226437449455,0.06471862643957138,-8.823780059814453
1.7294935642152835e+18,0.05138418823480606,0.022796466946601868,-8.885305404663086
1.7294935642242836e+18,0.037220075726509094,0.026416216045618057,-8.736645698547363
1.7294935642302838e+18,-0.0005621685413643718,-0.004653175361454487,-8.773299217224121
1.729493564239284e+18,0.048636555671691895,-0.015210719779133797,-8.722647666931152
1.7294935642482842e+18,0.011797696352005005,0.07834233343601227,-8.822019577026367
1.7294935642572844e+18,-0.023748403415083885,0.002040712395682931,-11.977593421936035
1.7294935642662845e+18,0.06607000529766083,0.01648605242371559,-15.311902046203613
1.7294935642722847e+18,0.013389063067734241,0.02262839674949646,-15.755064010620117
1.7294935642812849e+18,0.023144779726862907,0.0049905674532055855,-15.942726135253906
1.729493564290285e+18,-0.0186596866697073,-0.014336997643113136,-16.038787841796875
1.7294935642962852e+18,0.08114754408597946,-0.01582568883895874,-15.871309280395508
1.7294935643052854e+18,0.05358307063579559,-0.03935905173420906,-15.80444622039795
1.7294935643142856e+18,0.0009829122573137283,-0.0163105521351099,-15.709746360778809
1.7294935643202857e+18,-0.034311212599277496,-0.029191097244620323,-15.646589279174805
1.729493564329286e+18,-0.07574149966239929,-0.010876430198550224,-15.491034507751465
1.729493564338286e+18,-0.025607991963624954,0.041351642459630966,-15.418241500854492
1.7294935643442862e+18,-0.006554333958774805,-0.006376069970428944,-15.303276062011719
1.7294935643532864e+18,-0.04492327943444252,0.011788351461291313,-15.174186706542969
1.7294935643622866e+18,0.03473351150751114,0.06280602514743805,-15.073732376098633
1.7294935643682867e+18,0.01863183081150055,0.01687709428369999,-14.945446968078613
1.729493564377287e+18,0.03034067340195179,0.0102288369089365,-14.832833290100098
1.729493564386287e+18,0.010243602097034454,-0.019495943561196327,-14.683670043945312
1.7294935643952873e+18,-0.01878562942147255,-0.01697065494954586,-14.551055908203125
1.7294935644042875e+18,-0.051869407296180725,-0.028561744838953018,-14.575447082519531
1.7294935644132877e+18,0.03571829944849014,0.02881428599357605,-14.350113868713379
1.7294935644192878e+18,0.02314578928053379,0.0014816969633102417,-14.38305950164795
1.729493564428288e+18,0.014496013522148132,0.01319099497050047,-14.207616806030273
1.7294935644372882e+18,0.024874286726117134,-0.039860956370830536,-14.117531776428223
1.7294935644432883e+18,0.024465477094054222,-0.03967999294400215,-14.024479866027832
1.7294935644522885e+18,-0.019871076568961143,0.009621432982385159,-13.915620803833008
1.7294935644612887e+18,-0.002579010557383299,0.062744140625,-13.738839149475098
1.729493564470289e+18,-0.01444679219275713,0.0263505931943655,-13.766764640808105
1.729493564479289e+18,-0.03647327423095703,-0.033740829676389694,-13.559775352478027
1.7294935644852892e+18,0.08739709854125977,0.03577980771660805,-13.565593719482422
1.7294935644942894e+18,0.0359625406563282,-0.013103006407618523,-13.430442810058594
1.7294935645032896e+18,0.006546800024807453,-0.021784519776701927,-13.392759323120117
1.7294935645092897e+18,-0.020124511793255806,-0.04313226416707039,-13.306934356689453
1.72949356451829e+18,0.10972967743873596,0.005661131348460913,-13.251510620117188
1.72949356452729e+18,0.025566622614860535,-0.01624089851975441,-13.153552055358887
1.7294935645332902e+18,-0.09644374996423721,-0.007668194826692343,-13.092007637023926
1.7294935645422904e+18,-0.03147168084979057,-0.0369732491672039,-13.068482398986816
1.7294935645512906e+18,0.1022844910621643,0.04037732630968094,-12.902225494384766
1.7294935645602908e+18,0.0495818629860878,-0.07710746675729752,-12.863995552062988
1.729493564569291e+18,-0.046686120331287384,0.06029370799660683,-12.783693313598633
1.7294935645782912e+18,-0.04732198268175125,0.017042046412825584,-12.772491455078125
1.7294935645842913e+18,-0.025865942239761353,-0.020984314382076263,-12.699986457824707
1.7294935645932915e+18,-0.050757501274347305,-0.052345164120197296,-12.703441619873047
1.7294935645992916e+18,-0.042726654559373856,-0.0007946353871375322,-12.574725151062012
1.7294935646082918e+18,-0.09762607514858246,0.004667807836085558,-12.54056453704834
1.729493564614292e+18,0.09233212471008301,-0.052311841398477554,-12.509062767028809
1.7294935646232922e+18,0.010987628251314163,-0.02473526820540428,-12.454792022705078
1.7294935646322924e+18,-0.04855956509709358,0.013491718098521233,-12.320423126220703
1.7294935646382925e+18,0.0033208150416612625,-0.007324826437979937,-12.280991554260254
1.7294935646472927e+18,-0.035506345331668854,-0.024644967168569565,-12.271697044372559
1.7294935646562929e+18,0.06731699407100677,0.0575668029487133,-12.3131685256958
1.729493564662293e+18,0.04014565050601959,0.01638093963265419,-12.2102632522583
1.7294935646712932e+18,-0.02779478020966053,0.007722572423517704,-12.120779991149902
1.7294935646802934e+18,-0.020008103922009468,0.04659539461135864,-12.075526237487793
1.7294935646892936e+18,-0.010365434922277927,0.07746859639883041,-12.034529685974121
1.7294935646952937e+18,-0.07007105648517609,0.017035095021128654,-11.990062713623047
1.729493564704294e+18,-0.014157738536596298,-0.033149607479572296,-11.92878532409668
1.729493564713294e+18,0.027352463454008102,-0.02836497873067856,-11.896584510803223
1.7294935647192942e+18,0.030066439881920815,-0.06365621089935303,-11.884256362915039
1.7294935647282944e+18,0.03721271827816963,0.07314012199640274,-11.854930877685547
1.7294935647372946e+18,-0.018034527078270912,0.0908304825425148,-11.808801651000977
1.7294935647432947e+18,-0.01854012720286846,0.0236203633248806,-11.717743873596191
1.729493564752295e+18,-0.09640569984912872,-0.00660309661179781,-11.794120788574219
1.729493564761295e+18,-0.060426343232393265,-0.015596325509250164,-11.765168190002441
1.7294935647702953e+18,0.08604273200035095,0.016173014417290688,-11.618917465209961
1.7294935647792955e+18,0.03147240728139877,0.06434829533100128,-11.602007865905762
1.7294935647852956e+18,0.08411351591348648,0.10433876514434814,-11.583029747009277
1.7294935647942958e+18,-0.010583686642348766,-0.026457209140062332,-11.530852317810059
1.729493564803296e+18,0.008099369704723358,-0.03203482925891876,-11.468951225280762
1.7294935648092961e+18,-0.007439335808157921,0.018574247136712074,-11.430207252502441
1.7294935648182963e+18,-0.004720316268503666,-0.06291377544403076,-11.479321479797363
1.7294935648272965e+18,0.03637370839715004,0.0024920895230025053,-11.312695503234863
1.7294935648362967e+18,-0.01106883306056261,-0.016981232911348343,-11.309138298034668
1.729493564845297e+18,-0.04514634609222412,-0.03823406994342804,-11.339849472045898
1.7294935648572972e+18,-0.018072688952088356,0.04866279661655426,-11.25497817993164
1.7294935648632973e+18,-0.03332347422838211,0.014676293358206749,-11.256810188293457
1.7294935648722975e+18,0.07952863723039627,-0.013496650382876396,-11.195744514465332
1.7294935648812977e+18,0.06557226926088333,-0.037171028554439545,-11.241521835327148
1.7294935648902979e+18,0.0246594175696373,0.0029064251575618982,-11.146384239196777
1.729493564896298e+18,-0.02388935536146164,0.03153601288795471,-11.171635627746582
1.7294935649052982e+18,-0.05914787948131561,0.05189751833677292,-11.126436233520508
1.7294935649142984e+18,0.03848906606435776,-0.03861764818429947,-11.076271057128906
1.7294935649232986e+18,0.03418130800127983,0.04833836480975151,-11.115360260009766
1.7294935649292987e+18,0.030150525271892548,-0.0035040793009102345,-11.075919151306152
1.729493564938299e+18,-0.04029962792992592,0.0463569276034832,-11.073192596435547
1.729493564947299e+18,-0.06941001117229462,0.030896946787834167,-11.06482219696045
1.7294935649532992e+18,-0.04044383764266968,0.12141424417495728,-10.990432739257812
1.7294935649622994e+18,-0.010355517268180847,0.054564666002988815,-10.974640846252441
1.7294935649712996e+18,0.03590917959809303,-0.032667648047208786,-10.9375
1.7294935649802998e+18,0.003095206804573536,0.0597989596426487,-10.935235023498535
1.7294935649893e+18,-0.010266105644404888,-0.003814761759713292,-10.860308647155762
1.7294935649983002e+18,0.014090023934841156,-0.14193615317344666,-10.92713451385498
1.7294935650043003e+18,-0.023173417896032333,-0.052410975098609924,-10.871939659118652
1.7294935650133005e+18,-0.07887706905603409,-0.07917880266904831,-10.805038452148438
1.7294935650223007e+18,0.006240271031856537,-0.0034752830397337675,-10.821455001831055
1.7294935650313009e+18,0.029463399201631546,-0.03694431111216545,-10.800263404846191
1.729493565037301e+18,0.0110942916944623,-0.04305826872587204,-10.699748992919922
1.7294935650463012e+18,-0.007804835215210915,-0.007396060507744551,-10.733192443847656
1.7294935650553014e+18,-0.03745118901133537,0.0879090279340744,-10.732575416564941
1.7294935650643016e+18,0.021452531218528748,0.008187697269022465,-10.63773250579834
1.7294935650703017e+18,0.038430407643318176,-0.03022405318915844,-10.819557189941406
1.729493565079302e+18,-0.002526193391531706,-0.052422765642404556,-10.609721183776855
1.729493565088302e+18,-0.061034247279167175,-0.05326026305556297,-10.664571762084961
1.7294935650973023e+18,-0.07256791740655899,0.07316263020038605,-10.635419845581055
1.7294935651033024e+18,0.027050236240029335,0.044279079884290695,-10.60706615447998
1.7294935651123026e+18,-0.01744527742266655,-0.07625193148851395,-10.617603302001953
1.7294935651213028e+18,0.03853069618344307,-0.024105221033096313,-10.565587997436523
1.729493565127303e+18,0.04393526911735535,-0.07912664860486984,-10.556480407714844
1.729493565136303e+18,0.0762319266796112,0.06096092239022255,-10.52475643157959
1.7294935651423032e+18,-0.0004630285548046231,0.09234951436519623,-10.575440406799316
1.7294935651513034e+18,0.012734508141875267,-0.0022641760297119617,-10.522407531738281
1.7294935651603036e+18,0.00538051500916481,-0.013791350647807121,-10.484614372253418
1.7294935651663037e+18,-0.04160467907786369,-0.0429973341524601,-10.479056358337402
1.729493565175304e+18,0.05000421404838562,-0.00020544140716083348,-10.464298248291016
1.729493565184304e+18,0.06326012313365936,0.004466270096600056,-10.39198112487793
1.7294935651903043e+18,-0.032845381647348404,-0.032008081674575806,-10.460416793823242
1.7294935651993044e+18,0.03424559906125069,0.04419611021876335,-10.439663887023926
1.7294935652083046e+18,0.04219440370798111,0.07656228542327881,-10.463629722595215
1.7294935652143048e+18,0.03891262784600258,0.014075014740228653,-10.346334457397461
1.729493565223305e+18,0.024080602452158928,-0.007879672572016716,-10.495987892150879
1.7294935652323052e+18,-0.02257434092462063,0.028860246762633324,-10.411989212036133
1.7294935652413053e+18,6.505625788122416e-05,-0.03565887734293938,-10.378323554992676
1.7294935652473055e+18,0.04308374226093292,-0.00045384373515844345,-10.36483097076416
1.7294935652563057e+18,0.03993486240506172,0.0017004880355671048,-10.353887557983398
1.7294935652653059e+18,-0.014394932426512241,-0.07424923032522202,-10.351563453674316
1.729493565277306e+18,-0.037447940558195114,-0.027460021898150444,-10.342682838439941
1.7294935652863063e+18,0.04720456525683403,-0.022106656804680824,-10.302557945251465
1.7294935652923064e+18,0.007399713154882193,0.032495077699422836,-10.28031063079834
1.7294935653013066e+18,0.04957154765725136,-0.03171231225132942,-10.269253730773926
1.7294935653103068e+18,0.03259307146072388,0.05647680163383484,-10.281229972839355
1.729493565316307e+18,-0.015490001067519188,0.039087794721126556,-10.243240356445312
1.7294935653253071e+18,-0.1279880702495575,-0.022710928693413734,-10.280475616455078
1.7294935653343073e+18,0.043541885912418365,0.020613668486475945,-10.289107322692871
1.7294935653433075e+18,-0.041372429579496384,-0.040440890938043594,-10.242691040039062
1.7294935653493076e+18,-0.007780636195093393,0.07638410478830338,-10.207075119018555
1.7294935653583078e+18,-0.019466618075966835,-0.047985538840293884,-10.25540542602539
1.729493565367308e+18,0.05961938202381134,-0.001591474749147892,-10.206501960754395
1.7294935653763082e+18,-0.03480488806962967,-0.04468270391225815,-10.130326271057129
1.7294935653853084e+18,0.037300921976566315,-0.09442508965730667,-10.143040657043457
1.7294935653913085e+18,0.006131668575108051,-0.03423057869076729,-10.136640548706055
1.7294935654003087e+18,0.0987294465303421,0.031672991812229156,-10.131690979003906
1.729493565409309e+18,0.00466917734593153,-0.0384172759950161,-10.205345153808594
1.729493565418309e+18,0.005809590220451355,0.036349765956401825,-10.178235054016113
1.7294935654273093e+18,-0.0012062112800776958,0.04970736429095268,-10.162883758544922
1.7294935654363095e+18,0.029455045238137245,0.017826713621616364,-10.147444725036621
1.7294935654423096e+18,0.07682251930236816,-0.0406276136636734,-10.12459945678711
1.7294935654513098e+18,-0.0347868837416172,-0.058819711208343506,-10.132695198059082
1.72949356546031e+18,-0.008795533329248428,-0.0014333438593894243,-10.090335845947266
1.7294935654693102e+18,-0.0728592500090599,0.024519866332411766,-10.043275833129883
1.7294935654753103e+18,0.01943892613053322,0.01688256300985813,-10.103076934814453
1.7294935654843105e+18,-0.03795591741800308,0.042982786893844604,-10.147455215454102
1.7294935654933107e+18,0.0724591538310051,-0.054795511066913605,-10.103560447692871
1.7294935654993108e+18,0.048705246299505234,0.04512675479054451,-10.07369327545166
1.729493565508311e+18,0.035078857094049454,-0.009383292868733406,-10.075746536254883
1.7294935655173112e+18,-0.01787104643881321,-0.09477084130048752,-9.97326946258545
1.7294935655263114e+18,0.03960270807147026,0.020550109446048737,-10.034931182861328
1.7294935655323116e+18,0.03950889781117439,0.010486401617527008,-10.092155456542969
1.7294935655413117e+18,-0.042150769382715225,0.023747259750962257,-10.048447608947754
1.729493565550312e+18,0.023031363263726234,-0.026493679732084274,-9.97911548614502
1.7294935655653123e+18,0.08713426440954208,-0.04604211822152138,-9.962775230407715
1.7294935655743124e+18,0.054018329828977585,0.04507742077112198,-9.953320503234863
1.7294935655803126e+18,-0.07520970702171326,0.009563707746565342,-9.980398178100586
1.7294935655893128e+18,-0.05409247800707817,0.019502973183989525,-10.013577461242676
1.729493565598313e+18,-0.0169051643460989,-0.0520256944000721,-9.953971862792969
1.7294935656073132e+18,0.07074976712465286,-0.06156829372048378,-9.998041152954102
1.7294935656133133e+18,-0.0013735541142523289,-0.03722338005900383,-9.96837043762207
1.7294935656223135e+18,-0.027092257514595985,-0.048760559409856796,-9.880592346191406
1.7294935656313137e+18,-0.029387960210442543,-0.021725080907344818,-9.930513381958008
1.7294935656403139e+18,-0.03799007087945938,0.04519595205783844,-9.955181121826172
1.729493565646314e+18,0.04758794978260994,0.03777432069182396,-9.96389102935791
1.7294935656583142e+18,-0.04188656061887741,-0.059346266090869904,-9.92107105255127
1.7294935656673144e+18,0.01105571910738945,-0.018296102061867714,-9.877350807189941
1.7294935656853148e+18,-0.08704747259616852,0.0496361143887043,-9.949703216552734
1.729493565691315e+18,-0.03557556867599487,0.04280683770775795,-9.95047378540039
1.7294935657003151e+18,-0.02196172997355461,0.06038190424442291,-9.952692031860352
1.7294935657063153e+18,0.023468000814318657,0.06622280925512314,-9.918325424194336
1.7294935657153155e+18,-0.0026820264756679535,-0.04608242213726044,-9.83336353302002
1.7294935657213156e+18,0.029681749641895294,-0.0019103263039141893,-9.879570960998535
1.7294935657303158e+18,0.04413336142897606,0.05602804198861122,-9.87939453125
1.729493565739316e+18,-0.017189523205161095,0.02395695447921753,-9.878521919250488
1.729493565745316e+18,-0.040717095136642456,-0.020539995282888412,-9.828421592712402
1.7294935657543163e+18,0.054028239101171494,-0.012245080433785915,-9.83636474609375
1.7294935657633165e+18,-0.02799193188548088,0.07702440023422241,-9.849175453186035
1.7294935657693166e+18,-0.04043259844183922,-0.07016058266162872,-9.926112174987793
1.7294935657783168e+18,0.004551015794277191,0.06148875877261162,-9.866812705993652
1.729493565787317e+18,0.03002706728875637,0.05222213640809059,-9.928594589233398
1.7294935657963172e+18,-0.01576496846973896,-0.015923045575618744,-9.876888275146484
1.7294935658053174e+18,0.008638281375169754,-0.007499237544834614,-9.882513046264648
1.7294935658143176e+18,-0.00973422173410654,0.04427288845181465,-9.92591381072998
1.7294935658233178e+18,-0.04269520193338394,-0.05233360454440117,-9.852773666381836
1.729493565832318e+18,-0.040432024747133255,-0.04850469529628754,-9.850327491760254
1.7294935658413181e+18,0.013645539060235023,-0.00919780507683754,-9.854120254516602
1.7294935658473183e+18,0.01366017572581768,0.037715889513492584,-9.829813003540039
1.7294935658563185e+18,-0.026156466454267502,-0.007344081532210112,-9.84509563446045
1.7294935658653187e+18,0.010809074155986309,0.012913960963487625,-9.803630828857422
1.7294935658743188e+18,-0.033824194222688675,0.005832219496369362,-9.851133346557617
1.729493565883319e+18,0.03787738457322121,-0.07209907472133636,-9.83226490020752
1.7294935658923192e+18,-0.013724406249821186,-0.03498188406229019,-9.798315048217773
1.7294935659013194e+18,-0.01119326427578926,0.012795396149158478,-9.804606437683105
1.7294935659103196e+18,-0.10989702492952347,-0.04312139004468918,-9.881603240966797
1.7294935659163197e+18,-0.04346412420272827,-0.01329853292554617,-9.869379043579102
1.72949356592532e+18,0.07467687129974365,-0.076167032122612,-9.867879867553711
1.72949356593432e+18,-0.0272436011582613,-0.012938560917973518,-9.74303150177002
1.7294935659403203e+18,0.040825895965099335,0.009882704354822636,-9.79550838470459
1.7294935659493204e+18,0.03513430431485176,0.005838548298925161,-9.787128448486328
1.7294935659583206e+18,0.0009660411160439253,0.023632533848285675,-9.845003128051758
1.7294935659673208e+18,-0.015360747464001179,0.03549009561538696,-9.859359741210938
1.729493565976321e+18,0.03470250964164734,-0.014843081124126911,-9.83276653289795
1.7294935659823212e+18,0.03250860422849655,-0.037199970334768295,-9.841559410095215
1.7294935659913213e+18,0.012575902976095676,-0.06553733348846436,-9.727035522460938
1.7294935660003215e+18,-0.03371996805071831,-0.07687746733427048,-9.793496131896973
1.7294935660093217e+18,-0.023798305541276932,0.011955920606851578,-9.8098783493042
1.7294935660153219e+18,-0.03436412662267685,-0.04457637295126915,-9.731725692749023
1.729493566024322e+18,-0.007420273032039404,0.045035023242235184,-9.726563453674316
1.7294935660333222e+18,-0.03163309767842293,-0.01049027219414711,-9.75544261932373
1.7294935660393224e+18,-0.008524192497134209,-0.03544444218277931,-9.771624565124512
1.7294935660483226e+18,0.0674315094947815,0.03353818133473396,-9.767578125
1.7294935660573228e+18,0.03203710913658142,-0.026757974177598953,-9.768503189086914
1.729493566066323e+18,0.03589802607893944,0.02714434824883938,-9.798187255859375
1.7294935660753231e+18,-0.01149910967797041,0.07152170687913895,-9.806710243225098
1.7294935660843233e+18,-0.0232084970921278,0.00795510783791542,-9.726541519165039
1.7294935660933235e+18,0.036142367869615555,-1.5320430975407362e-05,-9.787145614624023
1.7294935661023237e+18,0.07239232212305069,0.04413545876741409,-9.729085922241211
1.7294935661083238e+18,0.03284943848848343,-0.05419686809182167,-9.721418380737305
1.729493566117324e+18,0.08544683456420898,0.021704338490962982,-9.72753620147705
1.7294935661263242e+18,0.02873428724706173,0.007892097346484661,-9.778909683227539
1.7294935661353244e+18,0.0886906310915947,-0.025844190269708633,-9.81324291229248
1.7294935661443246e+18,-0.018302178010344505,-0.03085666336119175,-9.803253173828125
1.7294935661533248e+18,0.00916361901909113,-0.015019986778497696,-9.794851303100586
1.729493566165325e+18,-0.0020815059542655945,0.01792559027671814,-9.758703231811523
1.7294935661743252e+18,-0.03477182611823082,0.01911182329058647,-9.762885093688965
1.7294935661863255e+18,0.10558626800775528,-0.03845538571476936,-9.825220108032227
1.7294935661953257e+18,-0.03934391587972641,-0.019998470321297646,-9.784846305847168
1.7294935662013258e+18,-0.012194558046758175,0.06262804567813873,-9.710190773010254
1.729493566210326e+18,0.06866227090358734,0.022086650133132935,-9.734939575195312
1.7294935662193262e+18,0.012720124796032906,0.016566932201385498,-9.674192428588867
1.7294935662283264e+18,0.03468514606356621,0.02271813340485096,-9.737607955932617
1.7294935662403267e+18,0.03504376485943794,-0.01037503406405449,-9.72194766998291
1.7294935662463268e+18,-0.022992365062236786,-0.036616649478673935,-9.801631927490234
1.729493566255327e+18,-0.008952857926487923,0.08314860612154007,-9.72127914428711
1.7294935662643272e+18,0.04530857875943184,-0.05875707045197487,-9.758454322814941
1.7294935662733274e+18,0.04975609853863716,0.038314323872327805,-9.727273941040039
1.7294935662793275e+18,0.06788355857133865,0.03152253478765488,-9.728645324707031
1.7294935662883277e+18,-0.04802769422531128,-0.010519244708120823,-9.810675621032715
1.7294935662973279e+18,-0.04365385323762894,-0.10542678833007812,-9.82730770111084
1.729493566306328e+18,0.019972866401076317,-0.02593589946627617,-9.848140716552734
1.7294935663153283e+18,-0.0029364805668592453,-0.03614198789000511,-9.886988639831543
1.7294935663213284e+18,0.01919899694621563,0.05532890185713768,-9.802988052368164
1.7294935663303286e+18,-0.02244165912270546,0.007955926470458508,-9.850379943847656
1.7294935663393288e+18,-0.06545733660459518,-0.107777439057827,-9.875500679016113
1.729493566351329e+18,0.04068804904818535,0.008618874475359917,-9.792288780212402
1.7294935663603292e+18,0.006857927888631821,-0.056692153215408325,-9.903291702270508
1.7294935663663293e+18,-0.005487625487148762,0.0728050172328949,-9.812995910644531
1.7294935663753295e+18,-0.013052682392299175,-0.030840348452329636,-9.814720153808594
1.7294935663813297e+18,-0.05327925831079483,0.049697063863277435,-9.887394905090332
1.7294935663903299e+18,-0.01737779751420021,0.043990734964609146,-9.93399715423584
1.72949356639633e+18,0.04964299499988556,-0.038759566843509674,-9.85117244720459
1.7294935664053302e+18,-0.01612142100930214,0.005805608816444874,-9.860891342163086
1.7294935664143304e+18,0.00320702837780118,0.08495303243398666,-9.776865005493164
1.7294935664203305e+18,0.014209317043423653,0.06535366177558899,-9.815531730651855
1.7294935664293307e+18,0.031767163425683975,0.05785152688622475,-9.80739974975586
1.729493566438331e+18,0.09884295612573624,-0.056162282824516296,-9.810226440429688
1.729493566447331e+18,-0.03190417215228081,-0.05113574489951134,-9.778925895690918
1.7294935664563313e+18,-0.009454812854528427,0.023888777941465378,-9.830670356750488
1.7294935664653315e+18,0.01546440739184618,-0.07181699573993683,-9.867061614990234
1.7294935664713316e+18,-0.03332781419157982,0.026866300031542778,-9.872435569763184
1.7294935664833318e+18,-0.011802894994616508,-0.053463079035282135,-9.80072021484375
1.729493566492332e+18,0.06950592249631882,-0.035631608217954636,-9.805011749267578
1.7294935664983322e+18,-0.018561147153377533,0.04300326481461525,-9.781042098999023
1.7294935665103324e+18,-0.012851681560277939,-0.0116845378652215,-9.781681060791016
1.7294935665193326e+18,0.08462422341108322,0.03742564469575882,-9.773486137390137
1.7294935665283328e+18,0.047077327966690063,0.014580823481082916,-9.774405479431152
1.729493566537333e+18,-0.02236052416265011,0.05449565127491951,-9.795424461364746
1.729493566543333e+18,-0.06464888900518417,-0.018826154991984367,-9.848214149475098
1.7294935665523333e+18,0.057232510298490524,0.023626146838068962,-9.690258026123047
1.7294935665613335e+18,-0.03922533988952637,-0.06538115441799164,-9.749227523803711
1.7294935665703337e+18,-0.012975462712347507,0.019983600825071335,-9.736502647399902
1.729493566579334e+18,0.047226082533597946,-0.054315097630023956,-9.690916061401367
1.729493566585334e+18,-0.03323834389448166,-0.013677556067705154,-9.725028991699219
1.7294935665943342e+18,0.0647190660238266,0.051262009888887405,-9.840107917785645
1.7294935666033344e+18,0.017966289073228836,-0.04830444976687431,-9.72153091430664
1.7294935666123346e+18,-0.015115460380911827,0.061897385865449905,-9.828144073486328
1.7294935666183347e+18,0.03395935893058777,-0.02953929640352726,-9.743552207946777
1.729493566627335e+18,0.030085133388638496,-0.016982298344373703,-9.777016639709473
1.729493566636335e+18,-0.028955698013305664,-0.04261542111635208,-9.731059074401855
1.7294935666423352e+18,0.03044491447508335,-0.04797437787055969,-9.824272155761719
1.7294935666513354e+18,-0.0026921466924250126,0.04454583302140236,-9.780364036560059
1.7294935666603356e+18,-0.042785849422216415,0.0442579984664917,-9.740500450134277
1.7294935666663357e+18,-0.008371050469577312,-0.056926097720861435,-9.70280647277832
1.729493566675336e+18,0.004100303165614605,-0.00910754594951868,-9.722640037536621
1.729493566684336e+18,0.11788538843393326,-0.0337812714278698,-9.821833610534668
1.7294935666933363e+18,0.038868315517902374,-0.06802564859390259,-9.723478317260742
1.7294935667053366e+18,-0.09888927638530731,0.046908605843782425,-9.672283172607422
1.7294935667143368e+18,0.009550409391522408,0.0605975016951561,-9.741052627563477
1.729493566726337e+18,0.007734866347163916,-0.0009218872291967273,-9.67313003540039
1.7294935667353372e+18,0.0019886072259396315,-0.0639648586511612,-9.715142250061035
1.7294935667443374e+18,0.04505211114883423,0.031002745032310486,-9.6581392288208
1.7294935667533376e+18,-0.017226023599505424,0.006764335557818413,-9.762059211730957
1.7294935667593377e+18,-0.10817447304725647,-0.016393760219216347,-9.709213256835938
1.729493566768338e+18,0.06477238237857819,-0.04661405831575394,-9.735499382019043
1.729493566777338e+18,0.035956088453531265,0.06760509312152863,-9.793519020080566
1.7294935667833382e+18,0.028465040028095245,-0.01525820977985859,-9.715726852416992
1.7294935667923384e+18,-0.03780530020594597,0.005319223739206791,-9.895015716552734
1.7294935667983386e+18,0.0234741922467947,0.02271415665745735,-9.770854949951172
1.7294935668073388e+18,0.05633332207798958,0.02569476142525673,-9.711321830749512
1.729493566816339e+18,0.058654140681028366,0.05277293175458908,-9.709222793579102
1.729493566822339e+18,0.08767801523208618,-0.059845857322216034,-9.769076347351074
1.7294935668313393e+18,-0.010332582518458366,-0.053833380341529846,-9.828788757324219
1.7294935668403395e+18,0.016892343759536743,0.026876427233219147,-9.764764785766602
1.7294935668463396e+18,-0.029515251517295837,0.05816364288330078,-9.80125904083252
1.7294935668553398e+18,-0.04395696148276329,-0.11045335233211517,-9.742469787597656
1.72949356686434e+18,0.030761558562517166,0.014973473735153675,-9.787836074829102
1.7294935668733402e+18,0.05233430862426758,0.04007510840892792,-9.845616340637207
1.7294935668793403e+18,0.050070203840732574,0.03585406392812729,-9.701878547668457
1.7294935668883405e+18,0.06931357830762863,0.03035268560051918,-9.673821449279785
1.7294935668973407e+18,0.07024173438549042,-0.029851138591766357,-9.81213665008545
1.7294935669063409e+18,-0.0492037795484066,0.0018521202728152275,-9.746794700622559
1.729493566915341e+18,-0.04773017391562462,-0.05107926204800606,-9.757217407226562
1.7294935669213412e+18,0.018029602244496346,0.04952844977378845,-9.690784454345703
1.7294935669303414e+18,0.018260741606354713,0.10249847173690796,-9.690389633178711
1.7294935669393416e+18,0.09936515241861343,0.0049077412113547325,-9.721428871154785
1.7294935669453417e+18,-0.017126349732279778,0.10983733832836151,-9.831265449523926
1.729493566954342e+18,-0.024772707372903824,0.08991144597530365,-9.688398361206055
1.729493566963342e+18,-0.021930031478405,-0.05418756231665611,-9.790830612182617
1.7294935669693422e+18,0.001316248788498342,0.03484827280044556,-9.726064682006836
1.7294935669783424e+18,-0.03171981871128082,0.002863869536668062,-9.804359436035156
1.7294935669873426e+18,0.029857149347662926,-0.0290243960916996,-9.756244659423828
1.7294935669933427e+18,-0.06526457518339157,0.004745920654386282,-9.782866477966309
1.729493567002343e+18,0.04645974934101105,0.0011747109238058329,-9.736432075500488
1.729493567011343e+18,-0.022446224465966225,-0.022211290895938873,-9.794904708862305
1.7294935670203433e+18,0.07800474017858505,0.08612548559904099,-9.730704307556152
1.7294935670263434e+18,-0.11339513212442398,-0.0373559296131134,-9.757792472839355
1.7294935670353436e+18,0.0332108736038208,0.009167355485260487,-9.778336524963379
1.7294935670413437e+18,-0.03634704276919365,0.03707389160990715,-9.783991813659668
1.729493567050344e+18,0.07575047761201859,-0.018351471051573753,-9.753032684326172
1.7294935670593441e+18,0.0031004264019429684,-0.01217646710574627,-9.793216705322266
1.7294935670683443e+18,-0.05750929191708565,0.009762004017829895,-9.706332206726074
1.7294935670803446e+18,0.07601062208414078,0.010025521740317345,-9.709195137023926
1.7294935670893448e+18,-0.010318041779100895,-0.05430228263139725,-9.795923233032227
1.729493567098345e+18,0.029226819053292274,-0.10346844792366028,-9.724611282348633
1.7294935671073452e+18,0.037127383053302765,0.0454137958586216,-9.70642375946045
1.7294935671133453e+18,0.027377156540751457,0.06282102316617966,-9.829644203186035
1.7294935671223455e+18,0.017945487052202225,0.0051119886338710785,-9.742462158203125
1.7294935671313457e+18,0.024374430999159813,0.09790603071451187,-9.744290351867676
1.7294935671403459e+18,-0.029187051579356194,0.01819445751607418,-9.767375946044922
1.729493567146346e+18,-0.04855453595519066,0.01279536820948124,-9.78902530670166
1.7294935671553462e+18,0.03410455584526062,0.037040773779153824,-9.71190357208252
1.7294935671643464e+18,-0.02438659407198429,-0.09050805121660233,-9.725103378295898
1.7294935671703465e+18,0.05851951986551285,0.06104562431573868,-9.709503173828125
1.7294935671793467e+18,-0.027636071667075157,0.02284669689834118,-9.715947151184082
1.729493567188347e+18,-0.05783616751432419,0.01405335497111082,-9.763659477233887
1.729493567197347e+18,-0.06962200254201889,0.07083646953105927,-9.760106086730957
1.7294935672063473e+18,-0.10978712886571884,0.05259263142943382,-9.710169792175293
1.7294935672123474e+18,0.0030065851751714945,-0.031176157295703888,-9.783635139465332
1.7294935672213476e+18,0.047124944627285004,-0.04705135151743889,-9.844367027282715
1.7294935672303478e+18,-0.02598506398499012,0.03326311707496643,-9.767365455627441
1.729493567239348e+18,-0.005030476953834295,-0.03366384655237198,-9.72469425201416
1.7294935672543483e+18,-0.004781302995979786,-0.012605604715645313,-9.73863410949707
1.7294935672633485e+18,-0.03412551060318947,-0.0025454750284552574,-9.811881065368652
1.7294935672723487e+18,0.004038974177092314,0.034219998866319656,-9.759889602661133
1.7294935672813489e+18,-0.03559081628918648,0.01568451151251793,-9.813140869140625
1.729493567290349e+18,-0.003954099025577307,0.007193793077021837,-9.661277770996094
1.7294935672993492e+18,-0.007462251931428909,0.030963214114308357,-9.733717918395996
1.7294935673083494e+18,0.04038506746292114,-0.08286900818347931,-9.787087440490723
1.7294935673173496e+18,-0.01596350222826004,0.011886092834174633,-9.813681602478027
1.7294935673233498e+18,-0.020754603669047356,-0.020776789635419846,-9.721713066101074
1.72949356733235e+18,0.04249333590269089,-0.019655922427773476,-9.740172386169434
1.7294935673413501e+18,0.012538057751953602,-0.046206943690776825,-9.7840576171875
1.7294935673503503e+18,0.01638995110988617,-0.012727869674563408,-9.784200668334961
1.7294935673593505e+18,-0.06516043841838837,0.02696497179567814,-9.750134468078613
1.7294935673653507e+18,-0.026397740468382835,0.08041013777256012,-9.706175804138184
1.7294935673743508e+18,-0.12751246988773346,-0.069217249751091,-9.712878227233887
1.729493567383351e+18,-0.03476843982934952,-0.02965901792049408,-9.734330177307129
1.7294935673893512e+18,0.01151979062706232,-0.02515411004424095,-9.79468822479248
1.7294935673983514e+18,0.030061068013310432,0.011277727782726288,-9.720137596130371
1.7294935674073516e+18,-0.0483759269118309,-0.08857454359531403,-9.778799057006836
1.7294935674163517e+18,0.10085166245698929,0.06062207743525505,-9.799853324890137
1.729493567422352e+18,-0.06407561153173447,0.19961020350456238,-9.734627723693848
1.729493567431352e+18,0.05727655440568924,0.03231615945696831,-9.735763549804688
1.7294935674433523e+18,0.021008657291531563,0.052204735577106476,-9.690743446350098
1.7294935674493524e+18,0.021212169900536537,0.028967708349227905,-9.70669937133789
1.7294935674583526e+18,-0.025306718423962593,-0.027417676523327827,-9.749992370605469
1.7294935674673528e+18,0.00347171351313591,-0.07706969231367111,-9.752344131469727
1.729493567473353e+18,-0.09330316632986069,-0.01383945718407631,-9.748987197875977
1.7294935674823532e+18,0.04753735288977623,-0.04105713590979576,-9.79295539855957
1.7294935674913533e+18,0.03613490238785744,-0.04922265186905861,-9.831965446472168
1.7294935674973535e+18,-0.017313260585069656,0.016549106687307358,-9.767766952514648
1.7294935675063537e+18,-0.008592949248850346,0.05769046023488045,-9.728324890136719
1.7294935675123538e+18,-0.09079702943563461,-0.03848860412836075,-9.715755462646484
1.729493567521354e+18,-0.0333331823348999,0.026834292337298393,-9.739294052124023
1.7294935675303542e+18,0.022268690168857574,-0.094954714179039,-9.78668212890625
1.7294935675393544e+18,-0.011352971196174622,0.04139621928334236,-9.731056213378906
1.7294935675483546e+18,0.005347388796508312,-0.05230866000056267,-9.829139709472656
1.7294935675543547e+18,-0.07465332746505737,-0.06731501966714859,-9.84782600402832
1.729493567566355e+18,0.004717414733022451,0.054143548011779785,-9.784829139709473
1.7294935675753551e+18,0.057676345109939575,-0.014918653294444084,-9.738411903381348
1.7294935675843553e+18,-0.015116684138774872,0.08033696562051773,-9.76923942565918
1.7294935675933555e+18,-0.003457482438534498,0.017550693824887276,-9.716269493103027
1.7294935676023557e+18,-0.011531144380569458,-0.05872922018170357,-9.814508438110352
1.729493567611356e+18,0.04843582212924957,-0.05031520500779152,-9.76282787322998
1.729493567620356e+18,0.03706984594464302,-0.046854693442583084,-9.753641128540039
1.7294935676263562e+18,-0.03109312802553177,0.053718846291303635,-9.762560844421387
1.7294935676353564e+18,-0.04538024961948395,-0.03340347111225128,-9.813095092773438
1.7294935676443566e+18,0.013087174855172634,0.07350710034370422,-9.767036437988281
1.7294935676533568e+18,-0.01202447060495615,-0.05897868797183037,-9.643113136291504
1.729493567662357e+18,-0.016654403880238533,-0.04273304343223572,-9.764509201049805
1.7294935676713572e+18,0.07046209275722504,-0.02418835461139679,-9.767695426940918
1.7294935676803574e+18,-0.029882142320275307,0.0037800204008817673,-9.751648902893066
1.7294935676893576e+18,0.014568849466741085,0.042686328291893005,-9.710548400878906
1.7294935676983578e+18,-0.02240917459130287,0.06972925364971161,-9.742804527282715
1.729493567710358e+18,-0.0036840897519141436,-0.002774772932752967,-9.802115440368652
1.7294935677193582e+18,-0.005226271692663431,-0.04488130658864975,-9.794986724853516
1.7294935677283584e+18,-0.08569658547639847,-0.06282539665699005,-9.727067947387695
1.7294935677373586e+18,-0.011154204607009888,-0.021844321861863136,-9.763943672180176
1.7294935677463588e+18,0.016026830300688744,0.0028881258331239223,-9.813063621520996
1.729493567755359e+18,0.04717098921537399,-0.007887010462582111,-9.858097076416016
1.7294935677643592e+18,-0.033833570778369904,-0.016544319689273834,-9.675765037536621
1.7294935677733594e+18,-0.04421458765864372,0.06136567145586014,-9.778865814208984
1.7294935677823596e+18,-0.02088819071650505,0.06242746487259865,-9.857369422912598
1.7294935677943598e+18,-0.08092725276947021,-0.07458639144897461,-9.697938919067383
1.72949356780336e+18,-0.008108912035822868,-0.013574684970080853,-9.762896537780762
1.7294935678123602e+18,0.05814075097441673,0.02000632882118225,-9.786758422851562
1.7294935678213604e+18,-0.04328639432787895,0.0492035374045372,-9.755928039550781
1.7294935678303606e+18,0.02967606857419014,0.027471894398331642,-9.741159439086914
1.7294935678423608e+18,-0.055014245212078094,0.017840994521975517,-9.788410186767578
1.729493567851361e+18,0.027798790484666824,-0.06562531739473343,-9.807231903076172
1.7294935678603612e+18,-0.006146712694317102,0.010972456075251102,-9.851325035095215
1.7294935678693614e+18,0.06780672073364258,0.016461094841361046,-9.841286659240723
1.7294935678783616e+18,0.026893287897109985,-0.02753382921218872,-9.74942684173584
1.7294935678873618e+18,0.03674159198999405,0.03023913875222206,-9.772368431091309
1.729493567896362e+18,-0.06490416824817657,0.08413880318403244,-9.782362937927246
1.7294935679053622e+18,0.04306193068623543,0.0550568625330925,-9.800265312194824
1.7294935679143624e+18,-0.04329011216759682,0.00691063329577446,-9.78123664855957
1.7294935679233626e+18,0.016474701464176178,-0.07840660959482193,-9.765131950378418
1.7294935679353628e+18,-0.018142854794859886,0.0019286258611828089,-9.787139892578125
1.729493567944363e+18,0.027286898344755173,0.004163379315286875,-9.76315975189209
1.7294935679533632e+18,-0.05321701243519783,0.03527415916323662,-9.749333381652832
1.7294935679623634e+18,0.07208528369665146,-0.07772045582532883,-9.7749662399292
1.7294935679713636e+18,0.031355127692222595,-0.012196640484035015,-9.76496696472168
1.7294935679803638e+18,0.08253961056470871,-0.029899749904870987,-9.805145263671875
1.729493567989364e+18,-0.08306078612804413,0.02051718346774578,-9.728288650512695
1.7294935679983642e+18,-0.09638195484876633,-0.031215203925967216,-9.802574157714844
1.7294935680103644e+18,0.06368319690227509,-0.043830350041389465,-9.764287948608398
1.7294935680193646e+18,0.011373105458915234,-0.02375652641057968,-9.766642570495605
1.7294935680283648e+18,0.027800455689430237,-0.06614133715629578,-9.77682876586914
1.729493568037365e+18,0.03882281854748726,-0.017707036808133125,-9.791659355163574
1.7294935680463652e+18,0.027097031474113464,0.003109352197498083,-9.725175857543945
1.7294935680553654e+18,-0.05315617844462395,0.06064878776669502,-9.786408424377441
1.7294935680643656e+18,0.00533414026722312,0.006763205863535404,-9.789959907531738
1.7294935680733658e+18,0.014071585610508919,-0.019586484879255295,-9.84907341003418
1.729493568085366e+18,-0.01557066198438406,0.0013066651299595833,-9.842169761657715
1.7294935680943662e+18,0.05547535419464111,0.010160611942410469,-9.801344871520996
1.7294935681033664e+18,0.0019093642476946115,0.07198448479175568,-9.820530891418457
1.7294935681093665e+18,-0.04528532177209854,-0.04895128309726715,-9.713662147521973
1.7294935681183667e+18,0.07061376422643661,0.10739795118570328,-9.753997802734375
1.729493568127367e+18,0.00020047457655891776,-0.059416018426418304,-9.765897750854492
1.729493568136367e+18,-0.04106786847114563,-0.029682740569114685,-9.714035034179688
1.7294935681453673e+18,0.0040005045011639595,-0.001980826025828719,-9.863025665283203
1.7294935681543675e+18,-0.018626341596245766,-0.0621945895254612,-9.752572059631348
1.7294935681633677e+18,-0.03661542013287544,-0.052933186292648315,-9.835701942443848
1.729493568172368e+18,-0.003224473912268877,0.044330887496471405,-9.832005500793457
1.729493568181368e+18,0.018791718408465385,-0.01159521471709013,-9.828092575073242
1.7294935681933683e+18,0.006079921964555979,0.02926446683704853,-9.82371711730957
1.7294935682023685e+18,0.10839609801769257,0.011277316138148308,-9.718948364257812
1.7294935682113687e+18,0.00038073849282227457,-0.022958356887102127,-9.802565574645996
1.729493568220369e+18,0.0017736522713676095,-0.01191284041851759,-9.77499771118164
1.729493568229369e+18,-0.007667537312954664,0.038717906922101974,-9.850286483764648
1.7294935682383693e+18,-0.01241013128310442,0.028647754341363907,-9.766907691955566
1.7294935682473695e+18,0.013696994632482529,0.057487547397613525,-9.845647811889648
1.7294935682563697e+18,0.014075745828449726,-0.034760989248752594,-9.776286125183105
1.7294935682653699e+18,0.05515645071864128,0.008525332435965538,-9.763686180114746
1.72949356827737e+18,-0.03185267746448517,-0.07566232234239578,-9.750550270080566
1.7294935682863703e+18,0.07359438389539719,0.006185533478856087,-9.811562538146973
1.7294935682953705e+18,-0.004994324874132872,0.041429486125707626,-9.783712387084961
1.7294935683043707e+18,0.002331861760467291,0.06067022681236267,-9.787252426147461
1.729493568313371e+18,0.027653124183416367,-0.029138021171092987,-9.794389724731445
1.729493568322371e+18,-0.08285527676343918,0.019938664510846138,-9.861693382263184
1.7294935683313713e+18,0.015426411293447018,-0.01526218093931675,-9.771835327148438
1.7294935683403715e+18,0.0703880712389946,0.04519568756222725,-9.825626373291016
1.7294935683523717e+18,0.05165750905871391,-0.0030274763703346252,-9.727364540100098
1.729493568361372e+18,-0.03315604105591774,-0.01426819059997797,-9.699017524719238
1.729493568370372e+18,-0.009404678829014301,0.07488174736499786,-9.738739013671875
1.7294935683793723e+18,0.050684016197919846,-0.029871705919504166,-9.771512985229492
1.7294935683883725e+18,0.04996895417571068,0.045890793204307556,-9.74390983581543
1.7294935683973727e+18,0.009653558023273945,0.0027546186465770006,-9.82332992553711
1.7294935684063729e+18,0.02462846226990223,0.08070088177919388,-9.77649211883545
1.729493568415373e+18,-0.022446947172284126,0.030459215864539146,-9.725939750671387
1.7294935684213732e+18,-0.01800842024385929,-0.06624487042427063,-9.723943710327148
1.7294935684333734e+18,0.028508897870779037,-0.018202252686023712,-9.808225631713867
1.7294935684423736e+18,0.012942589819431305,0.047714777290821075,-9.76750659942627
1.7294935684483738e+18,-0.01544142235070467,0.08061962574720383,-9.896373748779297
1.729493568457374e+18,-0.06556541472673416,-0.0377516895532608,-9.78088665008545
1.7294935684663741e+18,-0.051244139671325684,-0.004052319563925266,-9.786638259887695
1.7294935684753743e+18,-0.05288878083229065,-0.013152004219591618,-9.771782875061035
1.7294935684843745e+18,-0.010836010798811913,0.02994920127093792,-9.811182022094727
1.7294935684933747e+18,-0.03328131139278412,-0.024732764810323715,-9.783393859863281
1.729493568502375e+18,0.006706478074193001,0.042832568287849426,-9.817811012268066
1.729493568511375e+18,-0.05098620429635048,-0.019335344433784485,-9.768732070922852
1.7294935685203753e+18,-0.004709694534540176,-0.011388817802071571,-9.823830604553223
1.7294935685293755e+18,-0.002375910524278879,0.0127285560593009,-9.797563552856445
1.7294935685383757e+18,-0.019724968820810318,-0.03621644154191017,-9.792731285095215
1.7294935685473759e+18,0.06998378038406372,0.028299573808908463,-9.663080215454102
1.729493568556376e+18,-0.0020530940964818,0.07139472663402557,-9.776817321777344
1.7294935685653763e+18,0.003541300306096673,0.022560294717550278,-9.790423393249512
1.7294935685743764e+18,-0.008754073642194271,-0.03196869418025017,-9.794535636901855
1.7294935685833766e+18,-0.027228863909840584,-0.06705982238054276,-9.782529830932617
1.729493568595377e+18,0.0290435329079628,0.05384855717420578,-9.805347442626953
1.729493568604377e+18,-0.013501958921551704,-0.016246981918811798,-9.784790992736816
1.7294935686133773e+18,-0.03908843547105789,-0.02419530414044857,-9.751240730285645
1.7294935686193774e+18,0.05627530813217163,0.023152194917201996,-9.782599449157715
1.7294935686283776e+18,-0.06500234454870224,0.07291936874389648,-9.787492752075195
1.7294935686373778e+18,0.011661453172564507,-0.05101709067821503,-9.77601432800293
1.729493568646378e+18,-0.04780585318803787,-0.016992678865790367,-9.809383392333984
1.7294935686553782e+18,0.11018577218055725,0.029014891013503075,-9.762613296508789
1.7294935686643784e+18,-0.00847823265939951,0.03713217377662659,-9.811989784240723
1.7294935686733786e+18,-0.06531687825918198,-0.01616583950817585,-9.84632396697998
1.7294935686823788e+18,-0.022684849798679352,-0.03113841824233532,-9.756688117980957
1.729493568691379e+18,0.0014770131092518568,-0.04239089414477348,-9.783703804016113
1.7294935687003791e+18,-0.018555205315351486,-0.027278250083327293,-9.768243789672852
1.7294935687123794e+18,-0.02954700216650963,0.06076277792453766,-9.7666654586792
1.7294935687213796e+18,0.034580692648887634,-0.03250320255756378,-9.805107116699219
1.7294935687303798e+18,-0.008694550022482872,0.05137484148144722,-9.79684066772461
1.72949356873938e+18,-0.003318595699965954,-0.01646982692182064,-9.714181900024414
1.7294935687513802e+18,0.05804438516497612,-0.011132767423987389,-9.831507682800293
1.7294935687603804e+18,-0.023326318711042404,-0.022262271493673325,-9.781898498535156
1.7294935687693806e+18,0.005952693056315184,0.0001665881572989747,-9.86149787902832
1.7294935687783808e+18,0.0691535621881485,0.03864789381623268,-9.89280891418457
1.729493568787381e+18,0.019590184092521667,0.03234485164284706,-9.780183792114258
1.7294935687993812e+18,-0.006566466297954321,-0.044285908341407776,-9.783912658691406
1.7294935688083814e+18,0.03093748539686203,-0.03059687465429306,-9.81488037109375
1.7294935688173816e+18,0.051885396242141724,0.062406107783317566,-9.892088890075684
1.729493568829382e+18,-0.07563070207834244,-0.012341050431132317,-9.756607055664062
1.729493568838382e+18,-0.04220438003540039,0.020888783037662506,-9.882678031921387
1.7294935688473823e+18,-0.013918790966272354,0.045358456671237946,-9.898201942443848
1.7294935688563825e+18,-0.028453372418880463,0.04850556701421738,-9.7470121383667
1.7294935688653827e+18,0.05510320886969566,-0.10675854235887527,-9.74955940246582
1.729493568877383e+18,-0.038638435304164886,-0.053011905401945114,-9.685184478759766
1.729493568886383e+18,-0.0009565883665345609,-0.03905215486884117,-9.816079139709473
1.7294935688953833e+18,-0.02183639258146286,-0.07147863507270813,-9.88245677947998
1.7294935689043835e+18,-0.04310990497469902,0.052524346858263016,-9.790813446044922
1.7294935689133837e+18,-0.07214118540287018,-0.037831488996744156,-9.715744972229004
1.729493568922384e+18,-0.003349282778799534,0.033100537955760956,-9.880962371826172
1.729493568931384e+18,0.023260999470949173,-0.04102538526058197,-9.79054069519043
1.7294935689403843e+18,0.06772113591432571,0.02645275369286537,-9.820070266723633
1.7294935689493844e+18,-0.01879681460559368,0.10773523151874542,-9.822379112243652
1.7294935689583846e+18,-0.06592640280723572,-0.08117250353097916,-9.771081924438477
1.7294935689673848e+18,-0.06386355310678482,-0.0007609376916661859,-9.803613662719727
1.729493568976385e+18,0.031233839690685272,-0.0683777928352356,-9.855388641357422
1.7294935689853852e+18,-0.028630560263991356,0.07542990148067474,-9.771843910217285
1.7294935689943854e+18,0.009182451292872429,0.02583242766559124,-9.727005004882812
1.7294935690033856e+18,0.06024877727031708,-0.02704322151839733,-9.849321365356445
1.7294935690123858e+18,-0.06978698819875717,0.04121914878487587,-9.791922569274902
1.729493569021386e+18,0.036487970501184464,-0.011556360870599747,-9.834980964660645
1.7294935690303862e+18,0.0032101033721119165,0.007686116266995668,-9.883858680725098
1.7294935690393864e+18,0.02966044284403324,-0.07747287303209305,-9.801446914672852
1.7294935690483866e+18,-0.047037627547979355,-0.06611412763595581,-9.849211692810059
1.7294935690573868e+18,0.004599384497851133,0.06064765900373459,-9.864168167114258
1.729493569066387e+18,-0.01711266115307808,-0.04735250771045685,-9.786149978637695
1.7294935690783872e+18,0.06674861907958984,-0.032715924084186554,-9.795966148376465
1.7294935690873874e+18,-0.03142089396715164,-0.009025678038597107,-9.785515785217285
1.7294935690963876e+18,-0.011211656965315342,-0.017902908846735954,-9.772144317626953
1.7294935691053878e+18,-0.030776673927903175,-0.041055068373680115,-9.871493339538574
1.729493569114388e+18,-0.0959060937166214,0.05092930421233177,-9.810638427734375
1.7294935691233882e+18,-0.022441398352384567,0.026710284873843193,-9.842616081237793
1.7294935691323884e+18,-0.016582293435931206,-0.03720616176724434,-9.812811851501465
1.7294935691413885e+18,0.026872461661696434,-0.13997751474380493,-9.813517570495605
1.7294935691503887e+18,0.07206390798091888,0.018128272145986557,-9.706623077392578
1.729493569159389e+18,0.05259782075881958,0.023161515593528748,-9.817849159240723
1.729493569165389e+18,-0.028519297018647194,0.007144556846469641,-9.859325408935547
1.7294935691743892e+18,0.06291663646697998,0.07169386744499207,-9.851136207580566
1.7294935691833894e+18,0.010899268090724945,-0.07906307280063629,-9.848579406738281
1.7294935691923896e+18,0.03738059103488922,0.05284624919295311,-9.731924057006836
1.7294935692013898e+18,0.037925396114587784,-0.06113109365105629,-9.86827278137207
1.72949356921039e+18,-0.04803719371557236,-0.014925639145076275,-9.800856590270996
1.7294935692193902e+18,-0.058747995644807816,0.02697436325252056,-9.879363059997559
1.7294935692313905e+18,-0.08097508549690247,0.01621394418179989,-9.830513000488281
1.7294935692403907e+18,-0.012308401055634022,-0.007275654003024101,-9.755918502807617
1.7294935692493908e+18,-0.011232715100049973,0.010507148690521717,-9.800894737243652
1.729493569258391e+18,-0.019748808816075325,0.010914317332208157,-9.78872299194336
1.7294935692673912e+18,0.044759463518857956,0.021194785833358765,-9.842422485351562
1.7294935692763914e+18,-0.056732065975666046,0.017878854647278786,-9.772258758544922
1.7294935692853916e+18,0.028626298531889915,-0.008240582421422005,-9.851203918457031
1.7294935692943918e+18,0.004490097984671593,-0.022511625662446022,-9.75836181640625
1.729493569303392e+18,0.02410976029932499,-0.05623132735490799,-9.823287963867188
1.7294935693123922e+18,-0.029345642775297165,-0.001292023342102766,-9.713205337524414
1.7294935693213924e+18,0.0778297558426857,0.00497249374166131,-9.786608695983887
1.7294935693333926e+18,0.07314922660589218,0.06726151704788208,-9.815746307373047
1.7294935693423928e+18,-0.05111249163746834,-0.015767430886626244,-9.813815116882324
1.729493569351393e+18,-0.014216962270438671,0.016044195741415024,-9.791606903076172
1.7294935693573932e+18,-0.0007709297351539135,-0.024586204439401627,-9.809170722961426
1.7294935693663933e+18,0.06778848171234131,0.027021313086152077,-9.774188041687012
1.7294935693783936e+18,0.07510968297719955,-0.0032581721898168325,-9.78069019317627
1.7294935693873938e+18,0.009234616532921791,0.07525814324617386,-9.767538070678711
1.729493569396394e+18,-0.09352318942546844,0.03153369575738907,-9.869388580322266
1.7294935694053942e+18,-0.0426565445959568,-0.07249333709478378,-9.806764602661133
1.7294935694143944e+18,-0.009243902750313282,0.009236506186425686,-9.812249183654785
1.7294935694233946e+18,-0.051299408078193665,0.003738668980076909,-9.8428955078125
1.7294935694323948e+18,-0.013602572493255138,0.11711808294057846,-7.953561305999756
1.729493569441395e+18,0.04853148013353348,0.05699532479047775,-7.688539028167725
1.7294935694503951e+18,0.0209847129881382,0.07346447557210922,-7.575742721557617
1.7294935694593953e+18,0.0871429294347763,-0.008503586053848267,-8.815077781677246
1.7294935694683955e+18,0.10869085788726807,-0.052228305488824844,-10.132213592529297
1.7294935694773957e+18,0.059493519365787506,-0.009569711983203888,-10.3871488571167
1.729493569486396e+18,0.1353382170200348,-0.13327094912528992,-10.29601001739502
1.729493569495396e+18,0.04650253430008888,-0.05032884329557419,-9.98116397857666
1.7294935695043963e+18,0.09323012828826904,-0.09957508742809296,-9.929681777954102
1.7294935695133965e+18,0.12506942451000214,-0.037196844816207886,-9.577778816223145
1.7294935695223967e+18,0.06824000179767609,-0.0679299607872963,-9.483535766601562
1.7294935695313969e+18,0.09689570218324661,-0.010058853775262833,-9.460443496704102
1.729493569540397e+18,-0.001146458089351654,0.029258720576763153,-9.42607307434082
1.7294935695493972e+18,0.10924117267131805,-0.029657769948244095,-9.074546813964844
1.7294935695583974e+18,0.017848927527666092,-0.05339396744966507,-9.02125072479248
1.7294935695643976e+18,0.05940793454647064,-0.0070688240230083466,-9.048677444458008
1.7294935695763978e+18,0.027923375368118286,-0.11089712381362915,-8.590558052062988
1.729493569582398e+18,0.14353400468826294,-0.036696627736091614,-8.459465980529785
1.7294935695943982e+18,0.04782762750983238,-0.031730763614177704,-8.458481788635254
1.7294935696033984e+18,0.03305388242006302,0.02374296262860298,-8.545607566833496
1.7294935696123986e+18,0.09464246034622192,0.006249215453863144,-8.512081146240234
1.7294935696213988e+18,0.0020623505115509033,-0.0034190788865089417,-8.377772331237793
1.729493569630399e+18,0.09202361106872559,-0.07003547251224518,-8.341949462890625
1.729493569636399e+18,0.043470997363328934,-0.041241906583309174,-8.423990249633789
1.7294935696423992e+18,-0.0674644336104393,-0.04184814542531967,-8.402047157287598
1.7294935696483994e+18,0.03222973272204399,-0.015907222405076027,-8.381689071655273
1.7294935696543995e+18,0.06983496248722076,0.025654874742031097,-8.314922332763672
1.7294935696603996e+18,0.017531977966427803,-0.07011130452156067,-8.163514137268066
1.7294935696663997e+18,0.01231822557747364,0.06392568349838257,-8.214317321777344
1.7294935696724e+18,-0.04147113859653473,-0.014370000921189785,-8.25943374633789
1.7294935696814e+18,-0.023526694625616074,0.017675096169114113,-7.931022644042969
1.7294935696904003e+18,-0.12131139636039734,0.047184910625219345,-8.053277969360352
1.7294935696994004e+18,0.040356457233428955,-0.04574587196111679,-8.162601470947266
1.7294935697054006e+18,-0.05198473855853081,0.002371428534388542,-8.099000930786133
1.7294935697144008e+18,0.004255999345332384,0.006514609791338444,-8.042906761169434
1.729493569720401e+18,-0.0654873177409172,-0.02881464548408985,-7.9534220695495605
1.7294935697324012e+18,-0.020920757204294205,2.634155680425465e-05,-7.952698230743408
1.7294935697384013e+18,0.05344920605421066,0.021750543266534805,-8.008913040161133
1.7294935697504015e+18,0.08691982924938202,0.003653287887573242,-7.938885688781738
1.7294935697564017e+18,0.018803631886839867,0.07797243446111679,-7.879234790802002
1.7294935697624018e+18,0.017071472480893135,0.028368687257170677,-7.979482650756836
1.729493569771402e+18,-0.03599899262189865,0.014384697191417217,-7.969216346740723
1.729493569777402e+18,0.020151766017079353,0.0597664974629879,-8.009315490722656
1.7294935697864023e+18,-0.005138074979186058,0.022484514862298965,-8.052045822143555
1.7294935697954025e+18,-0.04054930433630943,0.03439125418663025,-8.084796905517578
1.7294935698014026e+18,0.04713078960776329,0.015099159441888332,-7.971339702606201
1.7294935698104028e+18,0.04571531340479851,0.12428387254476547,-7.931078910827637
1.729493569822403e+18,-0.00537992175668478,-0.052106305956840515,-7.923062324523926
1.7294935698284032e+18,-0.06466150283813477,-0.006526497192680836,-8.029240608215332
1.7294935698374034e+18,-0.003347387071698904,0.09832099825143814,-8.098596572875977
1.7294935698464036e+18,-0.04544147849082947,-0.041394252330064774,-7.979197025299072
1.7294935698524037e+18,-0.10289780050516129,-0.056095659732818604,-8.022245407104492
1.7294935698584038e+18,-0.07292076200246811,0.039826370775699615,-8.109747886657715
1.729493569867404e+18,-0.0148183424025774,0.022896673530340195,-8.145415306091309
1.7294935698734042e+18,-0.07436943054199219,-0.04139386862516403,-8.233024597167969
1.7294935698794043e+18,-0.033229511231184006,0.053968433290719986,-8.208438873291016
1.7294935698884045e+18,0.012219244614243507,-0.02794976532459259,-8.268501281738281
1.7294935698974047e+18,-0.05813130363821983,-0.005442396737635136,-8.207119941711426
1.7294935699034048e+18,-0.056579068303108215,0.09399394690990448,-8.174969673156738
1.729493569912405e+18,-7.534865289926529e-05,-0.03987932577729225,-8.141670227050781
1.729493569918405e+18,-0.03775589168071747,0.03153982013463974,-8.170740127563477
1.7294935699274053e+18,0.001702863723039627,0.038338251411914825,-8.240222930908203
1.7294935699364055e+18,-0.013650532811880112,-0.07626903057098389,-8.257074356079102
1.7294935699424056e+18,0.0856185108423233,0.04040898382663727,-8.353629112243652
1.7294935699514058e+18,0.06347198784351349,0.02451908588409424,-8.270561218261719
1.729493569960406e+18,0.027558956295251846,0.021335724741220474,-8.355802536010742
1.7294935699694062e+18,0.05113300681114197,-0.0415719598531723,-8.297874450683594
1.7294935699784064e+18,-0.0662890076637268,0.002798612229526043,-8.355767250061035
1.7294935699844065e+18,-0.052706971764564514,-0.031071588397026062,-8.371201515197754
1.7294935699934067e+18,-0.07834062725305557,-0.004230726510286331,-8.339300155639648
1.729493570002407e+18,-0.0011270816903561354,-0.06094318628311157,-8.418424606323242
1.729493570008407e+18,0.06542713195085526,0.03251348063349724,-8.389473915100098
1.7294935700174072e+18,-0.05273015424609184,-0.049413230270147324,-8.392144203186035
1.7294935700234074e+18,-0.009285813197493553,0.01285725086927414,-8.466155052185059
1.7294935700324076e+18,0.10460122674703598,0.023678619414567947,-8.516505241394043
1.7294935700384077e+18,-0.02885286696255207,0.01028999499976635,-8.526272773742676
1.7294935700474079e+18,0.01427228283137083,0.024569548666477203,-8.587043762207031
1.7294935700594081e+18,0.02145419828593731,0.008241507224738598,-8.509699821472168
1.7294935700684083e+18,0.0502488799393177,0.043726444244384766,-8.593037605285645
1.7294935700774085e+18,0.0046139732003211975,0.015593294985592365,-8.558319091796875
1.7294935700864087e+18,0.02531587705016136,0.0001338990405201912,-8.562787055969238
1.729493570095409e+18,-0.03878689557313919,0.06553034484386444,-8.524925231933594
1.729493570101409e+18,-0.02160235308110714,0.004285074770450592,-8.5891752243042
1.7294935701074092e+18,-0.0034069856628775597,0.05263112485408783,-8.678903579711914
1.7294935701134093e+18,0.015980564057826996,0.054872363805770874,-8.661993026733398
1.7294935701224095e+18,-0.0010314895771443844,0.03681451827287674,-8.642406463623047
1.7294935701284096e+18,-0.015778612345457077,-0.0432717502117157,-8.643289566040039
1.7294935701344097e+18,-0.007011386565864086,0.06902356445789337,-8.788602828979492
1.7294935701404099e+18,0.003766458947211504,0.05755454674363136,-8.713495254516602
1.72949357014941e+18,0.06073128804564476,-0.0021690104622393847,-8.706186294555664
1.7294935701554102e+18,-0.006247015669941902,-0.019894395023584366,-8.705131530761719
1.7294935701614103e+18,-0.0667172521352768,0.049181606620550156,-8.83873176574707
1.7294935701674104e+18,-0.007789222523570061,-0.021578574553132057,-8.76135540008545
1.7294935701734106e+18,0.05899037793278694,0.026111913844943047,-8.825462341308594
1.7294935701824108e+18,0.10363870859146118,-0.018117327243089676,-8.894333839416504
1.729493570191411e+18,-0.007453626021742821,-0.05233658850193024,-8.823111534118652
1.7294935702004111e+18,0.019600657746195793,0.07306719571352005,-8.865334510803223
1.7294935702094113e+18,0.12212758511304855,-0.010462146252393723,-8.773483276367188
1.7294935702184115e+18,0.07212920486927032,0.04727437347173691,-8.87716007232666
1.7294935702274117e+18,-0.010367901995778084,0.01927231252193451,-8.891549110412598
1.729493570236412e+18,-0.03572405129671097,-0.012954439036548138,-9.04454517364502
1.729493570245412e+18,0.05398730933666229,-0.003910676576197147,-8.978032112121582
1.7294935702544123e+18,0.02452598325908184,-0.020750414580106735,-8.969128608703613
1.7294935702604124e+18,-0.004264809191226959,0.030911017209291458,-9.01851749420166
1.7294935702694126e+18,0.06850343942642212,0.0846383273601532,-8.990058898925781
1.7294935702754127e+18,0.038930363953113556,0.012954926118254662,-9.150182723999023
1.7294935702814129e+18,0.03540072962641716,-0.026585953310132027,-9.062972068786621
1.729493570290413e+18,0.03518379107117653,-0.019428322091698647,-9.125385284423828
1.7294935702964132e+18,0.06441706418991089,0.05929882824420929,-9.04403305053711
1.7294935703054134e+18,0.01951798051595688,-0.031633369624614716,-9.172282218933105
1.7294935703144136e+18,0.06945860385894775,-0.0825016126036644,-9.146174430847168
1.7294935703234138e+18,0.050813209265470505,-0.0002886117435991764,-9.177968978881836
1.729493570332414e+18,-0.0016627609729766846,0.06989222764968872,-9.212759971618652
1.7294935703414141e+18,-0.03812163323163986,-0.009787051938474178,-9.26669979095459
1.7294935703504143e+18,0.06199019402265549,-0.005405876319855452,-9.27984619140625
1.7294935703594145e+18,0.03606090322136879,0.09239961206912994,-9.17913818359375
1.7294935703654147e+18,0.050279077142477036,-0.009887868538498878,-9.287878036499023
1.7294935703744148e+18,-0.028840862214565277,-0.06332706660032272,-9.230891227722168
1.729493570380415e+18,0.02968347817659378,0.030732549726963043,-9.295198440551758
1.729493570386415e+18,0.07380352914333344,0.04267683997750282,-9.326033592224121
1.7294935703924152e+18,-0.02507661283016205,0.022310085594654083,-9.276100158691406
1.7294935703984154e+18,0.05954008549451828,0.025828085839748383,-9.31643295288086
